"view_history","rt","trial_type","trial_index","time_elapsed","internal_node_id","subject","stimulus_type","trial_stimulus","key_press","minimum_viewing_duration","trial_looking_time","block_deviant","block_background","exposure_type","stimulus","block_number","block_type","stimulus_displayed","responses","question_order","math_correct_answer","stimulus_left","stimulus_right"
"[{""page_index"":0,""viewing_time"":7091.350000118837}]","7091.574999969453","instructions","0","7092","0.0-0.0","SS1618365242684","","","","","","","","","","","","","","","","",""
"[{""page_index"":0,""viewing_time"":11786.619999911636},{""page_index"":1,""viewing_time"":5720.27499997057}]","17507.190000033006","instructions","1","26616","0.0-1.0","SS1618365242684","instructions","","","","","","","","","","","","","","","",""
"","5878.419999964535","sequential-stimulus-presentation-old","2","32997","0.0-2.0","SS1618365242684","","","40","500","6378.419999964535","null","null","self_paced","","","","","","","","",""
"","3688.4500000160187","sequential-stimulus-presentation-old","3","37189","0.0-3.0","SS1618365242684","","","40","500","4188.450000016019","null","null","self_paced","","","","","","","","",""
"[{""page_index"":0,""viewing_time"":15939.375000074506}]","15939.754999941215","instructions","4","53129","0.0-4.0","SS1618365242684","instructions","","","","","","","","","","","","","","","",""
"","5625.854999991134","sequential-stimulus-presentation-old","5","63757","0.0-5.0","SS1618365242684","","","40","500","6125.854999991134","null","null","forced_long","","","","","","","","",""
"","4950.925000011921","sequential-stimulus-presentation-old","6","68761","0.0-6.0","SS1618365242684","","","40","50","5000.925000011921","null","null","forced_long","","","","","","","","",""
"[{""page_index"":0,""viewing_time"":4774.780000094324}]","4775.059999898076","instructions","7","73537","0.0-7.0","SS1618365242684","instructions","","","","","","","","","","","","","","","",""
"[{""page_index"":0,""viewing_time"":9123.164999997243},{""page_index"":1,""viewing_time"":11632.054999936372},{""page_index"":2,""viewing_time"":5683.530000038445},{""page_index"":3,""viewing_time"":1360.2650000248104},{""page_index"":4,""viewing_time"":1140.0599998887628}]","28939.399999799207","instructions","8","102477","0.0-8.0","SS1618365242684","instructions","","","","","","","","","","","","","","","",""
"","null","html-keyboard-response","9","103441","0.0-9.0-0.0","SS1618365242684","","","null","","","","","","<p><img src= images/blank.png width =""600"" height = ""600"" style=""position:fixed;top:50%; left:50%; transform: translate(-50%, -50%); border:5px solid black"">","","","","","","","",""
"","2423.4899999573827","sequential-stimulus-presentation-old","10","105917","0.0-9.0-1.0","SS1618365242684","trial","","40","500","2923.4899999573827","images/stimuli/spore_stims/simple_13_A_b.gif","images/stimuli/spore_stims/simple_08_A_a.gif","forced_short","","0","simple_dissimilar","images/stimuli/spore_stims/simple_08_A_a.gif","","","","",""
"","null","html-keyboard-response","11","106827","0.0-9.0-0.1","SS1618365242684","","","null","","","","","","<p><img src= images/blank.png width =""600"" height = ""600"" style=""position:fixed;top:50%; left:50%; transform: translate(-50%, -50%); border:5px solid black"">","","","","","","","",""
"","4551.035000011325","sequential-stimulus-presentation-old","12","111880","0.0-9.0-1.1","SS1618365242684","trial","","40","500","5051.035000011325","images/stimuli/spore_stims/simple_13_A_b.gif","images/stimuli/spore_stims/simple_08_A_a.gif","forced_short","","0","simple_dissimilar","images/stimuli/spore_stims/simple_08_A_a.gif","","","","",""
"","null","html-keyboard-response","13","112838","0.0-9.0-0.2","SS1618365242684","","","null","","","","","","<p><img src= images/blank.png width =""600"" height = ""600"" style=""position:fixed;top:50%; left:50%; transform: translate(-50%, -50%); border:5px solid black"">","","","","","","","",""
"","3527.869999874383","sequential-stimulus-presentation-old","14","116868","0.0-9.0-1.2","SS1618365242684","trial","","40","500","4027.869999874383","images/stimuli/spore_stims/simple_13_A_b.gif","images/stimuli/spore_stims/simple_08_A_a.gif","forced_short","","0","simple_dissimilar","images/stimuli/spore_stims/simple_13_A_b.gif","","","","",""
"","null","html-keyboard-response","15","117796","0.0-9.0-0.3","SS1618365242684","","","null","","","","","","<p><img src= images/blank.png width =""600"" height = ""600"" style=""position:fixed;top:50%; left:50%; transform: translate(-50%, -50%); border:5px solid black"">","","","","","","","",""
"","5229.715000139549","sequential-stimulus-presentation-old","16","123528","0.0-9.0-1.3","SS1618365242684","trial","","40","500","5729.715000139549","images/stimuli/spore_stims/simple_13_A_b.gif","images/stimuli/spore_stims/simple_08_A_a.gif","forced_short","","0","simple_dissimilar","images/stimuli/spore_stims/simple_13_A_b.gif","","","","",""
"","4270.900000119582","survey-multi-choice","17","127801","0.0-10.0","SS1618365242684","math_question","","","","","","","","","","","","{""Q0"":""14""}","[0]","14","",""
"","null","html-keyboard-response","18","129069","0.0-11.0-0.0","SS1618365242684","","","null","","","","","","<p><img src= images/blank.png width =""600"" height = ""600"" style=""position:fixed;top:50%; left:50%; transform: translate(-50%, -50%); border:5px solid black"">","","","","","","","",""
"","1733.0999998375773","sequential-stimulus-presentation-old","19","130856","0.0-11.0-1.0","SS1618365242684","trial","","40","500","2233.0999998375773","images/stimuli/spore_stims/complex_06_A_a.gif","images/stimuli/spore_stims/complex_14_A_b.gif","forced_short","","1","complex_dissimilar","images/stimuli/spore_stims/complex_14_A_b.gif","","","","",""
"","null","html-keyboard-response","20","131697","0.0-11.0-0.1","SS1618365242684","","","null","","","","","","<p><img src= images/blank.png width =""600"" height = ""600"" style=""position:fixed;top:50%; left:50%; transform: translate(-50%, -50%); border:5px solid black"">","","","","","","","",""
"","5557.54499998875","sequential-stimulus-presentation-old","21","137757","0.0-11.0-1.1","SS1618365242684","trial","","40","500","6057.54499998875","images/stimuli/spore_stims/complex_06_A_a.gif","images/stimuli/spore_stims/complex_14_A_b.gif","forced_short","","1","complex_dissimilar","images/stimuli/spore_stims/complex_06_A_a.gif","","","","",""
"","null","html-keyboard-response","22","139047","0.0-11.0-0.2","SS1618365242684","","","null","","","","","","<p><img src= images/blank.png width =""600"" height = ""600"" style=""position:fixed;top:50%; left:50%; transform: translate(-50%, -50%); border:5px solid black"">","","","","","","","",""
"","5617.480000015348","sequential-stimulus-presentation-old","23","145168","0.0-11.0-1.2","SS1618365242684","trial","","40","500","6117.480000015348","images/stimuli/spore_stims/complex_06_A_a.gif","images/stimuli/spore_stims/complex_14_A_b.gif","forced_short","","1","complex_dissimilar","images/stimuli/spore_stims/complex_14_A_b.gif","","","","",""
"","null","html-keyboard-response","24","146309","0.0-11.0-0.3","SS1618365242684","","","null","","","","","","<p><img src= images/blank.png width =""600"" height = ""600"" style=""position:fixed;top:50%; left:50%; transform: translate(-50%, -50%); border:5px solid black"">","","","","","","","",""
"","4337.390000000596","sequential-stimulus-presentation-old","25","151148","0.0-11.0-1.3","SS1618365242684","trial","","40","500","4837.390000000596","images/stimuli/spore_stims/complex_06_A_a.gif","images/stimuli/spore_stims/complex_14_A_b.gif","forced_short","","1","complex_dissimilar","images/stimuli/spore_stims/complex_14_A_b.gif","","","","",""
"","null","html-keyboard-response","26","151981","0.0-11.0-0.4","SS1618365242684","","","null","","","","","","<p><img src= images/blank.png width =""600"" height = ""600"" style=""position:fixed;top:50%; left:50%; transform: translate(-50%, -50%); border:5px solid black"">","","","","","","","",""
"","4556.7650001030415","sequential-stimulus-presentation-old","27","157040","0.0-11.0-1.4","SS1618365242684","trial","","40","500","5056.7650001030415","images/stimuli/spore_stims/complex_06_A_a.gif","images/stimuli/spore_stims/complex_14_A_b.gif","forced_short","","1","complex_dissimilar","images/stimuli/spore_stims/complex_14_A_b.gif","","","","",""
"","null","html-keyboard-response","28","158190","0.0-11.0-0.5","SS1618365242684","","","null","","","","","","<p><img src= images/blank.png width =""600"" height = ""600"" style=""position:fixed;top:50%; left:50%; transform: translate(-50%, -50%); border:5px solid black"">","","","","","","","",""
"","5075.480000115931","sequential-stimulus-presentation-old","29","163768","0.0-11.0-1.5","SS1618365242684","trial","","40","500","5575.480000115931","images/stimuli/spore_stims/complex_06_A_a.gif","images/stimuli/spore_stims/complex_14_A_b.gif","forced_short","","1","complex_dissimilar","images/stimuli/spore_stims/complex_14_A_b.gif","","","","",""
"","3590.7250000163913","survey-multi-choice","30","167360","0.0-12.0","SS1618365242684","math_question","","","","","","","","","","","","{""Q0"":""10""}","[0]","10","",""
"","null","html-keyboard-response","31","168227","0.0-13.0-0.0","SS1618365242684","","","null","","","","","","<p><img src= images/blank.png width =""600"" height = ""600"" style=""position:fixed;top:50%; left:50%; transform: translate(-50%, -50%); border:5px solid black"">","","","","","","","",""
"","3591.240000212565","sequential-stimulus-presentation-old","32","176821","0.0-13.0-1.0","SS1618365242684","trial","","40","500","4091.240000212565","images/stimuli/spore_stims/complex_13_A_a.gif","images/stimuli/spore_stims/complex_07_A_b.gif","forced_long","","2","complex_dissimilar","images/stimuli/spore_stims/complex_07_A_b.gif","","","","",""
"","null","html-keyboard-response","33","178093","0.0-13.0-0.1","SS1618365242684","","","null","","","","","","<p><img src= images/blank.png width =""600"" height = ""600"" style=""position:fixed;top:50%; left:50%; transform: translate(-50%, -50%); border:5px solid black"">","","","","","","","",""
"","5592.50000002794","sequential-stimulus-presentation-old","34","184188","0.0-13.0-1.1","SS1618365242684","trial","","40","500","6092.50000002794","images/stimuli/spore_stims/complex_13_A_a.gif","images/stimuli/spore_stims/complex_07_A_b.gif","forced_long","","2","complex_dissimilar","images/stimuli/spore_stims/complex_07_A_b.gif","","","","",""
"","null","html-keyboard-response","35","185030","0.0-13.0-0.2","SS1618365242684","","","null","","","","","","<p><img src= images/blank.png width =""600"" height = ""600"" style=""position:fixed;top:50%; left:50%; transform: translate(-50%, -50%); border:5px solid black"">","","","","","","","",""
"","5267.254999838769","sequential-stimulus-presentation-old","36","190800","0.0-13.0-1.2","SS1618365242684","trial","","40","500","5767.254999838769","images/stimuli/spore_stims/complex_13_A_a.gif","images/stimuli/spore_stims/complex_07_A_b.gif","forced_long","","2","complex_dissimilar","images/stimuli/spore_stims/complex_07_A_b.gif","","","","",""
"","null","html-keyboard-response","37","191724","0.0-13.0-0.3","SS1618365242684","","","null","","","","","","<p><img src= images/blank.png width =""600"" height = ""600"" style=""position:fixed;top:50%; left:50%; transform: translate(-50%, -50%); border:5px solid black"">","","","","","","","",""
"","4565.685000037774","sequential-stimulus-presentation-old","38","196792","0.0-13.0-1.3","SS1618365242684","trial","","40","500","5065.685000037774","images/stimuli/spore_stims/complex_13_A_a.gif","images/stimuli/spore_stims/complex_07_A_b.gif","forced_long","","2","complex_dissimilar","images/stimuli/spore_stims/complex_07_A_b.gif","","","","",""
"","null","html-keyboard-response","39","197607","0.0-13.0-0.4","SS1618365242684","","","null","","","","","","<p><img src= images/blank.png width =""600"" height = ""600"" style=""position:fixed;top:50%; left:50%; transform: translate(-50%, -50%); border:5px solid black"">","","","","","","","",""
"","5758.6799999699","sequential-stimulus-presentation-old","40","203868","0.0-13.0-1.4","SS1618365242684","trial","","40","500","6258.6799999699","images/stimuli/spore_stims/complex_13_A_a.gif","images/stimuli/spore_stims/complex_07_A_b.gif","forced_long","","2","complex_dissimilar","images/stimuli/spore_stims/complex_13_A_a.gif","","","","",""
"","3106.8750000558794","survey-multi-choice","41","206976","0.0-14.0","SS1618365242684","math_question","","","","","","","","","","","","{""Q0"":""5""}","[0]","5","",""
"","null","html-keyboard-response","42","207800","0.0-15.0-0.0","SS1618365242684","","","null","","","","","","<p><img src= images/blank.png width =""600"" height = ""600"" style=""position:fixed;top:50%; left:50%; transform: translate(-50%, -50%); border:5px solid black"">","","","","","","","",""
"","342.8350000176579","sequential-stimulus-presentation-old","43","213145","0.0-15.0-1.0","SS1618365242684","trial","","40","500","842.8350000176579","images/stimuli/spore_stims/simple_16_A_a.gif","images/stimuli/spore_stims/simple_06_A_b.gif","forced_long","","3","simple_dissimilar","images/stimuli/spore_stims/simple_06_A_b.gif","","","","",""
"","null","html-keyboard-response","44","214395","0.0-15.0-0.1","SS1618365242684","","","null","","","","","","<p><img src= images/blank.png width =""600"" height = ""600"" style=""position:fixed;top:50%; left:50%; transform: translate(-50%, -50%); border:5px solid black"">","","","","","","","",""
"","1803.0099999159575","sequential-stimulus-presentation-old","45","216700","0.0-15.0-1.1","SS1618365242684","trial","","40","500","2303.0099999159575","images/stimuli/spore_stims/simple_16_A_a.gif","images/stimuli/spore_stims/simple_06_A_b.gif","forced_long","","3","simple_dissimilar","images/stimuli/spore_stims/simple_06_A_b.gif","","","","",""
"","null","html-keyboard-response","46","217619","0.0-15.0-0.2","SS1618365242684","","","null","","","","","","<p><img src= images/blank.png width =""600"" height = ""600"" style=""position:fixed;top:50%; left:50%; transform: translate(-50%, -50%); border:5px solid black"">","","","","","","","",""
"","1975.1699999906123","sequential-stimulus-presentation-old","47","220096","0.0-15.0-1.2","SS1618365242684","trial","","40","500","2475.1699999906123","images/stimuli/spore_stims/simple_16_A_a.gif","images/stimuli/spore_stims/simple_06_A_b.gif","forced_long","","3","simple_dissimilar","images/stimuli/spore_stims/simple_06_A_b.gif","","","","",""
"","null","html-keyboard-response","48","220900","0.0-15.0-0.3","SS1618365242684","","","null","","","","","","<p><img src= images/blank.png width =""600"" height = ""600"" style=""position:fixed;top:50%; left:50%; transform: translate(-50%, -50%); border:5px solid black"">","","","","","","","",""
"","1957.6650001108646","sequential-stimulus-presentation-old","49","223360","0.0-15.0-1.3","SS1618365242684","trial","","40","500","2457.6650001108646","images/stimuli/spore_stims/simple_16_A_a.gif","images/stimuli/spore_stims/simple_06_A_b.gif","forced_long","","3","simple_dissimilar","images/stimuli/spore_stims/simple_06_A_b.gif","","","","",""
"","3478.7900000810623","survey-multi-choice","50","226840","0.0-16.0","SS1618365242684","math_question","","","","","","","","","","","","{""Q0"":""7""}","[0]","7","",""
"","null","html-keyboard-response","51","227866","0.0-17.0-0.0","SS1618365242684","","","null","","","","","","<p><img src= images/blank.png width =""600"" height = ""600"" style=""position:fixed;top:50%; left:50%; transform: translate(-50%, -50%); border:5px solid black"">","","","","","","","",""
"","4054.844999918714","sequential-stimulus-presentation-old","52","232424","0.0-17.0-1.0","SS1618365242684","trial","","40","500","4554.844999918714","images/stimuli/spore_stims/complex_13_A_b.gif","images/stimuli/spore_stims/complex_04_A_a.gif","self_paced","","4","complex_dissimilar","images/stimuli/spore_stims/complex_04_A_a.gif","","","","",""
"","null","html-keyboard-response","53","233634","0.0-17.0-0.1","SS1618365242684","","","null","","","","","","<p><img src= images/blank.png width =""600"" height = ""600"" style=""position:fixed;top:50%; left:50%; transform: translate(-50%, -50%); border:5px solid black"">","","","","","","","",""
"","3056.2649997882545","sequential-stimulus-presentation-old","54","237193","0.0-17.0-1.1","SS1618365242684","trial","","40","500","3556.2649997882545","images/stimuli/spore_stims/complex_13_A_b.gif","images/stimuli/spore_stims/complex_04_A_a.gif","self_paced","","4","complex_dissimilar","images/stimuli/spore_stims/complex_04_A_a.gif","","","","",""
"","null","html-keyboard-response","55","238395","0.0-17.0-0.2","SS1618365242684","","","null","","","","","","<p><img src= images/blank.png width =""600"" height = ""600"" style=""position:fixed;top:50%; left:50%; transform: translate(-50%, -50%); border:5px solid black"">","","","","","","","",""
"","3267.449999926612","sequential-stimulus-presentation-old","56","242164","0.0-17.0-1.2","SS1618365242684","trial","","40","500","3767.449999926612","images/stimuli/spore_stims/complex_13_A_b.gif","images/stimuli/spore_stims/complex_04_A_a.gif","self_paced","","4","complex_dissimilar","images/stimuli/spore_stims/complex_04_A_a.gif","","","","",""
"","null","html-keyboard-response","57","243211","0.0-17.0-0.3","SS1618365242684","","","null","","","","","","<p><img src= images/blank.png width =""600"" height = ""600"" style=""position:fixed;top:50%; left:50%; transform: translate(-50%, -50%); border:5px solid black"">","","","","","","","",""
"","2887.085000053048","sequential-stimulus-presentation-old","58","246600","0.0-17.0-1.3","SS1618365242684","trial","","40","500","3387.085000053048","images/stimuli/spore_stims/complex_13_A_b.gif","images/stimuli/spore_stims/complex_04_A_a.gif","self_paced","","4","complex_dissimilar","images/stimuli/spore_stims/complex_04_A_a.gif","","","","",""
"","null","html-keyboard-response","59","247800","0.0-17.0-0.4","SS1618365242684","","","null","","","","","","<p><img src= images/blank.png width =""600"" height = ""600"" style=""position:fixed;top:50%; left:50%; transform: translate(-50%, -50%); border:5px solid black"">","","","","","","","",""
"","3251.1100000701845","sequential-stimulus-presentation-old","60","251553","0.0-17.0-1.4","SS1618365242684","trial","","40","500","3751.1100000701845","images/stimuli/spore_stims/complex_13_A_b.gif","images/stimuli/spore_stims/complex_04_A_a.gif","self_paced","","4","complex_dissimilar","images/stimuli/spore_stims/complex_04_A_a.gif","","","","",""
"","3530.650000087917","survey-multi-choice","61","255085","0.0-18.0","SS1618365242684","math_question","","","","","","","","","","","","{""Q0"":""14""}","[0]","14","",""
"","null","html-keyboard-response","62","255990","0.0-19.0-0.0","SS1618365242684","","","null","","","","","","<p><img src= images/blank.png width =""600"" height = ""600"" style=""position:fixed;top:50%; left:50%; transform: translate(-50%, -50%); border:5px solid black"">","","","","","","","",""
"","322.2050000913441","sequential-stimulus-presentation-old","63","261316","0.0-19.0-1.0","SS1618365242684","trial","","40","500","822.2050000913441","images/stimuli/spore_stims/simple_15_A_a.gif","images/stimuli/spore_stims/simple_19_A_b.gif","forced_long","","5","simple_dissimilar","images/stimuli/spore_stims/simple_19_A_b.gif","","","","",""
"","null","html-keyboard-response","64","262391","0.0-19.0-0.1","SS1618365242684","","","null","","","","","","<p><img src= images/blank.png width =""600"" height = ""600"" style=""position:fixed;top:50%; left:50%; transform: translate(-50%, -50%); border:5px solid black"">","","","","","","","",""
"","2611.4000000525266","sequential-stimulus-presentation-old","65","265505","0.0-19.0-1.1","SS1618365242684","trial","","40","500","3111.4000000525266","images/stimuli/spore_stims/simple_15_A_a.gif","images/stimuli/spore_stims/simple_19_A_b.gif","forced_long","","5","simple_dissimilar","images/stimuli/spore_stims/simple_19_A_b.gif","","","","",""
"","null","html-keyboard-response","66","266602","0.0-19.0-0.2","SS1618365242684","","","null","","","","","","<p><img src= images/blank.png width =""600"" height = ""600"" style=""position:fixed;top:50%; left:50%; transform: translate(-50%, -50%); border:5px solid black"">","","","","","","","",""
"","1346.519999904558","sequential-stimulus-presentation-old","67","268452","0.0-19.0-1.2","SS1618365242684","trial","","40","500","1846.519999904558","images/stimuli/spore_stims/simple_15_A_a.gif","images/stimuli/spore_stims/simple_19_A_b.gif","forced_long","","5","simple_dissimilar","images/stimuli/spore_stims/simple_15_A_a.gif","","","","",""
"","null","html-keyboard-response","68","269302","0.0-19.0-0.3","SS1618365242684","","","null","","","","","","<p><img src= images/blank.png width =""600"" height = ""600"" style=""position:fixed;top:50%; left:50%; transform: translate(-50%, -50%); border:5px solid black"">","","","","","","","",""
"","1953.9900000672787","sequential-stimulus-presentation-old","69","271760","0.0-19.0-1.3","SS1618365242684","trial","","40","500","2453.9900000672787","images/stimuli/spore_stims/simple_15_A_a.gif","images/stimuli/spore_stims/simple_19_A_b.gif","forced_long","","5","simple_dissimilar","images/stimuli/spore_stims/simple_19_A_b.gif","","","","",""
"","null","html-keyboard-response","70","272829","0.0-19.0-0.4","SS1618365242684","","","null","","","","","","<p><img src= images/blank.png width =""600"" height = ""600"" style=""position:fixed;top:50%; left:50%; transform: translate(-50%, -50%); border:5px solid black"">","","","","","","","",""
"","993.4699998702854","sequential-stimulus-presentation-old","71","274324","0.0-19.0-1.4","SS1618365242684","trial","","40","500","1493.4699998702854","images/stimuli/spore_stims/simple_15_A_a.gif","images/stimuli/spore_stims/simple_19_A_b.gif","forced_long","","5","simple_dissimilar","images/stimuli/spore_stims/simple_19_A_b.gif","","","","",""
"","null","html-keyboard-response","72","275477","0.0-19.0-0.5","SS1618365242684","","","null","","","","","","<p><img src= images/blank.png width =""600"" height = ""600"" style=""position:fixed;top:50%; left:50%; transform: translate(-50%, -50%); border:5px solid black"">","","","","","","","",""
"","536.3499999511987","sequential-stimulus-presentation-old","73","276517","0.0-19.0-1.5","SS1618365242684","trial","","40","500","1036.3499999511987","images/stimuli/spore_stims/simple_15_A_a.gif","images/stimuli/spore_stims/simple_19_A_b.gif","forced_long","","5","simple_dissimilar","images/stimuli/spore_stims/simple_19_A_b.gif","","","","",""
"","2942.1500000171363","survey-multi-choice","74","279460","0.0-20.0","SS1618365242684","math_question","","","","","","","","","","","","{""Q0"":""9""}","[0]","9","",""
"","null","html-keyboard-response","75","280464","0.0-21.0-0.0","SS1618365242684","","","null","","","","","","<p><img src= images/blank.png width =""600"" height = ""600"" style=""position:fixed;top:50%; left:50%; transform: translate(-50%, -50%); border:5px solid black"">","","","","","","","",""
"","785.7500000391155","sequential-stimulus-presentation-old","76","286253","0.0-21.0-1.0","SS1618365242684","trial","","40","500","1285.7500000391155","images/stimuli/spore_stims/complex_15_A_b.gif","images/stimuli/spore_stims/complex_16_A_a.gif","forced_long","","6","complex_dissimilar","images/stimuli/spore_stims/complex_16_A_a.gif","","","","",""
"","null","html-keyboard-response","77","287542","0.0-21.0-0.1","SS1618365242684","","","null","","","","","","<p><img src= images/blank.png width =""600"" height = ""600"" style=""position:fixed;top:50%; left:50%; transform: translate(-50%, -50%); border:5px solid black"">","","","","","","","",""
"","4412.30500000529","sequential-stimulus-presentation-old","78","292457","0.0-21.0-1.1","SS1618365242684","trial","","40","500","4912.30500000529","images/stimuli/spore_stims/complex_15_A_b.gif","images/stimuli/spore_stims/complex_16_A_a.gif","forced_long","","6","complex_dissimilar","images/stimuli/spore_stims/complex_16_A_a.gif","","","","",""
"","null","html-keyboard-response","79","293489","0.0-21.0-0.2","SS1618365242684","","","null","","","","","","<p><img src= images/blank.png width =""600"" height = ""600"" style=""position:fixed;top:50%; left:50%; transform: translate(-50%, -50%); border:5px solid black"">","","","","","","","",""
"","3028.099999995902","sequential-stimulus-presentation-old","80","297020","0.0-21.0-1.2","SS1618365242684","trial","","40","500","3528.099999995902","images/stimuli/spore_stims/complex_15_A_b.gif","images/stimuli/spore_stims/complex_16_A_a.gif","forced_long","","6","complex_dissimilar","images/stimuli/spore_stims/complex_16_A_a.gif","","","","",""
"","null","html-keyboard-response","81","297892","0.0-21.0-0.3","SS1618365242684","","","null","","","","","","<p><img src= images/blank.png width =""600"" height = ""600"" style=""position:fixed;top:50%; left:50%; transform: translate(-50%, -50%); border:5px solid black"">","","","","","","","",""
"","2199.925000080839","sequential-stimulus-presentation-old","82","300595","0.0-21.0-1.3","SS1618365242684","trial","","40","500","2699.925000080839","images/stimuli/spore_stims/complex_15_A_b.gif","images/stimuli/spore_stims/complex_16_A_a.gif","forced_long","","6","complex_dissimilar","images/stimuli/spore_stims/complex_16_A_a.gif","","","","",""
"","3379.380000056699","survey-multi-choice","83","303976","0.0-22.0","SS1618365242684","math_question","","","","","","","","","","","","{""Q0"":""7""}","[0]","7","",""
"","null","html-keyboard-response","84","305017","0.0-23.0-0.0","SS1618365242684","","","null","","","","","","<p><img src= images/blank.png width =""600"" height = ""600"" style=""position:fixed;top:50%; left:50%; transform: translate(-50%, -50%); border:5px solid black"">","","","","","","","",""
"","1473.299999954179","sequential-stimulus-presentation-old","85","306544","0.0-23.0-1.0","SS1618365242684","trial","","40","500","1973.299999954179","images/stimuli/spore_stims/simple_13_A_a.gif","images/stimuli/spore_stims/simple_07_A_b.gif","forced_short","","7","simple_dissimilar","images/stimuli/spore_stims/simple_07_A_b.gif","","","","",""
"","null","html-keyboard-response","86","307829","0.0-23.0-0.1","SS1618365242684","","","null","","","","","","<p><img src= images/blank.png width =""600"" height = ""600"" style=""position:fixed;top:50%; left:50%; transform: translate(-50%, -50%); border:5px solid black"">","","","","","","","",""
"","2804.4050000607967","sequential-stimulus-presentation-old","87","311136","0.0-23.0-1.1","SS1618365242684","trial","","40","500","3304.4050000607967","images/stimuli/spore_stims/simple_13_A_a.gif","images/stimuli/spore_stims/simple_07_A_b.gif","forced_short","","7","simple_dissimilar","images/stimuli/spore_stims/simple_07_A_b.gif","","","","",""
"","null","html-keyboard-response","88","312324","0.0-23.0-0.2","SS1618365242684","","","null","","","","","","<p><img src= images/blank.png width =""600"" height = ""600"" style=""position:fixed;top:50%; left:50%; transform: translate(-50%, -50%); border:5px solid black"">","","","","","","","",""
"","1024.9900000635535","sequential-stimulus-presentation-old","89","313852","0.0-23.0-1.2","SS1618365242684","trial","","40","500","1524.9900000635535","images/stimuli/spore_stims/simple_13_A_a.gif","images/stimuli/spore_stims/simple_07_A_b.gif","forced_short","","7","simple_dissimilar","images/stimuli/spore_stims/simple_07_A_b.gif","","","","",""
"","null","html-keyboard-response","90","315050","0.0-23.0-0.3","SS1618365242684","","","null","","","","","","<p><img src= images/blank.png width =""600"" height = ""600"" style=""position:fixed;top:50%; left:50%; transform: translate(-50%, -50%); border:5px solid black"">","","","","","","","",""
"","1667.8400000091642","sequential-stimulus-presentation-old","91","317220","0.0-23.0-1.3","SS1618365242684","trial","","40","500","2167.840000009164","images/stimuli/spore_stims/simple_13_A_a.gif","images/stimuli/spore_stims/simple_07_A_b.gif","forced_short","","7","simple_dissimilar","images/stimuli/spore_stims/simple_07_A_b.gif","","","","",""
"","null","html-keyboard-response","92","318350","0.0-23.0-0.4","SS1618365242684","","","null","","","","","","<p><img src= images/blank.png width =""600"" height = ""600"" style=""position:fixed;top:50%; left:50%; transform: translate(-50%, -50%); border:5px solid black"">","","","","","","","",""
"","1726.8299998249859","sequential-stimulus-presentation-old","93","320580","0.0-23.0-1.4","SS1618365242684","trial","","40","500","2226.829999824986","images/stimuli/spore_stims/simple_13_A_a.gif","images/stimuli/spore_stims/simple_07_A_b.gif","forced_short","","7","simple_dissimilar","images/stimuli/spore_stims/simple_07_A_b.gif","","","","",""
"","2842.5750001333654","survey-multi-choice","94","323424","0.0-24.0","SS1618365242684","math_question","","","","","","","","","","","","{""Q0"":""4""}","[0]","4","",""
"","null","html-keyboard-response","95","324256","0.0-25.0-0.0","SS1618365242684","","","null","","","","","","<p><img src= images/blank.png width =""600"" height = ""600"" style=""position:fixed;top:50%; left:50%; transform: translate(-50%, -50%); border:5px solid black"">","","","","","","","",""
"","5345.54999996908","sequential-stimulus-presentation-old","96","330105","0.0-25.0-1.0","SS1618365242684","trial","","40","500","5845.54999996908","images/stimuli/spore_stims/complex_14_A_a.gif","images/stimuli/spore_stims/complex_20_A_b.gif","self_paced","","8","complex_dissimilar","images/stimuli/spore_stims/complex_20_A_b.gif","","","","",""
"","null","html-keyboard-response","97","331336","0.0-25.0-0.1","SS1618365242684","","","null","","","","","","<p><img src= images/blank.png width =""600"" height = ""600"" style=""position:fixed;top:50%; left:50%; transform: translate(-50%, -50%); border:5px solid black"">","","","","","","","",""
"","3474.204999860376","sequential-stimulus-presentation-old","98","335312","0.0-25.0-1.1","SS1618365242684","trial","","40","500","3974.204999860376","images/stimuli/spore_stims/complex_14_A_a.gif","images/stimuli/spore_stims/complex_20_A_b.gif","self_paced","","8","complex_dissimilar","images/stimuli/spore_stims/complex_20_A_b.gif","","","","",""
"","null","html-keyboard-response","99","336310","0.0-25.0-0.2","SS1618365242684","","","null","","","","","","<p><img src= images/blank.png width =""600"" height = ""600"" style=""position:fixed;top:50%; left:50%; transform: translate(-50%, -50%); border:5px solid black"">","","","","","","","",""
"","3887.2199999168515","sequential-stimulus-presentation-old","100","340700","0.0-25.0-1.2","SS1618365242684","trial","","40","500","4387.2199999168515","images/stimuli/spore_stims/complex_14_A_a.gif","images/stimuli/spore_stims/complex_20_A_b.gif","self_paced","","8","complex_dissimilar","images/stimuli/spore_stims/complex_20_A_b.gif","","","","",""
"","null","html-keyboard-response","101","341596","0.0-25.0-0.3","SS1618365242684","","","null","","","","","","<p><img src= images/blank.png width =""600"" height = ""600"" style=""position:fixed;top:50%; left:50%; transform: translate(-50%, -50%); border:5px solid black"">","","","","","","","",""
"","1393.8349999953061","sequential-stimulus-presentation-old","102","343492","0.0-25.0-1.3","SS1618365242684","trial","","40","500","1893.8349999953061","images/stimuli/spore_stims/complex_14_A_a.gif","images/stimuli/spore_stims/complex_20_A_b.gif","self_paced","","8","complex_dissimilar","images/stimuli/spore_stims/complex_20_A_b.gif","","","","",""
"","null","html-keyboard-response","103","344612","0.0-25.0-0.4","SS1618365242684","","","null","","","","","","<p><img src= images/blank.png width =""600"" height = ""600"" style=""position:fixed;top:50%; left:50%; transform: translate(-50%, -50%); border:5px solid black"">","","","","","","","",""
"","1538.0850001238286","sequential-stimulus-presentation-old","104","346652","0.0-25.0-1.4","SS1618365242684","trial","","40","500","2038.0850001238286","images/stimuli/spore_stims/complex_14_A_a.gif","images/stimuli/spore_stims/complex_20_A_b.gif","self_paced","","8","complex_dissimilar","images/stimuli/spore_stims/complex_20_A_b.gif","","","","",""
"","2734.4799998681992","survey-multi-choice","105","349388","0.0-26.0","SS1618365242684","math_question","","","","","","","","","","","","{""Q0"":""18""}","[0]","18","",""
"","null","html-keyboard-response","106","350333","0.0-27.0-0.0","SS1618365242684","","","null","","","","","","<p><img src= images/blank.png width =""600"" height = ""600"" style=""position:fixed;top:50%; left:50%; transform: translate(-50%, -50%); border:5px solid black"">","","","","","","","",""
"","1006.4550000242889","sequential-stimulus-presentation-old","107","351393","0.0-27.0-1.0","SS1618365242684","trial","","40","500","1506.455000024289","images/stimuli/spore_stims/complex_10_A_a.gif","images/stimuli/spore_stims/complex_19_A_b.gif","forced_short","","9","complex_dissimilar","images/stimuli/spore_stims/complex_19_A_b.gif","","","","",""
"","null","html-keyboard-response","108","352303","0.0-27.0-0.1","SS1618365242684","","","null","","","","","","<p><img src= images/blank.png width =""600"" height = ""600"" style=""position:fixed;top:50%; left:50%; transform: translate(-50%, -50%); border:5px solid black"">","","","","","","","",""
"","3621.874999953434","sequential-stimulus-presentation-old","109","356428","0.0-27.0-1.1","SS1618365242684","trial","","40","500","4121.874999953434","images/stimuli/spore_stims/complex_10_A_a.gif","images/stimuli/spore_stims/complex_19_A_b.gif","forced_short","","9","complex_dissimilar","images/stimuli/spore_stims/complex_19_A_b.gif","","","","",""
"","null","html-keyboard-response","110","357270","0.0-27.0-0.2","SS1618365242684","","","null","","","","","","<p><img src= images/blank.png width =""600"" height = ""600"" style=""position:fixed;top:50%; left:50%; transform: translate(-50%, -50%); border:5px solid black"">","","","","","","","",""
"","3247.5300000514835","sequential-stimulus-presentation-old","111","361020","0.0-27.0-1.2","SS1618365242684","trial","","40","500","3747.5300000514835","images/stimuli/spore_stims/complex_10_A_a.gif","images/stimuli/spore_stims/complex_19_A_b.gif","forced_short","","9","complex_dissimilar","images/stimuli/spore_stims/complex_19_A_b.gif","","","","",""
"","null","html-keyboard-response","112","362223","0.0-27.0-0.3","SS1618365242684","","","null","","","","","","<p><img src= images/blank.png width =""600"" height = ""600"" style=""position:fixed;top:50%; left:50%; transform: translate(-50%, -50%); border:5px solid black"">","","","","","","","",""
"","3786.8350001517683","sequential-stimulus-presentation-old","113","366513","0.0-27.0-1.3","SS1618365242684","trial","","40","500","4286.835000151768","images/stimuli/spore_stims/complex_10_A_a.gif","images/stimuli/spore_stims/complex_19_A_b.gif","forced_short","","9","complex_dissimilar","images/stimuli/spore_stims/complex_19_A_b.gif","","","","",""
"","2842.2600000631064","survey-multi-choice","114","369356","0.0-28.0","SS1618365242684","math_question","","","","","","","","","","","","{""Q0"":""13""}","[0]","13","",""
"","null","html-keyboard-response","115","370433","0.0-29.0-0.0","SS1618365242684","","","null","","","","","","<p><img src= images/blank.png width =""600"" height = ""600"" style=""position:fixed;top:50%; left:50%; transform: translate(-50%, -50%); border:5px solid black"">","","","","","","","",""
"","2395.679999841377","sequential-stimulus-presentation-old","116","373332","0.0-29.0-1.0","SS1618365242684","trial","","40","500","2895.679999841377","images/stimuli/spore_stims/simple_04_A_a.gif","images/stimuli/spore_stims/simple_09_A_b.gif","self_paced","","10","simple_dissimilar","images/stimuli/spore_stims/simple_09_A_b.gif","","","","",""
"","null","html-keyboard-response","117","374446","0.0-29.0-0.1","SS1618365242684","","","null","","","","","","<p><img src= images/blank.png width =""600"" height = ""600"" style=""position:fixed;top:50%; left:50%; transform: translate(-50%, -50%); border:5px solid black"">","","","","","","","",""
"","2407.3600000701845","sequential-stimulus-presentation-old","118","377357","0.0-29.0-1.1","SS1618365242684","trial","","40","500","2907.3600000701845","images/stimuli/spore_stims/simple_04_A_a.gif","images/stimuli/spore_stims/simple_09_A_b.gif","self_paced","","10","simple_dissimilar","images/stimuli/spore_stims/simple_04_A_a.gif","","","","",""
"","null","html-keyboard-response","119","378173","0.0-29.0-0.2","SS1618365242684","","","null","","","","","","<p><img src= images/blank.png width =""600"" height = ""600"" style=""position:fixed;top:50%; left:50%; transform: translate(-50%, -50%); border:5px solid black"">","","","","","","","",""
"","2093.099999940023","sequential-stimulus-presentation-old","120","380768","0.0-29.0-1.2","SS1618365242684","trial","","40","500","2593.099999940023","images/stimuli/spore_stims/simple_04_A_a.gif","images/stimuli/spore_stims/simple_09_A_b.gif","self_paced","","10","simple_dissimilar","images/stimuli/spore_stims/simple_09_A_b.gif","","","","",""
"","null","html-keyboard-response","121","381836","0.0-29.0-0.3","SS1618365242684","","","null","","","","","","<p><img src= images/blank.png width =""600"" height = ""600"" style=""position:fixed;top:50%; left:50%; transform: translate(-50%, -50%); border:5px solid black"">","","","","","","","",""
"","2573.1900001410395","sequential-stimulus-presentation-old","122","384912","0.0-29.0-1.3","SS1618365242684","trial","","40","500","3073.1900001410395","images/stimuli/spore_stims/simple_04_A_a.gif","images/stimuli/spore_stims/simple_09_A_b.gif","self_paced","","10","simple_dissimilar","images/stimuli/spore_stims/simple_09_A_b.gif","","","","",""
"","null","html-keyboard-response","123","385984","0.0-29.0-0.4","SS1618365242684","","","null","","","","","","<p><img src= images/blank.png width =""600"" height = ""600"" style=""position:fixed;top:50%; left:50%; transform: translate(-50%, -50%); border:5px solid black"">","","","","","","","",""
"","2302.089999895543","sequential-stimulus-presentation-old","124","388789","0.0-29.0-1.4","SS1618365242684","trial","","40","500","2802.089999895543","images/stimuli/spore_stims/simple_04_A_a.gif","images/stimuli/spore_stims/simple_09_A_b.gif","self_paced","","10","simple_dissimilar","images/stimuli/spore_stims/simple_09_A_b.gif","","","","",""
"","null","html-keyboard-response","125","390052","0.0-29.0-0.5","SS1618365242684","","","null","","","","","","<p><img src= images/blank.png width =""600"" height = ""600"" style=""position:fixed;top:50%; left:50%; transform: translate(-50%, -50%); border:5px solid black"">","","","","","","","",""
"","2072.6550000254065","sequential-stimulus-presentation-old","126","392628","0.0-29.0-1.5","SS1618365242684","trial","","40","500","2572.6550000254065","images/stimuli/spore_stims/simple_04_A_a.gif","images/stimuli/spore_stims/simple_09_A_b.gif","self_paced","","10","simple_dissimilar","images/stimuli/spore_stims/simple_04_A_a.gif","","","","",""
"","2950.3500000573695","survey-multi-choice","127","395581","0.0-30.0","SS1618365242684","math_question","","","","","","","","","","","","{""Q0"":""5""}","[0]","5","",""
"","null","html-keyboard-response","128","396427","0.0-31.0-0.0","SS1618365242684","","","null","","","","","","<p><img src= images/blank.png width =""600"" height = ""600"" style=""position:fixed;top:50%; left:50%; transform: translate(-50%, -50%); border:5px solid black"">","","","","","","","",""
"","3394.5250001270324","sequential-stimulus-presentation-old","129","400325","0.0-31.0-1.0","SS1618365242684","trial","","40","500","3894.5250001270324","images/stimuli/spore_stims/simple_14_A_b.gif","images/stimuli/spore_stims/simple_20_A_a.gif","self_paced","","11","simple_dissimilar","images/stimuli/spore_stims/simple_20_A_a.gif","","","","",""
"","null","html-keyboard-response","130","401294","0.0-31.0-0.1","SS1618365242684","","","null","","","","","","<p><img src= images/blank.png width =""600"" height = ""600"" style=""position:fixed;top:50%; left:50%; transform: translate(-50%, -50%); border:5px solid black"">","","","","","","","",""
"","2551.0050000157207","sequential-stimulus-presentation-old","131","404348","0.0-31.0-1.1","SS1618365242684","trial","","40","500","3051.0050000157207","images/stimuli/spore_stims/simple_14_A_b.gif","images/stimuli/spore_stims/simple_20_A_a.gif","self_paced","","11","simple_dissimilar","images/stimuli/spore_stims/simple_20_A_a.gif","","","","",""
"","null","html-keyboard-response","132","405501","0.0-31.0-0.2","SS1618365242684","","","null","","","","","","<p><img src= images/blank.png width =""600"" height = ""600"" style=""position:fixed;top:50%; left:50%; transform: translate(-50%, -50%); border:5px solid black"">","","","","","","","",""
"","2832.010000012815","sequential-stimulus-presentation-old","133","408836","0.0-31.0-1.2","SS1618365242684","trial","","40","500","3332.010000012815","images/stimuli/spore_stims/simple_14_A_b.gif","images/stimuli/spore_stims/simple_20_A_a.gif","self_paced","","11","simple_dissimilar","images/stimuli/spore_stims/simple_20_A_a.gif","","","","",""
"","null","html-keyboard-response","134","409703","0.0-31.0-0.3","SS1618365242684","","","null","","","","","","<p><img src= images/blank.png width =""600"" height = ""600"" style=""position:fixed;top:50%; left:50%; transform: translate(-50%, -50%); border:5px solid black"">","","","","","","","",""
"","2894.79500008747","sequential-stimulus-presentation-old","135","413101","0.0-31.0-1.3","SS1618365242684","trial","","40","500","3394.79500008747","images/stimuli/spore_stims/simple_14_A_b.gif","images/stimuli/spore_stims/simple_20_A_a.gif","self_paced","","11","simple_dissimilar","images/stimuli/spore_stims/simple_20_A_a.gif","","","","",""
"","null","html-keyboard-response","136","414061","0.0-31.0-0.4","SS1618365242684","","","null","","","","","","<p><img src= images/blank.png width =""600"" height = ""600"" style=""position:fixed;top:50%; left:50%; transform: translate(-50%, -50%); border:5px solid black"">","","","","","","","",""
"","3215.675000101328","sequential-stimulus-presentation-old","137","417780","0.0-31.0-1.4","SS1618365242684","trial","","40","500","3715.675000101328","images/stimuli/spore_stims/simple_14_A_b.gif","images/stimuli/spore_stims/simple_20_A_a.gif","self_paced","","11","simple_dissimilar","images/stimuli/spore_stims/simple_20_A_a.gif","","","","",""
"[{""page_index"":0,""viewing_time"":4634.3549999874085}]","4634.65499994345","instructions","138","422416","0.0-32.0","SS1618365242684","instructions","","","","","","","","","","","","","","","",""
"","6546.4299998711795","survey-likert","139","428965","0.0-33.0","SS1618365242684","similarity_question","","","","","","","","","","","","{""Q0"":4}","[0]","","images/stimuli/spore_stims/complex_10_A_a.gif","images/stimuli/spore_stims/complex_19_A_b.gif"
"","5549.320000223815","survey-likert","140","434516","0.0-34.0","SS1618365242684","similarity_question","","","","","","","","","","","","{""Q0"":6}","[0]","","images/stimuli/spore_stims/simple_16_A_a.gif","images/stimuli/spore_stims/simple_06_A_b.gif"
"","2529.859999893233","survey-likert","141","437049","0.0-35.0","SS1618365242684","similarity_question","","","","","","","","","","","","{""Q0"":6}","[0]","","images/stimuli/spore_stims/simple_09_A_b.gif","images/stimuli/spore_stims/simple_04_A_a.gif"
"","2817.6300001796335","survey-likert","142","439868","0.0-36.0","SS1618365242684","similarity_question","","","","","","","","","","","","{""Q0"":6}","[0]","","images/stimuli/spore_stims/simple_20_A_a.gif","images/stimuli/spore_stims/simple_14_A_b.gif"
"","2381.664999993518","survey-likert","143","442252","0.0-37.0","SS1618365242684","similarity_question","","","","","","","","","","","","{""Q0"":6}","[0]","","images/stimuli/spore_stims/simple_13_A_b.gif","images/stimuli/spore_stims/simple_08_A_a.gif"
"","6530.2349999547005","survey-likert","144","448785","0.0-38.0","SS1618365242684","similarity_question","","","","","","","","","","","","{""Q0"":1}","[0]","","images/stimuli/spore_stims/complex_15_A_b.gif","images/stimuli/spore_stims/complex_16_A_a.gif"
"","4626.019999850541","survey-likert","145","453413","0.0-39.0","SS1618365242684","similarity_question","","","","","","","","","","","","{""Q0"":1}","[0]","","images/stimuli/spore_stims/complex_14_A_b.gif","images/stimuli/spore_stims/complex_06_A_a.gif"
"","4189.904999919236","survey-likert","146","457605","0.0-40.0","SS1618365242684","similarity_question","","","","","","","","","","","","{""Q0"":5}","[0]","","images/stimuli/spore_stims/simple_13_A_a.gif","images/stimuli/spore_stims/simple_07_A_b.gif"
"","3233.680000063032","survey-likert","147","460841","0.0-41.0","SS1618365242684","similarity_question","","","","","","","","","","","","{""Q0"":5}","[0]","","images/stimuli/spore_stims/simple_15_A_a.gif","images/stimuli/spore_stims/simple_19_A_b.gif"
"","5077.860000077635","survey-likert","148","465920","0.0-42.0","SS1618365242684","similarity_question","","","","","","","","","","","","{""Q0"":1}","[0]","","images/stimuli/spore_stims/complex_13_A_a.gif","images/stimuli/spore_stims/complex_07_A_b.gif"
"","2898.270000005141","survey-likert","149","468821","0.0-43.0","SS1618365242684","similarity_question","","","","","","","","","","","","{""Q0"":1}","[0]","","images/stimuli/spore_stims/complex_20_A_b.gif","images/stimuli/spore_stims/complex_14_A_a.gif"
"","3457.874999847263","survey-likert","150","472281","0.0-44.0","SS1618365242684","similarity_question","","","","","","","","","","","","{""Q0"":1}","[0]","","images/stimuli/spore_stims/complex_04_A_a.gif","images/stimuli/spore_stims/complex_13_A_b.gif"
"[{""page_index"":0,""viewing_time"":3462.264999980107}]","3462.5099999830127","instructions","151","475744","0.0-45.0","SS1618365242684","instructions","","","","","","","","","","","","","","","",""
"","5454.199999803677","survey-likert","152","481200","0.0-46.0","SS1618365242684","","","","","","","","","images/stimuli/spore_stims/simple_20_A_a.gif","","","","{""Q0"":1}","[0]","","",""
"","3257.570000132546","survey-likert","153","484460","0.0-47.0","SS1618365242684","","","","","","","","","images/stimuli/spore_stims/simple_06_A_b.gif","","","","{""Q0"":0}","[0]","","",""
"","3730.449999915436","survey-likert","154","488192","0.0-48.0","SS1618365242684","","","","","","","","","images/stimuli/spore_stims/complex_04_A_a.gif","","","","{""Q0"":5}","[0]","","",""
"","2625.495000043884","survey-likert","155","490820","0.0-49.0","SS1618365242684","","","","","","","","","images/stimuli/spore_stims/simple_09_A_b.gif","","","","{""Q0"":0}","[0]","","",""
"","3017.72000011988","survey-likert","156","493840","0.0-50.0","SS1618365242684","","","","","","","","","images/stimuli/spore_stims/complex_14_A_b.gif","","","","{""Q0"":4}","[0]","","",""
"","2057.8600000590086","survey-likert","157","495900","0.0-51.0","SS1618365242684","","","","","","","","","images/stimuli/spore_stims/simple_08_A_a.gif","","","","{""Q0"":0}","[0]","","",""
"","2570.0599998235703","survey-likert","158","498472","0.0-52.0","SS1618365242684","","","","","","","","","images/stimuli/spore_stims/complex_19_A_b.gif","","","","{""Q0"":5}","[0]","","",""
"","2001.71500002034","survey-likert","159","500476","0.0-53.0","SS1618365242684","","","","","","","","","images/stimuli/spore_stims/simple_15_A_a.gif","","","","{""Q0"":0}","[0]","","",""
"","4169.840000104159","survey-likert","160","504648","0.0-54.0","SS1618365242684","","","","","","","","","images/stimuli/spore_stims/complex_13_A_a.gif","","","","{""Q0"":4}","[0]","","",""
"","3457.745000021532","survey-likert","161","508108","0.0-55.0","SS1618365242684","","","","","","","","","images/stimuli/spore_stims/complex_20_A_b.gif","","","","{""Q0"":5}","[0]","","",""
"","2761.8700000457466","survey-likert","162","510872","0.0-56.0","SS1618365242684","","","","","","","","","images/stimuli/spore_stims/complex_15_A_b.gif","","","","{""Q0"":5}","[0]","","",""
"","2041.9449999462813","survey-likert","163","512916","0.0-57.0","SS1618365242684","","","","","","","","","images/stimuli/spore_stims/simple_07_A_b.gif","","","","{""Q0"":0}","[0]","","",""
"[{""page_index"":0,""viewing_time"":1865.9350001253188}]","1866.1899999715388","instructions","164","514784","0.0-58.0","SS1618365242684","instructions","","","","","","","","","","","","","","","",""
"","2952.959999907762","demog-age","165","517740","0.0-59.0","SS1618365242684","","","","","","","","","","","","","{""age"":""24""}","","","",""
"","3534.0650000143796","demog-ethnic-US","166","521281","0.0-60.0","SS1618365242684","","","","","","","","","","","","","{""ethnicity"":[""White""]}","[0]","","",""
"","4245.21499988623","demog-gender-and-education","167","525528","0.0-61.0","SS1618365242684","","","","","","","","","","","","","{""gender"":""Male"",""education"":""Master's Degree""}","[0,1]","","",""
"","14776.679999893531","survey-text","168","540308","0.0-62.0","SS1618365242684","feedback","","","","","","","","","","","","{""Q0"":""No, everything was fine :)""}","","","",""
"[{""page_index"":0,""viewing_time"":1742.0899998396635}]","1742.31499992311","instructions","169","542056","0.0-63.0","SS1618365242684","instructions","","","","","","","","","","","","","","","",""
