"view_history","rt","trial_type","trial_index","time_elapsed","internal_node_id","subject","stimulus_type","trial_stimulus","key_press","minimum_viewing_duration","trial_looking_time","block_deviant","block_background","exposure_type","stimulus","block_number","block_type","stimulus_displayed","responses","question_order","math_correct_answer","stimulus_left","stimulus_right"
"[{""page_index"":0,""viewing_time"":61771}]","61771","instructions","0","61773","0.0-0.0","SS1618435779966","","","","","","","","","","","","","","","","",""
"[{""page_index"":0,""viewing_time"":28497},{""page_index"":1,""viewing_time"":6470}]","34967","instructions","1","98751","0.0-1.0","SS1618435779966","instructions","","","","","","","","","","","","","","","",""
"","6504","sequential-stimulus-presentation-old","2","105772","0.0-2.0","SS1618435779966","","","40","500","7004","null","null","self_paced","","","","","","","","",""
"","5621","sequential-stimulus-presentation-old","3","111909","0.0-3.0","SS1618435779966","","","40","500","6121","null","null","self_paced","","","","","","","","",""
"[{""page_index"":0,""viewing_time"":47191}]","47191","instructions","4","159102","0.0-4.0","SS1618435779966","instructions","","","","","","","","","","","","","","","",""
"","3290","sequential-stimulus-presentation-old","5","167405","0.0-5.0","SS1618435779966","","","40","500","3790","null","null","forced_long","","","","","","","","",""
"","4256","sequential-stimulus-presentation-old","6","171719","0.0-6.0","SS1618435779966","","","40","50","4306","null","null","forced_long","","","","","","","","",""
"[{""page_index"":0,""viewing_time"":7537}]","7537","instructions","7","179259","0.0-7.0","SS1618435779966","instructions","","","","","","","","","","","","","","","",""
"[{""page_index"":0,""viewing_time"":11672},{""page_index"":1,""viewing_time"":21406},{""page_index"":2,""viewing_time"":3746},{""page_index"":3,""viewing_time"":1809},{""page_index"":4,""viewing_time"":1336}]","39969","instructions","8","219229","0.0-8.0","SS1618435779966","instructions","","","","","","","","","","","","","","","",""
"","null","html-keyboard-response","9","220507","0.0-9.0-0.0","SS1618435779966","","","null","","","","","","<p><img src= images/blank.png width =""600"" height = ""600"" style=""position:fixed;top:50%; left:50%; transform: translate(-50%, -50%); border:5px solid black"">","","","","","","","",""
"","14558","sequential-stimulus-presentation-old","10","235580","0.0-9.0-1.0","SS1618435779966","trial","","40","500","15058","images/stimuli/spore_stims/complex_01_A_b.gif","images/stimuli/spore_stims/complex_19_A_a.gif","self_paced","","0","complex_dissimilar","images/stimuli/spore_stims/complex_19_A_a.gif","","","","",""
"","null","html-keyboard-response","11","236778","0.0-9.0-0.1","SS1618435779966","","","null","","","","","","<p><img src= images/blank.png width =""600"" height = ""600"" style=""position:fixed;top:50%; left:50%; transform: translate(-50%, -50%); border:5px solid black"">","","","","","","","",""
"","9878","sequential-stimulus-presentation-old","12","247173","0.0-9.0-1.1","SS1618435779966","trial","","40","500","10378","images/stimuli/spore_stims/complex_01_A_b.gif","images/stimuli/spore_stims/complex_19_A_a.gif","self_paced","","0","complex_dissimilar","images/stimuli/spore_stims/complex_19_A_a.gif","","","","",""
"","null","html-keyboard-response","13","247998","0.0-9.0-0.2","SS1618435779966","","","null","","","","","","<p><img src= images/blank.png width =""600"" height = ""600"" style=""position:fixed;top:50%; left:50%; transform: translate(-50%, -50%); border:5px solid black"">","","","","","","","",""
"","7493","sequential-stimulus-presentation-old","14","256008","0.0-9.0-1.2","SS1618435779966","trial","","40","500","7993","images/stimuli/spore_stims/complex_01_A_b.gif","images/stimuli/spore_stims/complex_19_A_a.gif","self_paced","","0","complex_dissimilar","images/stimuli/spore_stims/complex_01_A_b.gif","","","","",""
"","null","html-keyboard-response","15","257195","0.0-9.0-0.3","SS1618435779966","","","null","","","","","","<p><img src= images/blank.png width =""600"" height = ""600"" style=""position:fixed;top:50%; left:50%; transform: translate(-50%, -50%); border:5px solid black"">","","","","","","","",""
"","4126","sequential-stimulus-presentation-old","16","261837","0.0-9.0-1.3","SS1618435779966","trial","","40","500","4626","images/stimuli/spore_stims/complex_01_A_b.gif","images/stimuli/spore_stims/complex_19_A_a.gif","self_paced","","0","complex_dissimilar","images/stimuli/spore_stims/complex_19_A_a.gif","","","","",""
"","null","html-keyboard-response","17","262713","0.0-9.0-0.4","SS1618435779966","","","null","","","","","","<p><img src= images/blank.png width =""600"" height = ""600"" style=""position:fixed;top:50%; left:50%; transform: translate(-50%, -50%); border:5px solid black"">","","","","","","","",""
"","5926","sequential-stimulus-presentation-old","18","269156","0.0-9.0-1.4","SS1618435779966","trial","","40","500","6426","images/stimuli/spore_stims/complex_01_A_b.gif","images/stimuli/spore_stims/complex_19_A_a.gif","self_paced","","0","complex_dissimilar","images/stimuli/spore_stims/complex_01_A_b.gif","","","","",""
"","5386","survey-multi-choice","19","274545","0.0-10.0","SS1618435779966","math_question","","","","","","","","","","","","{""Q0"":""10""}","[0]","10","",""
"","null","html-keyboard-response","20","275462","0.0-11.0-0.0","SS1618435779966","","","null","","","","","","<p><img src= images/blank.png width =""600"" height = ""600"" style=""position:fixed;top:50%; left:50%; transform: translate(-50%, -50%); border:5px solid black"">","","","","","","","",""
"","5819","sequential-stimulus-presentation-old","21","281798","0.0-11.0-1.0","SS1618435779966","trial","","40","500","6319","images/stimuli/spore_stims/simple_04_A_a.gif","images/stimuli/spore_stims/simple_15_A_b.gif","self_paced","","1","simple_dissimilar","images/stimuli/spore_stims/simple_15_A_b.gif","","","","",""
"","null","html-keyboard-response","22","282632","0.0-11.0-0.1","SS1618435779966","","","null","","","","","","<p><img src= images/blank.png width =""600"" height = ""600"" style=""position:fixed;top:50%; left:50%; transform: translate(-50%, -50%); border:5px solid black"">","","","","","","","",""
"","4382","sequential-stimulus-presentation-old","23","287525","0.0-11.0-1.1","SS1618435779966","trial","","40","500","4882","images/stimuli/spore_stims/simple_04_A_a.gif","images/stimuli/spore_stims/simple_15_A_b.gif","self_paced","","1","simple_dissimilar","images/stimuli/spore_stims/simple_15_A_b.gif","","","","",""
"","null","html-keyboard-response","24","288579","0.0-11.0-0.2","SS1618435779966","","","null","","","","","","<p><img src= images/blank.png width =""600"" height = ""600"" style=""position:fixed;top:50%; left:50%; transform: translate(-50%, -50%); border:5px solid black"">","","","","","","","",""
"","5107","sequential-stimulus-presentation-old","25","294203","0.0-11.0-1.2","SS1618435779966","trial","","40","500","5607","images/stimuli/spore_stims/simple_04_A_a.gif","images/stimuli/spore_stims/simple_15_A_b.gif","self_paced","","1","simple_dissimilar","images/stimuli/spore_stims/simple_15_A_b.gif","","","","",""
"","null","html-keyboard-response","26","295362","0.0-11.0-0.3","SS1618435779966","","","null","","","","","","<p><img src= images/blank.png width =""600"" height = ""600"" style=""position:fixed;top:50%; left:50%; transform: translate(-50%, -50%); border:5px solid black"">","","","","","","","",""
"","4832","sequential-stimulus-presentation-old","27","300710","0.0-11.0-1.3","SS1618435779966","trial","","40","500","5332","images/stimuli/spore_stims/simple_04_A_a.gif","images/stimuli/spore_stims/simple_15_A_b.gif","self_paced","","1","simple_dissimilar","images/stimuli/spore_stims/simple_15_A_b.gif","","","","",""
"","null","html-keyboard-response","28","301853","0.0-11.0-0.4","SS1618435779966","","","null","","","","","","<p><img src= images/blank.png width =""600"" height = ""600"" style=""position:fixed;top:50%; left:50%; transform: translate(-50%, -50%); border:5px solid black"">","","","","","","","",""
"","3272","sequential-stimulus-presentation-old","29","305640","0.0-11.0-1.4","SS1618435779966","trial","","40","500","3772","images/stimuli/spore_stims/simple_04_A_a.gif","images/stimuli/spore_stims/simple_15_A_b.gif","self_paced","","1","simple_dissimilar","images/stimuli/spore_stims/simple_15_A_b.gif","","","","",""
"","null","html-keyboard-response","30","306498","0.0-11.0-0.5","SS1618435779966","","","null","","","","","","<p><img src= images/blank.png width =""600"" height = ""600"" style=""position:fixed;top:50%; left:50%; transform: translate(-50%, -50%); border:5px solid black"">","","","","","","","",""
"","5932","sequential-stimulus-presentation-old","31","312945","0.0-11.0-1.5","SS1618435779966","trial","","40","500","6432","images/stimuli/spore_stims/simple_04_A_a.gif","images/stimuli/spore_stims/simple_15_A_b.gif","self_paced","","1","simple_dissimilar","images/stimuli/spore_stims/simple_04_A_a.gif","","","","",""
"","4897","survey-multi-choice","32","317846","0.0-12.0","SS1618435779966","math_question","","","","","","","","","","","","{""Q0"":""10""}","[0]","10","",""
"","null","html-keyboard-response","33","318902","0.0-13.0-0.0","SS1618435779966","","","null","","","","","","<p><img src= images/blank.png width =""600"" height = ""600"" style=""position:fixed;top:50%; left:50%; transform: translate(-50%, -50%); border:5px solid black"">","","","","","","","",""
"","1849","sequential-stimulus-presentation-old","34","320814","0.0-13.0-1.0","SS1618435779966","trial","","40","500","2349","images/stimuli/spore_stims/simple_03_A_b.gif","images/stimuli/spore_stims/simple_13_A_a.gif","forced_short","","2","simple_dissimilar","images/stimuli/spore_stims/simple_13_A_a.gif","","","","",""
"","null","html-keyboard-response","35","322102","0.0-13.0-0.1","SS1618435779966","","","null","","","","","","<p><img src= images/blank.png width =""600"" height = ""600"" style=""position:fixed;top:50%; left:50%; transform: translate(-50%, -50%); border:5px solid black"">","","","","","","","",""
"","5407","sequential-stimulus-presentation-old","36","328024","0.0-13.0-1.1","SS1618435779966","trial","","40","500","5907","images/stimuli/spore_stims/simple_03_A_b.gif","images/stimuli/spore_stims/simple_13_A_a.gif","forced_short","","2","simple_dissimilar","images/stimuli/spore_stims/simple_13_A_a.gif","","","","",""
"","null","html-keyboard-response","37","329073","0.0-13.0-0.2","SS1618435779966","","","null","","","","","","<p><img src= images/blank.png width =""600"" height = ""600"" style=""position:fixed;top:50%; left:50%; transform: translate(-50%, -50%); border:5px solid black"">","","","","","","","",""
"","2102","sequential-stimulus-presentation-old","38","331691","0.0-13.0-1.2","SS1618435779966","trial","","40","500","2602","images/stimuli/spore_stims/simple_03_A_b.gif","images/stimuli/spore_stims/simple_13_A_a.gif","forced_short","","2","simple_dissimilar","images/stimuli/spore_stims/simple_13_A_a.gif","","","","",""
"","null","html-keyboard-response","39","332947","0.0-13.0-0.3","SS1618435779966","","","null","","","","","","<p><img src= images/blank.png width =""600"" height = ""600"" style=""position:fixed;top:50%; left:50%; transform: translate(-50%, -50%); border:5px solid black"">","","","","","","","",""
"","2324","sequential-stimulus-presentation-old","40","335786","0.0-13.0-1.3","SS1618435779966","trial","","40","500","2824","images/stimuli/spore_stims/simple_03_A_b.gif","images/stimuli/spore_stims/simple_13_A_a.gif","forced_short","","2","simple_dissimilar","images/stimuli/spore_stims/simple_13_A_a.gif","","","","",""
"","3917","survey-multi-choice","41","339708","0.0-14.0","SS1618435779966","math_question","","","","","","","","","","","","{""Q0"":""9""}","[0]","9","",""
"","null","html-keyboard-response","42","340839","0.0-15.0-0.0","SS1618435779966","","","null","","","","","","<p><img src= images/blank.png width =""600"" height = ""600"" style=""position:fixed;top:50%; left:50%; transform: translate(-50%, -50%); border:5px solid black"">","","","","","","","",""
"","931","sequential-stimulus-presentation-old","43","346790","0.0-15.0-1.0","SS1618435779966","trial","","40","500","1431","images/stimuli/spore_stims/simple_20_A_a.gif","images/stimuli/spore_stims/simple_06_A_b.gif","forced_long","","3","simple_dissimilar","images/stimuli/spore_stims/simple_06_A_b.gif","","","","",""
"","null","html-keyboard-response","44","347670","0.0-15.0-0.1","SS1618435779966","","","null","","","","","","<p><img src= images/blank.png width =""600"" height = ""600"" style=""position:fixed;top:50%; left:50%; transform: translate(-50%, -50%); border:5px solid black"">","","","","","","","",""
"","9046","sequential-stimulus-presentation-old","45","357232","0.0-15.0-1.1","SS1618435779966","trial","","40","500","9546","images/stimuli/spore_stims/simple_20_A_a.gif","images/stimuli/spore_stims/simple_06_A_b.gif","forced_long","","3","simple_dissimilar","images/stimuli/spore_stims/simple_20_A_a.gif","","","","",""
"","null","html-keyboard-response","46","358489","0.0-15.0-0.2","SS1618435779966","","","null","","","","","","<p><img src= images/blank.png width =""600"" height = ""600"" style=""position:fixed;top:50%; left:50%; transform: translate(-50%, -50%); border:5px solid black"">","","","","","","","",""
"","7815","sequential-stimulus-presentation-old","47","366821","0.0-15.0-1.2","SS1618435779966","trial","","40","500","8315","images/stimuli/spore_stims/simple_20_A_a.gif","images/stimuli/spore_stims/simple_06_A_b.gif","forced_long","","3","simple_dissimilar","images/stimuli/spore_stims/simple_06_A_b.gif","","","","",""
"","null","html-keyboard-response","48","367850","0.0-15.0-0.3","SS1618435779966","","","null","","","","","","<p><img src= images/blank.png width =""600"" height = ""600"" style=""position:fixed;top:50%; left:50%; transform: translate(-50%, -50%); border:5px solid black"">","","","","","","","",""
"","8606","sequential-stimulus-presentation-old","49","376972","0.0-15.0-1.3","SS1618435779966","trial","","40","500","9106","images/stimuli/spore_stims/simple_20_A_a.gif","images/stimuli/spore_stims/simple_06_A_b.gif","forced_long","","3","simple_dissimilar","images/stimuli/spore_stims/simple_06_A_b.gif","","","","",""
"","null","html-keyboard-response","50","378281","0.0-15.0-0.4","SS1618435779966","","","null","","","","","","<p><img src= images/blank.png width =""600"" height = ""600"" style=""position:fixed;top:50%; left:50%; transform: translate(-50%, -50%); border:5px solid black"">","","","","","","","",""
"","12852","sequential-stimulus-presentation-old","51","391649","0.0-15.0-1.4","SS1618435779966","trial","","40","500","13352","images/stimuli/spore_stims/simple_20_A_a.gif","images/stimuli/spore_stims/simple_06_A_b.gif","forced_long","","3","simple_dissimilar","images/stimuli/spore_stims/simple_20_A_a.gif","","","","",""
"","null","html-keyboard-response","52","392578","0.0-15.0-0.5","SS1618435779966","","","null","","","","","","<p><img src= images/blank.png width =""600"" height = ""600"" style=""position:fixed;top:50%; left:50%; transform: translate(-50%, -50%); border:5px solid black"">","","","","","","","",""
"","11438","sequential-stimulus-presentation-old","53","404532","0.0-15.0-1.5","SS1618435779966","trial","","40","500","11938","images/stimuli/spore_stims/simple_20_A_a.gif","images/stimuli/spore_stims/simple_06_A_b.gif","forced_long","","3","simple_dissimilar","images/stimuli/spore_stims/simple_06_A_b.gif","","","","",""
"","4373","survey-multi-choice","54","408913","0.0-16.0","SS1618435779966","math_question","","","","","","","","","","","","{""Q0"":""14""}","[0]","14","",""
"","null","html-keyboard-response","55","409867","0.0-17.0-0.0","SS1618435779966","","","null","","","","","","<p><img src= images/blank.png width =""600"" height = ""600"" style=""position:fixed;top:50%; left:50%; transform: translate(-50%, -50%); border:5px solid black"">","","","","","","","",""
"","983","sequential-stimulus-presentation-old","56","415865","0.0-17.0-1.0","SS1618435779966","trial","","40","500","1483","images/stimuli/spore_stims/complex_05_A_a.gif","images/stimuli/spore_stims/complex_02_A_b.gif","forced_long","","4","complex_dissimilar","images/stimuli/spore_stims/complex_02_A_b.gif","","","","",""
"","null","html-keyboard-response","57","416771","0.0-17.0-0.1","SS1618435779966","","","null","","","","","","<p><img src= images/blank.png width =""600"" height = ""600"" style=""position:fixed;top:50%; left:50%; transform: translate(-50%, -50%); border:5px solid black"">","","","","","","","",""
"","10659","sequential-stimulus-presentation-old","58","427947","0.0-17.0-1.1","SS1618435779966","trial","","40","500","11159","images/stimuli/spore_stims/complex_05_A_a.gif","images/stimuli/spore_stims/complex_02_A_b.gif","forced_long","","4","complex_dissimilar","images/stimuli/spore_stims/complex_02_A_b.gif","","","","",""
"","null","html-keyboard-response","59","429018","0.0-17.0-0.2","SS1618435779966","","","null","","","","","","<p><img src= images/blank.png width =""600"" height = ""600"" style=""position:fixed;top:50%; left:50%; transform: translate(-50%, -50%); border:5px solid black"">","","","","","","","",""
"","11014","sequential-stimulus-presentation-old","60","440548","0.0-17.0-1.2","SS1618435779966","trial","","40","500","11514","images/stimuli/spore_stims/complex_05_A_a.gif","images/stimuli/spore_stims/complex_02_A_b.gif","forced_long","","4","complex_dissimilar","images/stimuli/spore_stims/complex_02_A_b.gif","","","","",""
"","null","html-keyboard-response","61","441745","0.0-17.0-0.3","SS1618435779966","","","null","","","","","","<p><img src= images/blank.png width =""600"" height = ""600"" style=""position:fixed;top:50%; left:50%; transform: translate(-50%, -50%); border:5px solid black"">","","","","","","","",""
"","11383","sequential-stimulus-presentation-old","62","453643","0.0-17.0-1.3","SS1618435779966","trial","","40","500","11883","images/stimuli/spore_stims/complex_05_A_a.gif","images/stimuli/spore_stims/complex_02_A_b.gif","forced_long","","4","complex_dissimilar","images/stimuli/spore_stims/complex_02_A_b.gif","","","","",""
"","5195","survey-multi-choice","63","458844","0.0-18.0","SS1618435779966","math_question","","","","","","","","","","","","{""Q0"":""11""}","[0]","11","",""
"","null","html-keyboard-response","64","460099","0.0-19.0-0.0","SS1618435779966","","","null","","","","","","<p><img src= images/blank.png width =""600"" height = ""600"" style=""position:fixed;top:50%; left:50%; transform: translate(-50%, -50%); border:5px solid black"">","","","","","","","",""
"","1181","sequential-stimulus-presentation-old","65","461344","0.0-19.0-1.0","SS1618435779966","trial","","40","500","1681","images/stimuli/spore_stims/complex_10_A_a.gif","images/stimuli/spore_stims/complex_09_A_b.gif","forced_short","","5","complex_dissimilar","images/stimuli/spore_stims/complex_09_A_b.gif","","","","",""
"","null","html-keyboard-response","66","462592","0.0-19.0-0.1","SS1618435779966","","","null","","","","","","<p><img src= images/blank.png width =""600"" height = ""600"" style=""position:fixed;top:50%; left:50%; transform: translate(-50%, -50%); border:5px solid black"">","","","","","","","",""
"","11542","sequential-stimulus-presentation-old","67","474650","0.0-19.0-1.1","SS1618435779966","trial","","40","500","12042","images/stimuli/spore_stims/complex_10_A_a.gif","images/stimuli/spore_stims/complex_09_A_b.gif","forced_short","","5","complex_dissimilar","images/stimuli/spore_stims/complex_09_A_b.gif","","","","",""
"","null","html-keyboard-response","68","475570","0.0-19.0-0.2","SS1618435779966","","","null","","","","","","<p><img src= images/blank.png width =""600"" height = ""600"" style=""position:fixed;top:50%; left:50%; transform: translate(-50%, -50%); border:5px solid black"">","","","","","","","",""
"","12073","sequential-stimulus-presentation-old","69","488160","0.0-19.0-1.2","SS1618435779966","trial","","40","500","12573","images/stimuli/spore_stims/complex_10_A_a.gif","images/stimuli/spore_stims/complex_09_A_b.gif","forced_short","","5","complex_dissimilar","images/stimuli/spore_stims/complex_10_A_a.gif","","","","",""
"","null","html-keyboard-response","70","489454","0.0-19.0-0.3","SS1618435779966","","","null","","","","","","<p><img src= images/blank.png width =""600"" height = ""600"" style=""position:fixed;top:50%; left:50%; transform: translate(-50%, -50%); border:5px solid black"">","","","","","","","",""
"","11354","sequential-stimulus-presentation-old","71","501324","0.0-19.0-1.3","SS1618435779966","trial","","40","500","11854","images/stimuli/spore_stims/complex_10_A_a.gif","images/stimuli/spore_stims/complex_09_A_b.gif","forced_short","","5","complex_dissimilar","images/stimuli/spore_stims/complex_09_A_b.gif","","","","",""
"","null","html-keyboard-response","72","502466","0.0-19.0-0.4","SS1618435779966","","","null","","","","","","<p><img src= images/blank.png width =""600"" height = ""600"" style=""position:fixed;top:50%; left:50%; transform: translate(-50%, -50%); border:5px solid black"">","","","","","","","",""
"","6220","sequential-stimulus-presentation-old","73","509202","0.0-19.0-1.4","SS1618435779966","trial","","40","500","6720","images/stimuli/spore_stims/complex_10_A_a.gif","images/stimuli/spore_stims/complex_09_A_b.gif","forced_short","","5","complex_dissimilar","images/stimuli/spore_stims/complex_09_A_b.gif","","","","",""
"","9706","survey-multi-choice","74","518915","0.0-20.0","SS1618435779966","math_question","","","","","","","","","","","","{""Q0"":""14""}","[0]","14","",""
"","null","html-keyboard-response","75","519978","0.0-21.0-0.0","SS1618435779966","","","null","","","","","","<p><img src= images/blank.png width =""600"" height = ""600"" style=""position:fixed;top:50%; left:50%; transform: translate(-50%, -50%); border:5px solid black"">","","","","","","","",""
"","975","sequential-stimulus-presentation-old","76","521017","0.0-21.0-1.0","SS1618435779966","trial","","40","500","1475","images/stimuli/spore_stims/simple_15_A_a.gif","images/stimuli/spore_stims/simple_07_A_b.gif","forced_short","","6","simple_dissimilar","images/stimuli/spore_stims/simple_07_A_b.gif","","","","",""
"","null","html-keyboard-response","77","522283","0.0-21.0-0.1","SS1618435779966","","","null","","","","","","<p><img src= images/blank.png width =""600"" height = ""600"" style=""position:fixed;top:50%; left:50%; transform: translate(-50%, -50%); border:5px solid black"">","","","","","","","",""
"","10005","sequential-stimulus-presentation-old","78","532796","0.0-21.0-1.1","SS1618435779966","trial","","40","500","10505","images/stimuli/spore_stims/simple_15_A_a.gif","images/stimuli/spore_stims/simple_07_A_b.gif","forced_short","","6","simple_dissimilar","images/stimuli/spore_stims/simple_15_A_a.gif","","","","",""
"","null","html-keyboard-response","79","534099","0.0-21.0-0.2","SS1618435779966","","","null","","","","","","<p><img src= images/blank.png width =""600"" height = ""600"" style=""position:fixed;top:50%; left:50%; transform: translate(-50%, -50%); border:5px solid black"">","","","","","","","",""
"","9478","sequential-stimulus-presentation-old","80","544091","0.0-21.0-1.2","SS1618435779966","trial","","40","500","9978","images/stimuli/spore_stims/simple_15_A_a.gif","images/stimuli/spore_stims/simple_07_A_b.gif","forced_short","","6","simple_dissimilar","images/stimuli/spore_stims/simple_07_A_b.gif","","","","",""
"","null","html-keyboard-response","81","545346","0.0-21.0-0.3","SS1618435779966","","","null","","","","","","<p><img src= images/blank.png width =""600"" height = ""600"" style=""position:fixed;top:50%; left:50%; transform: translate(-50%, -50%); border:5px solid black"">","","","","","","","",""
"","13107","sequential-stimulus-presentation-old","82","558968","0.0-21.0-1.3","SS1618435779966","trial","","40","500","13607","images/stimuli/spore_stims/simple_15_A_a.gif","images/stimuli/spore_stims/simple_07_A_b.gif","forced_short","","6","simple_dissimilar","images/stimuli/spore_stims/simple_15_A_a.gif","","","","",""
"","null","html-keyboard-response","83","559860","0.0-21.0-0.4","SS1618435779966","","","null","","","","","","<p><img src= images/blank.png width =""600"" height = ""600"" style=""position:fixed;top:50%; left:50%; transform: translate(-50%, -50%); border:5px solid black"">","","","","","","","",""
"","10207","sequential-stimulus-presentation-old","84","570583","0.0-21.0-1.4","SS1618435779966","trial","","40","500","10707","images/stimuli/spore_stims/simple_15_A_a.gif","images/stimuli/spore_stims/simple_07_A_b.gif","forced_short","","6","simple_dissimilar","images/stimuli/spore_stims/simple_07_A_b.gif","","","","",""
"","7231","survey-multi-choice","85","577822","0.0-22.0","SS1618435779966","math_question","","","","","","","","","","","","{""Q0"":""14""}","[0]","14","",""
"","null","html-keyboard-response","86","578670","0.0-23.0-0.0","SS1618435779966","","","null","","","","","","<p><img src= images/blank.png width =""600"" height = ""600"" style=""position:fixed;top:50%; left:50%; transform: translate(-50%, -50%); border:5px solid black"">","","","","","","","",""
"","645","sequential-stimulus-presentation-old","87","584334","0.0-23.0-1.0","SS1618435779966","trial","","40","500","1145","images/stimuli/spore_stims/simple_18_A_a.gif","images/stimuli/spore_stims/simple_12_A_b.gif","forced_long","","7","simple_dissimilar","images/stimuli/spore_stims/simple_12_A_b.gif","","","","",""
"","null","html-keyboard-response","88","585188","0.0-23.0-0.1","SS1618435779966","","","null","","","","","","<p><img src= images/blank.png width =""600"" height = ""600"" style=""position:fixed;top:50%; left:50%; transform: translate(-50%, -50%); border:5px solid black"">","","","","","","","",""
"","10650","sequential-stimulus-presentation-old","89","596353","0.0-23.0-1.1","SS1618435779966","trial","","40","500","11150","images/stimuli/spore_stims/simple_18_A_a.gif","images/stimuli/spore_stims/simple_12_A_b.gif","forced_long","","7","simple_dissimilar","images/stimuli/spore_stims/simple_12_A_b.gif","","","","",""
"","null","html-keyboard-response","90","597225","0.0-23.0-0.2","SS1618435779966","","","null","","","","","","<p><img src= images/blank.png width =""600"" height = ""600"" style=""position:fixed;top:50%; left:50%; transform: translate(-50%, -50%); border:5px solid black"">","","","","","","","",""
"","11523","sequential-stimulus-presentation-old","91","609265","0.0-23.0-1.2","SS1618435779966","trial","","40","500","12023","images/stimuli/spore_stims/simple_18_A_a.gif","images/stimuli/spore_stims/simple_12_A_b.gif","forced_long","","7","simple_dissimilar","images/stimuli/spore_stims/simple_12_A_b.gif","","","","",""
"","null","html-keyboard-response","92","610172","0.0-23.0-0.3","SS1618435779966","","","null","","","","","","<p><img src= images/blank.png width =""600"" height = ""600"" style=""position:fixed;top:50%; left:50%; transform: translate(-50%, -50%); border:5px solid black"">","","","","","","","",""
"","9057","sequential-stimulus-presentation-old","93","619744","0.0-23.0-1.3","SS1618435779966","trial","","40","500","9557","images/stimuli/spore_stims/simple_18_A_a.gif","images/stimuli/spore_stims/simple_12_A_b.gif","forced_long","","7","simple_dissimilar","images/stimuli/spore_stims/simple_12_A_b.gif","","","","",""
"","null","html-keyboard-response","94","620865","0.0-23.0-0.4","SS1618435779966","","","null","","","","","","<p><img src= images/blank.png width =""600"" height = ""600"" style=""position:fixed;top:50%; left:50%; transform: translate(-50%, -50%); border:5px solid black"">","","","","","","","",""
"","11212","sequential-stimulus-presentation-old","95","632594","0.0-23.0-1.4","SS1618435779966","trial","","40","500","11712","images/stimuli/spore_stims/simple_18_A_a.gif","images/stimuli/spore_stims/simple_12_A_b.gif","forced_long","","7","simple_dissimilar","images/stimuli/spore_stims/simple_12_A_b.gif","","","","",""
"","8859","survey-multi-choice","96","641461","0.0-24.0","SS1618435779966","math_question","","","","","","","","","","","","{""Q0"":""15""}","[0]","15","",""
"","null","html-keyboard-response","97","642718","0.0-25.0-0.0","SS1618435779966","","","null","","","","","","<p><img src= images/blank.png width =""600"" height = ""600"" style=""position:fixed;top:50%; left:50%; transform: translate(-50%, -50%); border:5px solid black"">","","","","","","","",""
"","15629","sequential-stimulus-presentation-old","98","658863","0.0-25.0-1.0","SS1618435779966","trial","","40","500","16129","images/stimuli/spore_stims/simple_18_A_b.gif","images/stimuli/spore_stims/simple_17_A_a.gif","self_paced","","8","simple_dissimilar","images/stimuli/spore_stims/simple_17_A_a.gif","","","","",""
"","null","html-keyboard-response","99","660113","0.0-25.0-0.1","SS1618435779966","","","null","","","","","","<p><img src= images/blank.png width =""600"" height = ""600"" style=""position:fixed;top:50%; left:50%; transform: translate(-50%, -50%); border:5px solid black"">","","","","","","","",""
"","13670","sequential-stimulus-presentation-old","100","674297","0.0-25.0-1.1","SS1618435779966","trial","","40","500","14170","images/stimuli/spore_stims/simple_18_A_b.gif","images/stimuli/spore_stims/simple_17_A_a.gif","self_paced","","8","simple_dissimilar","images/stimuli/spore_stims/simple_18_A_b.gif","","","","",""
"","null","html-keyboard-response","101","675131","0.0-25.0-0.2","SS1618435779966","","","null","","","","","","<p><img src= images/blank.png width =""600"" height = ""600"" style=""position:fixed;top:50%; left:50%; transform: translate(-50%, -50%); border:5px solid black"">","","","","","","","",""
"","11560","sequential-stimulus-presentation-old","102","687207","0.0-25.0-1.2","SS1618435779966","trial","","40","500","12060","images/stimuli/spore_stims/simple_18_A_b.gif","images/stimuli/spore_stims/simple_17_A_a.gif","self_paced","","8","simple_dissimilar","images/stimuli/spore_stims/simple_17_A_a.gif","","","","",""
"","null","html-keyboard-response","103","688457","0.0-25.0-0.3","SS1618435779966","","","null","","","","","","<p><img src= images/blank.png width =""600"" height = ""600"" style=""position:fixed;top:50%; left:50%; transform: translate(-50%, -50%); border:5px solid black"">","","","","","","","",""
"","14960","sequential-stimulus-presentation-old","104","703930","0.0-25.0-1.3","SS1618435779966","trial","","40","500","15460","images/stimuli/spore_stims/simple_18_A_b.gif","images/stimuli/spore_stims/simple_17_A_a.gif","self_paced","","8","simple_dissimilar","images/stimuli/spore_stims/simple_17_A_a.gif","","","","",""
"","null","html-keyboard-response","105","704838","0.0-25.0-0.4","SS1618435779966","","","null","","","","","","<p><img src= images/blank.png width =""600"" height = ""600"" style=""position:fixed;top:50%; left:50%; transform: translate(-50%, -50%); border:5px solid black"">","","","","","","","",""
"","11002","sequential-stimulus-presentation-old","106","716355","0.0-25.0-1.4","SS1618435779966","trial","","40","500","11502","images/stimuli/spore_stims/simple_18_A_b.gif","images/stimuli/spore_stims/simple_17_A_a.gif","self_paced","","8","simple_dissimilar","images/stimuli/spore_stims/simple_17_A_a.gif","","","","",""
"","4666","survey-multi-choice","107","721030","0.0-26.0","SS1618435779966","math_question","","","","","","","","","","","","{""Q0"":""18""}","[0]","18","",""
"","null","html-keyboard-response","108","722176","0.0-27.0-0.0","SS1618435779966","","","null","","","","","","<p><img src= images/blank.png width =""600"" height = ""600"" style=""position:fixed;top:50%; left:50%; transform: translate(-50%, -50%); border:5px solid black"">","","","","","","","",""
"","961","sequential-stimulus-presentation-old","109","728149","0.0-27.0-1.0","SS1618435779966","trial","","40","500","1461","images/stimuli/spore_stims/complex_01_A_a.gif","images/stimuli/spore_stims/complex_11_A_b.gif","forced_long","","9","complex_dissimilar","images/stimuli/spore_stims/complex_11_A_b.gif","","","","",""
"","null","html-keyboard-response","110","729196","0.0-27.0-0.1","SS1618435779966","","","null","","","","","","<p><img src= images/blank.png width =""600"" height = ""600"" style=""position:fixed;top:50%; left:50%; transform: translate(-50%, -50%); border:5px solid black"">","","","","","","","",""
"","11816","sequential-stimulus-presentation-old","111","741538","0.0-27.0-1.1","SS1618435779966","trial","","40","500","12316","images/stimuli/spore_stims/complex_01_A_a.gif","images/stimuli/spore_stims/complex_11_A_b.gif","forced_long","","9","complex_dissimilar","images/stimuli/spore_stims/complex_11_A_b.gif","","","","",""
"","null","html-keyboard-response","112","742795","0.0-27.0-0.2","SS1618435779966","","","null","","","","","","<p><img src= images/blank.png width =""600"" height = ""600"" style=""position:fixed;top:50%; left:50%; transform: translate(-50%, -50%); border:5px solid black"">","","","","","","","",""
"","16480","sequential-stimulus-presentation-old","113","759791","0.0-27.0-1.2","SS1618435779966","trial","","40","500","16980","images/stimuli/spore_stims/complex_01_A_a.gif","images/stimuli/spore_stims/complex_11_A_b.gif","forced_long","","9","complex_dissimilar","images/stimuli/spore_stims/complex_11_A_b.gif","","","","",""
"","null","html-keyboard-response","114","761046","0.0-27.0-0.3","SS1618435779966","","","null","","","","","","<p><img src= images/blank.png width =""600"" height = ""600"" style=""position:fixed;top:50%; left:50%; transform: translate(-50%, -50%); border:5px solid black"">","","","","","","","",""
"","9811","sequential-stimulus-presentation-old","115","771377","0.0-27.0-1.3","SS1618435779966","trial","","40","500","10311","images/stimuli/spore_stims/complex_01_A_a.gif","images/stimuli/spore_stims/complex_11_A_b.gif","forced_long","","9","complex_dissimilar","images/stimuli/spore_stims/complex_11_A_b.gif","","","","",""
"","null","html-keyboard-response","116","772450","0.0-27.0-0.4","SS1618435779966","","","null","","","","","","<p><img src= images/blank.png width =""600"" height = ""600"" style=""position:fixed;top:50%; left:50%; transform: translate(-50%, -50%); border:5px solid black"">","","","","","","","",""
"","11730","sequential-stimulus-presentation-old","117","784695","0.0-27.0-1.4","SS1618435779966","trial","","40","500","12230","images/stimuli/spore_stims/complex_01_A_a.gif","images/stimuli/spore_stims/complex_11_A_b.gif","forced_long","","9","complex_dissimilar","images/stimuli/spore_stims/complex_01_A_a.gif","","","","",""
"","4615","survey-multi-choice","118","789319","0.0-28.0","SS1618435779966","math_question","","","","","","","","","","","","{""Q0"":""9""}","[0]","9","",""
"","null","html-keyboard-response","119","790477","0.0-29.0-0.0","SS1618435779966","","","null","","","","","","<p><img src= images/blank.png width =""600"" height = ""600"" style=""position:fixed;top:50%; left:50%; transform: translate(-50%, -50%); border:5px solid black"">","","","","","","","",""
"","15262","sequential-stimulus-presentation-old","120","806257","0.0-29.0-1.0","SS1618435779966","trial","","40","500","15762","images/stimuli/spore_stims/complex_16_A_a.gif","images/stimuli/spore_stims/complex_04_A_b.gif","self_paced","","10","complex_dissimilar","images/stimuli/spore_stims/complex_04_A_b.gif","","","","",""
"","null","html-keyboard-response","121","807215","0.0-29.0-0.1","SS1618435779966","","","null","","","","","","<p><img src= images/blank.png width =""600"" height = ""600"" style=""position:fixed;top:50%; left:50%; transform: translate(-50%, -50%); border:5px solid black"">","","","","","","","",""
"","13089","sequential-stimulus-presentation-old","122","820818","0.0-29.0-1.1","SS1618435779966","trial","","40","500","13589","images/stimuli/spore_stims/complex_16_A_a.gif","images/stimuli/spore_stims/complex_04_A_b.gif","self_paced","","10","complex_dissimilar","images/stimuli/spore_stims/complex_16_A_a.gif","","","","",""
"","null","html-keyboard-response","123","821755","0.0-29.0-0.2","SS1618435779966","","","null","","","","","","<p><img src= images/blank.png width =""600"" height = ""600"" style=""position:fixed;top:50%; left:50%; transform: translate(-50%, -50%); border:5px solid black"">","","","","","","","",""
"","12249","sequential-stimulus-presentation-old","124","834521","0.0-29.0-1.2","SS1618435779966","trial","","40","500","12749","images/stimuli/spore_stims/complex_16_A_a.gif","images/stimuli/spore_stims/complex_04_A_b.gif","self_paced","","10","complex_dissimilar","images/stimuli/spore_stims/complex_04_A_b.gif","","","","",""
"","null","html-keyboard-response","125","835673","0.0-29.0-0.3","SS1618435779966","","","null","","","","","","<p><img src= images/blank.png width =""600"" height = ""600"" style=""position:fixed;top:50%; left:50%; transform: translate(-50%, -50%); border:5px solid black"">","","","","","","","",""
"","8583","sequential-stimulus-presentation-old","126","844772","0.0-29.0-1.3","SS1618435779966","trial","","40","500","9083","images/stimuli/spore_stims/complex_16_A_a.gif","images/stimuli/spore_stims/complex_04_A_b.gif","self_paced","","10","complex_dissimilar","images/stimuli/spore_stims/complex_16_A_a.gif","","","","",""
"","null","html-keyboard-response","127","846054","0.0-29.0-0.4","SS1618435779966","","","null","","","","","","<p><img src= images/blank.png width =""600"" height = ""600"" style=""position:fixed;top:50%; left:50%; transform: translate(-50%, -50%); border:5px solid black"">","","","","","","","",""
"","8115","sequential-stimulus-presentation-old","128","854684","0.0-29.0-1.4","SS1618435779966","trial","","40","500","8615","images/stimuli/spore_stims/complex_16_A_a.gif","images/stimuli/spore_stims/complex_04_A_b.gif","self_paced","","10","complex_dissimilar","images/stimuli/spore_stims/complex_04_A_b.gif","","","","",""
"","5869","survey-multi-choice","129","860558","0.0-30.0","SS1618435779966","math_question","","","","","","","","","","","","{""Q0"":""13""}","[0]","13","",""
"","null","html-keyboard-response","130","861373","0.0-31.0-0.0","SS1618435779966","","","null","","","","","","<p><img src= images/blank.png width =""600"" height = ""600"" style=""position:fixed;top:50%; left:50%; transform: translate(-50%, -50%); border:5px solid black"">","","","","","","","",""
"","1201","sequential-stimulus-presentation-old","131","862638","0.0-31.0-1.0","SS1618435779966","trial","","40","500","1701","images/stimuli/spore_stims/complex_05_A_b.gif","images/stimuli/spore_stims/complex_11_A_a.gif","forced_short","","11","complex_dissimilar","images/stimuli/spore_stims/complex_11_A_a.gif","","","","",""
"","null","html-keyboard-response","132","863737","0.0-31.0-0.1","SS1618435779966","","","null","","","","","","<p><img src= images/blank.png width =""600"" height = ""600"" style=""position:fixed;top:50%; left:50%; transform: translate(-50%, -50%); border:5px solid black"">","","","","","","","",""
"","10541","sequential-stimulus-presentation-old","133","874799","0.0-31.0-1.1","SS1618435779966","trial","","40","500","11041","images/stimuli/spore_stims/complex_05_A_b.gif","images/stimuli/spore_stims/complex_11_A_a.gif","forced_short","","11","complex_dissimilar","images/stimuli/spore_stims/complex_05_A_b.gif","","","","",""
"","null","html-keyboard-response","134","875631","0.0-31.0-0.2","SS1618435779966","","","null","","","","","","<p><img src= images/blank.png width =""600"" height = ""600"" style=""position:fixed;top:50%; left:50%; transform: translate(-50%, -50%); border:5px solid black"">","","","","","","","",""
"","9091","sequential-stimulus-presentation-old","135","885238","0.0-31.0-1.2","SS1618435779966","trial","","40","500","9591","images/stimuli/spore_stims/complex_05_A_b.gif","images/stimuli/spore_stims/complex_11_A_a.gif","forced_short","","11","complex_dissimilar","images/stimuli/spore_stims/complex_11_A_a.gif","","","","",""
"","null","html-keyboard-response","136","886067","0.0-31.0-0.3","SS1618435779966","","","null","","","","","","<p><img src= images/blank.png width =""600"" height = ""600"" style=""position:fixed;top:50%; left:50%; transform: translate(-50%, -50%); border:5px solid black"">","","","","","","","",""
"","11557","sequential-stimulus-presentation-old","137","898139","0.0-31.0-1.3","SS1618435779966","trial","","40","500","12057","images/stimuli/spore_stims/complex_05_A_b.gif","images/stimuli/spore_stims/complex_11_A_a.gif","forced_short","","11","complex_dissimilar","images/stimuli/spore_stims/complex_05_A_b.gif","","","","",""
"","null","html-keyboard-response","138","899352","0.0-31.0-0.4","SS1618435779966","","","null","","","","","","<p><img src= images/blank.png width =""600"" height = ""600"" style=""position:fixed;top:50%; left:50%; transform: translate(-50%, -50%); border:5px solid black"">","","","","","","","",""
"","5142","sequential-stimulus-presentation-old","139","905002","0.0-31.0-1.4","SS1618435779966","trial","","40","500","5642","images/stimuli/spore_stims/complex_05_A_b.gif","images/stimuli/spore_stims/complex_11_A_a.gif","forced_short","","11","complex_dissimilar","images/stimuli/spore_stims/complex_11_A_a.gif","","","","",""
"","null","html-keyboard-response","140","906300","0.0-31.0-0.5","SS1618435779966","","","null","","","","","","<p><img src= images/blank.png width =""600"" height = ""600"" style=""position:fixed;top:50%; left:50%; transform: translate(-50%, -50%); border:5px solid black"">","","","","","","","",""
"","10897","sequential-stimulus-presentation-old","141","917713","0.0-31.0-1.5","SS1618435779966","trial","","40","500","11397","images/stimuli/spore_stims/complex_05_A_b.gif","images/stimuli/spore_stims/complex_11_A_a.gif","forced_short","","11","complex_dissimilar","images/stimuli/spore_stims/complex_11_A_a.gif","","","","",""
"[{""page_index"":0,""viewing_time"":4649}]","4649","instructions","142","922375","0.0-32.0","SS1618435779966","instructions","","","","","","","","","","","","","","","",""
"","10353","survey-likert","143","932734","0.0-33.0","SS1618435779966","similarity_question","","","","","","","","","","","","{""Q0"":4}","[0]","","images/stimuli/spore_stims/complex_05_A_a.gif","images/stimuli/spore_stims/complex_02_A_b.gif"
"","6625","survey-likert","144","939364","0.0-34.0","SS1618435779966","similarity_question","","","","","","","","","","","","{""Q0"":5}","[0]","","images/stimuli/spore_stims/simple_03_A_b.gif","images/stimuli/spore_stims/simple_13_A_a.gif"
"","7156","survey-likert","145","946525","0.0-35.0","SS1618435779966","similarity_question","","","","","","","","","","","","{""Q0"":4}","[0]","","images/stimuli/spore_stims/simple_15_A_a.gif","images/stimuli/spore_stims/simple_07_A_b.gif"
"","6007","survey-likert","146","952538","0.0-36.0","SS1618435779966","similarity_question","","","","","","","","","","","","{""Q0"":1}","[0]","","images/stimuli/spore_stims/complex_11_A_b.gif","images/stimuli/spore_stims/complex_01_A_a.gif"
"","5275","survey-likert","147","957820","0.0-37.0","SS1618435779966","similarity_question","","","","","","","","","","","","{""Q0"":3}","[0]","","images/stimuli/spore_stims/complex_10_A_a.gif","images/stimuli/spore_stims/complex_09_A_b.gif"
"","5029","survey-likert","148","962855","0.0-38.0","SS1618435779966","similarity_question","","","","","","","","","","","","{""Q0"":6}","[0]","","images/stimuli/spore_stims/simple_15_A_b.gif","images/stimuli/spore_stims/simple_04_A_a.gif"
"","7847","survey-likert","149","970710","0.0-39.0","SS1618435779966","similarity_question","","","","","","","","","","","","{""Q0"":5}","[0]","","images/stimuli/spore_stims/simple_18_A_b.gif","images/stimuli/spore_stims/simple_17_A_a.gif"
"","6835","survey-likert","150","977551","0.0-40.0","SS1618435779966","similarity_question","","","","","","","","","","","","{""Q0"":4}","[0]","","images/stimuli/spore_stims/simple_18_A_a.gif","images/stimuli/spore_stims/simple_12_A_b.gif"
"","5023","survey-likert","151","982583","0.0-41.0","SS1618435779966","similarity_question","","","","","","","","","","","","{""Q0"":6}","[0]","","images/stimuli/spore_stims/complex_19_A_a.gif","images/stimuli/spore_stims/complex_01_A_b.gif"
"","5637","survey-likert","152","988225","0.0-42.0","SS1618435779966","similarity_question","","","","","","","","","","","","{""Q0"":3}","[0]","","images/stimuli/spore_stims/complex_04_A_b.gif","images/stimuli/spore_stims/complex_16_A_a.gif"
"","6089","survey-likert","153","994320","0.0-43.0","SS1618435779966","similarity_question","","","","","","","","","","","","{""Q0"":1}","[0]","","images/stimuli/spore_stims/complex_05_A_b.gif","images/stimuli/spore_stims/complex_11_A_a.gif"
"","5191","survey-likert","154","999520","0.0-44.0","SS1618435779966","similarity_question","","","","","","","","","","","","{""Q0"":6}","[0]","","images/stimuli/spore_stims/simple_20_A_a.gif","images/stimuli/spore_stims/simple_06_A_b.gif"
"[{""page_index"":0,""viewing_time"":4346}]","4346","instructions","155","1003873","0.0-45.0","SS1618435779966","instructions","","","","","","","","","","","","","","","",""
"","4040","survey-likert","156","1007916","0.0-46.0","SS1618435779966","","","","","","","","","images/stimuli/spore_stims/simple_20_A_a.gif","","","","{""Q0"":0}","[0]","","",""
"","3725","survey-likert","157","1011647","0.0-47.0","SS1618435779966","","","","","","","","","images/stimuli/spore_stims/complex_16_A_a.gif","","","","{""Q0"":6}","[0]","","",""
"","4339","survey-likert","158","1015994","0.0-48.0","SS1618435779966","","","","","","","","","images/stimuli/spore_stims/complex_11_A_a.gif","","","","{""Q0"":6}","[0]","","",""
"","3539","survey-likert","159","1019540","0.0-49.0","SS1618435779966","","","","","","","","","images/stimuli/spore_stims/simple_04_A_a.gif","","","","{""Q0"":0}","[0]","","",""
"","3005","survey-likert","160","1022551","0.0-50.0","SS1618435779966","","","","","","","","","images/stimuli/spore_stims/simple_15_A_a.gif","","","","{""Q0"":0}","[0]","","",""
"","3102","survey-likert","161","1025659","0.0-51.0","SS1618435779966","","","","","","","","","images/stimuli/spore_stims/complex_01_A_a.gif","","","","{""Q0"":5}","[0]","","",""
"","6476","survey-likert","162","1032143","0.0-52.0","SS1618435779966","","","","","","","","","images/stimuli/spore_stims/simple_18_A_b.gif","","","","{""Q0"":1}","[0]","","",""
"","4596","survey-likert","163","1036745","0.0-53.0","SS1618435779966","","","","","","","","","images/stimuli/spore_stims/complex_10_A_a.gif","","","","{""Q0"":6}","[0]","","",""
"","3233","survey-likert","164","1039985","0.0-54.0","SS1618435779966","","","","","","","","","images/stimuli/spore_stims/complex_01_A_b.gif","","","","{""Q0"":6}","[0]","","",""
"","4231","survey-likert","165","1044222","0.0-55.0","SS1618435779966","","","","","","","","","images/stimuli/spore_stims/simple_12_A_b.gif","","","","{""Q0"":0}","[0]","","",""
"","5056","survey-likert","166","1049285","0.0-56.0","SS1618435779966","","","","","","","","","images/stimuli/spore_stims/complex_05_A_a.gif","","","","{""Q0"":5}","[0]","","",""
"","3536","survey-likert","167","1052830","0.0-57.0","SS1618435779966","","","","","","","","","images/stimuli/spore_stims/simple_03_A_b.gif","","","","{""Q0"":0}","[0]","","",""
"[{""page_index"":0,""viewing_time"":2069}]","2070","instructions","168","1054905","0.0-58.0","SS1618435779966","instructions","","","","","","","","","","","","","","","",""
"","3421","demog-age","169","1058334","0.0-59.0","SS1618435779966","","","","","","","","","","","","","{""age"":""29""}","","","",""
"","5435","demog-ethnic-US","170","1063777","0.0-60.0","SS1618435779966","","","","","","","","","","","","","{""ethnicity"":[""White""]}","[0]","","",""
"","5588","demog-gender-and-education","171","1069373","0.0-61.0","SS1618435779966","","","","","","","","","","","","","{""gender"":""Female"",""education"":""Master's Degree""}","[0,1]","","",""
"","6691","survey-text","172","1076073","0.0-62.0","SS1618435779966","feedback","","","","","","","","","","","","{""Q0"":""no""}","","","",""
"[{""page_index"":0,""viewing_time"":1524}]","1524","instructions","173","1077602","0.0-63.0","SS1618435779966","instructions","","","","","","","","","","","","","","","",""
