"view_history","rt","trial_type","trial_index","time_elapsed","internal_node_id","subject","stimulus_type","trial_stimulus","key_press","minimum_viewing_duration","trial_looking_time","block_deviant","block_background","exposure_type","stimulus","block_number","block_type","stimulus_displayed","responses","question_order","math_correct_answer","stimulus_left","stimulus_right"
"[{""page_index"":0,""viewing_time"":14794.695000000502}]","14795.15000000174","instructions","0","14796","0.0-0.0","SS1618435692759","","","","","","","","","","","","","","","","",""
"[{""page_index"":0,""viewing_time"":12193.80000000092},{""page_index"":1,""viewing_time"":3199.8600000006263}]","15393.785000000207","instructions","1","32196","0.0-1.0","SS1618435692759","instructions","","","","","","","","","","","","","","","",""
"","3857.049999998708","sequential-stimulus-presentation-old","2","36556","0.0-2.0","SS1618435692759","","","40","500","4357.049999998708","null","null","self_paced","","","","","","","","",""
"","2481.0100000031525","sequential-stimulus-presentation-old","3","39540","0.0-3.0","SS1618435692759","","","40","500","2981.0100000031525","null","null","self_paced","","","","","","","","",""
"[{""page_index"":0,""viewing_time"":10515.254999998433}]","10515.400000000227","instructions","4","50056","0.0-4.0","SS1618435692759","instructions","","","","","","","","","","","","","","","",""
"","7563.130000002275","sequential-stimulus-presentation-old","5","62632","0.0-5.0","SS1618435692759","","","40","500","8063.130000002275","null","null","forced_long","","","","","","","","",""
"","2693.394999998418","sequential-stimulus-presentation-old","6","65384","0.0-6.0","SS1618435692759","","","40","50","2743.394999998418","null","null","forced_long","","","","","","","","",""
"[{""page_index"":0,""viewing_time"":4865.350000000035}]","4865.4850000020815","instructions","7","70250","0.0-7.0","SS1618435692759","instructions","","","","","","","","","","","","","","","",""
"[{""page_index"":0,""viewing_time"":5680.274999998801},{""page_index"":1,""viewing_time"":8888.969999999972},{""page_index"":2,""viewing_time"":3807.9649999999674},{""page_index"":3,""viewing_time"":1352.0100000023376},{""page_index"":4,""viewing_time"":1055.899999999383}]","20785.250000000815","instructions","8","91035","0.0-8.0","SS1618435692759","instructions","","","","","","","","","","","","","","","",""
"","null","html-keyboard-response","9","91965","0.0-9.0-0.0","SS1618435692759","","","null","","","","","","<p><img src= images/blank.png width =""600"" height = ""600"" style=""position:fixed;top:50%; left:50%; transform: translate(-50%, -50%); border:5px solid black"">","","","","","","","",""
"","1752.745000001596","sequential-stimulus-presentation-old","10","98720","0.0-9.0-1.0","SS1618435692759","trial","","40","500","2252.745000001596","images/stimuli/spore_stims/simple_05_A_b.gif","images/stimuli/spore_stims/simple_18_A_a.gif","forced_long","","0","simple_dissimilar","images/stimuli/spore_stims/simple_18_A_a.gif","","","","",""
"","null","html-keyboard-response","11","99975","0.0-9.0-0.1","SS1618435692759","","","null","","","","","","<p><img src= images/blank.png width =""600"" height = ""600"" style=""position:fixed;top:50%; left:50%; transform: translate(-50%, -50%); border:5px solid black"">","","","","","","","",""
"","794.8499999984051","sequential-stimulus-presentation-old","12","101271","0.0-9.0-1.1","SS1618435692759","trial","","40","500","1294.849999998405","images/stimuli/spore_stims/simple_05_A_b.gif","images/stimuli/spore_stims/simple_18_A_a.gif","forced_long","","0","simple_dissimilar","images/stimuli/spore_stims/simple_18_A_a.gif","","","","",""
"","null","html-keyboard-response","13","102202","0.0-9.0-0.2","SS1618435692759","","","null","","","","","","<p><img src= images/blank.png width =""600"" height = ""600"" style=""position:fixed;top:50%; left:50%; transform: translate(-50%, -50%); border:5px solid black"">","","","","","","","",""
"","1136.1849999993865","sequential-stimulus-presentation-old","14","103839","0.0-9.0-1.2","SS1618435692759","trial","","40","500","1636.1849999993865","images/stimuli/spore_stims/simple_05_A_b.gif","images/stimuli/spore_stims/simple_18_A_a.gif","forced_long","","0","simple_dissimilar","images/stimuli/spore_stims/simple_18_A_a.gif","","","","",""
"","null","html-keyboard-response","15","104984","0.0-9.0-0.3","SS1618435692759","","","null","","","","","","<p><img src= images/blank.png width =""600"" height = ""600"" style=""position:fixed;top:50%; left:50%; transform: translate(-50%, -50%); border:5px solid black"">","","","","","","","",""
"","1437.7850000018952","sequential-stimulus-presentation-old","16","106923","0.0-9.0-1.3","SS1618435692759","trial","","40","500","1937.7850000018952","images/stimuli/spore_stims/simple_05_A_b.gif","images/stimuli/spore_stims/simple_18_A_a.gif","forced_long","","0","simple_dissimilar","images/stimuli/spore_stims/simple_05_A_b.gif","","","","",""
"","3250.8900000029826","survey-multi-choice","17","110176","0.0-10.0","SS1618435692759","math_question","","","","","","","","","","","","{""Q0"":""5""}","[0]","5","",""
"","null","html-keyboard-response","18","111181","0.0-11.0-0.0","SS1618435692759","","","null","","","","","","<p><img src= images/blank.png width =""600"" height = ""600"" style=""position:fixed;top:50%; left:50%; transform: translate(-50%, -50%); border:5px solid black"">","","","","","","","",""
"","847.9450000013458","sequential-stimulus-presentation-old","19","117031","0.0-11.0-1.0","SS1618435692759","trial","","40","500","1347.9450000013458","images/stimuli/spore_stims/complex_15_A_b.gif","images/stimuli/spore_stims/complex_01_A_a.gif","forced_long","","1","complex_dissimilar","images/stimuli/spore_stims/complex_01_A_a.gif","","","","",""
"","null","html-keyboard-response","20","117992","0.0-11.0-0.1","SS1618435692759","","","null","","","","","","<p><img src= images/blank.png width =""600"" height = ""600"" style=""position:fixed;top:50%; left:50%; transform: translate(-50%, -50%); border:5px solid black"">","","","","","","","",""
"","733.1649999978254","sequential-stimulus-presentation-old","21","119227","0.0-11.0-1.1","SS1618435692759","trial","","40","500","1233.1649999978254","images/stimuli/spore_stims/complex_15_A_b.gif","images/stimuli/spore_stims/complex_01_A_a.gif","forced_long","","1","complex_dissimilar","images/stimuli/spore_stims/complex_01_A_a.gif","","","","",""
"","null","html-keyboard-response","22","120504","0.0-11.0-0.2","SS1618435692759","","","null","","","","","","<p><img src= images/blank.png width =""600"" height = ""600"" style=""position:fixed;top:50%; left:50%; transform: translate(-50%, -50%); border:5px solid black"">","","","","","","","",""
"","1772.9550000003655","sequential-stimulus-presentation-old","23","122779","0.0-11.0-1.2","SS1618435692759","trial","","40","500","2272.9550000003655","images/stimuli/spore_stims/complex_15_A_b.gif","images/stimuli/spore_stims/complex_01_A_a.gif","forced_long","","1","complex_dissimilar","images/stimuli/spore_stims/complex_15_A_b.gif","","","","",""
"","null","html-keyboard-response","24","123658","0.0-11.0-0.3","SS1618435692759","","","null","","","","","","<p><img src= images/blank.png width =""600"" height = ""600"" style=""position:fixed;top:50%; left:50%; transform: translate(-50%, -50%); border:5px solid black"">","","","","","","","",""
"","2923.7900000007357","sequential-stimulus-presentation-old","25","127083","0.0-11.0-1.3","SS1618435692759","trial","","40","500","3423.7900000007357","images/stimuli/spore_stims/complex_15_A_b.gif","images/stimuli/spore_stims/complex_01_A_a.gif","forced_long","","1","complex_dissimilar","images/stimuli/spore_stims/complex_01_A_a.gif","","","","",""
"","null","html-keyboard-response","26","127959","0.0-11.0-0.4","SS1618435692759","","","null","","","","","","<p><img src= images/blank.png width =""600"" height = ""600"" style=""position:fixed;top:50%; left:50%; transform: translate(-50%, -50%); border:5px solid black"">","","","","","","","",""
"","2064.685000001191","sequential-stimulus-presentation-old","27","130535","0.0-11.0-1.4","SS1618435692759","trial","","40","500","2564.685000001191","images/stimuli/spore_stims/complex_15_A_b.gif","images/stimuli/spore_stims/complex_01_A_a.gif","forced_long","","1","complex_dissimilar","images/stimuli/spore_stims/complex_15_A_b.gif","","","","",""
"","2954.1150000004563","survey-multi-choice","28","133490","0.0-12.0","SS1618435692759","math_question","","","","","","","","","","","","{""Q0"":""17""}","[0]","17","",""
"","null","html-keyboard-response","29","134798","0.0-13.0-0.0","SS1618435692759","","","null","","","","","","<p><img src= images/blank.png width =""600"" height = ""600"" style=""position:fixed;top:50%; left:50%; transform: translate(-50%, -50%); border:5px solid black"">","","","","","","","",""
"","3730.859999999666","sequential-stimulus-presentation-old","30","139035","0.0-13.0-1.0","SS1618435692759","trial","","40","500","4230.859999999666","images/stimuli/spore_stims/complex_16_A_a.gif","images/stimuli/spore_stims/complex_17_A_b.gif","self_paced","","2","complex_dissimilar","images/stimuli/spore_stims/complex_17_A_b.gif","","","","",""
"","null","html-keyboard-response","31","139951","0.0-13.0-0.1","SS1618435692759","","","null","","","","","","<p><img src= images/blank.png width =""600"" height = ""600"" style=""position:fixed;top:50%; left:50%; transform: translate(-50%, -50%); border:5px solid black"">","","","","","","","",""
"","721.7349999991711","sequential-stimulus-presentation-old","32","141175","0.0-13.0-1.1","SS1618435692759","trial","","40","500","1221.7349999991711","images/stimuli/spore_stims/complex_16_A_a.gif","images/stimuli/spore_stims/complex_17_A_b.gif","self_paced","","2","complex_dissimilar","images/stimuli/spore_stims/complex_17_A_b.gif","","","","",""
"","null","html-keyboard-response","33","142410","0.0-13.0-0.2","SS1618435692759","","","null","","","","","","<p><img src= images/blank.png width =""600"" height = ""600"" style=""position:fixed;top:50%; left:50%; transform: translate(-50%, -50%); border:5px solid black"">","","","","","","","",""
"","451.12499999959255","sequential-stimulus-presentation-old","34","143371","0.0-13.0-1.2","SS1618435692759","trial","","40","500","951.1249999995925","images/stimuli/spore_stims/complex_16_A_a.gif","images/stimuli/spore_stims/complex_17_A_b.gif","self_paced","","2","complex_dissimilar","images/stimuli/spore_stims/complex_17_A_b.gif","","","","",""
"","null","html-keyboard-response","35","144359","0.0-13.0-0.3","SS1618435692759","","","null","","","","","","<p><img src= images/blank.png width =""600"" height = ""600"" style=""position:fixed;top:50%; left:50%; transform: translate(-50%, -50%); border:5px solid black"">","","","","","","","",""
"","917.2650000000431","sequential-stimulus-presentation-old","36","145787","0.0-13.0-1.3","SS1618435692759","trial","","40","500","1417.265000000043","images/stimuli/spore_stims/complex_16_A_a.gif","images/stimuli/spore_stims/complex_17_A_b.gif","self_paced","","2","complex_dissimilar","images/stimuli/spore_stims/complex_17_A_b.gif","","","","",""
"","null","html-keyboard-response","37","147027","0.0-13.0-0.4","SS1618435692759","","","null","","","","","","<p><img src= images/blank.png width =""600"" height = ""600"" style=""position:fixed;top:50%; left:50%; transform: translate(-50%, -50%); border:5px solid black"">","","","","","","","",""
"","3350.3600000003644","sequential-stimulus-presentation-old","38","150887","0.0-13.0-1.4","SS1618435692759","trial","","40","500","3850.3600000003644","images/stimuli/spore_stims/complex_16_A_a.gif","images/stimuli/spore_stims/complex_17_A_b.gif","self_paced","","2","complex_dissimilar","images/stimuli/spore_stims/complex_16_A_a.gif","","","","",""
"","null","html-keyboard-response","39","152115","0.0-13.0-0.5","SS1618435692759","","","null","","","","","","<p><img src= images/blank.png width =""600"" height = ""600"" style=""position:fixed;top:50%; left:50%; transform: translate(-50%, -50%); border:5px solid black"">","","","","","","","",""
"","139.7450000004028","sequential-stimulus-presentation-old","40","152759","0.0-13.0-1.5","SS1618435692759","trial","","40","500","639.7450000004028","images/stimuli/spore_stims/complex_16_A_a.gif","images/stimuli/spore_stims/complex_17_A_b.gif","self_paced","","2","complex_dissimilar","images/stimuli/spore_stims/complex_16_A_a.gif","","","","",""
"","2769.2099999985658","survey-multi-choice","41","155529","0.0-14.0","SS1618435692759","math_question","","","","","","","","","","","","{""Q0"":""13""}","[0]","13","",""
"","null","html-keyboard-response","42","156458","0.0-15.0-0.0","SS1618435692759","","","null","","","","","","<p><img src= images/blank.png width =""600"" height = ""600"" style=""position:fixed;top:50%; left:50%; transform: translate(-50%, -50%); border:5px solid black"">","","","","","","","",""
"","2946.8999999990046","sequential-stimulus-presentation-old","43","159907","0.0-15.0-1.0","SS1618435692759","trial","","40","500","3446.8999999990046","images/stimuli/spore_stims/complex_20_A_a.gif","images/stimuli/spore_stims/complex_18_A_b.gif","self_paced","","3","complex_dissimilar","images/stimuli/spore_stims/complex_18_A_b.gif","","","","",""
"","null","html-keyboard-response","44","161019","0.0-15.0-0.1","SS1618435692759","","","null","","","","","","<p><img src= images/blank.png width =""600"" height = ""600"" style=""position:fixed;top:50%; left:50%; transform: translate(-50%, -50%); border:5px solid black"">","","","","","","","",""
"","297.1949999991921","sequential-stimulus-presentation-old","45","161819","0.0-15.0-1.1","SS1618435692759","trial","","40","500","797.1949999991921","images/stimuli/spore_stims/complex_20_A_a.gif","images/stimuli/spore_stims/complex_18_A_b.gif","self_paced","","3","complex_dissimilar","images/stimuli/spore_stims/complex_18_A_b.gif","","","","",""
"","null","html-keyboard-response","46","163106","0.0-15.0-0.2","SS1618435692759","","","null","","","","","","<p><img src= images/blank.png width =""600"" height = ""600"" style=""position:fixed;top:50%; left:50%; transform: translate(-50%, -50%); border:5px solid black"">","","","","","","","",""
"","95.27000000161934","sequential-stimulus-presentation-old","47","163703","0.0-15.0-1.2","SS1618435692759","trial","","40","500","595.2700000016193","images/stimuli/spore_stims/complex_20_A_a.gif","images/stimuli/spore_stims/complex_18_A_b.gif","self_paced","","3","complex_dissimilar","images/stimuli/spore_stims/complex_18_A_b.gif","","","","",""
"","null","html-keyboard-response","48","164551","0.0-15.0-0.3","SS1618435692759","","","null","","","","","","<p><img src= images/blank.png width =""600"" height = ""600"" style=""position:fixed;top:50%; left:50%; transform: translate(-50%, -50%); border:5px solid black"">","","","","","","","",""
"","254.21500000084052","sequential-stimulus-presentation-old","49","165307","0.0-15.0-1.3","SS1618435692759","trial","","40","500","754.2150000008405","images/stimuli/spore_stims/complex_20_A_a.gif","images/stimuli/spore_stims/complex_18_A_b.gif","self_paced","","3","complex_dissimilar","images/stimuli/spore_stims/complex_18_A_b.gif","","","","",""
"","null","html-keyboard-response","50","166543","0.0-15.0-0.4","SS1618435692759","","","null","","","","","","<p><img src= images/blank.png width =""600"" height = ""600"" style=""position:fixed;top:50%; left:50%; transform: translate(-50%, -50%); border:5px solid black"">","","","","","","","",""
"","1210.0399999981164","sequential-stimulus-presentation-old","51","168263","0.0-15.0-1.4","SS1618435692759","trial","","40","500","1710.0399999981164","images/stimuli/spore_stims/complex_20_A_a.gif","images/stimuli/spore_stims/complex_18_A_b.gif","self_paced","","3","complex_dissimilar","images/stimuli/spore_stims/complex_18_A_b.gif","","","","",""
"","null","html-keyboard-response","52","169108","0.0-15.0-0.5","SS1618435692759","","","null","","","","","","<p><img src= images/blank.png width =""600"" height = ""600"" style=""position:fixed;top:50%; left:50%; transform: translate(-50%, -50%); border:5px solid black"">","","","","","","","",""
"","981.4799999985553","sequential-stimulus-presentation-old","53","170599","0.0-15.0-1.5","SS1618435692759","trial","","40","500","1481.4799999985553","images/stimuli/spore_stims/complex_20_A_a.gif","images/stimuli/spore_stims/complex_18_A_b.gif","self_paced","","3","complex_dissimilar","images/stimuli/spore_stims/complex_18_A_b.gif","","","","",""
"","2897.945000000618","survey-multi-choice","54","173498","0.0-16.0","SS1618435692759","math_question","","","","","","","","","","","","{""Q0"":""2""}","[0]","2","",""
"","null","html-keyboard-response","55","174633","0.0-17.0-0.0","SS1618435692759","","","null","","","","","","<p><img src= images/blank.png width =""600"" height = ""600"" style=""position:fixed;top:50%; left:50%; transform: translate(-50%, -50%); border:5px solid black"">","","","","","","","",""
"","2696.31500000105","sequential-stimulus-presentation-old","56","177391","0.0-17.0-1.0","SS1618435692759","trial","","40","500","3196.31500000105","images/stimuli/spore_stims/simple_11_A_b.gif","images/stimuli/spore_stims/simple_17_A_a.gif","forced_short","","4","simple_dissimilar","images/stimuli/spore_stims/simple_17_A_a.gif","","","","",""
"","null","html-keyboard-response","57","178693","0.0-17.0-0.1","SS1618435692759","","","null","","","","","","<p><img src= images/blank.png width =""600"" height = ""600"" style=""position:fixed;top:50%; left:50%; transform: translate(-50%, -50%); border:5px solid black"">","","","","","","","",""
"","1711.5650000014284","sequential-stimulus-presentation-old","58","180907","0.0-17.0-1.1","SS1618435692759","trial","","40","500","2211.5650000014284","images/stimuli/spore_stims/simple_11_A_b.gif","images/stimuli/spore_stims/simple_17_A_a.gif","forced_short","","4","simple_dissimilar","images/stimuli/spore_stims/simple_17_A_a.gif","","","","",""
"","null","html-keyboard-response","59","181906","0.0-17.0-0.2","SS1618435692759","","","null","","","","","","<p><img src= images/blank.png width =""600"" height = ""600"" style=""position:fixed;top:50%; left:50%; transform: translate(-50%, -50%); border:5px solid black"">","","","","","","","",""
"","170.95999999946798","sequential-stimulus-presentation-old","60","182579","0.0-17.0-1.2","SS1618435692759","trial","","40","500","670.959999999468","images/stimuli/spore_stims/simple_11_A_b.gif","images/stimuli/spore_stims/simple_17_A_a.gif","forced_short","","4","simple_dissimilar","images/stimuli/spore_stims/simple_17_A_a.gif","","","","",""
"","null","html-keyboard-response","61","183778","0.0-17.0-0.3","SS1618435692759","","","null","","","","","","<p><img src= images/blank.png width =""600"" height = ""600"" style=""position:fixed;top:50%; left:50%; transform: translate(-50%, -50%); border:5px solid black"">","","","","","","","",""
"","478.1799999982468","sequential-stimulus-presentation-old","62","184767","0.0-17.0-1.3","SS1618435692759","trial","","40","500","978.1799999982468","images/stimuli/spore_stims/simple_11_A_b.gif","images/stimuli/spore_stims/simple_17_A_a.gif","forced_short","","4","simple_dissimilar","images/stimuli/spore_stims/simple_17_A_a.gif","","","","",""
"","null","html-keyboard-response","63","185657","0.0-17.0-0.4","SS1618435692759","","","null","","","","","","<p><img src= images/blank.png width =""600"" height = ""600"" style=""position:fixed;top:50%; left:50%; transform: translate(-50%, -50%); border:5px solid black"">","","","","","","","",""
"","489.72499999945285","sequential-stimulus-presentation-old","64","186659","0.0-17.0-1.4","SS1618435692759","trial","","40","500","989.7249999994528","images/stimuli/spore_stims/simple_11_A_b.gif","images/stimuli/spore_stims/simple_17_A_a.gif","forced_short","","4","simple_dissimilar","images/stimuli/spore_stims/simple_17_A_a.gif","","","","",""
"","3480.875000001106","survey-multi-choice","65","190141","0.0-18.0","SS1618435692759","math_question","","","","","","","","","","","","{""Q0"":""9""}","[0]","9","",""
"","null","html-keyboard-response","66","191011","0.0-19.0-0.0","SS1618435692759","","","null","","","","","","<p><img src= images/blank.png width =""600"" height = ""600"" style=""position:fixed;top:50%; left:50%; transform: translate(-50%, -50%); border:5px solid black"">","","","","","","","",""
"","3159.474999996746","sequential-stimulus-presentation-old","67","194223","0.0-19.0-1.0","SS1618435692759","trial","","40","500","3659.474999996746","images/stimuli/spore_stims/simple_07_A_b.gif","images/stimuli/spore_stims/simple_12_A_a.gif","forced_short","","5","simple_dissimilar","images/stimuli/spore_stims/simple_12_A_a.gif","","","","",""
"","null","html-keyboard-response","68","195481","0.0-19.0-0.1","SS1618435692759","","","null","","","","","","<p><img src= images/blank.png width =""600"" height = ""600"" style=""position:fixed;top:50%; left:50%; transform: translate(-50%, -50%); border:5px solid black"">","","","","","","","",""
"","973.7400000012713","sequential-stimulus-presentation-old","69","196959","0.0-19.0-1.1","SS1618435692759","trial","","40","500","1473.7400000012713","images/stimuli/spore_stims/simple_07_A_b.gif","images/stimuli/spore_stims/simple_12_A_a.gif","forced_short","","5","simple_dissimilar","images/stimuli/spore_stims/simple_12_A_a.gif","","","","",""
"","null","html-keyboard-response","70","198029","0.0-19.0-0.2","SS1618435692759","","","null","","","","","","<p><img src= images/blank.png width =""600"" height = ""600"" style=""position:fixed;top:50%; left:50%; transform: translate(-50%, -50%); border:5px solid black"">","","","","","","","",""
"","83.5399999996298","sequential-stimulus-presentation-old","71","198615","0.0-19.0-1.2","SS1618435692759","trial","","40","500","583.5399999996298","images/stimuli/spore_stims/simple_07_A_b.gif","images/stimuli/spore_stims/simple_12_A_a.gif","forced_short","","5","simple_dissimilar","images/stimuli/spore_stims/simple_12_A_a.gif","","","","",""
"","null","html-keyboard-response","72","199819","0.0-19.0-0.3","SS1618435692759","","","null","","","","","","<p><img src= images/blank.png width =""600"" height = ""600"" style=""position:fixed;top:50%; left:50%; transform: translate(-50%, -50%); border:5px solid black"">","","","","","","","",""
"","161.7149999983667","sequential-stimulus-presentation-old","73","200483","0.0-19.0-1.3","SS1618435692759","trial","","40","500","661.7149999983667","images/stimuli/spore_stims/simple_07_A_b.gif","images/stimuli/spore_stims/simple_12_A_a.gif","forced_short","","5","simple_dissimilar","images/stimuli/spore_stims/simple_12_A_a.gif","","","","",""
"","2422.9149999991932","survey-multi-choice","74","202907","0.0-20.0","SS1618435692759","math_question","","","","","","","","","","","","{""Q0"":""11""}","[0]","11","",""
"","null","html-keyboard-response","75","203898","0.0-21.0-0.0","SS1618435692759","","","null","","","","","","<p><img src= images/blank.png width =""600"" height = ""600"" style=""position:fixed;top:50%; left:50%; transform: translate(-50%, -50%); border:5px solid black"">","","","","","","","",""
"","2346.7600000003586","sequential-stimulus-presentation-old","76","206307","0.0-21.0-1.0","SS1618435692759","trial","","40","500","2846.7600000003586","images/stimuli/spore_stims/complex_14_A_a.gif","images/stimuli/spore_stims/complex_03_A_b.gif","forced_short","","6","complex_dissimilar","images/stimuli/spore_stims/complex_03_A_b.gif","","","","",""
"","null","html-keyboard-response","77","207419","0.0-21.0-0.1","SS1618435692759","","","null","","","","","","<p><img src= images/blank.png width =""600"" height = ""600"" style=""position:fixed;top:50%; left:50%; transform: translate(-50%, -50%); border:5px solid black"">","","","","","","","",""
"","1494.4400000022142","sequential-stimulus-presentation-old","78","209423","0.0-21.0-1.1","SS1618435692759","trial","","40","500","1994.4400000022142","images/stimuli/spore_stims/complex_14_A_a.gif","images/stimuli/spore_stims/complex_03_A_b.gif","forced_short","","6","complex_dissimilar","images/stimuli/spore_stims/complex_03_A_b.gif","","","","",""
"","null","html-keyboard-response","79","210337","0.0-21.0-0.2","SS1618435692759","","","null","","","","","","<p><img src= images/blank.png width =""600"" height = ""600"" style=""position:fixed;top:50%; left:50%; transform: translate(-50%, -50%); border:5px solid black"">","","","","","","","",""
"","1540.5549999995856","sequential-stimulus-presentation-old","80","212387","0.0-21.0-1.2","SS1618435692759","trial","","40","500","2040.5549999995856","images/stimuli/spore_stims/complex_14_A_a.gif","images/stimuli/spore_stims/complex_03_A_b.gif","forced_short","","6","complex_dissimilar","images/stimuli/spore_stims/complex_14_A_a.gif","","","","",""
"","null","html-keyboard-response","81","213421","0.0-21.0-0.3","SS1618435692759","","","null","","","","","","<p><img src= images/blank.png width =""600"" height = ""600"" style=""position:fixed;top:50%; left:50%; transform: translate(-50%, -50%); border:5px solid black"">","","","","","","","",""
"","300.6299999979092","sequential-stimulus-presentation-old","82","214235","0.0-21.0-1.3","SS1618435692759","trial","","40","500","800.6299999979092","images/stimuli/spore_stims/complex_14_A_a.gif","images/stimuli/spore_stims/complex_03_A_b.gif","forced_short","","6","complex_dissimilar","images/stimuli/spore_stims/complex_14_A_a.gif","","","","",""
"","3259.97500000085","survey-multi-choice","83","217496","0.0-22.0","SS1618435692759","math_question","","","","","","","","","","","","{""Q0"":""7""}","[0]","7","",""
"","null","html-keyboard-response","84","218590","0.0-23.0-0.0","SS1618435692759","","","null","","","","","","<p><img src= images/blank.png width =""600"" height = ""600"" style=""position:fixed;top:50%; left:50%; transform: translate(-50%, -50%); border:5px solid black"">","","","","","","","",""
"","14.240000000427244","sequential-stimulus-presentation-old","85","223607","0.0-23.0-1.0","SS1618435692759","trial","","40","500","514.2400000004272","images/stimuli/spore_stims/complex_01_A_b.gif","images/stimuli/spore_stims/complex_13_A_a.gif","forced_long","","7","complex_dissimilar","images/stimuli/spore_stims/complex_13_A_a.gif","","","","",""
"","null","html-keyboard-response","86","224431","0.0-23.0-0.1","SS1618435692759","","","null","","","","","","<p><img src= images/blank.png width =""600"" height = ""600"" style=""position:fixed;top:50%; left:50%; transform: translate(-50%, -50%); border:5px solid black"">","","","","","","","",""
"","270.410000000993","sequential-stimulus-presentation-old","87","225211","0.0-23.0-1.1","SS1618435692759","trial","","40","500","770.410000000993","images/stimuli/spore_stims/complex_01_A_b.gif","images/stimuli/spore_stims/complex_13_A_a.gif","forced_long","","7","complex_dissimilar","images/stimuli/spore_stims/complex_13_A_a.gif","","","","",""
"","null","html-keyboard-response","88","226049","0.0-23.0-0.2","SS1618435692759","","","null","","","","","","<p><img src= images/blank.png width =""600"" height = ""600"" style=""position:fixed;top:50%; left:50%; transform: translate(-50%, -50%); border:5px solid black"">","","","","","","","",""
"","126.69499999901745","sequential-stimulus-presentation-old","89","226691","0.0-23.0-1.2","SS1618435692759","trial","","40","500","626.6949999990175","images/stimuli/spore_stims/complex_01_A_b.gif","images/stimuli/spore_stims/complex_13_A_a.gif","forced_long","","7","complex_dissimilar","images/stimuli/spore_stims/complex_13_A_a.gif","","","","",""
"","null","html-keyboard-response","90","227974","0.0-23.0-0.3","SS1618435692759","","","null","","","","","","<p><img src= images/blank.png width =""600"" height = ""600"" style=""position:fixed;top:50%; left:50%; transform: translate(-50%, -50%); border:5px solid black"">","","","","","","","",""
"","134.5099999998638","sequential-stimulus-presentation-old","91","228611","0.0-23.0-1.3","SS1618435692759","trial","","40","500","634.5099999998638","images/stimuli/spore_stims/complex_01_A_b.gif","images/stimuli/spore_stims/complex_13_A_a.gif","forced_long","","7","complex_dissimilar","images/stimuli/spore_stims/complex_13_A_a.gif","","","","",""
"","3708.8050000020303","survey-multi-choice","92","232321","0.0-24.0","SS1618435692759","math_question","","","","","","","","","","","","{""Q0"":""14""}","[0]","14","",""
"","null","html-keyboard-response","93","233309","0.0-25.0-0.0","SS1618435692759","","","null","","","","","","<p><img src= images/blank.png width =""600"" height = ""600"" style=""position:fixed;top:50%; left:50%; transform: translate(-50%, -50%); border:5px solid black"">","","","","","","","",""
"","1401.8099999993865","sequential-stimulus-presentation-old","94","234763","0.0-25.0-1.0","SS1618435692759","trial","","40","500","1901.8099999993865","images/stimuli/spore_stims/complex_05_A_a.gif","images/stimuli/spore_stims/complex_08_A_b.gif","forced_short","","8","complex_dissimilar","images/stimuli/spore_stims/complex_08_A_b.gif","","","","",""
"","null","html-keyboard-response","95","235876","0.0-25.0-0.1","SS1618435692759","","","null","","","","","","<p><img src= images/blank.png width =""600"" height = ""600"" style=""position:fixed;top:50%; left:50%; transform: translate(-50%, -50%); border:5px solid black"">","","","","","","","",""
"","1284.4050000021525","sequential-stimulus-presentation-old","96","237671","0.0-25.0-1.1","SS1618435692759","trial","","40","500","1784.4050000021525","images/stimuli/spore_stims/complex_05_A_a.gif","images/stimuli/spore_stims/complex_08_A_b.gif","forced_short","","8","complex_dissimilar","images/stimuli/spore_stims/complex_08_A_b.gif","","","","",""
"","null","html-keyboard-response","97","238624","0.0-25.0-0.2","SS1618435692759","","","null","","","","","","<p><img src= images/blank.png width =""600"" height = ""600"" style=""position:fixed;top:50%; left:50%; transform: translate(-50%, -50%); border:5px solid black"">","","","","","","","",""
"","1590.040000002773","sequential-stimulus-presentation-old","98","240715","0.0-25.0-1.2","SS1618435692759","trial","","40","500","2090.040000002773","images/stimuli/spore_stims/complex_05_A_a.gif","images/stimuli/spore_stims/complex_08_A_b.gif","forced_short","","8","complex_dissimilar","images/stimuli/spore_stims/complex_05_A_a.gif","","","","",""
"","null","html-keyboard-response","99","241739","0.0-25.0-0.3","SS1618435692759","","","null","","","","","","<p><img src= images/blank.png width =""600"" height = ""600"" style=""position:fixed;top:50%; left:50%; transform: translate(-50%, -50%); border:5px solid black"">","","","","","","","",""
"","845.660000002681","sequential-stimulus-presentation-old","100","243087","0.0-25.0-1.3","SS1618435692759","trial","","40","500","1345.660000002681","images/stimuli/spore_stims/complex_05_A_a.gif","images/stimuli/spore_stims/complex_08_A_b.gif","forced_short","","8","complex_dissimilar","images/stimuli/spore_stims/complex_08_A_b.gif","","","","",""
"","null","html-keyboard-response","101","244120","0.0-25.0-0.4","SS1618435692759","","","null","","","","","","<p><img src= images/blank.png width =""600"" height = ""600"" style=""position:fixed;top:50%; left:50%; transform: translate(-50%, -50%); border:5px solid black"">","","","","","","","",""
"","1123.1600000028266","sequential-stimulus-presentation-old","102","245755","0.0-25.0-1.4","SS1618435692759","trial","","40","500","1623.1600000028266","images/stimuli/spore_stims/complex_05_A_a.gif","images/stimuli/spore_stims/complex_08_A_b.gif","forced_short","","8","complex_dissimilar","images/stimuli/spore_stims/complex_05_A_a.gif","","","","",""
"","2485.839999997552","survey-multi-choice","103","248242","0.0-26.0","SS1618435692759","math_question","","","","","","","","","","","","{""Q0"":""4""}","[0]","4","",""
"","null","html-keyboard-response","104","249298","0.0-27.0-0.0","SS1618435692759","","","null","","","","","","<p><img src= images/blank.png width =""600"" height = ""600"" style=""position:fixed;top:50%; left:50%; transform: translate(-50%, -50%); border:5px solid black"">","","","","","","","",""
"","378.97499999962747","sequential-stimulus-presentation-old","105","250179","0.0-27.0-1.0","SS1618435692759","trial","","40","500","878.9749999996275","images/stimuli/spore_stims/simple_14_A_a.gif","images/stimuli/spore_stims/simple_09_A_b.gif","self_paced","","9","simple_dissimilar","images/stimuli/spore_stims/simple_09_A_b.gif","","","","",""
"","null","html-keyboard-response","106","251110","0.0-27.0-0.1","SS1618435692759","","","null","","","","","","<p><img src= images/blank.png width =""600"" height = ""600"" style=""position:fixed;top:50%; left:50%; transform: translate(-50%, -50%); border:5px solid black"">","","","","","","","",""
"","1027.555000000575","sequential-stimulus-presentation-old","107","252643","0.0-27.0-1.1","SS1618435692759","trial","","40","500","1527.555000000575","images/stimuli/spore_stims/simple_14_A_a.gif","images/stimuli/spore_stims/simple_09_A_b.gif","self_paced","","9","simple_dissimilar","images/stimuli/spore_stims/simple_09_A_b.gif","","","","",""
"","null","html-keyboard-response","108","253655","0.0-27.0-0.2","SS1618435692759","","","null","","","","","","<p><img src= images/blank.png width =""600"" height = ""600"" style=""position:fixed;top:50%; left:50%; transform: translate(-50%, -50%); border:5px solid black"">","","","","","","","",""
"","121.98500000158674","sequential-stimulus-presentation-old","109","254279","0.0-27.0-1.2","SS1618435692759","trial","","40","500","621.9850000015867","images/stimuli/spore_stims/simple_14_A_a.gif","images/stimuli/spore_stims/simple_09_A_b.gif","self_paced","","9","simple_dissimilar","images/stimuli/spore_stims/simple_09_A_b.gif","","","","",""
"","null","html-keyboard-response","110","255345","0.0-27.0-0.3","SS1618435692759","","","null","","","","","","<p><img src= images/blank.png width =""600"" height = ""600"" style=""position:fixed;top:50%; left:50%; transform: translate(-50%, -50%); border:5px solid black"">","","","","","","","",""
"","25.209999999788124","sequential-stimulus-presentation-old","111","255883","0.0-27.0-1.3","SS1618435692759","trial","","40","500","525.2099999997881","images/stimuli/spore_stims/simple_14_A_a.gif","images/stimuli/spore_stims/simple_09_A_b.gif","self_paced","","9","simple_dissimilar","images/stimuli/spore_stims/simple_09_A_b.gif","","","","",""
"","null","html-keyboard-response","112","256936","0.0-27.0-0.4","SS1618435692759","","","null","","","","","","<p><img src= images/blank.png width =""600"" height = ""600"" style=""position:fixed;top:50%; left:50%; transform: translate(-50%, -50%); border:5px solid black"">","","","","","","","",""
"","845.3100000005797","sequential-stimulus-presentation-old","113","258283","0.0-27.0-1.4","SS1618435692759","trial","","40","500","1345.3100000005797","images/stimuli/spore_stims/simple_14_A_a.gif","images/stimuli/spore_stims/simple_09_A_b.gif","self_paced","","9","simple_dissimilar","images/stimuli/spore_stims/simple_09_A_b.gif","","","","",""
"","null","html-keyboard-response","114","259346","0.0-27.0-0.5","SS1618435692759","","","null","","","","","","<p><img src= images/blank.png width =""600"" height = ""600"" style=""position:fixed;top:50%; left:50%; transform: translate(-50%, -50%); border:5px solid black"">","","","","","","","",""
"","150.6249999984284","sequential-stimulus-presentation-old","115","259999","0.0-27.0-1.5","SS1618435692759","trial","","40","500","650.6249999984284","images/stimuli/spore_stims/simple_14_A_a.gif","images/stimuli/spore_stims/simple_09_A_b.gif","self_paced","","9","simple_dissimilar","images/stimuli/spore_stims/simple_09_A_b.gif","","","","",""
"","3349.740000001504","survey-multi-choice","116","263350","0.0-28.0","SS1618435692759","math_question","","","","","","","","","","","","{""Q0"":""11""}","[0]","11","",""
"","null","html-keyboard-response","117","264594","0.0-29.0-0.0","SS1618435692759","","","null","","","","","","<p><img src= images/blank.png width =""600"" height = ""600"" style=""position:fixed;top:50%; left:50%; transform: translate(-50%, -50%); border:5px solid black"">","","","","","","","",""
"","199.04500000120606","sequential-stimulus-presentation-old","118","265295","0.0-29.0-1.0","SS1618435692759","trial","","40","500","699.0450000012061","images/stimuli/spore_stims/simple_01_A_a.gif","images/stimuli/spore_stims/simple_13_A_b.gif","self_paced","","10","simple_dissimilar","images/stimuli/spore_stims/simple_13_A_b.gif","","","","",""
"","null","html-keyboard-response","119","266567","0.0-29.0-0.1","SS1618435692759","","","null","","","","","","<p><img src= images/blank.png width =""600"" height = ""600"" style=""position:fixed;top:50%; left:50%; transform: translate(-50%, -50%); border:5px solid black"">","","","","","","","",""
"","445.4750000004424","sequential-stimulus-presentation-old","120","267515","0.0-29.0-1.1","SS1618435692759","trial","","40","500","945.4750000004424","images/stimuli/spore_stims/simple_01_A_a.gif","images/stimuli/spore_stims/simple_13_A_b.gif","self_paced","","10","simple_dissimilar","images/stimuli/spore_stims/simple_13_A_b.gif","","","","",""
"","null","html-keyboard-response","121","268375","0.0-29.0-0.2","SS1618435692759","","","null","","","","","","<p><img src= images/blank.png width =""600"" height = ""600"" style=""position:fixed;top:50%; left:50%; transform: translate(-50%, -50%); border:5px solid black"">","","","","","","","",""
"","477.7649999996065","sequential-stimulus-presentation-old","122","269355","0.0-29.0-1.2","SS1618435692759","trial","","40","500","977.7649999996065","images/stimuli/spore_stims/simple_01_A_a.gif","images/stimuli/spore_stims/simple_13_A_b.gif","self_paced","","10","simple_dissimilar","images/stimuli/spore_stims/simple_13_A_b.gif","","","","",""
"","null","html-keyboard-response","123","270596","0.0-29.0-0.3","SS1618435692759","","","null","","","","","","<p><img src= images/blank.png width =""600"" height = ""600"" style=""position:fixed;top:50%; left:50%; transform: translate(-50%, -50%); border:5px solid black"">","","","","","","","",""
"","300.889999998617","sequential-stimulus-presentation-old","124","271399","0.0-29.0-1.3","SS1618435692759","trial","","40","500","800.889999998617","images/stimuli/spore_stims/simple_01_A_a.gif","images/stimuli/spore_stims/simple_13_A_b.gif","self_paced","","10","simple_dissimilar","images/stimuli/spore_stims/simple_13_A_b.gif","","","","",""
"","null","html-keyboard-response","125","272674","0.0-29.0-0.4","SS1618435692759","","","null","","","","","","<p><img src= images/blank.png width =""600"" height = ""600"" style=""position:fixed;top:50%; left:50%; transform: translate(-50%, -50%); border:5px solid black"">","","","","","","","",""
"","394.3199999994249","sequential-stimulus-presentation-old","126","273571","0.0-29.0-1.4","SS1618435692759","trial","","40","500","894.3199999994249","images/stimuli/spore_stims/simple_01_A_a.gif","images/stimuli/spore_stims/simple_13_A_b.gif","self_paced","","10","simple_dissimilar","images/stimuli/spore_stims/simple_01_A_a.gif","","","","",""
"","2952.045000001788","survey-multi-choice","127","276525","0.0-30.0","SS1618435692759","math_question","","","","","","","","","","","","{""Q0"":""11""}","[0]","11","",""
"","null","html-keyboard-response","128","277644","0.0-31.0-0.0","SS1618435692759","","","null","","","","","","<p><img src= images/blank.png width =""600"" height = ""600"" style=""position:fixed;top:50%; left:50%; transform: translate(-50%, -50%); border:5px solid black"">","","","","","","","",""
"","84.31500000006054","sequential-stimulus-presentation-old","129","282731","0.0-31.0-1.0","SS1618435692759","trial","","40","500","584.3150000000605","images/stimuli/spore_stims/simple_11_A_a.gif","images/stimuli/spore_stims/simple_06_A_b.gif","forced_long","","11","simple_dissimilar","images/stimuli/spore_stims/simple_06_A_b.gif","","","","",""
"","null","html-keyboard-response","130","283690","0.0-31.0-0.1","SS1618435692759","","","null","","","","","","<p><img src= images/blank.png width =""600"" height = ""600"" style=""position:fixed;top:50%; left:50%; transform: translate(-50%, -50%); border:5px solid black"">","","","","","","","",""
"","666.0800000027521","sequential-stimulus-presentation-old","131","284859","0.0-31.0-1.1","SS1618435692759","trial","","40","500","1166.080000002752","images/stimuli/spore_stims/simple_11_A_a.gif","images/stimuli/spore_stims/simple_06_A_b.gif","forced_long","","11","simple_dissimilar","images/stimuli/spore_stims/simple_06_A_b.gif","","","","",""
"","null","html-keyboard-response","132","285826","0.0-31.0-0.2","SS1618435692759","","","null","","","","","","<p><img src= images/blank.png width =""600"" height = ""600"" style=""position:fixed;top:50%; left:50%; transform: translate(-50%, -50%); border:5px solid black"">","","","","","","","",""
"","48.33000000147149","sequential-stimulus-presentation-old","133","286383","0.0-31.0-1.2","SS1618435692759","trial","","40","500","548.3300000014715","images/stimuli/spore_stims/simple_11_A_a.gif","images/stimuli/spore_stims/simple_06_A_b.gif","forced_long","","11","simple_dissimilar","images/stimuli/spore_stims/simple_11_A_a.gif","","","","",""
"","null","html-keyboard-response","134","287318","0.0-31.0-0.3","SS1618435692759","","","null","","","","","","<p><img src= images/blank.png width =""600"" height = ""600"" style=""position:fixed;top:50%; left:50%; transform: translate(-50%, -50%); border:5px solid black"">","","","","","","","",""
"","146.02000000013504","sequential-stimulus-presentation-old","135","287967","0.0-31.0-1.3","SS1618435692759","trial","","40","500","646.020000000135","images/stimuli/spore_stims/simple_11_A_a.gif","images/stimuli/spore_stims/simple_06_A_b.gif","forced_long","","11","simple_dissimilar","images/stimuli/spore_stims/simple_11_A_a.gif","","","","",""
"","null","html-keyboard-response","136","288864","0.0-31.0-0.4","SS1618435692759","","","null","","","","","","<p><img src= images/blank.png width =""600"" height = ""600"" style=""position:fixed;top:50%; left:50%; transform: translate(-50%, -50%); border:5px solid black"">","","","","","","","",""
"","38.970000001369044","sequential-stimulus-presentation-old","137","289407","0.0-31.0-1.4","SS1618435692759","trial","","40","500","538.970000001369","images/stimuli/spore_stims/simple_11_A_a.gif","images/stimuli/spore_stims/simple_06_A_b.gif","forced_long","","11","simple_dissimilar","images/stimuli/spore_stims/simple_06_A_b.gif","","","","",""
"","null","html-keyboard-response","138","290314","0.0-31.0-0.5","SS1618435692759","","","null","","","","","","<p><img src= images/blank.png width =""600"" height = ""600"" style=""position:fixed;top:50%; left:50%; transform: translate(-50%, -50%); border:5px solid black"">","","","","","","","",""
"","650.6300000000629","sequential-stimulus-presentation-old","139","291467","0.0-31.0-1.5","SS1618435692759","trial","","40","500","1150.6300000000629","images/stimuli/spore_stims/simple_11_A_a.gif","images/stimuli/spore_stims/simple_06_A_b.gif","forced_long","","11","simple_dissimilar","images/stimuli/spore_stims/simple_06_A_b.gif","","","","",""
"[{""page_index"":0,""viewing_time"":6889.64499999932}]","6889.764999999898","instructions","140","298357","0.0-32.0","SS1618435692759","instructions","","","","","","","","","","","","","","","",""
"","6591.3150000014575","survey-likert","141","304951","0.0-33.0","SS1618435692759","similarity_question","","","","","","","","","","","","{""Q0"":1}","[0]","","images/stimuli/spore_stims/complex_17_A_b.gif","images/stimuli/spore_stims/complex_16_A_a.gif"
"","5195.575000001525","survey-likert","142","310149","0.0-34.0","SS1618435692759","similarity_question","","","","","","","","","","","","{""Q0"":0}","[0]","","images/stimuli/spore_stims/complex_15_A_b.gif","images/stimuli/spore_stims/complex_01_A_a.gif"
"","4919.425000000047","survey-likert","143","315071","0.0-35.0","SS1618435692759","similarity_question","","","","","","","","","","","","{""Q0"":5}","[0]","","images/stimuli/spore_stims/simple_13_A_b.gif","images/stimuli/spore_stims/simple_01_A_a.gif"
"","4485.980000001262","survey-likert","144","319559","0.0-36.0","SS1618435692759","similarity_question","","","","","","","","","","","","{""Q0"":5}","[0]","","images/stimuli/spore_stims/simple_06_A_b.gif","images/stimuli/spore_stims/simple_11_A_a.gif"
"","3047.6199999975506","survey-likert","145","322609","0.0-37.0","SS1618435692759","similarity_question","","","","","","","","","","","","{""Q0"":4}","[0]","","images/stimuli/spore_stims/simple_09_A_b.gif","images/stimuli/spore_stims/simple_14_A_a.gif"
"","7435.844999999972","survey-likert","146","330047","0.0-38.0","SS1618435692759","similarity_question","","","","","","","","","","","","{""Q0"":4}","[0]","","images/stimuli/spore_stims/simple_18_A_a.gif","images/stimuli/spore_stims/simple_05_A_b.gif"
"","4238.924999997835","survey-likert","147","334288","0.0-39.0","SS1618435692759","similarity_question","","","","","","","","","","","","{""Q0"":1}","[0]","","images/stimuli/spore_stims/complex_01_A_b.gif","images/stimuli/spore_stims/complex_13_A_a.gif"
"","2677.7099999999627","survey-likert","148","336968","0.0-40.0","SS1618435692759","similarity_question","","","","","","","","","","","","{""Q0"":4}","[0]","","images/stimuli/spore_stims/simple_12_A_a.gif","images/stimuli/spore_stims/simple_07_A_b.gif"
"","3558.9250000011525","survey-likert","149","340528","0.0-41.0","SS1618435692759","similarity_question","","","","","","","","","","","","{""Q0"":4}","[0]","","images/stimuli/spore_stims/complex_14_A_a.gif","images/stimuli/spore_stims/complex_03_A_b.gif"
"","3981.6050000008545","survey-likert","150","344512","0.0-42.0","SS1618435692759","similarity_question","","","","","","","","","","","","{""Q0"":2}","[0]","","images/stimuli/spore_stims/complex_20_A_a.gif","images/stimuli/spore_stims/complex_18_A_b.gif"
"","3333.6899999994785","survey-likert","151","347848","0.0-43.0","SS1618435692759","similarity_question","","","","","","","","","","","","{""Q0"":4}","[0]","","images/stimuli/spore_stims/simple_17_A_a.gif","images/stimuli/spore_stims/simple_11_A_b.gif"
"","7215.370000001742","survey-likert","152","355066","0.0-44.0","SS1618435692759","similarity_question","","","","","","","","","","","","{""Q0"":2}","[0]","","images/stimuli/spore_stims/complex_08_A_b.gif","images/stimuli/spore_stims/complex_05_A_a.gif"
"[{""page_index"":0,""viewing_time"":2909.2249999993946}]","2909.364999999525","instructions","153","357977","0.0-45.0","SS1618435692759","instructions","","","","","","","","","","","","","","","",""
"","4719.214999997348","survey-likert","154","362699","0.0-46.0","SS1618435692759","","","","","","","","","images/stimuli/spore_stims/simple_07_A_b.gif","","","","{""Q0"":0}","[0]","","",""
"","3285.759999998845","survey-likert","155","365987","0.0-47.0","SS1618435692759","","","","","","","","","images/stimuli/spore_stims/simple_01_A_a.gif","","","","{""Q0"":0}","[0]","","",""
"","2237.569999997504","survey-likert","156","368227","0.0-48.0","SS1618435692759","","","","","","","","","images/stimuli/spore_stims/simple_11_A_b.gif","","","","{""Q0"":0}","[0]","","",""
"","3902.865000000049","survey-likert","157","372132","0.0-49.0","SS1618435692759","","","","","","","","","images/stimuli/spore_stims/complex_20_A_a.gif","","","","{""Q0"":2}","[0]","","",""
"","2261.535000001488","survey-likert","158","374396","0.0-50.0","SS1618435692759","","","","","","","","","images/stimuli/spore_stims/complex_13_A_a.gif","","","","{""Q0"":2}","[0]","","",""
"","1789.6450000007753","survey-likert","159","376188","0.0-51.0","SS1618435692759","","","","","","","","","images/stimuli/spore_stims/simple_11_A_a.gif","","","","{""Q0"":0}","[0]","","",""
"","4214.99000000034","survey-likert","160","380405","0.0-52.0","SS1618435692759","","","","","","","","","images/stimuli/spore_stims/complex_08_A_b.gif","","","","{""Q0"":2}","[0]","","",""
"","3653.5100000000675","survey-likert","161","384061","0.0-53.0","SS1618435692759","","","","","","","","","images/stimuli/spore_stims/simple_05_A_b.gif","","","","{""Q0"":0}","[0]","","",""
"","2429.755000000994","survey-likert","162","386493","0.0-54.0","SS1618435692759","","","","","","","","","images/stimuli/spore_stims/simple_14_A_a.gif","","","","{""Q0"":0}","[0]","","",""
"","1958.7399999981862","survey-likert","163","388454","0.0-55.0","SS1618435692759","","","","","","","","","images/stimuli/spore_stims/complex_01_A_a.gif","","","","{""Q0"":2}","[0]","","",""
"","1877.6800000014482","survey-likert","164","390334","0.0-56.0","SS1618435692759","","","","","","","","","images/stimuli/spore_stims/complex_14_A_a.gif","","","","{""Q0"":2}","[0]","","",""
"","2021.7000000011758","survey-likert","165","392358","0.0-57.0","SS1618435692759","","","","","","","","","images/stimuli/spore_stims/complex_17_A_b.gif","","","","{""Q0"":2}","[0]","","",""
"[{""page_index"":0,""viewing_time"":7038.91499999736}]","7039.039999999688","instructions","166","399399","0.0-58.0","SS1618435692759","instructions","","","","","","","","","","","","","","","",""
"","2149.0450000019046","demog-age","167","401551","0.0-59.0","SS1618435692759","","","","","","","","","","","","","{""age"":""35""}","","","",""
"","2757.000000001455","demog-ethnic-US","168","404311","0.0-60.0","SS1618435692759","","","","","","","","","","","","","{""ethnicity"":[""White""]}","[0]","","",""
"","4718.235000000335","demog-gender-and-education","169","409032","0.0-61.0","SS1618435692759","","","","","","","","","","","","","{""gender"":""Male"",""education"":""Bachelor's Degree""}","[0,1]","","",""
"","137705.9099999969","survey-text","170","546740","0.0-62.0","SS1618435692759","feedback","","","","","","","","","","","","{""Q0"":""These creatures were some eldritch monstrosities! Additionally some look like rejects from that Froopy Land Rick and Morty episode! Babies would no doubt not get it, but as an adult they are downright disturbing! ""}","","","",""
"[{""page_index"":0,""viewing_time"":1597.6900000022724}]","1597.8199999990175","instructions","171","548340","0.0-63.0","SS1618435692759","instructions","","","","","","","","","","","","","","","",""
