"view_history","rt","trial_type","trial_index","time_elapsed","internal_node_id","subject","stimulus_type","trial_stimulus","key_press","minimum_viewing_duration","trial_looking_time","block_deviant","block_background","exposure_type","stimulus","block_number","block_type","stimulus_displayed","responses","question_order","math_correct_answer","stimulus_left","stimulus_right"
"[{""page_index"":0,""viewing_time"":7400.64499998698}]","7401.394999993499","instructions","0","7403","0.0-0.0","SS1618435640553","","","","","","","","","","","","","","","","",""
"[{""page_index"":0,""viewing_time"":15582.829999999376},{""page_index"":1,""viewing_time"":8151.8900000082795}]","23735.2050000045","instructions","1","33141","0.0-1.0","SS1618435640553","instructions","","","","","","","","","","","","","","","",""
"","6889.785000006668","sequential-stimulus-presentation-old","2","40545","0.0-2.0","SS1618435640553","","","40","500","7389.785000006668","null","null","self_paced","","","","","","","","",""
"","6859.815000003437","sequential-stimulus-presentation-old","3","47914","0.0-3.0","SS1618435640553","","","40","500","7359.815000003437","null","null","self_paced","","","","","","","","",""
"[{""page_index"":0,""viewing_time"":24747.919999994338}]","24748.30499998643","instructions","4","72663","0.0-4.0","SS1618435640553","instructions","","","","","","","","","","","","","","","",""
"","3551.2699999962933","sequential-stimulus-presentation-old","5","81218","0.0-5.0","SS1618435640553","","","40","500","4051.2699999962933","null","null","forced_long","","","","","","","","",""
"","4386.445000011008","sequential-stimulus-presentation-old","6","85658","0.0-6.0","SS1618435640553","","","40","50","4436.445000011008","null","null","forced_long","","","","","","","","",""
"[{""page_index"":0,""viewing_time"":4712.089999986347}]","4712.555000005523","instructions","7","90373","0.0-7.0","SS1618435640553","instructions","","","","","","","","","","","","","","","",""
"[{""page_index"":0,""viewing_time"":15250.17499999376},{""page_index"":1,""viewing_time"":12064.74000000162},{""page_index"":2,""viewing_time"":9907.345000014175},{""page_index"":3,""viewing_time"":2236.0399999888614},{""page_index"":4,""viewing_time"":1546.9649999868125}]","41005.71999998647","instructions","8","131381","0.0-8.0","SS1618435640553","instructions","","","","","","","","","","","","","","","",""
"","null","html-keyboard-response","9","132367","0.0-9.0-0.0","SS1618435640553","","","null","","","","","","<p><img src= images/blank.png width =""600"" height = ""600"" style=""position:fixed;top:50%; left:50%; transform: translate(-50%, -50%); border:5px solid black"">","","","","","","","",""
"","4842.019999981858","sequential-stimulus-presentation-old","10","142217","0.0-9.0-1.0","SS1618435640553","trial","","40","500","5342.019999981858","images/stimuli/spore_stims/complex_09_A_a.gif","images/stimuli/spore_stims/complex_12_A_b.gif","forced_long","","0","complex_dissimilar","images/stimuli/spore_stims/complex_12_A_b.gif","","","","",""
"","null","html-keyboard-response","11","143175","0.0-9.0-0.1","SS1618435640553","","","null","","","","","","<p><img src= images/blank.png width =""600"" height = ""600"" style=""position:fixed;top:50%; left:50%; transform: translate(-50%, -50%); border:5px solid black"">","","","","","","","",""
"","29758.224999997765","sequential-stimulus-presentation-old","12","173439","0.0-9.0-1.1","SS1618435640553","trial","","40","500","30258.224999997765","images/stimuli/spore_stims/complex_09_A_a.gif","images/stimuli/spore_stims/complex_12_A_b.gif","forced_long","","0","complex_dissimilar","images/stimuli/spore_stims/complex_12_A_b.gif","","","","",""
"","null","html-keyboard-response","13","174512","0.0-9.0-0.2","SS1618435640553","","","null","","","","","","<p><img src= images/blank.png width =""600"" height = ""600"" style=""position:fixed;top:50%; left:50%; transform: translate(-50%, -50%); border:5px solid black"">","","","","","","","",""
"","7292.704999999842","sequential-stimulus-presentation-old","14","182310","0.0-9.0-1.2","SS1618435640553","trial","","40","500","7792.704999999842","images/stimuli/spore_stims/complex_09_A_a.gif","images/stimuli/spore_stims/complex_12_A_b.gif","forced_long","","0","complex_dissimilar","images/stimuli/spore_stims/complex_09_A_a.gif","","","","",""
"","null","html-keyboard-response","15","183546","0.0-9.0-0.3","SS1618435640553","","","null","","","","","","<p><img src= images/blank.png width =""600"" height = ""600"" style=""position:fixed;top:50%; left:50%; transform: translate(-50%, -50%); border:5px solid black"">","","","","","","","",""
"","5967.109999997774","sequential-stimulus-presentation-old","16","190018","0.0-9.0-1.3","SS1618435640553","trial","","40","500","6467.109999997774","images/stimuli/spore_stims/complex_09_A_a.gif","images/stimuli/spore_stims/complex_12_A_b.gif","forced_long","","0","complex_dissimilar","images/stimuli/spore_stims/complex_12_A_b.gif","","","","",""
"","null","html-keyboard-response","17","191233","0.0-9.0-0.4","SS1618435640553","","","null","","","","","","<p><img src= images/blank.png width =""600"" height = ""600"" style=""position:fixed;top:50%; left:50%; transform: translate(-50%, -50%); border:5px solid black"">","","","","","","","",""
"","4106.369999994058","sequential-stimulus-presentation-old","18","195856","0.0-9.0-1.4","SS1618435640553","trial","","40","500","4606.369999994058","images/stimuli/spore_stims/complex_09_A_a.gif","images/stimuli/spore_stims/complex_12_A_b.gif","forced_long","","0","complex_dissimilar","images/stimuli/spore_stims/complex_09_A_a.gif","","","","",""
"","null","html-keyboard-response","19","196808","0.0-9.0-0.5","SS1618435640553","","","null","","","","","","<p><img src= images/blank.png width =""600"" height = ""600"" style=""position:fixed;top:50%; left:50%; transform: translate(-50%, -50%); border:5px solid black"">","","","","","","","",""
"","6881.489999999758","sequential-stimulus-presentation-old","20","204197","0.0-9.0-1.5","SS1618435640553","trial","","40","500","7381.489999999758","images/stimuli/spore_stims/complex_09_A_a.gif","images/stimuli/spore_stims/complex_12_A_b.gif","forced_long","","0","complex_dissimilar","images/stimuli/spore_stims/complex_12_A_b.gif","","","","",""
"","6218.284999980824","survey-multi-choice","21","210421","0.0-10.0","SS1618435640553","math_question","","","","","","","","","","","","{""Q0"":""7""}","[0]","7","",""
"","null","html-keyboard-response","22","211469","0.0-11.0-0.0","SS1618435640553","","","null","","","","","","<p><img src= images/blank.png width =""600"" height = ""600"" style=""position:fixed;top:50%; left:50%; transform: translate(-50%, -50%); border:5px solid black"">","","","","","","","",""
"","6400.475000002189","sequential-stimulus-presentation-old","23","218380","0.0-11.0-1.0","SS1618435640553","trial","","40","500","6900.475000002189","images/stimuli/spore_stims/complex_07_A_b.gif","images/stimuli/spore_stims/complex_05_A_a.gif","self_paced","","1","complex_dissimilar","images/stimuli/spore_stims/complex_05_A_a.gif","","","","",""
"","null","html-keyboard-response","24","219406","0.0-11.0-0.1","SS1618435640553","","","null","","","","","","<p><img src= images/blank.png width =""600"" height = ""600"" style=""position:fixed;top:50%; left:50%; transform: translate(-50%, -50%); border:5px solid black"">","","","","","","","",""
"","6318.139999988489","sequential-stimulus-presentation-old","25","226230","0.0-11.0-1.1","SS1618435640553","trial","","40","500","6818.139999988489","images/stimuli/spore_stims/complex_07_A_b.gif","images/stimuli/spore_stims/complex_05_A_a.gif","self_paced","","1","complex_dissimilar","images/stimuli/spore_stims/complex_05_A_a.gif","","","","",""
"","null","html-keyboard-response","26","227330","0.0-11.0-0.2","SS1618435640553","","","null","","","","","","<p><img src= images/blank.png width =""600"" height = ""600"" style=""position:fixed;top:50%; left:50%; transform: translate(-50%, -50%); border:5px solid black"">","","","","","","","",""
"","398.44000001903623","sequential-stimulus-presentation-old","27","228232","0.0-11.0-1.2","SS1618435640553","trial","","40","500","898.4400000190362","images/stimuli/spore_stims/complex_07_A_b.gif","images/stimuli/spore_stims/complex_05_A_a.gif","self_paced","","1","complex_dissimilar","images/stimuli/spore_stims/complex_05_A_a.gif","","","","",""
"","null","html-keyboard-response","28","229304","0.0-11.0-0.3","SS1618435640553","","","null","","","","","","<p><img src= images/blank.png width =""600"" height = ""600"" style=""position:fixed;top:50%; left:50%; transform: translate(-50%, -50%); border:5px solid black"">","","","","","","","",""
"","9089.724999997998","sequential-stimulus-presentation-old","29","238901","0.0-11.0-1.3","SS1618435640553","trial","","40","500","9589.724999997998","images/stimuli/spore_stims/complex_07_A_b.gif","images/stimuli/spore_stims/complex_05_A_a.gif","self_paced","","1","complex_dissimilar","images/stimuli/spore_stims/complex_05_A_a.gif","","","","",""
"","null","html-keyboard-response","30","240061","0.0-11.0-0.4","SS1618435640553","","","null","","","","","","<p><img src= images/blank.png width =""600"" height = ""600"" style=""position:fixed;top:50%; left:50%; transform: translate(-50%, -50%); border:5px solid black"">","","","","","","","",""
"","5100.75000001234","sequential-stimulus-presentation-old","31","245668","0.0-11.0-1.4","SS1618435640553","trial","","40","500","5600.75000001234","images/stimuli/spore_stims/complex_07_A_b.gif","images/stimuli/spore_stims/complex_05_A_a.gif","self_paced","","1","complex_dissimilar","images/stimuli/spore_stims/complex_07_A_b.gif","","","","",""
"","5441.129999991972","survey-multi-choice","32","251113","0.0-12.0","SS1618435640553","math_question","","","","","","","","","","","","{""Q0"":""14""}","[0]","14","",""
"","null","html-keyboard-response","33","252264","0.0-13.0-0.0","SS1618435640553","","","null","","","","","","<p><img src= images/blank.png width =""600"" height = ""600"" style=""position:fixed;top:50%; left:50%; transform: translate(-50%, -50%); border:5px solid black"">","","","","","","","",""
"","16622.54500002018","sequential-stimulus-presentation-old","34","274032","0.0-13.0-1.0","SS1618435640553","trial","","40","500","17122.54500002018","images/stimuli/spore_stims/complex_17_A_b.gif","images/stimuli/spore_stims/complex_18_A_a.gif","forced_long","","2","complex_dissimilar","images/stimuli/spore_stims/complex_18_A_a.gif","","","","",""
"","null","html-keyboard-response","35","275205","0.0-13.0-0.1","SS1618435640553","","","null","","","","","","<p><img src= images/blank.png width =""600"" height = ""600"" style=""position:fixed;top:50%; left:50%; transform: translate(-50%, -50%); border:5px solid black"">","","","","","","","",""
"","4066.8000000005122","sequential-stimulus-presentation-old","36","279777","0.0-13.0-1.1","SS1618435640553","trial","","40","500","4566.800000000512","images/stimuli/spore_stims/complex_17_A_b.gif","images/stimuli/spore_stims/complex_18_A_a.gif","forced_long","","2","complex_dissimilar","images/stimuli/spore_stims/complex_18_A_a.gif","","","","",""
"","null","html-keyboard-response","37","280949","0.0-13.0-0.2","SS1618435640553","","","null","","","","","","<p><img src= images/blank.png width =""600"" height = ""600"" style=""position:fixed;top:50%; left:50%; transform: translate(-50%, -50%); border:5px solid black"">","","","","","","","",""
"","4196.425000001909","sequential-stimulus-presentation-old","38","285653","0.0-13.0-1.2","SS1618435640553","trial","","40","500","4696.425000001909","images/stimuli/spore_stims/complex_17_A_b.gif","images/stimuli/spore_stims/complex_18_A_a.gif","forced_long","","2","complex_dissimilar","images/stimuli/spore_stims/complex_18_A_a.gif","","","","",""
"","null","html-keyboard-response","39","286492","0.0-13.0-0.3","SS1618435640553","","","null","","","","","","<p><img src= images/blank.png width =""600"" height = ""600"" style=""position:fixed;top:50%; left:50%; transform: translate(-50%, -50%); border:5px solid black"">","","","","","","","",""
"","5428.459999995539","sequential-stimulus-presentation-old","40","292428","0.0-13.0-1.3","SS1618435640553","trial","","40","500","5928.459999995539","images/stimuli/spore_stims/complex_17_A_b.gif","images/stimuli/spore_stims/complex_18_A_a.gif","forced_long","","2","complex_dissimilar","images/stimuli/spore_stims/complex_18_A_a.gif","","","","",""
"","null","html-keyboard-response","41","293663","0.0-13.0-0.4","SS1618435640553","","","null","","","","","","<p><img src= images/blank.png width =""600"" height = ""600"" style=""position:fixed;top:50%; left:50%; transform: translate(-50%, -50%); border:5px solid black"">","","","","","","","",""
"","4138.610000023618","sequential-stimulus-presentation-old","42","298306","0.0-13.0-1.4","SS1618435640553","trial","","40","500","4638.610000023618","images/stimuli/spore_stims/complex_17_A_b.gif","images/stimuli/spore_stims/complex_18_A_a.gif","forced_long","","2","complex_dissimilar","images/stimuli/spore_stims/complex_17_A_b.gif","","","","",""
"","null","html-keyboard-response","43","299370","0.0-13.0-0.5","SS1618435640553","","","null","","","","","","<p><img src= images/blank.png width =""600"" height = ""600"" style=""position:fixed;top:50%; left:50%; transform: translate(-50%, -50%); border:5px solid black"">","","","","","","","",""
"","10276.734999992186","sequential-stimulus-presentation-old","44","310153","0.0-13.0-1.5","SS1618435640553","trial","","40","500","10776.734999992186","images/stimuli/spore_stims/complex_17_A_b.gif","images/stimuli/spore_stims/complex_18_A_a.gif","forced_long","","2","complex_dissimilar","images/stimuli/spore_stims/complex_18_A_a.gif","","","","",""
"","4877.364999993006","survey-multi-choice","45","315034","0.0-14.0","SS1618435640553","math_question","","","","","","","","","","","","{""Q0"":""7""}","[0]","7","",""
"","null","html-keyboard-response","46","316194","0.0-15.0-0.0","SS1618435640553","","","null","","","","","","<p><img src= images/blank.png width =""600"" height = ""600"" style=""position:fixed;top:50%; left:50%; transform: translate(-50%, -50%); border:5px solid black"">","","","","","","","",""
"","6301.054999988992","sequential-stimulus-presentation-old","47","322550","0.0-15.0-1.0","SS1618435640553","trial","","40","500","6801.054999988992","images/stimuli/spore_stims/simple_07_A_b.gif","images/stimuli/spore_stims/simple_08_A_a.gif","forced_short","","3","simple_dissimilar","images/stimuli/spore_stims/simple_08_A_a.gif","","","","",""
"","null","html-keyboard-response","48","323552","0.0-15.0-0.1","SS1618435640553","","","null","","","","","","<p><img src= images/blank.png width =""600"" height = ""600"" style=""position:fixed;top:50%; left:50%; transform: translate(-50%, -50%); border:5px solid black"">","","","","","","","",""
"","4898.484999983339","sequential-stimulus-presentation-old","49","328956","0.0-15.0-1.1","SS1618435640553","trial","","40","500","5398.484999983339","images/stimuli/spore_stims/simple_07_A_b.gif","images/stimuli/spore_stims/simple_08_A_a.gif","forced_short","","3","simple_dissimilar","images/stimuli/spore_stims/simple_08_A_a.gif","","","","",""
"","null","html-keyboard-response","50","329799","0.0-15.0-0.2","SS1618435640553","","","null","","","","","","<p><img src= images/blank.png width =""600"" height = ""600"" style=""position:fixed;top:50%; left:50%; transform: translate(-50%, -50%); border:5px solid black"">","","","","","","","",""
"","5736.520000005839","sequential-stimulus-presentation-old","51","336039","0.0-15.0-1.2","SS1618435640553","trial","","40","500","6236.520000005839","images/stimuli/spore_stims/simple_07_A_b.gif","images/stimuli/spore_stims/simple_08_A_a.gif","forced_short","","3","simple_dissimilar","images/stimuli/spore_stims/simple_08_A_a.gif","","","","",""
"","null","html-keyboard-response","52","337052","0.0-15.0-0.3","SS1618435640553","","","null","","","","","","<p><img src= images/blank.png width =""600"" height = ""600"" style=""position:fixed;top:50%; left:50%; transform: translate(-50%, -50%); border:5px solid black"">","","","","","","","",""
"","7758.939999999711","sequential-stimulus-presentation-old","53","345320","0.0-15.0-1.3","SS1618435640553","trial","","40","500","8258.939999999711","images/stimuli/spore_stims/simple_07_A_b.gif","images/stimuli/spore_stims/simple_08_A_a.gif","forced_short","","3","simple_dissimilar","images/stimuli/spore_stims/simple_08_A_a.gif","","","","",""
"","null","html-keyboard-response","54","346489","0.0-15.0-0.4","SS1618435640553","","","null","","","","","","<p><img src= images/blank.png width =""600"" height = ""600"" style=""position:fixed;top:50%; left:50%; transform: translate(-50%, -50%); border:5px solid black"">","","","","","","","",""
"","6509.259999991627","sequential-stimulus-presentation-old","55","353505","0.0-15.0-1.4","SS1618435640553","trial","","40","500","7009.259999991627","images/stimuli/spore_stims/simple_07_A_b.gif","images/stimuli/spore_stims/simple_08_A_a.gif","forced_short","","3","simple_dissimilar","images/stimuli/spore_stims/simple_08_A_a.gif","","","","",""
"","3713.1850000005215","survey-multi-choice","56","357221","0.0-16.0","SS1618435640553","math_question","","","","","","","","","","","","{""Q0"":""8""}","[0]","8","",""
"","null","html-keyboard-response","57","358421","0.0-17.0-0.0","SS1618435640553","","","null","","","","","","<p><img src= images/blank.png width =""600"" height = ""600"" style=""position:fixed;top:50%; left:50%; transform: translate(-50%, -50%); border:5px solid black"">","","","","","","","",""
"","37550.09500001324","sequential-stimulus-presentation-old","58","396028","0.0-17.0-1.0","SS1618435640553","trial","","40","500","38050.09500001324","images/stimuli/spore_stims/complex_19_A_b.gif","images/stimuli/spore_stims/complex_16_A_a.gif","forced_short","","4","complex_dissimilar","images/stimuli/spore_stims/complex_16_A_a.gif","","","","",""
"","null","html-keyboard-response","59","396978","0.0-17.0-0.1","SS1618435640553","","","null","","","","","","<p><img src= images/blank.png width =""600"" height = ""600"" style=""position:fixed;top:50%; left:50%; transform: translate(-50%, -50%); border:5px solid black"">","","","","","","","",""
"","2068.23499998427","sequential-stimulus-presentation-old","60","399550","0.0-17.0-1.1","SS1618435640553","trial","","40","500","2568.23499998427","images/stimuli/spore_stims/complex_19_A_b.gif","images/stimuli/spore_stims/complex_16_A_a.gif","forced_short","","4","complex_dissimilar","images/stimuli/spore_stims/complex_16_A_a.gif","","","","",""
"","null","html-keyboard-response","61","400733","0.0-17.0-0.2","SS1618435640553","","","null","","","","","","<p><img src= images/blank.png width =""600"" height = ""600"" style=""position:fixed;top:50%; left:50%; transform: translate(-50%, -50%); border:5px solid black"">","","","","","","","",""
"","13239.98000001302","sequential-stimulus-presentation-old","62","414479","0.0-17.0-1.2","SS1618435640553","trial","","40","500","13739.98000001302","images/stimuli/spore_stims/complex_19_A_b.gif","images/stimuli/spore_stims/complex_16_A_a.gif","forced_short","","4","complex_dissimilar","images/stimuli/spore_stims/complex_19_A_b.gif","","","","",""
"","null","html-keyboard-response","63","415361","0.0-17.0-0.3","SS1618435640553","","","null","","","","","","<p><img src= images/blank.png width =""600"" height = ""600"" style=""position:fixed;top:50%; left:50%; transform: translate(-50%, -50%); border:5px solid black"">","","","","","","","",""
"","428.394999995362","sequential-stimulus-presentation-old","64","416296","0.0-17.0-1.3","SS1618435640553","trial","","40","500","928.394999995362","images/stimuli/spore_stims/complex_19_A_b.gif","images/stimuli/spore_stims/complex_16_A_a.gif","forced_short","","4","complex_dissimilar","images/stimuli/spore_stims/complex_16_A_a.gif","","","","",""
"","4116.250000020955","survey-multi-choice","65","420415","0.0-18.0","SS1618435640553","math_question","","","","","","","","","","","","{""Q0"":""14""}","[0]","14","",""
"","null","html-keyboard-response","66","421413","0.0-19.0-0.0","SS1618435640553","","","null","","","","","","<p><img src= images/blank.png width =""600"" height = ""600"" style=""position:fixed;top:50%; left:50%; transform: translate(-50%, -50%); border:5px solid black"">","","","","","","","",""
"","32001.134999998612","sequential-stimulus-presentation-old","67","454409","0.0-19.0-1.0","SS1618435640553","trial","","40","500","32501.134999998612","images/stimuli/spore_stims/simple_18_A_a.gif","images/stimuli/spore_stims/simple_02_A_b.gif","self_paced","","5","simple_dissimilar","images/stimuli/spore_stims/simple_02_A_b.gif","","","","",""
"","null","html-keyboard-response","68","455351","0.0-19.0-0.1","SS1618435640553","","","null","","","","","","<p><img src= images/blank.png width =""600"" height = ""600"" style=""position:fixed;top:50%; left:50%; transform: translate(-50%, -50%); border:5px solid black"">","","","","","","","",""
"","166.33000000729226","sequential-stimulus-presentation-old","69","456030","0.0-19.0-1.1","SS1618435640553","trial","","40","500","666.3300000072923","images/stimuli/spore_stims/simple_18_A_a.gif","images/stimuli/spore_stims/simple_02_A_b.gif","self_paced","","5","simple_dissimilar","images/stimuli/spore_stims/simple_02_A_b.gif","","","","",""
"","null","html-keyboard-response","70","457010","0.0-19.0-0.2","SS1618435640553","","","null","","","","","","<p><img src= images/blank.png width =""600"" height = ""600"" style=""position:fixed;top:50%; left:50%; transform: translate(-50%, -50%); border:5px solid black"">","","","","","","","",""
"","81377.84999998985","sequential-stimulus-presentation-old","71","539789","0.0-19.0-1.2","SS1618435640553","trial","","40","500","81877.84999998985","images/stimuli/spore_stims/simple_18_A_a.gif","images/stimuli/spore_stims/simple_02_A_b.gif","self_paced","","5","simple_dissimilar","images/stimuli/spore_stims/simple_02_A_b.gif","","","","",""
"","null","html-keyboard-response","72","540805","0.0-19.0-0.3","SS1618435640553","","","null","","","","","","<p><img src= images/blank.png width =""600"" height = ""600"" style=""position:fixed;top:50%; left:50%; transform: translate(-50%, -50%); border:5px solid black"">","","","","","","","",""
"","119.26999999559484","sequential-stimulus-presentation-old","73","541432","0.0-19.0-1.3","SS1618435640553","trial","","40","500","619.2699999955948","images/stimuli/spore_stims/simple_18_A_a.gif","images/stimuli/spore_stims/simple_02_A_b.gif","self_paced","","5","simple_dissimilar","images/stimuli/spore_stims/simple_02_A_b.gif","","","","",""
"","null","html-keyboard-response","74","542237","0.0-19.0-0.4","SS1618435640553","","","null","","","","","","<p><img src= images/blank.png width =""600"" height = ""600"" style=""position:fixed;top:50%; left:50%; transform: translate(-50%, -50%); border:5px solid black"">","","","","","","","",""
"","119.79000002611428","sequential-stimulus-presentation-old","75","542863","0.0-19.0-1.4","SS1618435640553","trial","","40","500","619.7900000261143","images/stimuli/spore_stims/simple_18_A_a.gif","images/stimuli/spore_stims/simple_02_A_b.gif","self_paced","","5","simple_dissimilar","images/stimuli/spore_stims/simple_02_A_b.gif","","","","",""
"","2880.264999985229","survey-multi-choice","76","545747","0.0-20.0","SS1618435640553","math_question","","","","","","","","","","","","{""Q0"":""8""}","[0]","8","",""
"","null","html-keyboard-response","77","547410","0.0-21.0-0.0","SS1618435640553","","","null","","","","","","<p><img src= images/blank.png width =""600"" height = ""600"" style=""position:fixed;top:50%; left:50%; transform: translate(-50%, -50%); border:5px solid black"">","","","","","","","",""
"","256886.38000001083","sequential-stimulus-presentation-old","78","810300","0.0-21.0-1.0","SS1618435640553","trial","","40","500","257386.38000001083","images/stimuli/spore_stims/simple_07_A_a.gif","images/stimuli/spore_stims/simple_15_A_b.gif","forced_long","","6","simple_dissimilar","images/stimuli/spore_stims/simple_15_A_b.gif","","","","",""
"","null","html-keyboard-response","79","811465","0.0-21.0-0.1","SS1618435640553","","","null","","","","","","<p><img src= images/blank.png width =""600"" height = ""600"" style=""position:fixed;top:50%; left:50%; transform: translate(-50%, -50%); border:5px solid black"">","","","","","","","",""
"","368.8350000011269","sequential-stimulus-presentation-old","80","812338","0.0-21.0-1.1","SS1618435640553","trial","","40","500","868.8350000011269","images/stimuli/spore_stims/simple_07_A_a.gif","images/stimuli/spore_stims/simple_15_A_b.gif","forced_long","","6","simple_dissimilar","images/stimuli/spore_stims/simple_15_A_b.gif","","","","",""
"","null","html-keyboard-response","81","813603","0.0-21.0-0.2","SS1618435640553","","","null","","","","","","<p><img src= images/blank.png width =""600"" height = ""600"" style=""position:fixed;top:50%; left:50%; transform: translate(-50%, -50%); border:5px solid black"">","","","","","","","",""
"","777.3999999917578","sequential-stimulus-presentation-old","82","814888","0.0-21.0-1.2","SS1618435640553","trial","","40","500","1277.3999999917578","images/stimuli/spore_stims/simple_07_A_a.gif","images/stimuli/spore_stims/simple_15_A_b.gif","forced_long","","6","simple_dissimilar","images/stimuli/spore_stims/simple_15_A_b.gif","","","","",""
"","null","html-keyboard-response","83","816079","0.0-21.0-0.3","SS1618435640553","","","null","","","","","","<p><img src= images/blank.png width =""600"" height = ""600"" style=""position:fixed;top:50%; left:50%; transform: translate(-50%, -50%); border:5px solid black"">","","","","","","","",""
"","1786.9050000153948","sequential-stimulus-presentation-old","84","818383","0.0-21.0-1.3","SS1618435640553","trial","","40","500","2286.9050000153948","images/stimuli/spore_stims/simple_07_A_a.gif","images/stimuli/spore_stims/simple_15_A_b.gif","forced_long","","6","simple_dissimilar","images/stimuli/spore_stims/simple_15_A_b.gif","","","","",""
"","null","html-keyboard-response","85","819417","0.0-21.0-0.4","SS1618435640553","","","null","","","","","","<p><img src= images/blank.png width =""600"" height = ""600"" style=""position:fixed;top:50%; left:50%; transform: translate(-50%, -50%); border:5px solid black"">","","","","","","","",""
"","3545.139999972889","sequential-stimulus-presentation-old","86","823475","0.0-21.0-1.4","SS1618435640553","trial","","40","500","4045.139999972889","images/stimuli/spore_stims/simple_07_A_a.gif","images/stimuli/spore_stims/simple_15_A_b.gif","forced_long","","6","simple_dissimilar","images/stimuli/spore_stims/simple_15_A_b.gif","","","","",""
"","null","html-keyboard-response","87","824457","0.0-21.0-0.5","SS1618435640553","","","null","","","","","","<p><img src= images/blank.png width =""600"" height = ""600"" style=""position:fixed;top:50%; left:50%; transform: translate(-50%, -50%); border:5px solid black"">","","","","","","","",""
"","707.829999999376","sequential-stimulus-presentation-old","88","825688","0.0-21.0-1.5","SS1618435640553","trial","","40","500","1207.829999999376","images/stimuli/spore_stims/simple_07_A_a.gif","images/stimuli/spore_stims/simple_15_A_b.gif","forced_long","","6","simple_dissimilar","images/stimuli/spore_stims/simple_15_A_b.gif","","","","",""
"","186934.3799999915","survey-multi-choice","89","1012627","0.0-22.0","SS1618435640553","math_question","","","","","","","","","","","","{""Q0"":""5""}","[0]","5","",""
"","null","html-keyboard-response","90","1013625","0.0-23.0-0.0","SS1618435640553","","","null","","","","","","<p><img src= images/blank.png width =""600"" height = ""600"" style=""position:fixed;top:50%; left:50%; transform: translate(-50%, -50%); border:5px solid black"">","","","","","","","",""
"","145781.78499999922","sequential-stimulus-presentation-old","91","1164420","0.0-23.0-1.0","SS1618435640553","trial","","40","500","146281.78499999922","images/stimuli/spore_stims/simple_08_A_b.gif","images/stimuli/spore_stims/simple_04_A_a.gif","forced_long","","7","simple_dissimilar","images/stimuli/spore_stims/simple_04_A_a.gif","","","","",""
"","null","html-keyboard-response","92","1165687","0.0-23.0-0.1","SS1618435640553","","","null","","","","","","<p><img src= images/blank.png width =""600"" height = ""600"" style=""position:fixed;top:50%; left:50%; transform: translate(-50%, -50%); border:5px solid black"">","","","","","","","",""
"","1081.0350000101607","sequential-stimulus-presentation-old","93","1167277","0.0-23.0-1.1","SS1618435640553","trial","","40","500","1581.0350000101607","images/stimuli/spore_stims/simple_08_A_b.gif","images/stimuli/spore_stims/simple_04_A_a.gif","forced_long","","7","simple_dissimilar","images/stimuli/spore_stims/simple_08_A_b.gif","","","","",""
"","null","html-keyboard-response","94","1168124","0.0-23.0-0.2","SS1618435640553","","","null","","","","","","<p><img src= images/blank.png width =""600"" height = ""600"" style=""position:fixed;top:50%; left:50%; transform: translate(-50%, -50%); border:5px solid black"">","","","","","","","",""
"","371.06499998481013","sequential-stimulus-presentation-old","95","1169003","0.0-23.0-1.2","SS1618435640553","trial","","40","500","871.0649999848101","images/stimuli/spore_stims/simple_08_A_b.gif","images/stimuli/spore_stims/simple_04_A_a.gif","forced_long","","7","simple_dissimilar","images/stimuli/spore_stims/simple_04_A_a.gif","","","","",""
"","null","html-keyboard-response","96","1169835","0.0-23.0-0.3","SS1618435640553","","","null","","","","","","<p><img src= images/blank.png width =""600"" height = ""600"" style=""position:fixed;top:50%; left:50%; transform: translate(-50%, -50%); border:5px solid black"">","","","","","","","",""
"","473.92499999841675","sequential-stimulus-presentation-old","97","1170812","0.0-23.0-1.3","SS1618435640553","trial","","40","500","973.9249999984168","images/stimuli/spore_stims/simple_08_A_b.gif","images/stimuli/spore_stims/simple_04_A_a.gif","forced_long","","7","simple_dissimilar","images/stimuli/spore_stims/simple_04_A_a.gif","","","","",""
"","3267.4349999870174","survey-multi-choice","98","1174089","0.0-24.0","SS1618435640553","math_question","","","","","","","","","","","","{""Q0"":""3""}","[0]","3","",""
"","null","html-keyboard-response","99","1175023","0.0-25.0-0.0","SS1618435640553","","","null","","","","","","<p><img src= images/blank.png width =""600"" height = ""600"" style=""position:fixed;top:50%; left:50%; transform: translate(-50%, -50%); border:5px solid black"">","","","","","","","",""
"","23307.755000016186","sequential-stimulus-presentation-old","100","1199712","0.0-25.0-1.0","SS1618435640553","trial","","40","500","23807.755000016186","images/stimuli/spore_stims/simple_17_A_a.gif","images/stimuli/spore_stims/simple_06_A_b.gif","self_paced","","8","simple_dissimilar","images/stimuli/spore_stims/simple_06_A_b.gif","","","","",""
"","null","html-keyboard-response","101","1200823","0.0-25.0-0.1","SS1618435640553","","","null","","","","","","<p><img src= images/blank.png width =""600"" height = ""600"" style=""position:fixed;top:50%; left:50%; transform: translate(-50%, -50%); border:5px solid black"">","","","","","","","",""
"","2.570000011473894","sequential-stimulus-presentation-old","102","1201334","0.0-25.0-1.1","SS1618435640553","trial","","40","500","502.5700000114739","images/stimuli/spore_stims/simple_17_A_a.gif","images/stimuli/spore_stims/simple_06_A_b.gif","self_paced","","8","simple_dissimilar","images/stimuli/spore_stims/simple_17_A_a.gif","","","","",""
"","null","html-keyboard-response","103","1202213","0.0-25.0-0.2","SS1618435640553","","","null","","","","","","<p><img src= images/blank.png width =""600"" height = ""600"" style=""position:fixed;top:50%; left:50%; transform: translate(-50%, -50%); border:5px solid black"">","","","","","","","",""
"","1264.0799999935552","sequential-stimulus-presentation-old","104","1203992","0.0-25.0-1.2","SS1618435640553","trial","","40","500","1764.0799999935552","images/stimuli/spore_stims/simple_17_A_a.gif","images/stimuli/spore_stims/simple_06_A_b.gif","self_paced","","8","simple_dissimilar","images/stimuli/spore_stims/simple_17_A_a.gif","","","","",""
"","null","html-keyboard-response","105","1204907","0.0-25.0-0.3","SS1618435640553","","","null","","","","","","<p><img src= images/blank.png width =""600"" height = ""600"" style=""position:fixed;top:50%; left:50%; transform: translate(-50%, -50%); border:5px solid black"">","","","","","","","",""
"","118.31499999971129","sequential-stimulus-presentation-old","106","1205530","0.0-25.0-1.3","SS1618435640553","trial","","40","500","618.3149999997113","images/stimuli/spore_stims/simple_17_A_a.gif","images/stimuli/spore_stims/simple_06_A_b.gif","self_paced","","8","simple_dissimilar","images/stimuli/spore_stims/simple_06_A_b.gif","","","","",""
"","null","html-keyboard-response","107","1207414","0.0-25.0-0.4","SS1618435640553","","","null","","","","","","<p><img src= images/blank.png width =""600"" height = ""600"" style=""position:fixed;top:50%; left:50%; transform: translate(-50%, -50%); border:5px solid black"">","","","","","","","",""
"","8508.209999999963","sequential-stimulus-presentation-old","108","1216921","0.0-25.0-1.4","SS1618435640553","trial","","40","500","9008.209999999963","images/stimuli/spore_stims/simple_17_A_a.gif","images/stimuli/spore_stims/simple_06_A_b.gif","self_paced","","8","simple_dissimilar","images/stimuli/spore_stims/simple_06_A_b.gif","","","","",""
"","null","html-keyboard-response","109","1218056","0.0-25.0-0.5","SS1618435640553","","","null","","","","","","<p><img src= images/blank.png width =""600"" height = ""600"" style=""position:fixed;top:50%; left:50%; transform: translate(-50%, -50%); border:5px solid black"">","","","","","","","",""
"","1557.2350000147708","sequential-stimulus-presentation-old","110","1220129","0.0-25.0-1.5","SS1618435640553","trial","","40","500","2057.235000014771","images/stimuli/spore_stims/simple_17_A_a.gif","images/stimuli/spore_stims/simple_06_A_b.gif","self_paced","","8","simple_dissimilar","images/stimuli/spore_stims/simple_06_A_b.gif","","","","",""
"","17132.77999998536","survey-multi-choice","111","1237265","0.0-26.0","SS1618435640553","math_question","","","","","","","","","","","","{""Q0"":""8""}","[0]","8","",""
"","null","html-keyboard-response","112","1238539","0.0-27.0-0.0","SS1618435640553","","","null","","","","","","<p><img src= images/blank.png width =""600"" height = ""600"" style=""position:fixed;top:50%; left:50%; transform: translate(-50%, -50%); border:5px solid black"">","","","","","","","",""
"","944.2700000072364","sequential-stimulus-presentation-old","113","1239996","0.0-27.0-1.0","SS1618435640553","trial","","40","500","1444.2700000072364","images/stimuli/spore_stims/complex_15_A_b.gif","images/stimuli/spore_stims/complex_08_A_a.gif","self_paced","","9","complex_dissimilar","images/stimuli/spore_stims/complex_08_A_a.gif","","","","",""
"","null","html-keyboard-response","114","1241229","0.0-27.0-0.1","SS1618435640553","","","null","","","","","","<p><img src= images/blank.png width =""600"" height = ""600"" style=""position:fixed;top:50%; left:50%; transform: translate(-50%, -50%); border:5px solid black"">","","","","","","","",""
"","815.8500000135973","sequential-stimulus-presentation-old","115","1242552","0.0-27.0-1.1","SS1618435640553","trial","","40","500","1315.8500000135973","images/stimuli/spore_stims/complex_15_A_b.gif","images/stimuli/spore_stims/complex_08_A_a.gif","self_paced","","9","complex_dissimilar","images/stimuli/spore_stims/complex_08_A_a.gif","","","","",""
"","null","html-keyboard-response","116","1243678","0.0-27.0-0.2","SS1618435640553","","","null","","","","","","<p><img src= images/blank.png width =""600"" height = ""600"" style=""position:fixed;top:50%; left:50%; transform: translate(-50%, -50%); border:5px solid black"">","","","","","","","",""
"","403.50499999476597","sequential-stimulus-presentation-old","117","1244591","0.0-27.0-1.2","SS1618435640553","trial","","40","500","903.504999994766","images/stimuli/spore_stims/complex_15_A_b.gif","images/stimuli/spore_stims/complex_08_A_a.gif","self_paced","","9","complex_dissimilar","images/stimuli/spore_stims/complex_08_A_a.gif","","","","",""
"","null","html-keyboard-response","118","1245521","0.0-27.0-0.3","SS1618435640553","","","null","","","","","","<p><img src= images/blank.png width =""600"" height = ""600"" style=""position:fixed;top:50%; left:50%; transform: translate(-50%, -50%); border:5px solid black"">","","","","","","","",""
"","916.0050000064075","sequential-stimulus-presentation-old","119","1246942","0.0-27.0-1.3","SS1618435640553","trial","","40","500","1416.0050000064075","images/stimuli/spore_stims/complex_15_A_b.gif","images/stimuli/spore_stims/complex_08_A_a.gif","self_paced","","9","complex_dissimilar","images/stimuli/spore_stims/complex_08_A_a.gif","","","","",""
"","null","html-keyboard-response","120","1248205","0.0-27.0-0.4","SS1618435640553","","","null","","","","","","<p><img src= images/blank.png width =""600"" height = ""600"" style=""position:fixed;top:50%; left:50%; transform: translate(-50%, -50%); border:5px solid black"">","","","","","","","",""
"","7270.840000011958","sequential-stimulus-presentation-old","121","1255992","0.0-27.0-1.4","SS1618435640553","trial","","40","500","7770.840000011958","images/stimuli/spore_stims/complex_15_A_b.gif","images/stimuli/spore_stims/complex_08_A_a.gif","self_paced","","9","complex_dissimilar","images/stimuli/spore_stims/complex_15_A_b.gif","","","","",""
"","null","html-keyboard-response","122","1256867","0.0-27.0-0.5","SS1618435640553","","","null","","","","","","<p><img src= images/blank.png width =""600"" height = ""600"" style=""position:fixed;top:50%; left:50%; transform: translate(-50%, -50%); border:5px solid black"">","","","","","","","",""
"","234577.6349999942","sequential-stimulus-presentation-old","123","1491965","0.0-27.0-1.5","SS1618435640553","trial","","40","500","235077.6349999942","images/stimuli/spore_stims/complex_15_A_b.gif","images/stimuli/spore_stims/complex_08_A_a.gif","self_paced","","9","complex_dissimilar","images/stimuli/spore_stims/complex_08_A_a.gif","","","","",""
"","2777.330000011716","survey-multi-choice","124","1494749","0.0-28.0","SS1618435640553","math_question","","","","","","","","","","","","{""Q0"":""5""}","[0]","5","",""
"","null","html-keyboard-response","125","1495867","0.0-29.0-0.0","SS1618435640553","","","null","","","","","","<p><img src= images/blank.png width =""600"" height = ""600"" style=""position:fixed;top:50%; left:50%; transform: translate(-50%, -50%); border:5px solid black"">","","","","","","","",""
"","991.32999998983","sequential-stimulus-presentation-old","126","1496929","0.0-29.0-1.0","SS1618435640553","trial","","40","500","1491.32999998983","images/stimuli/spore_stims/simple_12_A_b.gif","images/stimuli/spore_stims/simple_11_A_a.gif","forced_short","","10","simple_dissimilar","images/stimuli/spore_stims/simple_11_A_a.gif","","","","",""
"","null","html-keyboard-response","127","1497882","0.0-29.0-0.1","SS1618435640553","","","null","","","","","","<p><img src= images/blank.png width =""600"" height = ""600"" style=""position:fixed;top:50%; left:50%; transform: translate(-50%, -50%); border:5px solid black"">","","","","","","","",""
"","564.024999999674","sequential-stimulus-presentation-old","128","1498951","0.0-29.0-1.1","SS1618435640553","trial","","40","500","1064.024999999674","images/stimuli/spore_stims/simple_12_A_b.gif","images/stimuli/spore_stims/simple_11_A_a.gif","forced_short","","10","simple_dissimilar","images/stimuli/spore_stims/simple_11_A_a.gif","","","","",""
"","null","html-keyboard-response","129","1499879","0.0-29.0-0.2","SS1618435640553","","","null","","","","","","<p><img src= images/blank.png width =""600"" height = ""600"" style=""position:fixed;top:50%; left:50%; transform: translate(-50%, -50%); border:5px solid black"">","","","","","","","",""
"","1052.1000000007916","sequential-stimulus-presentation-old","130","1501437","0.0-29.0-1.2","SS1618435640553","trial","","40","500","1552.1000000007916","images/stimuli/spore_stims/simple_12_A_b.gif","images/stimuli/spore_stims/simple_11_A_a.gif","forced_short","","10","simple_dissimilar","images/stimuli/spore_stims/simple_11_A_a.gif","","","","",""
"","null","html-keyboard-response","131","1502329","0.0-29.0-0.3","SS1618435640553","","","null","","","","","","<p><img src= images/blank.png width =""600"" height = ""600"" style=""position:fixed;top:50%; left:50%; transform: translate(-50%, -50%); border:5px solid black"">","","","","","","","",""
"","8.314999984577298","sequential-stimulus-presentation-old","132","1502843","0.0-29.0-1.3","SS1618435640553","trial","","40","500","508.3149999845773","images/stimuli/spore_stims/simple_12_A_b.gif","images/stimuli/spore_stims/simple_11_A_a.gif","forced_short","","10","simple_dissimilar","images/stimuli/spore_stims/simple_11_A_a.gif","","","","",""
"","null","html-keyboard-response","133","1503674","0.0-29.0-0.4","SS1618435640553","","","null","","","","","","<p><img src= images/blank.png width =""600"" height = ""600"" style=""position:fixed;top:50%; left:50%; transform: translate(-50%, -50%); border:5px solid black"">","","","","","","","",""
"","1756.4049999928102","sequential-stimulus-presentation-old","134","1505942","0.0-29.0-1.4","SS1618435640553","trial","","40","500","2256.40499999281","images/stimuli/spore_stims/simple_12_A_b.gif","images/stimuli/spore_stims/simple_11_A_a.gif","forced_short","","10","simple_dissimilar","images/stimuli/spore_stims/simple_11_A_a.gif","","","","",""
"","330281.09000000404","survey-multi-choice","135","1836228","0.0-30.0","SS1618435640553","math_question","","","","","","","","","","","","{""Q0"":""12""}","[0]","12","",""
"","null","html-keyboard-response","136","1837292","0.0-31.0-0.0","SS1618435640553","","","null","","","","","","<p><img src= images/blank.png width =""600"" height = ""600"" style=""position:fixed;top:50%; left:50%; transform: translate(-50%, -50%); border:5px solid black"">","","","","","","","",""
"","2492.259999999078","sequential-stimulus-presentation-old","137","1839848","0.0-31.0-1.0","SS1618435640553","trial","","40","500","2992.259999999078","images/stimuli/spore_stims/complex_09_A_b.gif","images/stimuli/spore_stims/complex_01_A_a.gif","forced_short","","11","complex_dissimilar","images/stimuli/spore_stims/complex_01_A_a.gif","","","","",""
"","null","html-keyboard-response","138","1841141","0.0-31.0-0.1","SS1618435640553","","","null","","","","","","<p><img src= images/blank.png width =""600"" height = ""600"" style=""position:fixed;top:50%; left:50%; transform: translate(-50%, -50%); border:5px solid black"">","","","","","","","",""
"","357.16499999398366","sequential-stimulus-presentation-old","139","1842004","0.0-31.0-1.1","SS1618435640553","trial","","40","500","857.1649999939837","images/stimuli/spore_stims/complex_09_A_b.gif","images/stimuli/spore_stims/complex_01_A_a.gif","forced_short","","11","complex_dissimilar","images/stimuli/spore_stims/complex_01_A_a.gif","","","","",""
"","null","html-keyboard-response","140","1843320","0.0-31.0-0.2","SS1618435640553","","","null","","","","","","<p><img src= images/blank.png width =""600"" height = ""600"" style=""position:fixed;top:50%; left:50%; transform: translate(-50%, -50%); border:5px solid black"">","","","","","","","",""
"","172.92000001179986","sequential-stimulus-presentation-old","141","1844011","0.0-31.0-1.2","SS1618435640553","trial","","40","500","672.9200000117999","images/stimuli/spore_stims/complex_09_A_b.gif","images/stimuli/spore_stims/complex_01_A_a.gif","forced_short","","11","complex_dissimilar","images/stimuli/spore_stims/complex_01_A_a.gif","","","","",""
"","null","html-keyboard-response","142","1844982","0.0-31.0-0.3","SS1618435640553","","","null","","","","","","<p><img src= images/blank.png width =""600"" height = ""600"" style=""position:fixed;top:50%; left:50%; transform: translate(-50%, -50%); border:5px solid black"">","","","","","","","",""
"","424.8399999924004","sequential-stimulus-presentation-old","143","1845915","0.0-31.0-1.3","SS1618435640553","trial","","40","500","924.8399999924004","images/stimuli/spore_stims/complex_09_A_b.gif","images/stimuli/spore_stims/complex_01_A_a.gif","forced_short","","11","complex_dissimilar","images/stimuli/spore_stims/complex_01_A_a.gif","","","","",""
"","null","html-keyboard-response","144","1846952","0.0-31.0-0.4","SS1618435640553","","","null","","","","","","<p><img src= images/blank.png width =""600"" height = ""600"" style=""position:fixed;top:50%; left:50%; transform: translate(-50%, -50%); border:5px solid black"">","","","","","","","",""
"","418153.14000000944","sequential-stimulus-presentation-old","145","2265611","0.0-31.0-1.4","SS1618435640553","trial","","40","500","418653.14000000944","images/stimuli/spore_stims/complex_09_A_b.gif","images/stimuli/spore_stims/complex_01_A_a.gif","forced_short","","11","complex_dissimilar","images/stimuli/spore_stims/complex_01_A_a.gif","","","","",""
"","null","html-keyboard-response","146","2266745","0.0-31.0-0.5","SS1618435640553","","","null","","","","","","<p><img src= images/blank.png width =""600"" height = ""600"" style=""position:fixed;top:50%; left:50%; transform: translate(-50%, -50%); border:5px solid black"">","","","","","","","",""
"","245.519999996759","sequential-stimulus-presentation-old","147","2267499","0.0-31.0-1.5","SS1618435640553","trial","","40","500","745.519999996759","images/stimuli/spore_stims/complex_09_A_b.gif","images/stimuli/spore_stims/complex_01_A_a.gif","forced_short","","11","complex_dissimilar","images/stimuli/spore_stims/complex_09_A_b.gif","","","","",""
"[{""page_index"":0,""viewing_time"":4708.410000021569}]","4710.229999997187","instructions","148","2272214","0.0-32.0","SS1618435640553","instructions","","","","","","","","","","","","","","","",""
"","5969.33500000136","survey-likert","149","2278193","0.0-33.0","SS1618435640553","similarity_question","","","","","","","","","","","","{""Q0"":2}","[0]","","images/stimuli/spore_stims/complex_07_A_b.gif","images/stimuli/spore_stims/complex_05_A_a.gif"
"","2766.960000007879","survey-likert","150","2280969","0.0-34.0","SS1618435640553","similarity_question","","","","","","","","","","","","{""Q0"":2}","[0]","","images/stimuli/spore_stims/complex_17_A_b.gif","images/stimuli/spore_stims/complex_18_A_a.gif"
"","2728.130000003148","survey-likert","151","2283705","0.0-35.0","SS1618435640553","similarity_question","","","","","","","","","","","","{""Q0"":1}","[0]","","images/stimuli/spore_stims/complex_15_A_b.gif","images/stimuli/spore_stims/complex_08_A_a.gif"
"","3938.0349999992177","survey-likert","152","2287655","0.0-36.0","SS1618435640553","similarity_question","","","","","","","","","","","","{""Q0"":4}","[0]","","images/stimuli/spore_stims/simple_02_A_b.gif","images/stimuli/spore_stims/simple_18_A_a.gif"
"","2488.1849999949336","survey-likert","153","2290154","0.0-37.0","SS1618435640553","similarity_question","","","","","","","","","","","","{""Q0"":5}","[0]","","images/stimuli/spore_stims/simple_15_A_b.gif","images/stimuli/spore_stims/simple_07_A_a.gif"
"","2463.1650000233203","survey-likert","154","2292628","0.0-38.0","SS1618435640553","similarity_question","","","","","","","","","","","","{""Q0"":5}","[0]","","images/stimuli/spore_stims/simple_08_A_a.gif","images/stimuli/spore_stims/simple_07_A_b.gif"
"","2479.0149999903515","survey-likert","155","2295116","0.0-39.0","SS1618435640553","similarity_question","","","","","","","","","","","","{""Q0"":6}","[0]","","images/stimuli/spore_stims/simple_04_A_a.gif","images/stimuli/spore_stims/simple_08_A_b.gif"
"","3711.5750000230037","survey-likert","156","2298835","0.0-40.0","SS1618435640553","similarity_question","","","","","","","","","","","","{""Q0"":5}","[0]","","images/stimuli/spore_stims/simple_12_A_b.gif","images/stimuli/spore_stims/simple_11_A_a.gif"
"","5778.1850000033155","survey-likert","157","2304627","0.0-41.0","SS1618435640553","similarity_question","","","","","","","","","","","","{""Q0"":4}","[0]","","images/stimuli/spore_stims/complex_12_A_b.gif","images/stimuli/spore_stims/complex_09_A_a.gif"
"","2420.1150000151247","survey-likert","158","2307061","0.0-42.0","SS1618435640553","similarity_question","","","","","","","","","","","","{""Q0"":2}","[0]","","images/stimuli/spore_stims/complex_16_A_a.gif","images/stimuli/spore_stims/complex_19_A_b.gif"
"","2862.3300000038","survey-likert","159","2309934","0.0-43.0","SS1618435640553","similarity_question","","","","","","","","","","","","{""Q0"":2}","[0]","","images/stimuli/spore_stims/complex_09_A_b.gif","images/stimuli/spore_stims/complex_01_A_a.gif"
"","3587.1049999836832","survey-likert","160","2313531","0.0-44.0","SS1618435640553","similarity_question","","","","","","","","","","","","{""Q0"":5}","[0]","","images/stimuli/spore_stims/simple_17_A_a.gif","images/stimuli/spore_stims/simple_06_A_b.gif"
"[{""page_index"":0,""viewing_time"":5498.265000002459}]","5498.730000021402","instructions","161","2319042","0.0-45.0","SS1618435640553","instructions","","","","","","","","","","","","","","","",""
"","3862.920000014361","survey-likert","162","2322911","0.0-46.0","SS1618435640553","","","","","","","","","images/stimuli/spore_stims/simple_18_A_a.gif","","","","{""Q0"":0}","[0]","","",""
"","2185.8500000089407","survey-likert","163","2325106","0.0-47.0","SS1618435640553","","","","","","","","","images/stimuli/spore_stims/simple_17_A_a.gif","","","","{""Q0"":0}","[0]","","",""
"","2133.050000003539","survey-likert","164","2327250","0.0-48.0","SS1618435640553","","","","","","","","","images/stimuli/spore_stims/simple_04_A_a.gif","","","","{""Q0"":0}","[0]","","",""
"","2322.6699999943376","survey-likert","165","2329583","0.0-49.0","SS1618435640553","","","","","","","","","images/stimuli/spore_stims/complex_09_A_a.gif","","","","{""Q0"":5}","[0]","","",""
"","2218.489999999292","survey-likert","166","2331812","0.0-50.0","SS1618435640553","","","","","","","","","images/stimuli/spore_stims/simple_15_A_b.gif","","","","{""Q0"":0}","[0]","","",""
"","2012.9250000170432","survey-likert","167","2333839","0.0-51.0","SS1618435640553","","","","","","","","","images/stimuli/spore_stims/simple_11_A_a.gif","","","","{""Q0"":1}","[0]","","",""
"","2994.654999987688","survey-likert","168","2336846","0.0-52.0","SS1618435640553","","","","","","","","","images/stimuli/spore_stims/complex_09_A_b.gif","","","","{""Q0"":5}","[0]","","",""
"","2896.0249999947846","survey-likert","169","2339755","0.0-53.0","SS1618435640553","","","","","","","","","images/stimuli/spore_stims/complex_16_A_a.gif","","","","{""Q0"":5}","[0]","","",""
"","3943.0849999766797","survey-likert","170","2343706","0.0-54.0","SS1618435640553","","","","","","","","","images/stimuli/spore_stims/simple_07_A_b.gif","","","","{""Q0"":0}","[0]","","",""
"","3905.819999985397","survey-likert","171","2347621","0.0-55.0","SS1618435640553","","","","","","","","","images/stimuli/spore_stims/complex_05_A_a.gif","","","","{""Q0"":5}","[0]","","",""
"","2833.534999983385","survey-likert","172","2350462","0.0-56.0","SS1618435640553","","","","","","","","","images/stimuli/spore_stims/complex_18_A_a.gif","","","","{""Q0"":6}","[0]","","",""
"","1923.574999993667","survey-likert","173","2352398","0.0-57.0","SS1618435640553","","","","","","","","","images/stimuli/spore_stims/complex_08_A_a.gif","","","","{""Q0"":6}","[0]","","",""
"[{""page_index"":0,""viewing_time"":2707.599999994505}]","2708.039999997709","instructions","174","2355117","0.0-58.0","SS1618435640553","instructions","","","","","","","","","","","","","","","",""
"","3076.4499999932013","demog-age","175","2358205","0.0-59.0","SS1618435640553","","","","","","","","","","","","","{""age"":""31""}","","","",""
"","5313.844999996945","demog-ethnic-US","176","2363529","0.0-60.0","SS1618435640553","","","","","","","","","","","","","{""ethnicity"":[""White""]}","[0]","","",""
"","6300.129999988712","demog-gender-and-education","177","2369840","0.0-61.0","SS1618435640553","","","","","","","","","","","","","{""gender"":""Male"",""education"":""Master's Degree""}","[0,1]","","",""
"","14045.080000010785","survey-text","178","2383900","0.0-62.0","SS1618435640553","feedback","","","","","","","","","","","","{""Q0"":""it was fun :)""}","","","",""
"[{""page_index"":0,""viewing_time"":2071.7949999962}]","2072.2949999906123","instructions","179","2385977","0.0-63.0","SS1618435640553","instructions","","","","","","","","","","","","","","","",""
