"view_history","rt","trial_type","trial_index","time_elapsed","internal_node_id","subject","stimulus_type","trial_stimulus","key_press","minimum_viewing_duration","trial_looking_time","block_deviant","block_background","exposure_type","stimulus","block_number","block_type","stimulus_displayed","responses","question_order","math_correct_answer","stimulus_left","stimulus_right"
"[{""page_index"":0,""viewing_time"":9981.379999997444}]","9982.25999999704","instructions","0","9983","0.0-0.0","SS1618435648845","","","","","","","","","","","","","","","","",""
"[{""page_index"":0,""viewing_time"":16549.559999999474},{""page_index"":1,""viewing_time"":10101.284999997006}]","26651.115000000573","instructions","1","38637","0.0-1.0","SS1618435648845","instructions","","","","","","","","","","","","","","","",""
"","5948.960000001534","sequential-stimulus-presentation-old","2","45090","0.0-2.0","SS1618435648845","","","40","500","6448.960000001534","null","null","self_paced","","","","","","","","",""
"","10214.975000002596","sequential-stimulus-presentation-old","3","55809","0.0-3.0","SS1618435648845","","","40","500","10714.975000002596","null","null","self_paced","","","","","","","","",""
"[{""page_index"":0,""viewing_time"":31193.785000003118}]","31194.475000003877","instructions","4","87005","0.0-4.0","SS1618435648845","instructions","","","","","","","","","","","","","","","",""
"","2327.5550000034855","sequential-stimulus-presentation-old","5","94339","0.0-5.0","SS1618435648845","","","40","500","2827.5550000034855","null","null","forced_long","","","","","","","","",""
"","8815.69500000478","sequential-stimulus-presentation-old","6","103208","0.0-6.0","SS1618435648845","","","40","50","8865.69500000478","null","null","forced_long","","","","","","","","",""
"[{""page_index"":0,""viewing_time"":3704.7999999995227}]","3705.115000004298","instructions","7","106915","0.0-7.0","SS1618435648845","instructions","","","","","","","","","","","","","","","",""
"[{""page_index"":0,""viewing_time"":8794.920000000275},{""page_index"":1,""viewing_time"":7996.720000002824},{""page_index"":2,""viewing_time"":2060.8049999937066},{""page_index"":1,""viewing_time"":10740.16500000289},{""page_index"":2,""viewing_time"":5620.970000003581},{""page_index"":3,""viewing_time"":1501.3049999979557},{""page_index"":4,""viewing_time"":1362.4049999998533}]","38077.980000001844","instructions","8","144994","0.0-8.0","SS1618435648845","instructions","","","","","","","","","","","","","","","",""
"","null","html-keyboard-response","9","146198","0.0-9.0-0.0","SS1618435648845","","","null","","","","","","<p><img src= images/blank.png width =""600"" height = ""600"" style=""position:fixed;top:50%; left:50%; transform: translate(-50%, -50%); border:5px solid black"">","","","","","","","",""
"","112901.29499999603","sequential-stimulus-presentation-old","10","259607","0.0-9.0-1.0","SS1618435648845","trial","","40","500","113401.29499999603","images/stimuli/spore_stims/simple_02_A_a.gif","images/stimuli/spore_stims/simple_20_A_b.gif","self_paced","","0","simple_dissimilar","images/stimuli/spore_stims/simple_20_A_b.gif","","","","",""
"","null","html-keyboard-response","11","260697","0.0-9.0-0.1","SS1618435648845","","","null","","","","","","<p><img src= images/blank.png width =""600"" height = ""600"" style=""position:fixed;top:50%; left:50%; transform: translate(-50%, -50%); border:5px solid black"">","","","","","","","",""
"","13276.339999996708","sequential-stimulus-presentation-old","12","274476","0.0-9.0-1.1","SS1618435648845","trial","","40","500","13776.339999996708","images/stimuli/spore_stims/simple_02_A_a.gif","images/stimuli/spore_stims/simple_20_A_b.gif","self_paced","","0","simple_dissimilar","images/stimuli/spore_stims/simple_02_A_a.gif","","","","",""
"","null","html-keyboard-response","13","275419","0.0-9.0-0.2","SS1618435648845","","","null","","","","","","<p><img src= images/blank.png width =""600"" height = ""600"" style=""position:fixed;top:50%; left:50%; transform: translate(-50%, -50%); border:5px solid black"">","","","","","","","",""
"","14336.154999997234","sequential-stimulus-presentation-old","14","290259","0.0-9.0-1.2","SS1618435648845","trial","","40","500","14836.154999997234","images/stimuli/spore_stims/simple_02_A_a.gif","images/stimuli/spore_stims/simple_20_A_b.gif","self_paced","","0","simple_dissimilar","images/stimuli/spore_stims/simple_20_A_b.gif","","","","",""
"","null","html-keyboard-response","15","291404","0.0-9.0-0.3","SS1618435648845","","","null","","","","","","<p><img src= images/blank.png width =""600"" height = ""600"" style=""position:fixed;top:50%; left:50%; transform: translate(-50%, -50%); border:5px solid black"">","","","","","","","",""
"","7126.765000000887","sequential-stimulus-presentation-old","16","299970","0.0-9.0-1.3","SS1618435648845","trial","","40","500","7626.765000000887","images/stimuli/spore_stims/simple_02_A_a.gif","images/stimuli/spore_stims/simple_20_A_b.gif","self_paced","","0","simple_dissimilar","images/stimuli/spore_stims/simple_20_A_b.gif","","","","",""
"","3767.7649999968708","survey-multi-choice","17","303745","0.0-10.0","SS1618435648845","math_question","","","","","","","","","","","","{""Q0"":""14""}","[0]","14","",""
"","null","html-keyboard-response","18","304796","0.0-11.0-0.0","SS1618435648845","","","null","","","","","","<p><img src= images/blank.png width =""600"" height = ""600"" style=""position:fixed;top:50%; left:50%; transform: translate(-50%, -50%); border:5px solid black"">","","","","","","","",""
"","2198.850000000675","sequential-stimulus-presentation-old","19","307049","0.0-11.0-1.0","SS1618435648845","trial","","40","500","2698.850000000675","images/stimuli/spore_stims/simple_12_A_b.gif","images/stimuli/spore_stims/simple_07_A_a.gif","forced_short","","1","simple_dissimilar","images/stimuli/spore_stims/simple_07_A_a.gif","","","","",""
"","null","html-keyboard-response","20","307891","0.0-11.0-0.1","SS1618435648845","","","null","","","","","","<p><img src= images/blank.png width =""600"" height = ""600"" style=""position:fixed;top:50%; left:50%; transform: translate(-50%, -50%); border:5px solid black"">","","","","","","","",""
"","8285.289999999804","sequential-stimulus-presentation-old","21","316680","0.0-11.0-1.1","SS1618435648845","trial","","40","500","8785.289999999804","images/stimuli/spore_stims/simple_12_A_b.gif","images/stimuli/spore_stims/simple_07_A_a.gif","forced_short","","1","simple_dissimilar","images/stimuli/spore_stims/simple_07_A_a.gif","","","","",""
"","null","html-keyboard-response","22","317914","0.0-11.0-0.2","SS1618435648845","","","null","","","","","","<p><img src= images/blank.png width =""600"" height = ""600"" style=""position:fixed;top:50%; left:50%; transform: translate(-50%, -50%); border:5px solid black"">","","","","","","","",""
"","3241.8700000052922","sequential-stimulus-presentation-old","23","321659","0.0-11.0-1.2","SS1618435648845","trial","","40","500","3741.8700000052922","images/stimuli/spore_stims/simple_12_A_b.gif","images/stimuli/spore_stims/simple_07_A_a.gif","forced_short","","1","simple_dissimilar","images/stimuli/spore_stims/simple_07_A_a.gif","","","","",""
"","null","html-keyboard-response","24","322690","0.0-11.0-0.3","SS1618435648845","","","null","","","","","","<p><img src= images/blank.png width =""600"" height = ""600"" style=""position:fixed;top:50%; left:50%; transform: translate(-50%, -50%); border:5px solid black"">","","","","","","","",""
"","7773.04500000173","sequential-stimulus-presentation-old","25","330968","0.0-11.0-1.3","SS1618435648845","trial","","40","500","8273.04500000173","images/stimuli/spore_stims/simple_12_A_b.gif","images/stimuli/spore_stims/simple_07_A_a.gif","forced_short","","1","simple_dissimilar","images/stimuli/spore_stims/simple_07_A_a.gif","","","","",""
"","null","html-keyboard-response","26","331883","0.0-11.0-0.4","SS1618435648845","","","null","","","","","","<p><img src= images/blank.png width =""600"" height = ""600"" style=""position:fixed;top:50%; left:50%; transform: translate(-50%, -50%); border:5px solid black"">","","","","","","","",""
"","7090.094999999565","sequential-stimulus-presentation-old","27","339477","0.0-11.0-1.4","SS1618435648845","trial","","40","500","7590.094999999565","images/stimuli/spore_stims/simple_12_A_b.gif","images/stimuli/spore_stims/simple_07_A_a.gif","forced_short","","1","simple_dissimilar","images/stimuli/spore_stims/simple_07_A_a.gif","","","","",""
"","null","html-keyboard-response","28","340598","0.0-11.0-0.5","SS1618435648845","","","null","","","","","","<p><img src= images/blank.png width =""600"" height = ""600"" style=""position:fixed;top:50%; left:50%; transform: translate(-50%, -50%); border:5px solid black"">","","","","","","","",""
"","8514.265000005253","sequential-stimulus-presentation-old","29","349620","0.0-11.0-1.5","SS1618435648845","trial","","40","500","9014.265000005253","images/stimuli/spore_stims/simple_12_A_b.gif","images/stimuli/spore_stims/simple_07_A_a.gif","forced_short","","1","simple_dissimilar","images/stimuli/spore_stims/simple_07_A_a.gif","","","","",""
"","3578.2749999998487","survey-multi-choice","30","353203","0.0-12.0","SS1618435648845","math_question","","","","","","","","","","","","{""Q0"":""6""}","[0]","6","",""
"","null","html-keyboard-response","31","354351","0.0-13.0-0.0","SS1618435648845","","","null","","","","","","<p><img src= images/blank.png width =""600"" height = ""600"" style=""position:fixed;top:50%; left:50%; transform: translate(-50%, -50%); border:5px solid black"">","","","","","","","",""
"","1509.4400000016321","sequential-stimulus-presentation-old","32","360868","0.0-13.0-1.0","SS1618435648845","trial","","40","500","2009.4400000016321","images/stimuli/spore_stims/simple_18_A_a.gif","images/stimuli/spore_stims/simple_05_A_b.gif","forced_long","","2","simple_dissimilar","images/stimuli/spore_stims/simple_05_A_b.gif","","","","",""
"","null","html-keyboard-response","33","361908","0.0-13.0-0.1","SS1618435648845","","","null","","","","","","<p><img src= images/blank.png width =""600"" height = ""600"" style=""position:fixed;top:50%; left:50%; transform: translate(-50%, -50%); border:5px solid black"">","","","","","","","",""
"","10722.300000001269","sequential-stimulus-presentation-old","34","373138","0.0-13.0-1.1","SS1618435648845","trial","","40","500","11222.300000001269","images/stimuli/spore_stims/simple_18_A_a.gif","images/stimuli/spore_stims/simple_05_A_b.gif","forced_long","","2","simple_dissimilar","images/stimuli/spore_stims/simple_05_A_b.gif","","","","",""
"","null","html-keyboard-response","35","374027","0.0-13.0-0.2","SS1618435648845","","","null","","","","","","<p><img src= images/blank.png width =""600"" height = ""600"" style=""position:fixed;top:50%; left:50%; transform: translate(-50%, -50%); border:5px solid black"">","","","","","","","",""
"","4947.615000004589","sequential-stimulus-presentation-old","36","379479","0.0-13.0-1.2","SS1618435648845","trial","","40","500","5447.615000004589","images/stimuli/spore_stims/simple_18_A_a.gif","images/stimuli/spore_stims/simple_05_A_b.gif","forced_long","","2","simple_dissimilar","images/stimuli/spore_stims/simple_18_A_a.gif","","","","",""
"","null","html-keyboard-response","37","380529","0.0-13.0-0.3","SS1618435648845","","","null","","","","","","<p><img src= images/blank.png width =""600"" height = ""600"" style=""position:fixed;top:50%; left:50%; transform: translate(-50%, -50%); border:5px solid black"">","","","","","","","",""
"","12655.520000000251","sequential-stimulus-presentation-old","38","393688","0.0-13.0-1.3","SS1618435648845","trial","","40","500","13155.520000000251","images/stimuli/spore_stims/simple_18_A_a.gif","images/stimuli/spore_stims/simple_05_A_b.gif","forced_long","","2","simple_dissimilar","images/stimuli/spore_stims/simple_18_A_a.gif","","","","",""
"","null","html-keyboard-response","39","394656","0.0-13.0-0.4","SS1618435648845","","","null","","","","","","<p><img src= images/blank.png width =""600"" height = ""600"" style=""position:fixed;top:50%; left:50%; transform: translate(-50%, -50%); border:5px solid black"">","","","","","","","",""
"","8401.120000002265","sequential-stimulus-presentation-old","40","403560","0.0-13.0-1.4","SS1618435648845","trial","","40","500","8901.120000002265","images/stimuli/spore_stims/simple_18_A_a.gif","images/stimuli/spore_stims/simple_05_A_b.gif","forced_long","","2","simple_dissimilar","images/stimuli/spore_stims/simple_05_A_b.gif","","","","",""
"","3366.1799999972573","survey-multi-choice","41","406931","0.0-14.0","SS1618435648845","math_question","","","","","","","","","","","","{""Q0"":""14""}","[0]","14","",""
"","null","html-keyboard-response","42","407894","0.0-15.0-0.0","SS1618435648845","","","null","","","","","","<p><img src= images/blank.png width =""600"" height = ""600"" style=""position:fixed;top:50%; left:50%; transform: translate(-50%, -50%); border:5px solid black"">","","","","","","","",""
"","7160.905000004277","sequential-stimulus-presentation-old","43","415558","0.0-15.0-1.0","SS1618435648845","trial","","40","500","7660.905000004277","images/stimuli/spore_stims/simple_09_A_b.gif","images/stimuli/spore_stims/simple_12_A_a.gif","self_paced","","3","simple_dissimilar","images/stimuli/spore_stims/simple_12_A_a.gif","","","","",""
"","null","html-keyboard-response","44","416461","0.0-15.0-0.1","SS1618435648845","","","null","","","","","","<p><img src= images/blank.png width =""600"" height = ""600"" style=""position:fixed;top:50%; left:50%; transform: translate(-50%, -50%); border:5px solid black"">","","","","","","","",""
"","7541.474999998172","sequential-stimulus-presentation-old","45","424508","0.0-15.0-1.1","SS1618435648845","trial","","40","500","8041.474999998172","images/stimuli/spore_stims/simple_09_A_b.gif","images/stimuli/spore_stims/simple_12_A_a.gif","self_paced","","3","simple_dissimilar","images/stimuli/spore_stims/simple_12_A_a.gif","","","","",""
"","null","html-keyboard-response","46","425742","0.0-15.0-0.2","SS1618435648845","","","null","","","","","","<p><img src= images/blank.png width =""600"" height = ""600"" style=""position:fixed;top:50%; left:50%; transform: translate(-50%, -50%); border:5px solid black"">","","","","","","","",""
"","9923.705000001064","sequential-stimulus-presentation-old","47","436169","0.0-15.0-1.2","SS1618435648845","trial","","40","500","10423.705000001064","images/stimuli/spore_stims/simple_09_A_b.gif","images/stimuli/spore_stims/simple_12_A_a.gif","self_paced","","3","simple_dissimilar","images/stimuli/spore_stims/simple_12_A_a.gif","","","","",""
"","null","html-keyboard-response","48","437012","0.0-15.0-0.3","SS1618435648845","","","null","","","","","","<p><img src= images/blank.png width =""600"" height = ""600"" style=""position:fixed;top:50%; left:50%; transform: translate(-50%, -50%); border:5px solid black"">","","","","","","","",""
"","5058.410000005097","sequential-stimulus-presentation-old","49","442578","0.0-15.0-1.3","SS1618435648845","trial","","40","500","5558.410000005097","images/stimuli/spore_stims/simple_09_A_b.gif","images/stimuli/spore_stims/simple_12_A_a.gif","self_paced","","3","simple_dissimilar","images/stimuli/spore_stims/simple_12_A_a.gif","","","","",""
"","3211.94000000105","survey-multi-choice","50","445793","0.0-16.0","SS1618435648845","math_question","","","","","","","","","","","","{""Q0"":""6""}","[0]","6","",""
"","null","html-keyboard-response","51","446726","0.0-17.0-0.0","SS1618435648845","","","null","","","","","","<p><img src= images/blank.png width =""600"" height = ""600"" style=""position:fixed;top:50%; left:50%; transform: translate(-50%, -50%); border:5px solid black"">","","","","","","","",""
"","2427.094999999099","sequential-stimulus-presentation-old","52","449211","0.0-17.0-1.0","SS1618435648845","trial","","40","500","2927.094999999099","images/stimuli/spore_stims/simple_18_A_b.gif","images/stimuli/spore_stims/simple_01_A_a.gif","forced_short","","4","simple_dissimilar","images/stimuli/spore_stims/simple_01_A_a.gif","","","","",""
"","null","html-keyboard-response","53","450061","0.0-17.0-0.1","SS1618435648845","","","null","","","","","","<p><img src= images/blank.png width =""600"" height = ""600"" style=""position:fixed;top:50%; left:50%; transform: translate(-50%, -50%); border:5px solid black"">","","","","","","","",""
"","5292.27499999979","sequential-stimulus-presentation-old","54","455858","0.0-17.0-1.1","SS1618435648845","trial","","40","500","5792.27499999979","images/stimuli/spore_stims/simple_18_A_b.gif","images/stimuli/spore_stims/simple_01_A_a.gif","forced_short","","4","simple_dissimilar","images/stimuli/spore_stims/simple_01_A_a.gif","","","","",""
"","null","html-keyboard-response","55","457142","0.0-17.0-0.2","SS1618435648845","","","null","","","","","","<p><img src= images/blank.png width =""600"" height = ""600"" style=""position:fixed;top:50%; left:50%; transform: translate(-50%, -50%); border:5px solid black"">","","","","","","","",""
"","8961.250000000291","sequential-stimulus-presentation-old","56","466612","0.0-17.0-1.2","SS1618435648845","trial","","40","500","9461.250000000291","images/stimuli/spore_stims/simple_18_A_b.gif","images/stimuli/spore_stims/simple_01_A_a.gif","forced_short","","4","simple_dissimilar","images/stimuli/spore_stims/simple_01_A_a.gif","","","","",""
"","null","html-keyboard-response","57","467785","0.0-17.0-0.3","SS1618435648845","","","null","","","","","","<p><img src= images/blank.png width =""600"" height = ""600"" style=""position:fixed;top:50%; left:50%; transform: translate(-50%, -50%); border:5px solid black"">","","","","","","","",""
"","5739.7950000013225","sequential-stimulus-presentation-old","58","474030","0.0-17.0-1.3","SS1618435648845","trial","","40","500","6239.7950000013225","images/stimuli/spore_stims/simple_18_A_b.gif","images/stimuli/spore_stims/simple_01_A_a.gif","forced_short","","4","simple_dissimilar","images/stimuli/spore_stims/simple_01_A_a.gif","","","","",""
"","null","html-keyboard-response","59","475170","0.0-17.0-0.4","SS1618435648845","","","null","","","","","","<p><img src= images/blank.png width =""600"" height = ""600"" style=""position:fixed;top:50%; left:50%; transform: translate(-50%, -50%); border:5px solid black"">","","","","","","","",""
"","4389.8950000002515","sequential-stimulus-presentation-old","60","480072","0.0-17.0-1.4","SS1618435648845","trial","","40","500","4889.8950000002515","images/stimuli/spore_stims/simple_18_A_b.gif","images/stimuli/spore_stims/simple_01_A_a.gif","forced_short","","4","simple_dissimilar","images/stimuli/spore_stims/simple_18_A_b.gif","","","","",""
"","null","html-keyboard-response","61","481036","0.0-17.0-0.5","SS1618435648845","","","null","","","","","","<p><img src= images/blank.png width =""600"" height = ""600"" style=""position:fixed;top:50%; left:50%; transform: translate(-50%, -50%); border:5px solid black"">","","","","","","","",""
"","5936.4799999966635","sequential-stimulus-presentation-old","62","487481","0.0-17.0-1.5","SS1618435648845","trial","","40","500","6436.4799999966635","images/stimuli/spore_stims/simple_18_A_b.gif","images/stimuli/spore_stims/simple_01_A_a.gif","forced_short","","4","simple_dissimilar","images/stimuli/spore_stims/simple_18_A_b.gif","","","","",""
"","3033.6999999999534","survey-multi-choice","63","490520","0.0-18.0","SS1618435648845","math_question","","","","","","","","","","","","{""Q0"":""16""}","[0]","16","",""
"","null","html-keyboard-response","64","491642","0.0-19.0-0.0","SS1618435648845","","","null","","","","","","<p><img src= images/blank.png width =""600"" height = ""600"" style=""position:fixed;top:50%; left:50%; transform: translate(-50%, -50%); border:5px solid black"">","","","","","","","",""
"","1562.4299999981304","sequential-stimulus-presentation-old","65","498211","0.0-19.0-1.0","SS1618435648845","trial","","40","500","2062.4299999981304","images/stimuli/spore_stims/complex_09_A_b.gif","images/stimuli/spore_stims/complex_02_A_a.gif","forced_long","","5","complex_dissimilar","images/stimuli/spore_stims/complex_02_A_a.gif","","","","",""
"","null","html-keyboard-response","66","499207","0.0-19.0-0.1","SS1618435648845","","","null","","","","","","<p><img src= images/blank.png width =""600"" height = ""600"" style=""position:fixed;top:50%; left:50%; transform: translate(-50%, -50%); border:5px solid black"">","","","","","","","",""
"","6688.330000004498","sequential-stimulus-presentation-old","67","506400","0.0-19.0-1.1","SS1618435648845","trial","","40","500","7188.330000004498","images/stimuli/spore_stims/complex_09_A_b.gif","images/stimuli/spore_stims/complex_02_A_a.gif","forced_long","","5","complex_dissimilar","images/stimuli/spore_stims/complex_02_A_a.gif","","","","",""
"","null","html-keyboard-response","68","507601","0.0-19.0-0.2","SS1618435648845","","","null","","","","","","<p><img src= images/blank.png width =""600"" height = ""600"" style=""position:fixed;top:50%; left:50%; transform: translate(-50%, -50%); border:5px solid black"">","","","","","","","",""
"","7142.684999998892","sequential-stimulus-presentation-old","69","515251","0.0-19.0-1.2","SS1618435648845","trial","","40","500","7642.684999998892","images/stimuli/spore_stims/complex_09_A_b.gif","images/stimuli/spore_stims/complex_02_A_a.gif","forced_long","","5","complex_dissimilar","images/stimuli/spore_stims/complex_02_A_a.gif","","","","",""
"","null","html-keyboard-response","70","516296","0.0-19.0-0.3","SS1618435648845","","","null","","","","","","<p><img src= images/blank.png width =""600"" height = ""600"" style=""position:fixed;top:50%; left:50%; transform: translate(-50%, -50%); border:5px solid black"">","","","","","","","",""
"","2116.8150000012247","sequential-stimulus-presentation-old","71","518922","0.0-19.0-1.3","SS1618435648845","trial","","40","500","2616.8150000012247","images/stimuli/spore_stims/complex_09_A_b.gif","images/stimuli/spore_stims/complex_02_A_a.gif","forced_long","","5","complex_dissimilar","images/stimuli/spore_stims/complex_02_A_a.gif","","","","",""
"","null","html-keyboard-response","72","519773","0.0-19.0-0.4","SS1618435648845","","","null","","","","","","<p><img src= images/blank.png width =""600"" height = ""600"" style=""position:fixed;top:50%; left:50%; transform: translate(-50%, -50%); border:5px solid black"">","","","","","","","",""
"","5022.250000001746","sequential-stimulus-presentation-old","73","525302","0.0-19.0-1.4","SS1618435648845","trial","","40","500","5522.250000001746","images/stimuli/spore_stims/complex_09_A_b.gif","images/stimuli/spore_stims/complex_02_A_a.gif","forced_long","","5","complex_dissimilar","images/stimuli/spore_stims/complex_02_A_a.gif","","","","",""
"","null","html-keyboard-response","74","526518","0.0-19.0-0.5","SS1618435648845","","","null","","","","","","<p><img src= images/blank.png width =""600"" height = ""600"" style=""position:fixed;top:50%; left:50%; transform: translate(-50%, -50%); border:5px solid black"">","","","","","","","",""
"","5936.3400000002","sequential-stimulus-presentation-old","75","532963","0.0-19.0-1.5","SS1618435648845","trial","","40","500","6436.3400000002","images/stimuli/spore_stims/complex_09_A_b.gif","images/stimuli/spore_stims/complex_02_A_a.gif","forced_long","","5","complex_dissimilar","images/stimuli/spore_stims/complex_02_A_a.gif","","","","",""
"","2781.960000000312","survey-multi-choice","76","535752","0.0-20.0","SS1618435648845","math_question","","","","","","","","","","","","{""Q0"":""8""}","[0]","8","",""
"","null","html-keyboard-response","77","537061","0.0-21.0-0.0","SS1618435648845","","","null","","","","","","<p><img src= images/blank.png width =""600"" height = ""600"" style=""position:fixed;top:50%; left:50%; transform: translate(-50%, -50%); border:5px solid black"">","","","","","","","",""
"","2647.705000002985","sequential-stimulus-presentation-old","78","539762","0.0-21.0-1.0","SS1618435648845","trial","","40","500","3147.705000002985","images/stimuli/spore_stims/complex_10_A_a.gif","images/stimuli/spore_stims/complex_08_A_b.gif","forced_short","","6","complex_dissimilar","images/stimuli/spore_stims/complex_08_A_b.gif","","","","",""
"","null","html-keyboard-response","79","540942","0.0-21.0-0.1","SS1618435648845","","","null","","","","","","<p><img src= images/blank.png width =""600"" height = ""600"" style=""position:fixed;top:50%; left:50%; transform: translate(-50%, -50%); border:5px solid black"">","","","","","","","",""
"","2753.5399999978254","sequential-stimulus-presentation-old","80","544203","0.0-21.0-1.1","SS1618435648845","trial","","40","500","3253.5399999978254","images/stimuli/spore_stims/complex_10_A_a.gif","images/stimuli/spore_stims/complex_08_A_b.gif","forced_short","","6","complex_dissimilar","images/stimuli/spore_stims/complex_08_A_b.gif","","","","",""
"","null","html-keyboard-response","81","545072","0.0-21.0-0.2","SS1618435648845","","","null","","","","","","<p><img src= images/blank.png width =""600"" height = ""600"" style=""position:fixed;top:50%; left:50%; transform: translate(-50%, -50%); border:5px solid black"">","","","","","","","",""
"","6096.514999997569","sequential-stimulus-presentation-old","82","551672","0.0-21.0-1.2","SS1618435648845","trial","","40","500","6596.514999997569","images/stimuli/spore_stims/complex_10_A_a.gif","images/stimuli/spore_stims/complex_08_A_b.gif","forced_short","","6","complex_dissimilar","images/stimuli/spore_stims/complex_08_A_b.gif","","","","",""
"","null","html-keyboard-response","83","552597","0.0-21.0-0.3","SS1618435648845","","","null","","","","","","<p><img src= images/blank.png width =""600"" height = ""600"" style=""position:fixed;top:50%; left:50%; transform: translate(-50%, -50%); border:5px solid black"">","","","","","","","",""
"","7430.825000003097","sequential-stimulus-presentation-old","84","560536","0.0-21.0-1.3","SS1618435648845","trial","","40","500","7930.825000003097","images/stimuli/spore_stims/complex_10_A_a.gif","images/stimuli/spore_stims/complex_08_A_b.gif","forced_short","","6","complex_dissimilar","images/stimuli/spore_stims/complex_08_A_b.gif","","","","",""
"","null","html-keyboard-response","85","561795","0.0-21.0-0.4","SS1618435648845","","","null","","","","","","<p><img src= images/blank.png width =""600"" height = ""600"" style=""position:fixed;top:50%; left:50%; transform: translate(-50%, -50%); border:5px solid black"">","","","","","","","",""
"","7462.545000002021","sequential-stimulus-presentation-old","86","569762","0.0-21.0-1.4","SS1618435648845","trial","","40","500","7962.545000002021","images/stimuli/spore_stims/complex_10_A_a.gif","images/stimuli/spore_stims/complex_08_A_b.gif","forced_short","","6","complex_dissimilar","images/stimuli/spore_stims/complex_10_A_a.gif","","","","",""
"","null","html-keyboard-response","87","570988","0.0-21.0-0.5","SS1618435648845","","","null","","","","","","<p><img src= images/blank.png width =""600"" height = ""600"" style=""position:fixed;top:50%; left:50%; transform: translate(-50%, -50%); border:5px solid black"">","","","","","","","",""
"","3972.9149999984074","sequential-stimulus-presentation-old","88","575473","0.0-21.0-1.5","SS1618435648845","trial","","40","500","4472.914999998407","images/stimuli/spore_stims/complex_10_A_a.gif","images/stimuli/spore_stims/complex_08_A_b.gif","forced_short","","6","complex_dissimilar","images/stimuli/spore_stims/complex_08_A_b.gif","","","","",""
"","3035.775000003865","survey-multi-choice","89","578514","0.0-22.0","SS1618435648845","math_question","","","","","","","","","","","","{""Q0"":""11""}","[0]","11","",""
"","null","html-keyboard-response","90","579339","0.0-23.0-0.0","SS1618435648845","","","null","","","","","","<p><img src= images/blank.png width =""600"" height = ""600"" style=""position:fixed;top:50%; left:50%; transform: translate(-50%, -50%); border:5px solid black"">","","","","","","","",""
"","6398.945000000764","sequential-stimulus-presentation-old","91","586243","0.0-23.0-1.0","SS1618435648845","trial","","40","500","6898.945000000764","images/stimuli/spore_stims/complex_04_A_a.gif","images/stimuli/spore_stims/complex_17_A_b.gif","self_paced","","7","complex_dissimilar","images/stimuli/spore_stims/complex_17_A_b.gif","","","","",""
"","null","html-keyboard-response","92","587548","0.0-23.0-0.1","SS1618435648845","","","null","","","","","","<p><img src= images/blank.png width =""600"" height = ""600"" style=""position:fixed;top:50%; left:50%; transform: translate(-50%, -50%); border:5px solid black"">","","","","","","","",""
"","8558.239999998477","sequential-stimulus-presentation-old","93","596612","0.0-23.0-1.1","SS1618435648845","trial","","40","500","9058.239999998477","images/stimuli/spore_stims/complex_04_A_a.gif","images/stimuli/spore_stims/complex_17_A_b.gif","self_paced","","7","complex_dissimilar","images/stimuli/spore_stims/complex_04_A_a.gif","","","","",""
"","null","html-keyboard-response","94","597752","0.0-23.0-0.2","SS1618435648845","","","null","","","","","","<p><img src= images/blank.png width =""600"" height = ""600"" style=""position:fixed;top:50%; left:50%; transform: translate(-50%, -50%); border:5px solid black"">","","","","","","","",""
"","5274.4499999971595","sequential-stimulus-presentation-old","95","603534","0.0-23.0-1.2","SS1618435648845","trial","","40","500","5774.4499999971595","images/stimuli/spore_stims/complex_04_A_a.gif","images/stimuli/spore_stims/complex_17_A_b.gif","self_paced","","7","complex_dissimilar","images/stimuli/spore_stims/complex_04_A_a.gif","","","","",""
"","null","html-keyboard-response","96","604513","0.0-23.0-0.3","SS1618435648845","","","null","","","","","","<p><img src= images/blank.png width =""600"" height = ""600"" style=""position:fixed;top:50%; left:50%; transform: translate(-50%, -50%); border:5px solid black"">","","","","","","","",""
"","5625.489999998477","sequential-stimulus-presentation-old","97","610644","0.0-23.0-1.3","SS1618435648845","trial","","40","500","6125.489999998477","images/stimuli/spore_stims/complex_04_A_a.gif","images/stimuli/spore_stims/complex_17_A_b.gif","self_paced","","7","complex_dissimilar","images/stimuli/spore_stims/complex_17_A_b.gif","","","","",""
"","3242.944999998086","survey-multi-choice","98","613892","0.0-24.0","SS1618435648845","math_question","","","","","","","","","","","","{""Q0"":""7""}","[0]","7","",""
"","null","html-keyboard-response","99","615077","0.0-25.0-0.0","SS1618435648845","","","null","","","","","","<p><img src= images/blank.png width =""600"" height = ""600"" style=""position:fixed;top:50%; left:50%; transform: translate(-50%, -50%); border:5px solid black"">","","","","","","","",""
"","1818.8450000016019","sequential-stimulus-presentation-old","100","616952","0.0-25.0-1.0","SS1618435648845","trial","","40","500","2318.845000001602","images/stimuli/spore_stims/complex_07_A_b.gif","images/stimuli/spore_stims/complex_08_A_a.gif","forced_short","","8","complex_dissimilar","images/stimuli/spore_stims/complex_08_A_a.gif","","","","",""
"","null","html-keyboard-response","101","618244","0.0-25.0-0.1","SS1618435648845","","","null","","","","","","<p><img src= images/blank.png width =""600"" height = ""600"" style=""position:fixed;top:50%; left:50%; transform: translate(-50%, -50%); border:5px solid black"">","","","","","","","",""
"","3000.5899999961257","sequential-stimulus-presentation-old","102","621751","0.0-25.0-1.1","SS1618435648845","trial","","40","500","3500.5899999961257","images/stimuli/spore_stims/complex_07_A_b.gif","images/stimuli/spore_stims/complex_08_A_a.gif","forced_short","","8","complex_dissimilar","images/stimuli/spore_stims/complex_08_A_a.gif","","","","",""
"","null","html-keyboard-response","103","622594","0.0-25.0-0.2","SS1618435648845","","","null","","","","","","<p><img src= images/blank.png width =""600"" height = ""600"" style=""position:fixed;top:50%; left:50%; transform: translate(-50%, -50%); border:5px solid black"">","","","","","","","",""
"","1404.3200000014622","sequential-stimulus-presentation-old","104","624501","0.0-25.0-1.2","SS1618435648845","trial","","40","500","1904.3200000014622","images/stimuli/spore_stims/complex_07_A_b.gif","images/stimuli/spore_stims/complex_08_A_a.gif","forced_short","","8","complex_dissimilar","images/stimuli/spore_stims/complex_08_A_a.gif","","","","",""
"","null","html-keyboard-response","105","625586","0.0-25.0-0.3","SS1618435648845","","","null","","","","","","<p><img src= images/blank.png width =""600"" height = ""600"" style=""position:fixed;top:50%; left:50%; transform: translate(-50%, -50%); border:5px solid black"">","","","","","","","",""
"","5343.235000000335","sequential-stimulus-presentation-old","106","631433","0.0-25.0-1.3","SS1618435648845","trial","","40","500","5843.235000000335","images/stimuli/spore_stims/complex_07_A_b.gif","images/stimuli/spore_stims/complex_08_A_a.gif","forced_short","","8","complex_dissimilar","images/stimuli/spore_stims/complex_08_A_a.gif","","","","",""
"","null","html-keyboard-response","107","632351","0.0-25.0-0.4","SS1618435648845","","","null","","","","","","<p><img src= images/blank.png width =""600"" height = ""600"" style=""position:fixed;top:50%; left:50%; transform: translate(-50%, -50%); border:5px solid black"">","","","","","","","",""
"","2613.3249999985565","sequential-stimulus-presentation-old","108","635473","0.0-25.0-1.4","SS1618435648845","trial","","40","500","3113.3249999985565","images/stimuli/spore_stims/complex_07_A_b.gif","images/stimuli/spore_stims/complex_08_A_a.gif","forced_short","","8","complex_dissimilar","images/stimuli/spore_stims/complex_08_A_a.gif","","","","",""
"","null","html-keyboard-response","109","636375","0.0-25.0-0.5","SS1618435648845","","","null","","","","","","<p><img src= images/blank.png width =""600"" height = ""600"" style=""position:fixed;top:50%; left:50%; transform: translate(-50%, -50%); border:5px solid black"">","","","","","","","",""
"","5048.605000003474","sequential-stimulus-presentation-old","110","641931","0.0-25.0-1.5","SS1618435648845","trial","","40","500","5548.605000003474","images/stimuli/spore_stims/complex_07_A_b.gif","images/stimuli/spore_stims/complex_08_A_a.gif","forced_short","","8","complex_dissimilar","images/stimuli/spore_stims/complex_08_A_a.gif","","","","",""
"","2864.289999997709","survey-multi-choice","111","644798","0.0-26.0","SS1618435648845","math_question","","","","","","","","","","","","{""Q0"":""8""}","[0]","8","",""
"","null","html-keyboard-response","112","646839","0.0-27.0-0.0","SS1618435648845","","","null","","","","","","<p><img src= images/blank.png width =""600"" height = ""600"" style=""position:fixed;top:50%; left:50%; transform: translate(-50%, -50%); border:5px solid black"">","","","","","","","",""
"","3067.3749999987194","sequential-stimulus-presentation-old","113","650412","0.0-27.0-1.0","SS1618435648845","trial","","40","500","3567.3749999987194","images/stimuli/spore_stims/complex_06_A_a.gif","images/stimuli/spore_stims/complex_15_A_b.gif","self_paced","","9","complex_dissimilar","images/stimuli/spore_stims/complex_15_A_b.gif","","","","",""
"","null","html-keyboard-response","114","651273","0.0-27.0-0.1","SS1618435648845","","","null","","","","","","<p><img src= images/blank.png width =""600"" height = ""600"" style=""position:fixed;top:50%; left:50%; transform: translate(-50%, -50%); border:5px solid black"">","","","","","","","",""
"","3673.8400000031106","sequential-stimulus-presentation-old","115","655454","0.0-27.0-1.1","SS1618435648845","trial","","40","500","4173.840000003111","images/stimuli/spore_stims/complex_06_A_a.gif","images/stimuli/spore_stims/complex_15_A_b.gif","self_paced","","9","complex_dissimilar","images/stimuli/spore_stims/complex_15_A_b.gif","","","","",""
"","null","html-keyboard-response","116","656738","0.0-27.0-0.2","SS1618435648845","","","null","","","","","","<p><img src= images/blank.png width =""600"" height = ""600"" style=""position:fixed;top:50%; left:50%; transform: translate(-50%, -50%); border:5px solid black"">","","","","","","","",""
"","2763.630000001285","sequential-stimulus-presentation-old","117","660603","0.0-27.0-1.2","SS1618435648845","trial","","40","500","3263.630000001285","images/stimuli/spore_stims/complex_06_A_a.gif","images/stimuli/spore_stims/complex_15_A_b.gif","self_paced","","9","complex_dissimilar","images/stimuli/spore_stims/complex_15_A_b.gif","","","","",""
"","null","html-keyboard-response","118","661625","0.0-27.0-0.3","SS1618435648845","","","null","","","","","","<p><img src= images/blank.png width =""600"" height = ""600"" style=""position:fixed;top:50%; left:50%; transform: translate(-50%, -50%); border:5px solid black"">","","","","","","","",""
"","3311.565000003553","sequential-stimulus-presentation-old","119","665443","0.0-27.0-1.3","SS1618435648845","trial","","40","500","3811.565000003553","images/stimuli/spore_stims/complex_06_A_a.gif","images/stimuli/spore_stims/complex_15_A_b.gif","self_paced","","9","complex_dissimilar","images/stimuli/spore_stims/complex_15_A_b.gif","","","","",""
"","null","html-keyboard-response","120","666535","0.0-27.0-0.4","SS1618435648845","","","null","","","","","","<p><img src= images/blank.png width =""600"" height = ""600"" style=""position:fixed;top:50%; left:50%; transform: translate(-50%, -50%); border:5px solid black"">","","","","","","","",""
"","3408.6000000024214","sequential-stimulus-presentation-old","121","670451","0.0-27.0-1.4","SS1618435648845","trial","","40","500","3908.6000000024214","images/stimuli/spore_stims/complex_06_A_a.gif","images/stimuli/spore_stims/complex_15_A_b.gif","self_paced","","9","complex_dissimilar","images/stimuli/spore_stims/complex_15_A_b.gif","","","","",""
"","3540.760000003502","survey-multi-choice","122","673994","0.0-28.0","SS1618435648845","math_question","","","","","","","","","","","","{""Q0"":""17""}","[0]","17","",""
"","null","html-keyboard-response","123","674897","0.0-29.0-0.0","SS1618435648845","","","null","","","","","","<p><img src= images/blank.png width =""600"" height = ""600"" style=""position:fixed;top:50%; left:50%; transform: translate(-50%, -50%); border:5px solid black"">","","","","","","","",""
"","822.0900000014808","sequential-stimulus-presentation-old","124","680733","0.0-29.0-1.0","SS1618435648845","trial","","40","500","1322.0900000014808","images/stimuli/spore_stims/simple_11_A_a.gif","images/stimuli/spore_stims/simple_10_A_b.gif","forced_long","","10","simple_dissimilar","images/stimuli/spore_stims/simple_10_A_b.gif","","","","",""
"","null","html-keyboard-response","125","681769","0.0-29.0-0.1","SS1618435648845","","","null","","","","","","<p><img src= images/blank.png width =""600"" height = ""600"" style=""position:fixed;top:50%; left:50%; transform: translate(-50%, -50%); border:5px solid black"">","","","","","","","",""
"","4981.9900000002235","sequential-stimulus-presentation-old","126","687263","0.0-29.0-1.1","SS1618435648845","trial","","40","500","5481.9900000002235","images/stimuli/spore_stims/simple_11_A_a.gif","images/stimuli/spore_stims/simple_10_A_b.gif","forced_long","","10","simple_dissimilar","images/stimuli/spore_stims/simple_11_A_a.gif","","","","",""
"","null","html-keyboard-response","127","688415","0.0-29.0-0.2","SS1618435648845","","","null","","","","","","<p><img src= images/blank.png width =""600"" height = ""600"" style=""position:fixed;top:50%; left:50%; transform: translate(-50%, -50%); border:5px solid black"">","","","","","","","",""
"","2521.745000005467","sequential-stimulus-presentation-old","128","691444","0.0-29.0-1.2","SS1618435648845","trial","","40","500","3021.745000005467","images/stimuli/spore_stims/simple_11_A_a.gif","images/stimuli/spore_stims/simple_10_A_b.gif","forced_long","","10","simple_dissimilar","images/stimuli/spore_stims/simple_10_A_b.gif","","","","",""
"","null","html-keyboard-response","129","692704","0.0-29.0-0.3","SS1618435648845","","","null","","","","","","<p><img src= images/blank.png width =""600"" height = ""600"" style=""position:fixed;top:50%; left:50%; transform: translate(-50%, -50%); border:5px solid black"">","","","","","","","",""
"","661.0750000035623","sequential-stimulus-presentation-old","130","693872","0.0-29.0-1.3","SS1618435648845","trial","","40","500","1161.0750000035623","images/stimuli/spore_stims/simple_11_A_a.gif","images/stimuli/spore_stims/simple_10_A_b.gif","forced_long","","10","simple_dissimilar","images/stimuli/spore_stims/simple_10_A_b.gif","","","","",""
"","3637.3900000035064","survey-multi-choice","131","697513","0.0-30.0","SS1618435648845","math_question","","","","","","","","","","","","{""Q0"":""2""}","[0]","2","",""
"","null","html-keyboard-response","132","698430","0.0-31.0-0.0","SS1618435648845","","","null","","","","","","<p><img src= images/blank.png width =""600"" height = ""600"" style=""position:fixed;top:50%; left:50%; transform: translate(-50%, -50%); border:5px solid black"">","","","","","","","",""
"","806.7599999995437","sequential-stimulus-presentation-old","133","704244","0.0-31.0-1.0","SS1618435648845","trial","","40","500","1306.7599999995437","images/stimuli/spore_stims/complex_04_A_b.gif","images/stimuli/spore_stims/complex_05_A_a.gif","forced_long","","11","complex_dissimilar","images/stimuli/spore_stims/complex_05_A_a.gif","","","","",""
"","null","html-keyboard-response","134","705320","0.0-31.0-0.1","SS1618435648845","","","null","","","","","","<p><img src= images/blank.png width =""600"" height = ""600"" style=""position:fixed;top:50%; left:50%; transform: translate(-50%, -50%); border:5px solid black"">","","","","","","","",""
"","1519.4249999985332","sequential-stimulus-presentation-old","135","707343","0.0-31.0-1.1","SS1618435648845","trial","","40","500","2019.4249999985332","images/stimuli/spore_stims/complex_04_A_b.gif","images/stimuli/spore_stims/complex_05_A_a.gif","forced_long","","11","complex_dissimilar","images/stimuli/spore_stims/complex_04_A_b.gif","","","","",""
"","null","html-keyboard-response","136","708623","0.0-31.0-0.2","SS1618435648845","","","null","","","","","","<p><img src= images/blank.png width =""600"" height = ""600"" style=""position:fixed;top:50%; left:50%; transform: translate(-50%, -50%); border:5px solid black"">","","","","","","","",""
"","1240.8900000008289","sequential-stimulus-presentation-old","137","710373","0.0-31.0-1.2","SS1618435648845","trial","","40","500","1740.8900000008289","images/stimuli/spore_stims/complex_04_A_b.gif","images/stimuli/spore_stims/complex_05_A_a.gif","forced_long","","11","complex_dissimilar","images/stimuli/spore_stims/complex_04_A_b.gif","","","","",""
"","null","html-keyboard-response","138","711496","0.0-31.0-0.3","SS1618435648845","","","null","","","","","","<p><img src= images/blank.png width =""600"" height = ""600"" style=""position:fixed;top:50%; left:50%; transform: translate(-50%, -50%); border:5px solid black"">","","","","","","","",""
"","989.6800000059884","sequential-stimulus-presentation-old","139","712992","0.0-31.0-1.3","SS1618435648845","trial","","40","500","1489.6800000059884","images/stimuli/spore_stims/complex_04_A_b.gif","images/stimuli/spore_stims/complex_05_A_a.gif","forced_long","","11","complex_dissimilar","images/stimuli/spore_stims/complex_05_A_a.gif","","","","",""
"[{""page_index"":0,""viewing_time"":3380.10999999824}]","3380.3950000002515","instructions","140","716374","0.0-32.0","SS1618435648845","instructions","","","","","","","","","","","","","","","",""
"","8812.79000000353","survey-likert","141","725190","0.0-33.0","SS1618435648845","similarity_question","","","","","","","","","","","","{""Q0"":4}","[0]","","images/stimuli/spore_stims/simple_11_A_a.gif","images/stimuli/spore_stims/simple_10_A_b.gif"
"","8797.185000003083","survey-likert","142","734005","0.0-34.0","SS1618435648845","similarity_question","","","","","","","","","","","","{""Q0"":2}","[0]","","images/stimuli/spore_stims/complex_09_A_b.gif","images/stimuli/spore_stims/complex_02_A_a.gif"
"","5248.584999993909","survey-likert","143","739269","0.0-35.0","SS1618435648845","similarity_question","","","","","","","","","","","","{""Q0"":1}","[0]","","images/stimuli/spore_stims/complex_07_A_b.gif","images/stimuli/spore_stims/complex_08_A_a.gif"
"","6273.5150000007125","survey-likert","144","745570","0.0-36.0","SS1618435648845","similarity_question","","","","","","","","","","","","{""Q0"":0}","[0]","","images/stimuli/spore_stims/complex_15_A_b.gif","images/stimuli/spore_stims/complex_06_A_a.gif"
"","6145.239999998012","survey-likert","145","751736","0.0-37.0","SS1618435648845","similarity_question","","","","","","","","","","","","{""Q0"":2}","[0]","","images/stimuli/spore_stims/simple_18_A_a.gif","images/stimuli/spore_stims/simple_05_A_b.gif"
"","5513.07000000088","survey-likert","146","757263","0.0-38.0","SS1618435648845","similarity_question","","","","","","","","","","","","{""Q0"":1}","[0]","","images/stimuli/spore_stims/complex_04_A_b.gif","images/stimuli/spore_stims/complex_05_A_a.gif"
"","5024.7500000040745","survey-likert","147","762316","0.0-39.0","SS1618435648845","similarity_question","","","","","","","","","","","","{""Q0"":0}","[0]","","images/stimuli/spore_stims/complex_10_A_a.gif","images/stimuli/spore_stims/complex_08_A_b.gif"
"","5825.98999999743","survey-likert","148","768172","0.0-40.0","SS1618435648845","similarity_question","","","","","","","","","","","","{""Q0"":2}","[0]","","images/stimuli/spore_stims/simple_12_A_b.gif","images/stimuli/spore_stims/simple_07_A_a.gif"
"","8360.280000000843","survey-likert","149","776551","0.0-41.0","SS1618435648845","similarity_question","","","","","","","","","","","","{""Q0"":4}","[0]","","images/stimuli/spore_stims/complex_04_A_a.gif","images/stimuli/spore_stims/complex_17_A_b.gif"
"","7811.079999999492","survey-likert","150","784377","0.0-42.0","SS1618435648845","similarity_question","","","","","","","","","","","","{""Q0"":4}","[0]","","images/stimuli/spore_stims/simple_18_A_b.gif","images/stimuli/spore_stims/simple_01_A_a.gif"
"","6652.235000001383","survey-likert","151","791045","0.0-43.0","SS1618435648845","similarity_question","","","","","","","","","","","","{""Q0"":5}","[0]","","images/stimuli/spore_stims/simple_20_A_b.gif","images/stimuli/spore_stims/simple_02_A_a.gif"
"","4957.674999997835","survey-likert","152","796019","0.0-44.0","SS1618435648845","similarity_question","","","","","","","","","","","","{""Q0"":5}","[0]","","images/stimuli/spore_stims/simple_09_A_b.gif","images/stimuli/spore_stims/simple_12_A_a.gif"
"[{""page_index"":0,""viewing_time"":2921.6299999970943}]","2922.3050000001676","instructions","153","798955","0.0-45.0","SS1618435648845","instructions","","","","","","","","","","","","","","","",""
"","5794.585000003222","survey-likert","154","804762","0.0-46.0","SS1618435648845","","","","","","","","","images/stimuli/spore_stims/complex_05_A_a.gif","","","","{""Q0"":4}","[0]","","",""
"","3374.435000005178","survey-likert","155","808153","0.0-47.0","SS1618435648845","","","","","","","","","images/stimuli/spore_stims/complex_07_A_b.gif","","","","{""Q0"":5}","[0]","","",""
"","2993.5949999998556","survey-likert","156","811159","0.0-48.0","SS1618435648845","","","","","","","","","images/stimuli/spore_stims/complex_08_A_b.gif","","","","{""Q0"":5}","[0]","","",""
"","3293.700000002049","survey-likert","157","814468","0.0-49.0","SS1618435648845","","","","","","","","","images/stimuli/spore_stims/simple_09_A_b.gif","","","","{""Q0"":1}","[0]","","",""
"","3542.119999998249","survey-likert","158","818040","0.0-50.0","SS1618435648845","","","","","","","","","images/stimuli/spore_stims/simple_20_A_b.gif","","","","{""Q0"":1}","[0]","","",""
"","2706.400000002701","survey-likert","159","820774","0.0-51.0","SS1618435648845","","","","","","","","","images/stimuli/spore_stims/simple_18_A_b.gif","","","","{""Q0"":0}","[0]","","",""
"","3136.189999997383","survey-likert","160","823927","0.0-52.0","SS1618435648845","","","","","","","","","images/stimuli/spore_stims/simple_11_A_a.gif","","","","{""Q0"":1}","[0]","","",""
"","3217.9449999965727","survey-likert","161","827173","0.0-53.0","SS1618435648845","","","","","","","","","images/stimuli/spore_stims/complex_17_A_b.gif","","","","{""Q0"":5}","[0]","","",""
"","4332.390000003157","survey-likert","162","831532","0.0-54.0","SS1618435648845","","","","","","","","","images/stimuli/spore_stims/simple_05_A_b.gif","","","","{""Q0"":1}","[0]","","",""
"","3451.179999996326","survey-likert","163","834999","0.0-55.0","SS1618435648845","","","","","","","","","images/stimuli/spore_stims/complex_09_A_b.gif","","","","{""Q0"":5}","[0]","","",""
"","3656.9499999969266","survey-likert","164","838670","0.0-56.0","SS1618435648845","","","","","","","","","images/stimuli/spore_stims/complex_06_A_a.gif","","","","{""Q0"":6}","[0]","","",""
"","3946.7050000020536","survey-likert","165","842631","0.0-57.0","SS1618435648845","","","","","","","","","images/stimuli/spore_stims/simple_07_A_a.gif","","","","{""Q0"":0}","[0]","","",""
"[{""page_index"":0,""viewing_time"":1897.9349999935366}]","1898.6299999960465","instructions","166","844544","0.0-58.0","SS1618435648845","instructions","","","","","","","","","","","","","","","",""
"","7611.04499999783","demog-age","167","852167","0.0-59.0","SS1618435648845","","","","","","","","","","","","","{""age"":""37""}","","","",""
"","3909.574999997858","demog-ethnic-US","168","856084","0.0-60.0","SS1618435648845","","","","","","","","","","","","","{""ethnicity"":[""Asian""]}","[0]","","",""
"","4126.39499999932","demog-gender-and-education","169","860227","0.0-61.0","SS1618435648845","","","","","","","","","","","","","{""gender"":""Male"",""education"":""Bachelor's Degree""}","[0,1]","","",""
"","5912.969999997644","survey-text","170","866158","0.0-62.0","SS1618435648845","feedback","","","","","","","","","","","","{""Q0"":""No""}","","","",""
"[{""page_index"":0,""viewing_time"":1510.2249999982305}]","1510.5249999978114","instructions","171","867673","0.0-63.0","SS1618435648845","instructions","","","","","","","","","","","","","","","",""
