"view_history","rt","trial_type","trial_index","time_elapsed","internal_node_id","subject","stimulus_type","trial_stimulus","key_press","minimum_viewing_duration","trial_looking_time","block_deviant","block_background","exposure_type","stimulus","block_number","block_type","stimulus_displayed","responses","question_order","math_correct_answer","stimulus_left","stimulus_right"
"[{""page_index"":0,""viewing_time"":6909.31499999715}]","6910.084999981336","instructions","0","6912","0.0-0.0","SS1618435659739","","","","","","","","","","","","","","","","",""
"[{""page_index"":0,""viewing_time"":12630.100000009406},{""page_index"":1,""viewing_time"":10378.369999991264}]","23008.81000002846","instructions","1","31924","0.0-1.0","SS1618435659739","instructions","","","","","","","","","","","","","","","",""
"","12537.494999996852","sequential-stimulus-presentation-old","2","44966","0.0-2.0","SS1618435659739","","","40","500","13037.494999996852","null","null","self_paced","","","","","","","","",""
"","6470.594999962486","sequential-stimulus-presentation-old","3","51938","0.0-3.0","SS1618435659739","","","40","500","6970.594999962486","null","null","self_paced","","","","","","","","",""
"[{""page_index"":0,""viewing_time"":15736.470000003465}]","15736.71500000637","instructions","4","67677","0.0-4.0","SS1618435659739","instructions","","","","","","","","","","","","","","","",""
"","5078.905000002123","sequential-stimulus-presentation-old","5","77758","0.0-5.0","SS1618435659739","","","40","500","5578.905000002123","null","null","forced_long","","","","","","","","",""
"","2568.5299999895506","sequential-stimulus-presentation-old","6","80380","0.0-6.0","SS1618435659739","","","40","50","2618.5299999895506","null","null","forced_long","","","","","","","","",""
"[{""page_index"":0,""viewing_time"":4467.709999997169}]","4468.0650000227615","instructions","7","84849","0.0-7.0","SS1618435659739","instructions","","","","","","","","","","","","","","","",""
"[{""page_index"":0,""viewing_time"":8659.059999976307},{""page_index"":1,""viewing_time"":7540.169999992941},{""page_index"":2,""viewing_time"":4973.800000036135},{""page_index"":3,""viewing_time"":2527.7099999948405},{""page_index"":4,""viewing_time"":3519.2099999985658}]","27220.29999998631","instructions","8","112071","0.0-8.0","SS1618435659739","instructions","","","","","","","","","","","","","","","",""
"","null","html-keyboard-response","9","113098","0.0-9.0-0.0","SS1618435659739","","","null","","","","","","<p><img src= images/blank.png width =""600"" height = ""600"" style=""position:fixed;top:50%; left:50%; transform: translate(-50%, -50%); border:5px solid black"">","","","","","","","",""
"","8186.1100000096485","sequential-stimulus-presentation-old","10","121790","0.0-9.0-1.0","SS1618435659739","trial","","40","500","8686.110000009649","images/stimuli/spore_stims/complex_19_A_a.gif","images/stimuli/spore_stims/complex_16_A_b.gif","self_paced","","0","complex_dissimilar","images/stimuli/spore_stims/complex_16_A_b.gif","","","","",""
"","null","html-keyboard-response","11","122867","0.0-9.0-0.1","SS1618435659739","","","null","","","","","","<p><img src= images/blank.png width =""600"" height = ""600"" style=""position:fixed;top:50%; left:50%; transform: translate(-50%, -50%); border:5px solid black"">","","","","","","","",""
"","5822.490000049584","sequential-stimulus-presentation-old","12","129194","0.0-9.0-1.1","SS1618435659739","trial","","40","500","6322.490000049584","images/stimuli/spore_stims/complex_19_A_a.gif","images/stimuli/spore_stims/complex_16_A_b.gif","self_paced","","0","complex_dissimilar","images/stimuli/spore_stims/complex_19_A_a.gif","","","","",""
"","null","html-keyboard-response","13","130294","0.0-9.0-0.2","SS1618435659739","","","null","","","","","","<p><img src= images/blank.png width =""600"" height = ""600"" style=""position:fixed;top:50%; left:50%; transform: translate(-50%, -50%); border:5px solid black"">","","","","","","","",""
"","4047.8799999691546","sequential-stimulus-presentation-old","14","134848","0.0-9.0-1.2","SS1618435659739","trial","","40","500","4547.879999969155","images/stimuli/spore_stims/complex_19_A_a.gif","images/stimuli/spore_stims/complex_16_A_b.gif","self_paced","","0","complex_dissimilar","images/stimuli/spore_stims/complex_19_A_a.gif","","","","",""
"","null","html-keyboard-response","15","135947","0.0-9.0-0.3","SS1618435659739","","","null","","","","","","<p><img src= images/blank.png width =""600"" height = ""600"" style=""position:fixed;top:50%; left:50%; transform: translate(-50%, -50%); border:5px solid black"">","","","","","","","",""
"","6780.825000023469","sequential-stimulus-presentation-old","16","143234","0.0-9.0-1.3","SS1618435659739","trial","","40","500","7280.825000023469","images/stimuli/spore_stims/complex_19_A_a.gif","images/stimuli/spore_stims/complex_16_A_b.gif","self_paced","","0","complex_dissimilar","images/stimuli/spore_stims/complex_16_A_b.gif","","","","",""
"","null","html-keyboard-response","17","144511","0.0-9.0-0.4","SS1618435659739","","","null","","","","","","<p><img src= images/blank.png width =""600"" height = ""600"" style=""position:fixed;top:50%; left:50%; transform: translate(-50%, -50%); border:5px solid black"">","","","","","","","",""
"","8509.550000017043","sequential-stimulus-presentation-old","18","153525","0.0-9.0-1.4","SS1618435659739","trial","","40","500","9009.550000017043","images/stimuli/spore_stims/complex_19_A_a.gif","images/stimuli/spore_stims/complex_16_A_b.gif","self_paced","","0","complex_dissimilar","images/stimuli/spore_stims/complex_16_A_b.gif","","","","",""
"","5722.920000029262","survey-multi-choice","19","159253","0.0-10.0","SS1618435659739","math_question","","","","","","","","","","","","{""Q0"":""10""}","[0]","10","",""
"","null","html-keyboard-response","20","160538","0.0-11.0-0.0","SS1618435659739","","","null","","","","","","<p><img src= images/blank.png width =""600"" height = ""600"" style=""position:fixed;top:50%; left:50%; transform: translate(-50%, -50%); border:5px solid black"">","","","","","","","",""
"","5972.719999961555","sequential-stimulus-presentation-old","21","166568","0.0-11.0-1.0","SS1618435659739","trial","","40","500","6472.719999961555","images/stimuli/spore_stims/simple_19_A_a.gif","images/stimuli/spore_stims/simple_04_A_b.gif","forced_short","","1","simple_dissimilar","images/stimuli/spore_stims/simple_04_A_b.gif","","","","",""
"","null","html-keyboard-response","22","167500","0.0-11.0-0.1","SS1618435659739","","","null","","","","","","<p><img src= images/blank.png width =""600"" height = ""600"" style=""position:fixed;top:50%; left:50%; transform: translate(-50%, -50%); border:5px solid black"">","","","","","","","",""
"","4574.320000014268","sequential-stimulus-presentation-old","23","172579","0.0-11.0-1.1","SS1618435659739","trial","","40","500","5074.320000014268","images/stimuli/spore_stims/simple_19_A_a.gif","images/stimuli/spore_stims/simple_04_A_b.gif","forced_short","","1","simple_dissimilar","images/stimuli/spore_stims/simple_19_A_a.gif","","","","",""
"","null","html-keyboard-response","24","173571","0.0-11.0-0.2","SS1618435659739","","","null","","","","","","<p><img src= images/blank.png width =""600"" height = ""600"" style=""position:fixed;top:50%; left:50%; transform: translate(-50%, -50%); border:5px solid black"">","","","","","","","",""
"","3977.855000004638","sequential-stimulus-presentation-old","25","178054","0.0-11.0-1.2","SS1618435659739","trial","","40","500","4477.855000004638","images/stimuli/spore_stims/simple_19_A_a.gif","images/stimuli/spore_stims/simple_04_A_b.gif","forced_short","","1","simple_dissimilar","images/stimuli/spore_stims/simple_04_A_b.gif","","","","",""
"","null","html-keyboard-response","26","179236","0.0-11.0-0.3","SS1618435659739","","","null","","","","","","<p><img src= images/blank.png width =""600"" height = ""600"" style=""position:fixed;top:50%; left:50%; transform: translate(-50%, -50%); border:5px solid black"">","","","","","","","",""
"","2553.650000016205","sequential-stimulus-presentation-old","27","182296","0.0-11.0-1.3","SS1618435659739","trial","","40","500","3053.650000016205","images/stimuli/spore_stims/simple_19_A_a.gif","images/stimuli/spore_stims/simple_04_A_b.gif","forced_short","","1","simple_dissimilar","images/stimuli/spore_stims/simple_04_A_b.gif","","","","",""
"","null","html-keyboard-response","28","183402","0.0-11.0-0.4","SS1618435659739","","","null","","","","","","<p><img src= images/blank.png width =""600"" height = ""600"" style=""position:fixed;top:50%; left:50%; transform: translate(-50%, -50%); border:5px solid black"">","","","","","","","",""
"","4594.650000042748","sequential-stimulus-presentation-old","29","188501","0.0-11.0-1.4","SS1618435659739","trial","","40","500","5094.650000042748","images/stimuli/spore_stims/simple_19_A_a.gif","images/stimuli/spore_stims/simple_04_A_b.gif","forced_short","","1","simple_dissimilar","images/stimuli/spore_stims/simple_19_A_a.gif","","","","",""
"","6001.7550000338815","survey-multi-choice","30","194504","0.0-12.0","SS1618435659739","math_question","","","","","","","","","","","","{""Q0"":""8""}","[0]","8","",""
"","null","html-keyboard-response","31","195785","0.0-13.0-0.0","SS1618435659739","","","null","","","","","","<p><img src= images/blank.png width =""600"" height = ""600"" style=""position:fixed;top:50%; left:50%; transform: translate(-50%, -50%); border:5px solid black"">","","","","","","","",""
"","21991.800000017975","sequential-stimulus-presentation-old","32","222781","0.0-13.0-1.0","SS1618435659739","trial","","40","500","22491.800000017975","images/stimuli/spore_stims/complex_18_A_a.gif","images/stimuli/spore_stims/complex_15_A_b.gif","forced_long","","2","complex_dissimilar","images/stimuli/spore_stims/complex_15_A_b.gif","","","","",""
"","null","html-keyboard-response","33","224019","0.0-13.0-0.1","SS1618435659739","","","null","","","","","","<p><img src= images/blank.png width =""600"" height = ""600"" style=""position:fixed;top:50%; left:50%; transform: translate(-50%, -50%); border:5px solid black"">","","","","","","","",""
"","10452.52500002971","sequential-stimulus-presentation-old","34","234977","0.0-13.0-1.1","SS1618435659739","trial","","40","500","10952.52500002971","images/stimuli/spore_stims/complex_18_A_a.gif","images/stimuli/spore_stims/complex_15_A_b.gif","forced_long","","2","complex_dissimilar","images/stimuli/spore_stims/complex_15_A_b.gif","","","","",""
"","null","html-keyboard-response","35","235915","0.0-13.0-0.2","SS1618435659739","","","null","","","","","","<p><img src= images/blank.png width =""600"" height = ""600"" style=""position:fixed;top:50%; left:50%; transform: translate(-50%, -50%); border:5px solid black"">","","","","","","","",""
"","14393.050000013318","sequential-stimulus-presentation-old","36","250813","0.0-13.0-1.2","SS1618435659739","trial","","40","500","14893.050000013318","images/stimuli/spore_stims/complex_18_A_a.gif","images/stimuli/spore_stims/complex_15_A_b.gif","forced_long","","2","complex_dissimilar","images/stimuli/spore_stims/complex_18_A_a.gif","","","","",""
"","null","html-keyboard-response","37","252021","0.0-13.0-0.3","SS1618435659739","","","null","","","","","","<p><img src= images/blank.png width =""600"" height = ""600"" style=""position:fixed;top:50%; left:50%; transform: translate(-50%, -50%); border:5px solid black"">","","","","","","","",""
"","3910.199999983888","sequential-stimulus-presentation-old","38","256436","0.0-13.0-1.3","SS1618435659739","trial","","40","500","4410.199999983888","images/stimuli/spore_stims/complex_18_A_a.gif","images/stimuli/spore_stims/complex_15_A_b.gif","forced_long","","2","complex_dissimilar","images/stimuli/spore_stims/complex_15_A_b.gif","","","","",""
"","null","html-keyboard-response","39","257512","0.0-13.0-0.4","SS1618435659739","","","null","","","","","","<p><img src= images/blank.png width =""600"" height = ""600"" style=""position:fixed;top:50%; left:50%; transform: translate(-50%, -50%); border:5px solid black"">","","","","","","","",""
"","5659.525000024587","sequential-stimulus-presentation-old","40","263677","0.0-13.0-1.4","SS1618435659739","trial","","40","500","6159.525000024587","images/stimuli/spore_stims/complex_18_A_a.gif","images/stimuli/spore_stims/complex_15_A_b.gif","forced_long","","2","complex_dissimilar","images/stimuli/spore_stims/complex_18_A_a.gif","","","","",""
"","null","html-keyboard-response","41","264791","0.0-13.0-0.5","SS1618435659739","","","null","","","","","","<p><img src= images/blank.png width =""600"" height = ""600"" style=""position:fixed;top:50%; left:50%; transform: translate(-50%, -50%); border:5px solid black"">","","","","","","","",""
"","3920.090000028722","sequential-stimulus-presentation-old","42","269216","0.0-13.0-1.5","SS1618435659739","trial","","40","500","4420.090000028722","images/stimuli/spore_stims/complex_18_A_a.gif","images/stimuli/spore_stims/complex_15_A_b.gif","forced_long","","2","complex_dissimilar","images/stimuli/spore_stims/complex_15_A_b.gif","","","","",""
"","6941.590000002179","survey-multi-choice","43","276160","0.0-14.0","SS1618435659739","math_question","","","","","","","","","","","","{""Q0"":""13""}","[0]","13","",""
"","null","html-keyboard-response","44","277393","0.0-15.0-0.0","SS1618435659739","","","null","","","","","","<p><img src= images/blank.png width =""600"" height = ""600"" style=""position:fixed;top:50%; left:50%; transform: translate(-50%, -50%); border:5px solid black"">","","","","","","","",""
"","6524.215000041295","sequential-stimulus-presentation-old","45","283972","0.0-15.0-1.0","SS1618435659739","trial","","40","500","7024.215000041295","images/stimuli/spore_stims/simple_16_A_a.gif","images/stimuli/spore_stims/simple_14_A_b.gif","forced_short","","3","simple_dissimilar","images/stimuli/spore_stims/simple_14_A_b.gif","","","","",""
"","null","html-keyboard-response","46","284988","0.0-15.0-0.1","SS1618435659739","","","null","","","","","","<p><img src= images/blank.png width =""600"" height = ""600"" style=""position:fixed;top:50%; left:50%; transform: translate(-50%, -50%); border:5px solid black"">","","","","","","","",""
"","6690.059999993537","sequential-stimulus-presentation-old","47","292183","0.0-15.0-1.1","SS1618435659739","trial","","40","500","7190.059999993537","images/stimuli/spore_stims/simple_16_A_a.gif","images/stimuli/spore_stims/simple_14_A_b.gif","forced_short","","3","simple_dissimilar","images/stimuli/spore_stims/simple_14_A_b.gif","","","","",""
"","null","html-keyboard-response","48","293038","0.0-15.0-0.2","SS1618435659739","","","null","","","","","","<p><img src= images/blank.png width =""600"" height = ""600"" style=""position:fixed;top:50%; left:50%; transform: translate(-50%, -50%); border:5px solid black"">","","","","","","","",""
"","632.9249999835156","sequential-stimulus-presentation-old","49","294176","0.0-15.0-1.2","SS1618435659739","trial","","40","500","1132.9249999835156","images/stimuli/spore_stims/simple_16_A_a.gif","images/stimuli/spore_stims/simple_14_A_b.gif","forced_short","","3","simple_dissimilar","images/stimuli/spore_stims/simple_14_A_b.gif","","","","",""
"","null","html-keyboard-response","50","295355","0.0-15.0-0.3","SS1618435659739","","","null","","","","","","<p><img src= images/blank.png width =""600"" height = ""600"" style=""position:fixed;top:50%; left:50%; transform: translate(-50%, -50%); border:5px solid black"">","","","","","","","",""
"","4357.629999984056","sequential-stimulus-presentation-old","51","300217","0.0-15.0-1.3","SS1618435659739","trial","","40","500","4857.629999984056","images/stimuli/spore_stims/simple_16_A_a.gif","images/stimuli/spore_stims/simple_14_A_b.gif","forced_short","","3","simple_dissimilar","images/stimuli/spore_stims/simple_14_A_b.gif","","","","",""
"","4588.495000032708","survey-multi-choice","52","304808","0.0-16.0","SS1618435659739","math_question","","","","","","","","","","","","{""Q0"":""11""}","[0]","11","",""
"","null","html-keyboard-response","53","305997","0.0-17.0-0.0","SS1618435659739","","","null","","","","","","<p><img src= images/blank.png width =""600"" height = ""600"" style=""position:fixed;top:50%; left:50%; transform: translate(-50%, -50%); border:5px solid black"">","","","","","","","",""
"","2023.0899999733083","sequential-stimulus-presentation-old","54","313027","0.0-17.0-1.0","SS1618435659739","trial","","40","500","2523.0899999733083","images/stimuli/spore_stims/simple_07_A_a.gif","images/stimuli/spore_stims/simple_05_A_b.gif","forced_long","","4","simple_dissimilar","images/stimuli/spore_stims/simple_05_A_b.gif","","","","",""
"","null","html-keyboard-response","55","314148","0.0-17.0-0.1","SS1618435659739","","","null","","","","","","<p><img src= images/blank.png width =""600"" height = ""600"" style=""position:fixed;top:50%; left:50%; transform: translate(-50%, -50%); border:5px solid black"">","","","","","","","",""
"","4697.5450000027195","sequential-stimulus-presentation-old","56","319351","0.0-17.0-1.1","SS1618435659739","trial","","40","500","5197.5450000027195","images/stimuli/spore_stims/simple_07_A_a.gif","images/stimuli/spore_stims/simple_05_A_b.gif","forced_long","","4","simple_dissimilar","images/stimuli/spore_stims/simple_05_A_b.gif","","","","",""
"","null","html-keyboard-response","57","320502","0.0-17.0-0.2","SS1618435659739","","","null","","","","","","<p><img src= images/blank.png width =""600"" height = ""600"" style=""position:fixed;top:50%; left:50%; transform: translate(-50%, -50%); border:5px solid black"">","","","","","","","",""
"","2095.214999979362","sequential-stimulus-presentation-old","58","323104","0.0-17.0-1.2","SS1618435659739","trial","","40","500","2595.214999979362","images/stimuli/spore_stims/simple_07_A_a.gif","images/stimuli/spore_stims/simple_05_A_b.gif","forced_long","","4","simple_dissimilar","images/stimuli/spore_stims/simple_05_A_b.gif","","","","",""
"","null","html-keyboard-response","59","323946","0.0-17.0-0.3","SS1618435659739","","","null","","","","","","<p><img src= images/blank.png width =""600"" height = ""600"" style=""position:fixed;top:50%; left:50%; transform: translate(-50%, -50%); border:5px solid black"">","","","","","","","",""
"","11715.094999992289","sequential-stimulus-presentation-old","60","336168","0.0-17.0-1.3","SS1618435659739","trial","","40","500","12215.094999992289","images/stimuli/spore_stims/simple_07_A_a.gif","images/stimuli/spore_stims/simple_05_A_b.gif","forced_long","","4","simple_dissimilar","images/stimuli/spore_stims/simple_05_A_b.gif","","","","",""
"","null","html-keyboard-response","61","337235","0.0-17.0-0.4","SS1618435659739","","","null","","","","","","<p><img src= images/blank.png width =""600"" height = ""600"" style=""position:fixed;top:50%; left:50%; transform: translate(-50%, -50%); border:5px solid black"">","","","","","","","",""
"","9588.469999958761","sequential-stimulus-presentation-old","62","347329","0.0-17.0-1.4","SS1618435659739","trial","","40","500","10088.469999958761","images/stimuli/spore_stims/simple_07_A_a.gif","images/stimuli/spore_stims/simple_05_A_b.gif","forced_long","","4","simple_dissimilar","images/stimuli/spore_stims/simple_07_A_a.gif","","","","",""
"","null","html-keyboard-response","63","348382","0.0-17.0-0.5","SS1618435659739","","","null","","","","","","<p><img src= images/blank.png width =""600"" height = ""600"" style=""position:fixed;top:50%; left:50%; transform: translate(-50%, -50%); border:5px solid black"">","","","","","","","",""
"","11286.584999994375","sequential-stimulus-presentation-old","64","360175","0.0-17.0-1.5","SS1618435659739","trial","","40","500","11786.584999994375","images/stimuli/spore_stims/simple_07_A_a.gif","images/stimuli/spore_stims/simple_05_A_b.gif","forced_long","","4","simple_dissimilar","images/stimuli/spore_stims/simple_05_A_b.gif","","","","",""
"","6125.964999955613","survey-multi-choice","65","366306","0.0-18.0","SS1618435659739","math_question","","","","","","","","","","","","{""Q0"":""6""}","[0]","6","",""
"","null","html-keyboard-response","66","367596","0.0-19.0-0.0","SS1618435659739","","","null","","","","","","<p><img src= images/blank.png width =""600"" height = ""600"" style=""position:fixed;top:50%; left:50%; transform: translate(-50%, -50%); border:5px solid black"">","","","","","","","",""
"","7591.239999979734","sequential-stimulus-presentation-old","67","380194","0.0-19.0-1.0","SS1618435659739","trial","","40","500","8091.239999979734","images/stimuli/spore_stims/simple_02_A_b.gif","images/stimuli/spore_stims/simple_15_A_a.gif","forced_long","","5","simple_dissimilar","images/stimuli/spore_stims/simple_15_A_a.gif","","","","",""
"","null","html-keyboard-response","68","381021","0.0-19.0-0.1","SS1618435659739","","","null","","","","","","<p><img src= images/blank.png width =""600"" height = ""600"" style=""position:fixed;top:50%; left:50%; transform: translate(-50%, -50%); border:5px solid black"">","","","","","","","",""
"","6380.33000001451","sequential-stimulus-presentation-old","69","387911","0.0-19.0-1.1","SS1618435659739","trial","","40","500","6880.33000001451","images/stimuli/spore_stims/simple_02_A_b.gif","images/stimuli/spore_stims/simple_15_A_a.gif","forced_long","","5","simple_dissimilar","images/stimuli/spore_stims/simple_02_A_b.gif","","","","",""
"","null","html-keyboard-response","70","388811","0.0-19.0-0.2","SS1618435659739","","","null","","","","","","<p><img src= images/blank.png width =""600"" height = ""600"" style=""position:fixed;top:50%; left:50%; transform: translate(-50%, -50%); border:5px solid black"">","","","","","","","",""
"","4590.115000028163","sequential-stimulus-presentation-old","71","393905","0.0-19.0-1.2","SS1618435659739","trial","","40","500","5090.115000028163","images/stimuli/spore_stims/simple_02_A_b.gif","images/stimuli/spore_stims/simple_15_A_a.gif","forced_long","","5","simple_dissimilar","images/stimuli/spore_stims/simple_15_A_a.gif","","","","",""
"","null","html-keyboard-response","72","394897","0.0-19.0-0.3","SS1618435659739","","","null","","","","","","<p><img src= images/blank.png width =""600"" height = ""600"" style=""position:fixed;top:50%; left:50%; transform: translate(-50%, -50%); border:5px solid black"">","","","","","","","",""
"","2315.0299999979325","sequential-stimulus-presentation-old","73","397716","0.0-19.0-1.3","SS1618435659739","trial","","40","500","2815.0299999979325","images/stimuli/spore_stims/simple_02_A_b.gif","images/stimuli/spore_stims/simple_15_A_a.gif","forced_long","","5","simple_dissimilar","images/stimuli/spore_stims/simple_02_A_b.gif","","","","",""
"","6742.434999963734","survey-multi-choice","74","404463","0.0-20.0","SS1618435659739","math_question","","","","","","","","","","","","{""Q0"":""15""}","[0]","15","",""
"","null","html-keyboard-response","75","405333","0.0-21.0-0.0","SS1618435659739","","","null","","","","","","<p><img src= images/blank.png width =""600"" height = ""600"" style=""position:fixed;top:50%; left:50%; transform: translate(-50%, -50%); border:5px solid black"">","","","","","","","",""
"","7475.195000006352","sequential-stimulus-presentation-old","76","413315","0.0-21.0-1.0","SS1618435659739","trial","","40","500","7975.195000006352","images/stimuli/spore_stims/simple_13_A_b.gif","images/stimuli/spore_stims/simple_05_A_a.gif","self_paced","","6","simple_dissimilar","images/stimuli/spore_stims/simple_05_A_a.gif","","","","",""
"","null","html-keyboard-response","77","414270","0.0-21.0-0.1","SS1618435659739","","","null","","","","","","<p><img src= images/blank.png width =""600"" height = ""600"" style=""position:fixed;top:50%; left:50%; transform: translate(-50%, -50%); border:5px solid black"">","","","","","","","",""
"","0.5750000127591193","sequential-stimulus-presentation-old","78","414776","0.0-21.0-1.1","SS1618435659739","trial","","40","500","500.5750000127591","images/stimuli/spore_stims/simple_13_A_b.gif","images/stimuli/spore_stims/simple_05_A_a.gif","self_paced","","6","simple_dissimilar","images/stimuli/spore_stims/simple_05_A_a.gif","","","","",""
"","null","html-keyboard-response","79","415860","0.0-21.0-0.2","SS1618435659739","","","null","","","","","","<p><img src= images/blank.png width =""600"" height = ""600"" style=""position:fixed;top:50%; left:50%; transform: translate(-50%, -50%); border:5px solid black"">","","","","","","","",""
"","1503.469999996014","sequential-stimulus-presentation-old","80","417869","0.0-21.0-1.2","SS1618435659739","trial","","40","500","2003.469999996014","images/stimuli/spore_stims/simple_13_A_b.gif","images/stimuli/spore_stims/simple_05_A_a.gif","self_paced","","6","simple_dissimilar","images/stimuli/spore_stims/simple_05_A_a.gif","","","","",""
"","null","html-keyboard-response","81","418851","0.0-21.0-0.3","SS1618435659739","","","null","","","","","","<p><img src= images/blank.png width =""600"" height = ""600"" style=""position:fixed;top:50%; left:50%; transform: translate(-50%, -50%); border:5px solid black"">","","","","","","","",""
"","2520.8850000053644","sequential-stimulus-presentation-old","82","421876","0.0-21.0-1.3","SS1618435659739","trial","","40","500","3020.8850000053644","images/stimuli/spore_stims/simple_13_A_b.gif","images/stimuli/spore_stims/simple_05_A_a.gif","self_paced","","6","simple_dissimilar","images/stimuli/spore_stims/simple_05_A_a.gif","","","","",""
"","null","html-keyboard-response","83","422800","0.0-21.0-0.4","SS1618435659739","","","null","","","","","","<p><img src= images/blank.png width =""600"" height = ""600"" style=""position:fixed;top:50%; left:50%; transform: translate(-50%, -50%); border:5px solid black"">","","","","","","","",""
"","4681.470000010449","sequential-stimulus-presentation-old","84","427987","0.0-21.0-1.4","SS1618435659739","trial","","40","500","5181.470000010449","images/stimuli/spore_stims/simple_13_A_b.gif","images/stimuli/spore_stims/simple_05_A_a.gif","self_paced","","6","simple_dissimilar","images/stimuli/spore_stims/simple_05_A_a.gif","","","","",""
"","null","html-keyboard-response","85","428981","0.0-21.0-0.5","SS1618435659739","","","null","","","","","","<p><img src= images/blank.png width =""600"" height = ""600"" style=""position:fixed;top:50%; left:50%; transform: translate(-50%, -50%); border:5px solid black"">","","","","","","","",""
"","12874.545000027865","sequential-stimulus-presentation-old","86","442362","0.0-21.0-1.5","SS1618435659739","trial","","40","500","13374.545000027865","images/stimuli/spore_stims/simple_13_A_b.gif","images/stimuli/spore_stims/simple_05_A_a.gif","self_paced","","6","simple_dissimilar","images/stimuli/spore_stims/simple_05_A_a.gif","","","","",""
"","4215.524999948684","survey-multi-choice","87","446581","0.0-22.0","SS1618435659739","math_question","","","","","","","","","","","","{""Q0"":""7""}","[0]","7","",""
"","null","html-keyboard-response","88","447395","0.0-23.0-0.0","SS1618435659739","","","null","","","","","","<p><img src= images/blank.png width =""600"" height = ""600"" style=""position:fixed;top:50%; left:50%; transform: translate(-50%, -50%); border:5px solid black"">","","","","","","","",""
"","4425.500000012107","sequential-stimulus-presentation-old","89","451877","0.0-23.0-1.0","SS1618435659739","trial","","40","500","4925.500000012107","images/stimuli/spore_stims/complex_09_A_a.gif","images/stimuli/spore_stims/complex_19_A_b.gif","forced_short","","7","complex_dissimilar","images/stimuli/spore_stims/complex_19_A_b.gif","","","","",""
"","null","html-keyboard-response","90","452720","0.0-23.0-0.1","SS1618435659739","","","null","","","","","","<p><img src= images/blank.png width =""600"" height = ""600"" style=""position:fixed;top:50%; left:50%; transform: translate(-50%, -50%); border:5px solid black"">","","","","","","","",""
"","3463.935000007041","sequential-stimulus-presentation-old","91","456690","0.0-23.0-1.1","SS1618435659739","trial","","40","500","3963.935000007041","images/stimuli/spore_stims/complex_09_A_a.gif","images/stimuli/spore_stims/complex_19_A_b.gif","forced_short","","7","complex_dissimilar","images/stimuli/spore_stims/complex_19_A_b.gif","","","","",""
"","null","html-keyboard-response","92","457776","0.0-23.0-0.2","SS1618435659739","","","null","","","","","","<p><img src= images/blank.png width =""600"" height = ""600"" style=""position:fixed;top:50%; left:50%; transform: translate(-50%, -50%); border:5px solid black"">","","","","","","","",""
"","744.0800000331365","sequential-stimulus-presentation-old","93","459027","0.0-23.0-1.2","SS1618435659739","trial","","40","500","1244.0800000331365","images/stimuli/spore_stims/complex_09_A_a.gif","images/stimuli/spore_stims/complex_19_A_b.gif","forced_short","","7","complex_dissimilar","images/stimuli/spore_stims/complex_19_A_b.gif","","","","",""
"","null","html-keyboard-response","94","459903","0.0-23.0-0.3","SS1618435659739","","","null","","","","","","<p><img src= images/blank.png width =""600"" height = ""600"" style=""position:fixed;top:50%; left:50%; transform: translate(-50%, -50%); border:5px solid black"">","","","","","","","",""
"","471.5149999829009","sequential-stimulus-presentation-old","95","460880","0.0-23.0-1.3","SS1618435659739","trial","","40","500","971.5149999829009","images/stimuli/spore_stims/complex_09_A_a.gif","images/stimuli/spore_stims/complex_19_A_b.gif","forced_short","","7","complex_dissimilar","images/stimuli/spore_stims/complex_19_A_b.gif","","","","",""
"","null","html-keyboard-response","96","462147","0.0-23.0-0.4","SS1618435659739","","","null","","","","","","<p><img src= images/blank.png width =""600"" height = ""600"" style=""position:fixed;top:50%; left:50%; transform: translate(-50%, -50%); border:5px solid black"">","","","","","","","",""
"","4649.170000047889","sequential-stimulus-presentation-old","97","467301","0.0-23.0-1.4","SS1618435659739","trial","","40","500","5149.170000047889","images/stimuli/spore_stims/complex_09_A_a.gif","images/stimuli/spore_stims/complex_19_A_b.gif","forced_short","","7","complex_dissimilar","images/stimuli/spore_stims/complex_19_A_b.gif","","","","",""
"","null","html-keyboard-response","98","468323","0.0-23.0-0.5","SS1618435659739","","","null","","","","","","<p><img src= images/blank.png width =""600"" height = ""600"" style=""position:fixed;top:50%; left:50%; transform: translate(-50%, -50%); border:5px solid black"">","","","","","","","",""
"","1575.8700000005774","sequential-stimulus-presentation-old","99","470406","0.0-23.0-1.5","SS1618435659739","trial","","40","500","2075.8700000005774","images/stimuli/spore_stims/complex_09_A_a.gif","images/stimuli/spore_stims/complex_19_A_b.gif","forced_short","","7","complex_dissimilar","images/stimuli/spore_stims/complex_19_A_b.gif","","","","",""
"","4765.580000006594","survey-multi-choice","100","475177","0.0-24.0","SS1618435659739","math_question","","","","","","","","","","","","{""Q0"":""6""}","[0]","6","",""
"","null","html-keyboard-response","101","476255","0.0-25.0-0.0","SS1618435659739","","","null","","","","","","<p><img src= images/blank.png width =""600"" height = ""600"" style=""position:fixed;top:50%; left:50%; transform: translate(-50%, -50%); border:5px solid black"">","","","","","","","",""
"","2406.505000020843","sequential-stimulus-presentation-old","102","478721","0.0-25.0-1.0","SS1618435659739","trial","","40","500","2906.505000020843","images/stimuli/spore_stims/complex_08_A_b.gif","images/stimuli/spore_stims/complex_12_A_a.gif","forced_short","","8","complex_dissimilar","images/stimuli/spore_stims/complex_12_A_a.gif","","","","",""
"","null","html-keyboard-response","103","479884","0.0-25.0-0.1","SS1618435659739","","","null","","","","","","<p><img src= images/blank.png width =""600"" height = ""600"" style=""position:fixed;top:50%; left:50%; transform: translate(-50%, -50%); border:5px solid black"">","","","","","","","",""
"","11201.769999985117","sequential-stimulus-presentation-old","104","491595","0.0-25.0-1.1","SS1618435659739","trial","","40","500","11701.769999985117","images/stimuli/spore_stims/complex_08_A_b.gif","images/stimuli/spore_stims/complex_12_A_a.gif","forced_short","","8","complex_dissimilar","images/stimuli/spore_stims/complex_12_A_a.gif","","","","",""
"","null","html-keyboard-response","105","492808","0.0-25.0-0.2","SS1618435659739","","","null","","","","","","<p><img src= images/blank.png width =""600"" height = ""600"" style=""position:fixed;top:50%; left:50%; transform: translate(-50%, -50%); border:5px solid black"">","","","","","","","",""
"","536.0649999929592","sequential-stimulus-presentation-old","106","493850","0.0-25.0-1.2","SS1618435659739","trial","","40","500","1036.0649999929592","images/stimuli/spore_stims/complex_08_A_b.gif","images/stimuli/spore_stims/complex_12_A_a.gif","forced_short","","8","complex_dissimilar","images/stimuli/spore_stims/complex_12_A_a.gif","","","","",""
"","null","html-keyboard-response","107","494859","0.0-25.0-0.3","SS1618435659739","","","null","","","","","","<p><img src= images/blank.png width =""600"" height = ""600"" style=""position:fixed;top:50%; left:50%; transform: translate(-50%, -50%); border:5px solid black"">","","","","","","","",""
"","3737.2900000191294","sequential-stimulus-presentation-old","108","499101","0.0-25.0-1.3","SS1618435659739","trial","","40","500","4237.290000019129","images/stimuli/spore_stims/complex_08_A_b.gif","images/stimuli/spore_stims/complex_12_A_a.gif","forced_short","","8","complex_dissimilar","images/stimuli/spore_stims/complex_08_A_b.gif","","","","",""
"","5171.555000008084","survey-multi-choice","109","504277","0.0-26.0","SS1618435659739","math_question","","","","","","","","","","","","{""Q0"":""13""}","[0]","13","",""
"","null","html-keyboard-response","110","505245","0.0-27.0-0.0","SS1618435659739","","","null","","","","","","<p><img src= images/blank.png width =""600"" height = ""600"" style=""position:fixed;top:50%; left:50%; transform: translate(-50%, -50%); border:5px solid black"">","","","","","","","",""
"","4538.30499999458","sequential-stimulus-presentation-old","111","510290","0.0-27.0-1.0","SS1618435659739","trial","","40","500","5038.30499999458","images/stimuli/spore_stims/simple_07_A_b.gif","images/stimuli/spore_stims/simple_03_A_a.gif","self_paced","","9","simple_dissimilar","images/stimuli/spore_stims/simple_03_A_a.gif","","","","",""
"","null","html-keyboard-response","112","511300","0.0-27.0-0.1","SS1618435659739","","","null","","","","","","<p><img src= images/blank.png width =""600"" height = ""600"" style=""position:fixed;top:50%; left:50%; transform: translate(-50%, -50%); border:5px solid black"">","","","","","","","",""
"","111.81500001111999","sequential-stimulus-presentation-old","113","511919","0.0-27.0-1.1","SS1618435659739","trial","","40","500","611.81500001112","images/stimuli/spore_stims/simple_07_A_b.gif","images/stimuli/spore_stims/simple_03_A_a.gif","self_paced","","9","simple_dissimilar","images/stimuli/spore_stims/simple_03_A_a.gif","","","","",""
"","null","html-keyboard-response","114","513051","0.0-27.0-0.2","SS1618435659739","","","null","","","","","","<p><img src= images/blank.png width =""600"" height = ""600"" style=""position:fixed;top:50%; left:50%; transform: translate(-50%, -50%); border:5px solid black"">","","","","","","","",""
"","132.84499995643273","sequential-stimulus-presentation-old","115","513691","0.0-27.0-1.2","SS1618435659739","trial","","40","500","632.8449999564327","images/stimuli/spore_stims/simple_07_A_b.gif","images/stimuli/spore_stims/simple_03_A_a.gif","self_paced","","9","simple_dissimilar","images/stimuli/spore_stims/simple_03_A_a.gif","","","","",""
"","null","html-keyboard-response","116","514701","0.0-27.0-0.3","SS1618435659739","","","null","","","","","","<p><img src= images/blank.png width =""600"" height = ""600"" style=""position:fixed;top:50%; left:50%; transform: translate(-50%, -50%); border:5px solid black"">","","","","","","","",""
"","1004.4750000233762","sequential-stimulus-presentation-old","117","516211","0.0-27.0-1.3","SS1618435659739","trial","","40","500","1504.4750000233762","images/stimuli/spore_stims/simple_07_A_b.gif","images/stimuli/spore_stims/simple_03_A_a.gif","self_paced","","9","simple_dissimilar","images/stimuli/spore_stims/simple_03_A_a.gif","","","","",""
"","null","html-keyboard-response","118","517247","0.0-27.0-0.4","SS1618435659739","","","null","","","","","","<p><img src= images/blank.png width =""600"" height = ""600"" style=""position:fixed;top:50%; left:50%; transform: translate(-50%, -50%); border:5px solid black"">","","","","","","","",""
"","5315.0449999957345","sequential-stimulus-presentation-old","119","523068","0.0-27.0-1.4","SS1618435659739","trial","","40","500","5815.0449999957345","images/stimuli/spore_stims/simple_07_A_b.gif","images/stimuli/spore_stims/simple_03_A_a.gif","self_paced","","9","simple_dissimilar","images/stimuli/spore_stims/simple_03_A_a.gif","","","","",""
"","null","html-keyboard-response","120","524348","0.0-27.0-0.5","SS1618435659739","","","null","","","","","","<p><img src= images/blank.png width =""600"" height = ""600"" style=""position:fixed;top:50%; left:50%; transform: translate(-50%, -50%); border:5px solid black"">","","","","","","","",""
"","3624.370000034105","sequential-stimulus-presentation-old","121","528479","0.0-27.0-1.5","SS1618435659739","trial","","40","500","4124.370000034105","images/stimuli/spore_stims/simple_07_A_b.gif","images/stimuli/spore_stims/simple_03_A_a.gif","self_paced","","9","simple_dissimilar","images/stimuli/spore_stims/simple_03_A_a.gif","","","","",""
"","4700.914999993984","survey-multi-choice","122","533186","0.0-28.0","SS1618435659739","math_question","","","","","","","","","","","","{""Q0"":""8""}","[0]","8","",""
"","null","html-keyboard-response","123","533999","0.0-29.0-0.0","SS1618435659739","","","null","","","","","","<p><img src= images/blank.png width =""600"" height = ""600"" style=""position:fixed;top:50%; left:50%; transform: translate(-50%, -50%); border:5px solid black"">","","","","","","","",""
"","13040.624999965075","sequential-stimulus-presentation-old","124","547546","0.0-29.0-1.0","SS1618435659739","trial","","40","500","13540.624999965075","images/stimuli/spore_stims/complex_12_A_b.gif","images/stimuli/spore_stims/complex_20_A_a.gif","self_paced","","10","complex_dissimilar","images/stimuli/spore_stims/complex_20_A_a.gif","","","","",""
"","null","html-keyboard-response","125","548519","0.0-29.0-0.1","SS1618435659739","","","null","","","","","","<p><img src= images/blank.png width =""600"" height = ""600"" style=""position:fixed;top:50%; left:50%; transform: translate(-50%, -50%); border:5px solid black"">","","","","","","","",""
"","3431.1349999625236","sequential-stimulus-presentation-old","126","552458","0.0-29.0-1.1","SS1618435659739","trial","","40","500","3931.1349999625236","images/stimuli/spore_stims/complex_12_A_b.gif","images/stimuli/spore_stims/complex_20_A_a.gif","self_paced","","10","complex_dissimilar","images/stimuli/spore_stims/complex_12_A_b.gif","","","","",""
"","null","html-keyboard-response","127","553426","0.0-29.0-0.2","SS1618435659739","","","null","","","","","","<p><img src= images/blank.png width =""600"" height = ""600"" style=""position:fixed;top:50%; left:50%; transform: translate(-50%, -50%); border:5px solid black"">","","","","","","","",""
"","2421.634999976959","sequential-stimulus-presentation-old","128","556355","0.0-29.0-1.2","SS1618435659739","trial","","40","500","2921.634999976959","images/stimuli/spore_stims/complex_12_A_b.gif","images/stimuli/spore_stims/complex_20_A_a.gif","self_paced","","10","complex_dissimilar","images/stimuli/spore_stims/complex_12_A_b.gif","","","","",""
"","null","html-keyboard-response","129","557327","0.0-29.0-0.3","SS1618435659739","","","null","","","","","","<p><img src= images/blank.png width =""600"" height = ""600"" style=""position:fixed;top:50%; left:50%; transform: translate(-50%, -50%); border:5px solid black"">","","","","","","","",""
"","4526.090000057593","sequential-stimulus-presentation-old","130","562361","0.0-29.0-1.3","SS1618435659739","trial","","40","500","5026.090000057593","images/stimuli/spore_stims/complex_12_A_b.gif","images/stimuli/spore_stims/complex_20_A_a.gif","self_paced","","10","complex_dissimilar","images/stimuli/spore_stims/complex_20_A_a.gif","","","","",""
"","9422.279999998864","survey-multi-choice","131","571790","0.0-30.0","SS1618435659739","math_question","","","","","","","","","","","","{""Q0"":""11""}","[0]","11","",""
"","null","html-keyboard-response","132","573054","0.0-31.0-0.0","SS1618435659739","","","null","","","","","","<p><img src= images/blank.png width =""600"" height = ""600"" style=""position:fixed;top:50%; left:50%; transform: translate(-50%, -50%); border:5px solid black"">","","","","","","","",""
"","3085.7749999850057","sequential-stimulus-presentation-old","133","581145","0.0-31.0-1.0","SS1618435659739","trial","","40","500","3585.7749999850057","images/stimuli/spore_stims/complex_03_A_b.gif","images/stimuli/spore_stims/complex_08_A_a.gif","forced_long","","11","complex_dissimilar","images/stimuli/spore_stims/complex_08_A_a.gif","","","","",""
"","null","html-keyboard-response","134","582013","0.0-31.0-0.1","SS1618435659739","","","null","","","","","","<p><img src= images/blank.png width =""600"" height = ""600"" style=""position:fixed;top:50%; left:50%; transform: translate(-50%, -50%); border:5px solid black"">","","","","","","","",""
"","1629.2450000182725","sequential-stimulus-presentation-old","135","584148","0.0-31.0-1.1","SS1618435659739","trial","","40","500","2129.2450000182725","images/stimuli/spore_stims/complex_03_A_b.gif","images/stimuli/spore_stims/complex_08_A_a.gif","forced_long","","11","complex_dissimilar","images/stimuli/spore_stims/complex_08_A_a.gif","","","","",""
"","null","html-keyboard-response","136","585114","0.0-31.0-0.2","SS1618435659739","","","null","","","","","","<p><img src= images/blank.png width =""600"" height = ""600"" style=""position:fixed;top:50%; left:50%; transform: translate(-50%, -50%); border:5px solid black"">","","","","","","","",""
"","712.1799999731593","sequential-stimulus-presentation-old","137","586333","0.0-31.0-1.2","SS1618435659739","trial","","40","500","1212.1799999731593","images/stimuli/spore_stims/complex_03_A_b.gif","images/stimuli/spore_stims/complex_08_A_a.gif","forced_long","","11","complex_dissimilar","images/stimuli/spore_stims/complex_08_A_a.gif","","","","",""
"","null","html-keyboard-response","138","587403","0.0-31.0-0.3","SS1618435659739","","","null","","","","","","<p><img src= images/blank.png width =""600"" height = ""600"" style=""position:fixed;top:50%; left:50%; transform: translate(-50%, -50%); border:5px solid black"">","","","","","","","",""
"","567.3149999929592","sequential-stimulus-presentation-old","139","588477","0.0-31.0-1.3","SS1618435659739","trial","","40","500","1067.3149999929592","images/stimuli/spore_stims/complex_03_A_b.gif","images/stimuli/spore_stims/complex_08_A_a.gif","forced_long","","11","complex_dissimilar","images/stimuli/spore_stims/complex_08_A_a.gif","","","","",""
"","null","html-keyboard-response","140","589671","0.0-31.0-0.4","SS1618435659739","","","null","","","","","","<p><img src= images/blank.png width =""600"" height = ""600"" style=""position:fixed;top:50%; left:50%; transform: translate(-50%, -50%); border:5px solid black"">","","","","","","","",""
"","564.7100000060163","sequential-stimulus-presentation-old","141","590742","0.0-31.0-1.4","SS1618435659739","trial","","40","500","1064.7100000060163","images/stimuli/spore_stims/complex_03_A_b.gif","images/stimuli/spore_stims/complex_08_A_a.gif","forced_long","","11","complex_dissimilar","images/stimuli/spore_stims/complex_08_A_a.gif","","","","",""
"","null","html-keyboard-response","142","591932","0.0-31.0-0.5","SS1618435659739","","","null","","","","","","<p><img src= images/blank.png width =""600"" height = ""600"" style=""position:fixed;top:50%; left:50%; transform: translate(-50%, -50%); border:5px solid black"">","","","","","","","",""
"","14676.404999976512","sequential-stimulus-presentation-old","143","607117","0.0-31.0-1.5","SS1618435659739","trial","","40","500","15176.404999976512","images/stimuli/spore_stims/complex_03_A_b.gif","images/stimuli/spore_stims/complex_08_A_a.gif","forced_long","","11","complex_dissimilar","images/stimuli/spore_stims/complex_08_A_a.gif","","","","",""
"[{""page_index"":0,""viewing_time"":4596.495000005234}]","4596.844999992754","instructions","144","611720","0.0-32.0","SS1618435659739","instructions","","","","","","","","","","","","","","","",""
"","10829.670000006445","survey-likert","145","622556","0.0-33.0","SS1618435659739","similarity_question","","","","","","","","","","","","{""Q0"":1}","[0]","","images/stimuli/spore_stims/simple_15_A_a.gif","images/stimuli/spore_stims/simple_02_A_b.gif"
"","6378.384999989066","survey-likert","146","628943","0.0-34.0","SS1618435659739","similarity_question","","","","","","","","","","","","{""Q0"":0}","[0]","","images/stimuli/spore_stims/complex_18_A_a.gif","images/stimuli/spore_stims/complex_15_A_b.gif"
"","5974.63000001153","survey-likert","147","634926","0.0-35.0","SS1618435659739","similarity_question","","","","","","","","","","","","{""Q0"":1}","[0]","","images/stimuli/spore_stims/simple_13_A_b.gif","images/stimuli/spore_stims/simple_05_A_a.gif"
"","4466.554999991786","survey-likert","148","639401","0.0-36.0","SS1618435659739","similarity_question","","","","","","","","","","","","{""Q0"":0}","[0]","","images/stimuli/spore_stims/complex_20_A_a.gif","images/stimuli/spore_stims/complex_12_A_b.gif"
"","7266.399999964051","survey-likert","149","646677","0.0-37.0","SS1618435659739","similarity_question","","","","","","","","","","","","{""Q0"":0}","[0]","","images/stimuli/spore_stims/simple_19_A_a.gif","images/stimuli/spore_stims/simple_04_A_b.gif"
"","4192.059999972116","survey-likert","150","650881","0.0-38.0","SS1618435659739","similarity_question","","","","","","","","","","","","{""Q0"":0}","[0]","","images/stimuli/spore_stims/complex_19_A_a.gif","images/stimuli/spore_stims/complex_16_A_b.gif"
"","3884.235000004992","survey-likert","151","654775","0.0-39.0","SS1618435659739","similarity_question","","","","","","","","","","","","{""Q0"":0}","[0]","","images/stimuli/spore_stims/simple_07_A_a.gif","images/stimuli/spore_stims/simple_05_A_b.gif"
"","5036.474999971688","survey-likert","152","659820","0.0-40.0","SS1618435659739","similarity_question","","","","","","","","","","","","{""Q0"":0}","[0]","","images/stimuli/spore_stims/complex_08_A_b.gif","images/stimuli/spore_stims/complex_12_A_a.gif"
"","4921.635000035167","survey-likert","153","664751","0.0-41.0","SS1618435659739","similarity_question","","","","","","","","","","","","{""Q0"":0}","[0]","","images/stimuli/spore_stims/simple_03_A_a.gif","images/stimuli/spore_stims/simple_07_A_b.gif"
"","4626.34999997681","survey-likert","154","669386","0.0-42.0","SS1618435659739","similarity_question","","","","","","","","","","","","{""Q0"":0}","[0]","","images/stimuli/spore_stims/complex_03_A_b.gif","images/stimuli/spore_stims/complex_08_A_a.gif"
"","3479.9200000124983","survey-likert","155","672875","0.0-43.0","SS1618435659739","similarity_question","","","","","","","","","","","","{""Q0"":0}","[0]","","images/stimuli/spore_stims/complex_19_A_b.gif","images/stimuli/spore_stims/complex_09_A_a.gif"
"","4718.259999994189","survey-likert","156","677601","0.0-44.0","SS1618435659739","similarity_question","","","","","","","","","","","","{""Q0"":1}","[0]","","images/stimuli/spore_stims/simple_14_A_b.gif","images/stimuli/spore_stims/simple_16_A_a.gif"
"[{""page_index"":0,""viewing_time"":4471.89999994589}]","4472.154999966733","instructions","157","682081","0.0-45.0","SS1618435659739","instructions","","","","","","","","","","","","","","","",""
"","4313.534999964759","survey-likert","158","686399","0.0-46.0","SS1618435659739","","","","","","","","","images/stimuli/spore_stims/simple_14_A_b.gif","","","","{""Q0"":1}","[0]","","",""
"","3151.774999976624","survey-likert","159","689560","0.0-47.0","SS1618435659739","","","","","","","","","images/stimuli/spore_stims/simple_13_A_b.gif","","","","{""Q0"":1}","[0]","","",""
"","4290.809999976773","survey-likert","160","693859","0.0-48.0","SS1618435659739","","","","","","","","","images/stimuli/spore_stims/complex_08_A_a.gif","","","","{""Q0"":6}","[0]","","",""
"","3533.255000016652","survey-likert","161","697400","0.0-49.0","SS1618435659739","","","","","","","","","images/stimuli/spore_stims/complex_12_A_a.gif","","","","{""Q0"":6}","[0]","","",""
"","5115.445000003092","survey-likert","162","702525","0.0-50.0","SS1618435659739","","","","","","","","","images/stimuli/spore_stims/simple_05_A_b.gif","","","","{""Q0"":1}","[0]","","",""
"","6906.214999966323","survey-likert","163","709439","0.0-51.0","SS1618435659739","","","","","","","","","images/stimuli/spore_stims/complex_16_A_b.gif","","","","{""Q0"":5}","[0]","","",""
"","6599.225000012666","survey-likert","164","716046","0.0-52.0","SS1618435659739","","","","","","","","","images/stimuli/spore_stims/complex_19_A_b.gif","","","","{""Q0"":5}","[0]","","",""
"","5145.0499999918975","survey-likert","165","721200","0.0-53.0","SS1618435659739","","","","","","","","","images/stimuli/spore_stims/complex_20_A_a.gif","","","","{""Q0"":6}","[0]","","",""
"","4214.009999996051","survey-likert","166","725422","0.0-54.0","SS1618435659739","","","","","","","","","images/stimuli/spore_stims/simple_04_A_b.gif","","","","{""Q0"":1}","[0]","","",""
"","3217.5249999854714","survey-likert","167","728649","0.0-55.0","SS1618435659739","","","","","","","","","images/stimuli/spore_stims/simple_03_A_a.gif","","","","{""Q0"":1}","[0]","","",""
"","6676.1549999937415","survey-likert","168","735334","0.0-56.0","SS1618435659739","","","","","","","","","images/stimuli/spore_stims/complex_15_A_b.gif","","","","{""Q0"":6}","[0]","","",""
"","3563.9049999881536","survey-likert","169","738908","0.0-57.0","SS1618435659739","","","","","","","","","images/stimuli/spore_stims/simple_15_A_a.gif","","","","{""Q0"":1}","[0]","","",""
"[{""page_index"":0,""viewing_time"":2222.604999959003}]","2222.829999984242","instructions","170","741139","0.0-58.0","SS1618435659739","instructions","","","","","","","","","","","","","","","",""
"","3590.3399999951944","demog-age","171","744780","0.0-59.0","SS1618435659739","","","","","","","","","","","","","{""age"":""67""}","","","",""
"","3926.2000000453554","demog-ethnic-US","172","748714","0.0-60.0","SS1618435659739","","","","","","","","","","","","","{""ethnicity"":[""White""]}","[0]","","",""
"","6419.404999993276","demog-gender-and-education","173","755142","0.0-61.0","SS1618435659739","","","","","","","","","","","","","{""gender"":""Female"",""education"":""Some high school""}","[0,1]","","",""
"","11754.910000017844","survey-text","174","766908","0.0-62.0","SS1618435659739","feedback","","","","","","","","","","","","{""Q0"":""none""}","","","",""
"[{""page_index"":0,""viewing_time"":3768.3499999693595}]","3768.7300000106916","instructions","175","770681","0.0-63.0","SS1618435659739","instructions","","","","","","","","","","","","","","","",""
