"view_history","rt","trial_type","trial_index","time_elapsed","internal_node_id","subject","stimulus_type","trial_stimulus","key_press","minimum_viewing_duration","trial_looking_time","block_deviant","block_background","exposure_type","stimulus","block_number","block_type","stimulus_displayed","responses","question_order","math_correct_answer","stimulus_left","stimulus_right"
"[{""page_index"":0,""viewing_time"":12082.78000000064}]","12085.285000001022","instructions","0","12087","0.0-0.0","SS1618435657040","","","","","","","","","","","","","","","","",""
"[{""page_index"":0,""viewing_time"":12920.53500000111},{""page_index"":1,""viewing_time"":7422.269999999116}]","20343.60000000015","instructions","1","34436","0.0-1.0","SS1618435657040","instructions","","","","","","","","","","","","","","","",""
"","4164.99499999918","sequential-stimulus-presentation-old","2","39109","0.0-2.0","SS1618435657040","","","40","500","4664.99499999918","null","null","self_paced","","","","","","","","",""
"","2998.250000000553","sequential-stimulus-presentation-old","3","42612","0.0-3.0","SS1618435657040","","","40","500","3498.250000000553","null","null","self_paced","","","","","","","","",""
"[{""page_index"":0,""viewing_time"":10648.574999999255}]","10649.405000000115","instructions","4","53265","0.0-4.0","SS1618435657040","instructions","","","","","","","","","","","","","","","",""
"","3415.949999998702","sequential-stimulus-presentation-old","5","61687","0.0-5.0","SS1618435657040","","","40","500","3915.949999998702","null","null","forced_long","","","","","","","","",""
"","3825.380000002042","sequential-stimulus-presentation-old","6","65567","0.0-6.0","SS1618435657040","","","40","50","3875.380000002042","null","null","forced_long","","","","","","","","",""
"[{""page_index"":0,""viewing_time"":3650.3000000011525}]","3651.0699999998906","instructions","7","69220","0.0-7.0","SS1618435657040","instructions","","","","","","","","","","","","","","","",""
"[{""page_index"":0,""viewing_time"":6171.58500000005},{""page_index"":1,""viewing_time"":5591.68999999747},{""page_index"":2,""viewing_time"":4081.350000000384},{""page_index"":3,""viewing_time"":1670.9499999997206},{""page_index"":4,""viewing_time"":1128.9749999996275}]","18645.344999997178","instructions","8","87868","0.0-8.0","SS1618435657040","instructions","","","","","","","","","","","","","","","",""
"","null","html-keyboard-response","9","88993","0.0-9.0-0.0","SS1618435657040","","","null","","","","","","<p><img src= images/blank.png width =""600"" height = ""600"" style=""position:fixed;top:50%; left:50%; transform: translate(-50%, -50%); border:5px solid black"">","","","","","","","",""
"","4250.739999999496","sequential-stimulus-presentation-old","10","93751","0.0-9.0-1.0","SS1618435657040","trial","","40","500","4750.739999999496","images/stimuli/spore_stims/complex_17_A_a.gif","images/stimuli/spore_stims/complex_03_A_b.gif","self_paced","","0","complex_dissimilar","images/stimuli/spore_stims/complex_03_A_b.gif","","","","",""
"","null","html-keyboard-response","11","95005","0.0-9.0-0.1","SS1618435657040","","","null","","","","","","<p><img src= images/blank.png width =""600"" height = ""600"" style=""position:fixed;top:50%; left:50%; transform: translate(-50%, -50%); border:5px solid black"">","","","","","","","",""
"","6579.904999998689","sequential-stimulus-presentation-old","12","102091","0.0-9.0-1.1","SS1618435657040","trial","","40","500","7079.904999998689","images/stimuli/spore_stims/complex_17_A_a.gif","images/stimuli/spore_stims/complex_03_A_b.gif","self_paced","","0","complex_dissimilar","images/stimuli/spore_stims/complex_03_A_b.gif","","","","",""
"","null","html-keyboard-response","13","103179","0.0-9.0-0.2","SS1618435657040","","","null","","","","","","<p><img src= images/blank.png width =""600"" height = ""600"" style=""position:fixed;top:50%; left:50%; transform: translate(-50%, -50%); border:5px solid black"">","","","","","","","",""
"","3462.2849999977916","sequential-stimulus-presentation-old","14","107149","0.0-9.0-1.2","SS1618435657040","trial","","40","500","3962.2849999977916","images/stimuli/spore_stims/complex_17_A_a.gif","images/stimuli/spore_stims/complex_03_A_b.gif","self_paced","","0","complex_dissimilar","images/stimuli/spore_stims/complex_17_A_a.gif","","","","",""
"","null","html-keyboard-response","15","108254","0.0-9.0-0.3","SS1618435657040","","","null","","","","","","<p><img src= images/blank.png width =""600"" height = ""600"" style=""position:fixed;top:50%; left:50%; transform: translate(-50%, -50%); border:5px solid black"">","","","","","","","",""
"","4364.910000000236","sequential-stimulus-presentation-old","16","113126","0.0-9.0-1.3","SS1618435657040","trial","","40","500","4864.910000000236","images/stimuli/spore_stims/complex_17_A_a.gif","images/stimuli/spore_stims/complex_03_A_b.gif","self_paced","","0","complex_dissimilar","images/stimuli/spore_stims/complex_03_A_b.gif","","","","",""
"","null","html-keyboard-response","17","114127","0.0-9.0-0.4","SS1618435657040","","","null","","","","","","<p><img src= images/blank.png width =""600"" height = ""600"" style=""position:fixed;top:50%; left:50%; transform: translate(-50%, -50%); border:5px solid black"">","","","","","","","",""
"","2995.179999998072","sequential-stimulus-presentation-old","18","117630","0.0-9.0-1.4","SS1618435657040","trial","","40","500","3495.179999998072","images/stimuli/spore_stims/complex_17_A_a.gif","images/stimuli/spore_stims/complex_03_A_b.gif","self_paced","","0","complex_dissimilar","images/stimuli/spore_stims/complex_03_A_b.gif","","","","",""
"","4714.574999998149","survey-multi-choice","19","122357","0.0-10.0","SS1618435657040","math_question","","","","","","","","","","","","{""Q0"":""12""}","[0]","12","",""
"","null","html-keyboard-response","20","123636","0.0-11.0-0.0","SS1618435657040","","","null","","","","","","<p><img src= images/blank.png width =""600"" height = ""600"" style=""position:fixed;top:50%; left:50%; transform: translate(-50%, -50%); border:5px solid black"">","","","","","","","",""
"","2247.4849999998696","sequential-stimulus-presentation-old","21","131708","0.0-11.0-1.0","SS1618435657040","trial","","40","500","2747.4849999998696","images/stimuli/spore_stims/complex_12_A_b.gif","images/stimuli/spore_stims/complex_06_A_a.gif","forced_long","","1","complex_dissimilar","images/stimuli/spore_stims/complex_06_A_a.gif","","","","",""
"","null","html-keyboard-response","22","132968","0.0-11.0-0.1","SS1618435657040","","","null","","","","","","<p><img src= images/blank.png width =""600"" height = ""600"" style=""position:fixed;top:50%; left:50%; transform: translate(-50%, -50%); border:5px solid black"">","","","","","","","",""
"","5000.52499999947","sequential-stimulus-presentation-old","23","138478","0.0-11.0-1.1","SS1618435657040","trial","","40","500","5500.52499999947","images/stimuli/spore_stims/complex_12_A_b.gif","images/stimuli/spore_stims/complex_06_A_a.gif","forced_long","","1","complex_dissimilar","images/stimuli/spore_stims/complex_06_A_a.gif","","","","",""
"","null","html-keyboard-response","24","139701","0.0-11.0-0.2","SS1618435657040","","","null","","","","","","<p><img src= images/blank.png width =""600"" height = ""600"" style=""position:fixed;top:50%; left:50%; transform: translate(-50%, -50%); border:5px solid black"">","","","","","","","",""
"","2355.2250000029744","sequential-stimulus-presentation-old","25","142565","0.0-11.0-1.2","SS1618435657040","trial","","40","500","2855.2250000029744","images/stimuli/spore_stims/complex_12_A_b.gif","images/stimuli/spore_stims/complex_06_A_a.gif","forced_long","","1","complex_dissimilar","images/stimuli/spore_stims/complex_06_A_a.gif","","","","",""
"","null","html-keyboard-response","26","143685","0.0-11.0-0.3","SS1618435657040","","","null","","","","","","<p><img src= images/blank.png width =""600"" height = ""600"" style=""position:fixed;top:50%; left:50%; transform: translate(-50%, -50%); border:5px solid black"">","","","","","","","",""
"","1297.020000001794","sequential-stimulus-presentation-old","27","145492","0.0-11.0-1.3","SS1618435657040","trial","","40","500","1797.020000001794","images/stimuli/spore_stims/complex_12_A_b.gif","images/stimuli/spore_stims/complex_06_A_a.gif","forced_long","","1","complex_dissimilar","images/stimuli/spore_stims/complex_06_A_a.gif","","","","",""
"","null","html-keyboard-response","28","146558","0.0-11.0-0.4","SS1618435657040","","","null","","","","","","<p><img src= images/blank.png width =""600"" height = ""600"" style=""position:fixed;top:50%; left:50%; transform: translate(-50%, -50%); border:5px solid black"">","","","","","","","",""
"","2624.520000001212","sequential-stimulus-presentation-old","29","149689","0.0-11.0-1.4","SS1618435657040","trial","","40","500","3124.520000001212","images/stimuli/spore_stims/complex_12_A_b.gif","images/stimuli/spore_stims/complex_06_A_a.gif","forced_long","","1","complex_dissimilar","images/stimuli/spore_stims/complex_06_A_a.gif","","","","",""
"","null","html-keyboard-response","30","150648","0.0-11.0-0.5","SS1618435657040","","","null","","","","","","<p><img src= images/blank.png width =""600"" height = ""600"" style=""position:fixed;top:50%; left:50%; transform: translate(-50%, -50%); border:5px solid black"">","","","","","","","",""
"","1914.6949999994831","sequential-stimulus-presentation-old","31","153070","0.0-11.0-1.5","SS1618435657040","trial","","40","500","2414.694999999483","images/stimuli/spore_stims/complex_12_A_b.gif","images/stimuli/spore_stims/complex_06_A_a.gif","forced_long","","1","complex_dissimilar","images/stimuli/spore_stims/complex_06_A_a.gif","","","","",""
"","3599.4749999990745","survey-multi-choice","32","156675","0.0-12.0","SS1618435657040","math_question","","","","","","","","","","","","{""Q0"":""6""}","[0]","6","",""
"","null","html-keyboard-response","33","157950","0.0-13.0-0.0","SS1618435657040","","","null","","","","","","<p><img src= images/blank.png width =""600"" height = ""600"" style=""position:fixed;top:50%; left:50%; transform: translate(-50%, -50%); border:5px solid black"">","","","","","","","",""
"","925.295000000915","sequential-stimulus-presentation-old","34","158933","0.0-13.0-1.0","SS1618435657040","trial","","40","500","1425.295000000915","images/stimuli/spore_stims/simple_05_A_b.gif","images/stimuli/spore_stims/simple_19_A_a.gif","forced_short","","2","simple_dissimilar","images/stimuli/spore_stims/simple_19_A_a.gif","","","","",""
"","null","html-keyboard-response","35","160145","0.0-13.0-0.1","SS1618435657040","","","null","","","","","","<p><img src= images/blank.png width =""600"" height = ""600"" style=""position:fixed;top:50%; left:50%; transform: translate(-50%, -50%); border:5px solid black"">","","","","","","","",""
"","1325.4400000005262","sequential-stimulus-presentation-old","36","161976","0.0-13.0-1.1","SS1618435657040","trial","","40","500","1825.4400000005262","images/stimuli/spore_stims/simple_05_A_b.gif","images/stimuli/spore_stims/simple_19_A_a.gif","forced_short","","2","simple_dissimilar","images/stimuli/spore_stims/simple_19_A_a.gif","","","","",""
"","null","html-keyboard-response","37","162782","0.0-13.0-0.2","SS1618435657040","","","null","","","","","","<p><img src= images/blank.png width =""600"" height = ""600"" style=""position:fixed;top:50%; left:50%; transform: translate(-50%, -50%); border:5px solid black"">","","","","","","","",""
"","1431.6849999995611","sequential-stimulus-presentation-old","38","164719","0.0-13.0-1.2","SS1618435657040","trial","","40","500","1931.6849999995611","images/stimuli/spore_stims/simple_05_A_b.gif","images/stimuli/spore_stims/simple_19_A_a.gif","forced_short","","2","simple_dissimilar","images/stimuli/spore_stims/simple_19_A_a.gif","","","","",""
"","null","html-keyboard-response","39","165619","0.0-13.0-0.3","SS1618435657040","","","null","","","","","","<p><img src= images/blank.png width =""600"" height = ""600"" style=""position:fixed;top:50%; left:50%; transform: translate(-50%, -50%); border:5px solid black"">","","","","","","","",""
"","1050.5950000006123","sequential-stimulus-presentation-old","40","167177","0.0-13.0-1.3","SS1618435657040","trial","","40","500","1550.5950000006123","images/stimuli/spore_stims/simple_05_A_b.gif","images/stimuli/spore_stims/simple_19_A_a.gif","forced_short","","2","simple_dissimilar","images/stimuli/spore_stims/simple_19_A_a.gif","","","","",""
"","null","html-keyboard-response","41","168205","0.0-13.0-0.4","SS1618435657040","","","null","","","","","","<p><img src= images/blank.png width =""600"" height = ""600"" style=""position:fixed;top:50%; left:50%; transform: translate(-50%, -50%); border:5px solid black"">","","","","","","","",""
"","1128.390000001673","sequential-stimulus-presentation-old","42","169842","0.0-13.0-1.4","SS1618435657040","trial","","40","500","1628.390000001673","images/stimuli/spore_stims/simple_05_A_b.gif","images/stimuli/spore_stims/simple_19_A_a.gif","forced_short","","2","simple_dissimilar","images/stimuli/spore_stims/simple_19_A_a.gif","","","","",""
"","null","html-keyboard-response","43","170920","0.0-13.0-0.5","SS1618435657040","","","null","","","","","","<p><img src= images/blank.png width =""600"" height = ""600"" style=""position:fixed;top:50%; left:50%; transform: translate(-50%, -50%); border:5px solid black"">","","","","","","","",""
"","1353.9899999996123","sequential-stimulus-presentation-old","44","172782","0.0-13.0-1.5","SS1618435657040","trial","","40","500","1853.9899999996123","images/stimuli/spore_stims/simple_05_A_b.gif","images/stimuli/spore_stims/simple_19_A_a.gif","forced_short","","2","simple_dissimilar","images/stimuli/spore_stims/simple_19_A_a.gif","","","","",""
"","2417.4649999986286","survey-multi-choice","45","175205","0.0-14.0","SS1618435657040","math_question","","","","","","","","","","","","{""Q0"":""9""}","[0]","9","",""
"","null","html-keyboard-response","46","176221","0.0-15.0-0.0","SS1618435657040","","","null","","","","","","<p><img src= images/blank.png width =""600"" height = ""600"" style=""position:fixed;top:50%; left:50%; transform: translate(-50%, -50%); border:5px solid black"">","","","","","","","",""
"","6632.11500000034","sequential-stimulus-presentation-old","47","187864","0.0-15.0-1.0","SS1618435657040","trial","","40","500","7132.11500000034","images/stimuli/spore_stims/complex_19_A_a.gif","images/stimuli/spore_stims/complex_02_A_b.gif","forced_long","","3","complex_dissimilar","images/stimuli/spore_stims/complex_02_A_b.gif","","","","",""
"","null","html-keyboard-response","48","188735","0.0-15.0-0.1","SS1618435657040","","","null","","","","","","<p><img src= images/blank.png width =""600"" height = ""600"" style=""position:fixed;top:50%; left:50%; transform: translate(-50%, -50%); border:5px solid black"">","","","","","","","",""
"","1599.3450000023586","sequential-stimulus-presentation-old","49","191060","0.0-15.0-1.1","SS1618435657040","trial","","40","500","2099.3450000023586","images/stimuli/spore_stims/complex_19_A_a.gif","images/stimuli/spore_stims/complex_02_A_b.gif","forced_long","","3","complex_dissimilar","images/stimuli/spore_stims/complex_02_A_b.gif","","","","",""
"","null","html-keyboard-response","50","191976","0.0-15.0-0.2","SS1618435657040","","","null","","","","","","<p><img src= images/blank.png width =""600"" height = ""600"" style=""position:fixed;top:50%; left:50%; transform: translate(-50%, -50%); border:5px solid black"">","","","","","","","",""
"","1395.2299999982642","sequential-stimulus-presentation-old","51","194046","0.0-15.0-1.2","SS1618435657040","trial","","40","500","1895.2299999982642","images/stimuli/spore_stims/complex_19_A_a.gif","images/stimuli/spore_stims/complex_02_A_b.gif","forced_long","","3","complex_dissimilar","images/stimuli/spore_stims/complex_02_A_b.gif","","","","",""
"","null","html-keyboard-response","52","194976","0.0-15.0-0.3","SS1618435657040","","","null","","","","","","<p><img src= images/blank.png width =""600"" height = ""600"" style=""position:fixed;top:50%; left:50%; transform: translate(-50%, -50%); border:5px solid black"">","","","","","","","",""
"","1594.4449999988137","sequential-stimulus-presentation-old","53","197077","0.0-15.0-1.3","SS1618435657040","trial","","40","500","2094.4449999988137","images/stimuli/spore_stims/complex_19_A_a.gif","images/stimuli/spore_stims/complex_02_A_b.gif","forced_long","","3","complex_dissimilar","images/stimuli/spore_stims/complex_02_A_b.gif","","","","",""
"","null","html-keyboard-response","54","198196","0.0-15.0-0.4","SS1618435657040","","","null","","","","","","<p><img src= images/blank.png width =""600"" height = ""600"" style=""position:fixed;top:50%; left:50%; transform: translate(-50%, -50%); border:5px solid black"">","","","","","","","",""
"","1759.5999999975902","sequential-stimulus-presentation-old","55","200463","0.0-15.0-1.4","SS1618435657040","trial","","40","500","2259.59999999759","images/stimuli/spore_stims/complex_19_A_a.gif","images/stimuli/spore_stims/complex_02_A_b.gif","forced_long","","3","complex_dissimilar","images/stimuli/spore_stims/complex_19_A_a.gif","","","","",""
"","4170.110000002751","survey-multi-choice","56","204641","0.0-16.0","SS1618435657040","math_question","","","","","","","","","","","","{""Q0"":""13""}","[0]","13","",""
"","null","html-keyboard-response","57","205690","0.0-17.0-0.0","SS1618435657040","","","null","","","","","","<p><img src= images/blank.png width =""600"" height = ""600"" style=""position:fixed;top:50%; left:50%; transform: translate(-50%, -50%); border:5px solid black"">","","","","","","","",""
"","10344.109999998182","sequential-stimulus-presentation-old","58","221043","0.0-17.0-1.0","SS1618435657040","trial","","40","500","10844.109999998182","images/stimuli/spore_stims/simple_11_A_a.gif","images/stimuli/spore_stims/simple_19_A_b.gif","forced_long","","4","simple_dissimilar","images/stimuli/spore_stims/simple_19_A_b.gif","","","","",""
"","null","html-keyboard-response","59","222170","0.0-17.0-0.1","SS1618435657040","","","null","","","","","","<p><img src= images/blank.png width =""600"" height = ""600"" style=""position:fixed;top:50%; left:50%; transform: translate(-50%, -50%); border:5px solid black"">","","","","","","","",""
"","1583.730000002106","sequential-stimulus-presentation-old","60","224264","0.0-17.0-1.1","SS1618435657040","trial","","40","500","2083.730000002106","images/stimuli/spore_stims/simple_11_A_a.gif","images/stimuli/spore_stims/simple_19_A_b.gif","forced_long","","4","simple_dissimilar","images/stimuli/spore_stims/simple_19_A_b.gif","","","","",""
"","null","html-keyboard-response","61","225148","0.0-17.0-0.2","SS1618435657040","","","null","","","","","","<p><img src= images/blank.png width =""600"" height = ""600"" style=""position:fixed;top:50%; left:50%; transform: translate(-50%, -50%); border:5px solid black"">","","","","","","","",""
"","268.45999999932246","sequential-stimulus-presentation-old","62","225927","0.0-17.0-1.2","SS1618435657040","trial","","40","500","768.4599999993225","images/stimuli/spore_stims/simple_11_A_a.gif","images/stimuli/spore_stims/simple_19_A_b.gif","forced_long","","4","simple_dissimilar","images/stimuli/spore_stims/simple_19_A_b.gif","","","","",""
"","null","html-keyboard-response","63","227182","0.0-17.0-0.3","SS1618435657040","","","null","","","","","","<p><img src= images/blank.png width =""600"" height = ""600"" style=""position:fixed;top:50%; left:50%; transform: translate(-50%, -50%); border:5px solid black"">","","","","","","","",""
"","144.35500000035972","sequential-stimulus-presentation-old","64","227841","0.0-17.0-1.3","SS1618435657040","trial","","40","500","644.3550000003597","images/stimuli/spore_stims/simple_11_A_a.gif","images/stimuli/spore_stims/simple_19_A_b.gif","forced_long","","4","simple_dissimilar","images/stimuli/spore_stims/simple_19_A_b.gif","","","","",""
"","null","html-keyboard-response","65","228950","0.0-17.0-0.4","SS1618435657040","","","null","","","","","","<p><img src= images/blank.png width =""600"" height = ""600"" style=""position:fixed;top:50%; left:50%; transform: translate(-50%, -50%); border:5px solid black"">","","","","","","","",""
"","1776.1300000020128","sequential-stimulus-presentation-old","66","231233","0.0-17.0-1.4","SS1618435657040","trial","","40","500","2276.130000002013","images/stimuli/spore_stims/simple_11_A_a.gif","images/stimuli/spore_stims/simple_19_A_b.gif","forced_long","","4","simple_dissimilar","images/stimuli/spore_stims/simple_11_A_a.gif","","","","",""
"","null","html-keyboard-response","67","232510","0.0-17.0-0.5","SS1618435657040","","","null","","","","","","<p><img src= images/blank.png width =""600"" height = ""600"" style=""position:fixed;top:50%; left:50%; transform: translate(-50%, -50%); border:5px solid black"">","","","","","","","",""
"","1560.3449999980512","sequential-stimulus-presentation-old","68","234581","0.0-17.0-1.5","SS1618435657040","trial","","40","500","2060.344999998051","images/stimuli/spore_stims/simple_11_A_a.gif","images/stimuli/spore_stims/simple_19_A_b.gif","forced_long","","4","simple_dissimilar","images/stimuli/spore_stims/simple_11_A_a.gif","","","","",""
"","2258.480000000418","survey-multi-choice","69","236847","0.0-18.0","SS1618435657040","math_question","","","","","","","","","","","","{""Q0"":""10""}","[0]","10","",""
"","null","html-keyboard-response","70","237728","0.0-19.0-0.0","SS1618435657040","","","null","","","","","","<p><img src= images/blank.png width =""600"" height = ""600"" style=""position:fixed;top:50%; left:50%; transform: translate(-50%, -50%); border:5px solid black"">","","","","","","","",""
"","1214.895000000979","sequential-stimulus-presentation-old","71","239001","0.0-19.0-1.0","SS1618435657040","trial","","40","500","1714.895000000979","images/stimuli/spore_stims/complex_03_A_a.gif","images/stimuli/spore_stims/complex_01_A_b.gif","forced_short","","5","complex_dissimilar","images/stimuli/spore_stims/complex_01_A_b.gif","","","","",""
"","null","html-keyboard-response","72","239895","0.0-19.0-0.1","SS1618435657040","","","null","","","","","","<p><img src= images/blank.png width =""600"" height = ""600"" style=""position:fixed;top:50%; left:50%; transform: translate(-50%, -50%); border:5px solid black"">","","","","","","","",""
"","3367.770000000746","sequential-stimulus-presentation-old","73","243769","0.0-19.0-1.1","SS1618435657040","trial","","40","500","3867.770000000746","images/stimuli/spore_stims/complex_03_A_a.gif","images/stimuli/spore_stims/complex_01_A_b.gif","forced_short","","5","complex_dissimilar","images/stimuli/spore_stims/complex_01_A_b.gif","","","","",""
"","null","html-keyboard-response","74","244786","0.0-19.0-0.2","SS1618435657040","","","null","","","","","","<p><img src= images/blank.png width =""600"" height = ""600"" style=""position:fixed;top:50%; left:50%; transform: translate(-50%, -50%); border:5px solid black"">","","","","","","","",""
"","1393.000000000029","sequential-stimulus-presentation-old","75","246689","0.0-19.0-1.2","SS1618435657040","trial","","40","500","1893.000000000029","images/stimuli/spore_stims/complex_03_A_a.gif","images/stimuli/spore_stims/complex_01_A_b.gif","forced_short","","5","complex_dissimilar","images/stimuli/spore_stims/complex_01_A_b.gif","","","","",""
"","null","html-keyboard-response","76","247601","0.0-19.0-0.3","SS1618435657040","","","null","","","","","","<p><img src= images/blank.png width =""600"" height = ""600"" style=""position:fixed;top:50%; left:50%; transform: translate(-50%, -50%); border:5px solid black"">","","","","","","","",""
"","1692.719999999099","sequential-stimulus-presentation-old","77","249803","0.0-19.0-1.3","SS1618435657040","trial","","40","500","2192.719999999099","images/stimuli/spore_stims/complex_03_A_a.gif","images/stimuli/spore_stims/complex_01_A_b.gif","forced_short","","5","complex_dissimilar","images/stimuli/spore_stims/complex_01_A_b.gif","","","","",""
"","null","html-keyboard-response","78","250653","0.0-19.0-0.4","SS1618435657040","","","null","","","","","","<p><img src= images/blank.png width =""600"" height = ""600"" style=""position:fixed;top:50%; left:50%; transform: translate(-50%, -50%); border:5px solid black"">","","","","","","","",""
"","937.1549999996787","sequential-stimulus-presentation-old","79","252099","0.0-19.0-1.4","SS1618435657040","trial","","40","500","1437.1549999996787","images/stimuli/spore_stims/complex_03_A_a.gif","images/stimuli/spore_stims/complex_01_A_b.gif","forced_short","","5","complex_dissimilar","images/stimuli/spore_stims/complex_01_A_b.gif","","","","",""
"","2103.334999999788","survey-multi-choice","80","254211","0.0-20.0","SS1618435657040","math_question","","","","","","","","","","","","{""Q0"":""10""}","[0]","10","",""
"","null","html-keyboard-response","81","255249","0.0-21.0-0.0","SS1618435657040","","","null","","","","","","<p><img src= images/blank.png width =""600"" height = ""600"" style=""position:fixed;top:50%; left:50%; transform: translate(-50%, -50%); border:5px solid black"">","","","","","","","",""
"","834.0150000003632","sequential-stimulus-presentation-old","82","256592","0.0-21.0-1.0","SS1618435657040","trial","","40","500","1334.0150000003632","images/stimuli/spore_stims/simple_03_A_b.gif","images/stimuli/spore_stims/simple_01_A_a.gif","self_paced","","6","simple_dissimilar","images/stimuli/spore_stims/simple_01_A_a.gif","","","","",""
"","null","html-keyboard-response","83","257503","0.0-21.0-0.1","SS1618435657040","","","null","","","","","","<p><img src= images/blank.png width =""600"" height = ""600"" style=""position:fixed;top:50%; left:50%; transform: translate(-50%, -50%); border:5px solid black"">","","","","","","","",""
"","486.51500000047963","sequential-stimulus-presentation-old","84","258494","0.0-21.0-1.1","SS1618435657040","trial","","40","500","986.5150000004796","images/stimuli/spore_stims/simple_03_A_b.gif","images/stimuli/spore_stims/simple_01_A_a.gif","self_paced","","6","simple_dissimilar","images/stimuli/spore_stims/simple_01_A_a.gif","","","","",""
"","null","html-keyboard-response","85","259573","0.0-21.0-0.2","SS1618435657040","","","null","","","","","","<p><img src= images/blank.png width =""600"" height = ""600"" style=""position:fixed;top:50%; left:50%; transform: translate(-50%, -50%); border:5px solid black"">","","","","","","","",""
"","1020.6900000011665","sequential-stimulus-presentation-old","86","261103","0.0-21.0-1.2","SS1618435657040","trial","","40","500","1520.6900000011665","images/stimuli/spore_stims/simple_03_A_b.gif","images/stimuli/spore_stims/simple_01_A_a.gif","self_paced","","6","simple_dissimilar","images/stimuli/spore_stims/simple_01_A_a.gif","","","","",""
"","null","html-keyboard-response","87","262236","0.0-21.0-0.3","SS1618435657040","","","null","","","","","","<p><img src= images/blank.png width =""600"" height = ""600"" style=""position:fixed;top:50%; left:50%; transform: translate(-50%, -50%); border:5px solid black"">","","","","","","","",""
"","2024.7500000005239","sequential-stimulus-presentation-old","88","264769","0.0-21.0-1.3","SS1618435657040","trial","","40","500","2524.750000000524","images/stimuli/spore_stims/simple_03_A_b.gif","images/stimuli/spore_stims/simple_01_A_a.gif","self_paced","","6","simple_dissimilar","images/stimuli/spore_stims/simple_01_A_a.gif","","","","",""
"","null","html-keyboard-response","89","265823","0.0-21.0-0.4","SS1618435657040","","","null","","","","","","<p><img src= images/blank.png width =""600"" height = ""600"" style=""position:fixed;top:50%; left:50%; transform: translate(-50%, -50%); border:5px solid black"">","","","","","","","",""
"","687.1600000013132","sequential-stimulus-presentation-old","90","267019","0.0-21.0-1.4","SS1618435657040","trial","","40","500","1187.1600000013132","images/stimuli/spore_stims/simple_03_A_b.gif","images/stimuli/spore_stims/simple_01_A_a.gif","self_paced","","6","simple_dissimilar","images/stimuli/spore_stims/simple_01_A_a.gif","","","","",""
"","null","html-keyboard-response","91","268174","0.0-21.0-0.5","SS1618435657040","","","null","","","","","","<p><img src= images/blank.png width =""600"" height = ""600"" style=""position:fixed;top:50%; left:50%; transform: translate(-50%, -50%); border:5px solid black"">","","","","","","","",""
"","251.5750000020489","sequential-stimulus-presentation-old","92","268933","0.0-21.0-1.5","SS1618435657040","trial","","40","500","751.5750000020489","images/stimuli/spore_stims/simple_03_A_b.gif","images/stimuli/spore_stims/simple_01_A_a.gif","self_paced","","6","simple_dissimilar","images/stimuli/spore_stims/simple_01_A_a.gif","","","","",""
"","2766.525000002759","survey-multi-choice","93","271708","0.0-22.0","SS1618435657040","math_question","","","","","","","","","","","","{""Q0"":""12""}","[0]","12","",""
"","null","html-keyboard-response","94","272988","0.0-23.0-0.0","SS1618435657040","","","null","","","","","","<p><img src= images/blank.png width =""600"" height = ""600"" style=""position:fixed;top:50%; left:50%; transform: translate(-50%, -50%); border:5px solid black"">","","","","","","","",""
"","5909.760000002221","sequential-stimulus-presentation-old","95","283908","0.0-23.0-1.0","SS1618435657040","trial","","40","500","6409.760000002221","images/stimuli/spore_stims/simple_17_A_a.gif","images/stimuli/spore_stims/simple_09_A_b.gif","forced_long","","7","simple_dissimilar","images/stimuli/spore_stims/simple_09_A_b.gif","","","","",""
"","null","html-keyboard-response","96","284942","0.0-23.0-0.1","SS1618435657040","","","null","","","","","","<p><img src= images/blank.png width =""600"" height = ""600"" style=""position:fixed;top:50%; left:50%; transform: translate(-50%, -50%); border:5px solid black"">","","","","","","","",""
"","468.4549999983865","sequential-stimulus-presentation-old","97","285918","0.0-23.0-1.1","SS1618435657040","trial","","40","500","968.4549999983865","images/stimuli/spore_stims/simple_17_A_a.gif","images/stimuli/spore_stims/simple_09_A_b.gif","forced_long","","7","simple_dissimilar","images/stimuli/spore_stims/simple_17_A_a.gif","","","","",""
"","null","html-keyboard-response","98","287460","0.0-23.0-0.2","SS1618435657040","","","null","","","","","","<p><img src= images/blank.png width =""600"" height = ""600"" style=""position:fixed;top:50%; left:50%; transform: translate(-50%, -50%); border:5px solid black"">","","","","","","","",""
"","1285.4650000007823","sequential-stimulus-presentation-old","99","289746","0.0-23.0-1.2","SS1618435657040","trial","","40","500","1785.4650000007823","images/stimuli/spore_stims/simple_17_A_a.gif","images/stimuli/spore_stims/simple_09_A_b.gif","forced_long","","7","simple_dissimilar","images/stimuli/spore_stims/simple_09_A_b.gif","","","","",""
"","null","html-keyboard-response","100","290862","0.0-23.0-0.3","SS1618435657040","","","null","","","","","","<p><img src= images/blank.png width =""600"" height = ""600"" style=""position:fixed;top:50%; left:50%; transform: translate(-50%, -50%); border:5px solid black"">","","","","","","","",""
"","1378.3149999980815","sequential-stimulus-presentation-old","101","292753","0.0-23.0-1.3","SS1618435657040","trial","","40","500","1878.3149999980815","images/stimuli/spore_stims/simple_17_A_a.gif","images/stimuli/spore_stims/simple_09_A_b.gif","forced_long","","7","simple_dissimilar","images/stimuli/spore_stims/simple_17_A_a.gif","","","","",""
"","1908.8650000012713","survey-multi-choice","102","294679","0.0-24.0","SS1618435657040","math_question","","","","","","","","","","","","{""Q0"":""6""}","[0]","6","",""
"","null","html-keyboard-response","103","296030","0.0-25.0-0.0","SS1618435657040","","","null","","","","","","<p><img src= images/blank.png width =""600"" height = ""600"" style=""position:fixed;top:50%; left:50%; transform: translate(-50%, -50%); border:5px solid black"">","","","","","","","",""
"","484.1200000009849","sequential-stimulus-presentation-old","104","297019","0.0-25.0-1.0","SS1618435657040","trial","","40","500","984.1200000009849","images/stimuli/spore_stims/complex_13_A_b.gif","images/stimuli/spore_stims/complex_05_A_a.gif","self_paced","","8","complex_dissimilar","images/stimuli/spore_stims/complex_05_A_a.gif","","","","",""
"","null","html-keyboard-response","105","297865","0.0-25.0-0.1","SS1618435657040","","","null","","","","","","<p><img src= images/blank.png width =""600"" height = ""600"" style=""position:fixed;top:50%; left:50%; transform: translate(-50%, -50%); border:5px solid black"">","","","","","","","",""
"","477.97999999969034","sequential-stimulus-presentation-old","106","298852","0.0-25.0-1.1","SS1618435657040","trial","","40","500","977.9799999996903","images/stimuli/spore_stims/complex_13_A_b.gif","images/stimuli/spore_stims/complex_05_A_a.gif","self_paced","","8","complex_dissimilar","images/stimuli/spore_stims/complex_05_A_a.gif","","","","",""
"","null","html-keyboard-response","107","299717","0.0-25.0-0.2","SS1618435657040","","","null","","","","","","<p><img src= images/blank.png width =""600"" height = ""600"" style=""position:fixed;top:50%; left:50%; transform: translate(-50%, -50%); border:5px solid black"">","","","","","","","",""
"","185.93999999936204","sequential-stimulus-presentation-old","108","300415","0.0-25.0-1.2","SS1618435657040","trial","","40","500","685.939999999362","images/stimuli/spore_stims/complex_13_A_b.gif","images/stimuli/spore_stims/complex_05_A_a.gif","self_paced","","8","complex_dissimilar","images/stimuli/spore_stims/complex_13_A_b.gif","","","","",""
"","null","html-keyboard-response","109","301318","0.0-25.0-0.3","SS1618435657040","","","null","","","","","","<p><img src= images/blank.png width =""600"" height = ""600"" style=""position:fixed;top:50%; left:50%; transform: translate(-50%, -50%); border:5px solid black"">","","","","","","","",""
"","2019.1449999983888","sequential-stimulus-presentation-old","110","303848","0.0-25.0-1.3","SS1618435657040","trial","","40","500","2519.144999998389","images/stimuli/spore_stims/complex_13_A_b.gif","images/stimuli/spore_stims/complex_05_A_a.gif","self_paced","","8","complex_dissimilar","images/stimuli/spore_stims/complex_05_A_a.gif","","","","",""
"","null","html-keyboard-response","111","304888","0.0-25.0-0.4","SS1618435657040","","","null","","","","","","<p><img src= images/blank.png width =""600"" height = ""600"" style=""position:fixed;top:50%; left:50%; transform: translate(-50%, -50%); border:5px solid black"">","","","","","","","",""
"","1562.7500000009895","sequential-stimulus-presentation-old","112","306961","0.0-25.0-1.4","SS1618435657040","trial","","40","500","2062.7500000009895","images/stimuli/spore_stims/complex_13_A_b.gif","images/stimuli/spore_stims/complex_05_A_a.gif","self_paced","","8","complex_dissimilar","images/stimuli/spore_stims/complex_13_A_b.gif","","","","",""
"","15521.615000001504","survey-multi-choice","113","322492","0.0-26.0","SS1618435657040","math_question","","","","","","","","","","","","{""Q0"":""16""}","[0]","16","",""
"","null","html-keyboard-response","114","323381","0.0-27.0-0.0","SS1618435657040","","","null","","","","","","<p><img src= images/blank.png width =""600"" height = ""600"" style=""position:fixed;top:50%; left:50%; transform: translate(-50%, -50%); border:5px solid black"">","","","","","","","",""
"","1499.2900000034133","sequential-stimulus-presentation-old","115","324942","0.0-27.0-1.0","SS1618435657040","trial","","40","500","1999.2900000034133","images/stimuli/spore_stims/simple_06_A_a.gif","images/stimuli/spore_stims/simple_08_A_b.gif","forced_short","","9","simple_dissimilar","images/stimuli/spore_stims/simple_08_A_b.gif","","","","",""
"","null","html-keyboard-response","116","325926","0.0-27.0-0.1","SS1618435657040","","","null","","","","","","<p><img src= images/blank.png width =""600"" height = ""600"" style=""position:fixed;top:50%; left:50%; transform: translate(-50%, -50%); border:5px solid black"">","","","","","","","",""
"","751.9049999973504","sequential-stimulus-presentation-old","117","327189","0.0-27.0-1.1","SS1618435657040","trial","","40","500","1251.9049999973504","images/stimuli/spore_stims/simple_06_A_a.gif","images/stimuli/spore_stims/simple_08_A_b.gif","forced_short","","9","simple_dissimilar","images/stimuli/spore_stims/simple_06_A_a.gif","","","","",""
"","null","html-keyboard-response","118","328460","0.0-27.0-0.2","SS1618435657040","","","null","","","","","","<p><img src= images/blank.png width =""600"" height = ""600"" style=""position:fixed;top:50%; left:50%; transform: translate(-50%, -50%); border:5px solid black"">","","","","","","","",""
"","1868.2450000014505","sequential-stimulus-presentation-old","119","330875","0.0-27.0-1.2","SS1618435657040","trial","","40","500","2368.2450000014505","images/stimuli/spore_stims/simple_06_A_a.gif","images/stimuli/spore_stims/simple_08_A_b.gif","forced_short","","9","simple_dissimilar","images/stimuli/spore_stims/simple_06_A_a.gif","","","","",""
"","null","html-keyboard-response","120","332087","0.0-27.0-0.3","SS1618435657040","","","null","","","","","","<p><img src= images/blank.png width =""600"" height = ""600"" style=""position:fixed;top:50%; left:50%; transform: translate(-50%, -50%); border:5px solid black"">","","","","","","","",""
"","459.34499999927357","sequential-stimulus-presentation-old","121","333056","0.0-27.0-1.3","SS1618435657040","trial","","40","500","959.3449999992736","images/stimuli/spore_stims/simple_06_A_a.gif","images/stimuli/spore_stims/simple_08_A_b.gif","forced_short","","9","simple_dissimilar","images/stimuli/spore_stims/simple_08_A_b.gif","","","","",""
"","4627.229999998235","survey-multi-choice","122","337692","0.0-28.0","SS1618435657040","math_question","","","","","","","","","","","","{""Q0"":""11""}","[0]","11","",""
"","null","html-keyboard-response","123","339335","0.0-29.0-0.0","SS1618435657040","","","null","","","","","","<p><img src= images/blank.png width =""600"" height = ""600"" style=""position:fixed;top:50%; left:50%; transform: translate(-50%, -50%); border:5px solid black"">","","","","","","","",""
"","959.0399999979418","sequential-stimulus-presentation-old","124","340801","0.0-29.0-1.0","SS1618435657040","trial","","40","500","1459.0399999979418","images/stimuli/spore_stims/simple_17_A_b.gif","images/stimuli/spore_stims/simple_20_A_a.gif","self_paced","","10","simple_dissimilar","images/stimuli/spore_stims/simple_20_A_a.gif","","","","",""
"","null","html-keyboard-response","125","341700","0.0-29.0-0.1","SS1618435657040","","","null","","","","","","<p><img src= images/blank.png width =""600"" height = ""600"" style=""position:fixed;top:50%; left:50%; transform: translate(-50%, -50%); border:5px solid black"">","","","","","","","",""
"","1363.984999999986","sequential-stimulus-presentation-old","126","343573","0.0-29.0-1.1","SS1618435657040","trial","","40","500","1863.984999999986","images/stimuli/spore_stims/simple_17_A_b.gif","images/stimuli/spore_stims/simple_20_A_a.gif","self_paced","","10","simple_dissimilar","images/stimuli/spore_stims/simple_20_A_a.gif","","","","",""
"","null","html-keyboard-response","127","344852","0.0-29.0-0.2","SS1618435657040","","","null","","","","","","<p><img src= images/blank.png width =""600"" height = ""600"" style=""position:fixed;top:50%; left:50%; transform: translate(-50%, -50%); border:5px solid black"">","","","","","","","",""
"","1333.8599999988219","sequential-stimulus-presentation-old","128","346698","0.0-29.0-1.2","SS1618435657040","trial","","40","500","1833.8599999988219","images/stimuli/spore_stims/simple_17_A_b.gif","images/stimuli/spore_stims/simple_20_A_a.gif","self_paced","","10","simple_dissimilar","images/stimuli/spore_stims/simple_20_A_a.gif","","","","",""
"","null","html-keyboard-response","129","347852","0.0-29.0-0.3","SS1618435657040","","","null","","","","","","<p><img src= images/blank.png width =""600"" height = ""600"" style=""position:fixed;top:50%; left:50%; transform: translate(-50%, -50%); border:5px solid black"">","","","","","","","",""
"","1089.749999999185","sequential-stimulus-presentation-old","130","349447","0.0-29.0-1.3","SS1618435657040","trial","","40","500","1589.749999999185","images/stimuli/spore_stims/simple_17_A_b.gif","images/stimuli/spore_stims/simple_20_A_a.gif","self_paced","","10","simple_dissimilar","images/stimuli/spore_stims/simple_20_A_a.gif","","","","",""
"","null","html-keyboard-response","131","350543","0.0-29.0-0.4","SS1618435657040","","","null","","","","","","<p><img src= images/blank.png width =""600"" height = ""600"" style=""position:fixed;top:50%; left:50%; transform: translate(-50%, -50%); border:5px solid black"">","","","","","","","",""
"","1098.0850000014761","sequential-stimulus-presentation-old","132","352151","0.0-29.0-1.4","SS1618435657040","trial","","40","500","1598.0850000014761","images/stimuli/spore_stims/simple_17_A_b.gif","images/stimuli/spore_stims/simple_20_A_a.gif","self_paced","","10","simple_dissimilar","images/stimuli/spore_stims/simple_20_A_a.gif","","","","",""
"","null","html-keyboard-response","133","353122","0.0-29.0-0.5","SS1618435657040","","","null","","","","","","<p><img src= images/blank.png width =""600"" height = ""600"" style=""position:fixed;top:50%; left:50%; transform: translate(-50%, -50%); border:5px solid black"">","","","","","","","",""
"","903.1400000022259","sequential-stimulus-presentation-old","134","354535","0.0-29.0-1.5","SS1618435657040","trial","","40","500","1403.1400000022259","images/stimuli/spore_stims/simple_17_A_b.gif","images/stimuli/spore_stims/simple_20_A_a.gif","self_paced","","10","simple_dissimilar","images/stimuli/spore_stims/simple_20_A_a.gif","","","","",""
"","1921.8550000005635","survey-multi-choice","135","356466","0.0-30.0","SS1618435657040","math_question","","","","","","","","","","","","{""Q0"":""10""}","[0]","10","",""
"","null","html-keyboard-response","136","357720","0.0-31.0-0.0","SS1618435657040","","","null","","","","","","<p><img src= images/blank.png width =""600"" height = ""600"" style=""position:fixed;top:50%; left:50%; transform: translate(-50%, -50%); border:5px solid black"">","","","","","","","",""
"","1077.3200000003562","sequential-stimulus-presentation-old","137","358859","0.0-31.0-1.0","SS1618435657040","trial","","40","500","1577.3200000003562","images/stimuli/spore_stims/complex_08_A_a.gif","images/stimuli/spore_stims/complex_16_A_b.gif","forced_short","","11","complex_dissimilar","images/stimuli/spore_stims/complex_16_A_b.gif","","","","",""
"","null","html-keyboard-response","138","359887","0.0-31.0-0.1","SS1618435657040","","","null","","","","","","<p><img src= images/blank.png width =""600"" height = ""600"" style=""position:fixed;top:50%; left:50%; transform: translate(-50%, -50%); border:5px solid black"">","","","","","","","",""
"","1065.2699999991455","sequential-stimulus-presentation-old","139","361463","0.0-31.0-1.1","SS1618435657040","trial","","40","500","1565.2699999991455","images/stimuli/spore_stims/complex_08_A_a.gif","images/stimuli/spore_stims/complex_16_A_b.gif","forced_short","","11","complex_dissimilar","images/stimuli/spore_stims/complex_16_A_b.gif","","","","",""
"","null","html-keyboard-response","140","362590","0.0-31.0-0.2","SS1618435657040","","","null","","","","","","<p><img src= images/blank.png width =""600"" height = ""600"" style=""position:fixed;top:50%; left:50%; transform: translate(-50%, -50%); border:5px solid black"">","","","","","","","",""
"","845.4749999982305","sequential-stimulus-presentation-old","141","363947","0.0-31.0-1.2","SS1618435657040","trial","","40","500","1345.4749999982305","images/stimuli/spore_stims/complex_08_A_a.gif","images/stimuli/spore_stims/complex_16_A_b.gif","forced_short","","11","complex_dissimilar","images/stimuli/spore_stims/complex_16_A_b.gif","","","","",""
"","null","html-keyboard-response","142","364763","0.0-31.0-0.3","SS1618435657040","","","null","","","","","","<p><img src= images/blank.png width =""600"" height = ""600"" style=""position:fixed;top:50%; left:50%; transform: translate(-50%, -50%); border:5px solid black"">","","","","","","","",""
"","1146.8099999983679","sequential-stimulus-presentation-old","143","366420","0.0-31.0-1.3","SS1618435657040","trial","","40","500","1646.8099999983679","images/stimuli/spore_stims/complex_08_A_a.gif","images/stimuli/spore_stims/complex_16_A_b.gif","forced_short","","11","complex_dissimilar","images/stimuli/spore_stims/complex_16_A_b.gif","","","","",""
"","null","html-keyboard-response","144","367272","0.0-31.0-0.4","SS1618435657040","","","null","","","","","","<p><img src= images/blank.png width =""600"" height = ""600"" style=""position:fixed;top:50%; left:50%; transform: translate(-50%, -50%); border:5px solid black"">","","","","","","","",""
"","1185.044999998354","sequential-stimulus-presentation-old","145","368968","0.0-31.0-1.4","SS1618435657040","trial","","40","500","1685.044999998354","images/stimuli/spore_stims/complex_08_A_a.gif","images/stimuli/spore_stims/complex_16_A_b.gif","forced_short","","11","complex_dissimilar","images/stimuli/spore_stims/complex_16_A_b.gif","","","","",""
"[{""page_index"":0,""viewing_time"":3302.6500000014785}]","3303.4950000001118","instructions","146","372278","0.0-32.0","SS1618435657040","instructions","","","","","","","","","","","","","","","",""
"","10470.81999999861","survey-likert","147","382762","0.0-33.0","SS1618435657040","similarity_question","","","","","","","","","","","","{""Q0"":2}","[0]","","images/stimuli/spore_stims/complex_03_A_b.gif","images/stimuli/spore_stims/complex_17_A_a.gif"
"","5070.820000000822","survey-likert","148","387858","0.0-34.0","SS1618435657040","similarity_question","","","","","","","","","","","","{""Q0"":4}","[0]","","images/stimuli/spore_stims/complex_19_A_a.gif","images/stimuli/spore_stims/complex_02_A_b.gif"
"","5524.67500000057","survey-likert","149","393409","0.0-35.0","SS1618435657040","similarity_question","","","","","","","","","","","","{""Q0"":2}","[0]","","images/stimuli/spore_stims/complex_03_A_a.gif","images/stimuli/spore_stims/complex_01_A_b.gif"
"","7604.380000000645","survey-likert","150","401044","0.0-36.0","SS1618435657040","similarity_question","","","","","","","","","","","","{""Q0"":5}","[0]","","images/stimuli/spore_stims/simple_09_A_b.gif","images/stimuli/spore_stims/simple_17_A_a.gif"
"","1895.040000003064","survey-likert","151","402963","0.0-37.0","SS1618435657040","similarity_question","","","","","","","","","","","","{""Q0"":5}","[0]","","images/stimuli/spore_stims/simple_05_A_b.gif","images/stimuli/spore_stims/simple_19_A_a.gif"
"","3501.765000000887","survey-likert","152","406493","0.0-38.0","SS1618435657040","similarity_question","","","","","","","","","","","","{""Q0"":5}","[0]","","images/stimuli/spore_stims/simple_17_A_b.gif","images/stimuli/spore_stims/simple_20_A_a.gif"
"","5392.714999998105","survey-likert","153","411908","0.0-39.0","SS1618435657040","similarity_question","","","","","","","","","","","","{""Q0"":2}","[0]","","images/stimuli/spore_stims/complex_05_A_a.gif","images/stimuli/spore_stims/complex_13_A_b.gif"
"","3895.7550000013434","survey-likert","154","415829","0.0-40.0","SS1618435657040","similarity_question","","","","","","","","","","","","{""Q0"":4}","[0]","","images/stimuli/spore_stims/complex_16_A_b.gif","images/stimuli/spore_stims/complex_08_A_a.gif"
"","2747.244999998715","survey-likert","155","418601","0.0-41.0","SS1618435657040","similarity_question","","","","","","","","","","","","{""Q0"":5}","[0]","","images/stimuli/spore_stims/simple_01_A_a.gif","images/stimuli/spore_stims/simple_03_A_b.gif"
"","5305.465000001306","survey-likert","156","423927","0.0-42.0","SS1618435657040","similarity_question","","","","","","","","","","","","{""Q0"":4}","[0]","","images/stimuli/spore_stims/complex_12_A_b.gif","images/stimuli/spore_stims/complex_06_A_a.gif"
"","2638.315000000177","survey-likert","157","426590","0.0-43.0","SS1618435657040","similarity_question","","","","","","","","","","","","{""Q0"":5}","[0]","","images/stimuli/spore_stims/simple_19_A_b.gif","images/stimuli/spore_stims/simple_11_A_a.gif"
"","2458.0750000022817","survey-likert","158","429074","0.0-44.0","SS1618435657040","similarity_question","","","","","","","","","","","","{""Q0"":6}","[0]","","images/stimuli/spore_stims/simple_08_A_b.gif","images/stimuli/spore_stims/simple_06_A_a.gif"
"[{""page_index"":0,""viewing_time"":2949.545000003185}]","2950.315000001923","instructions","159","432047","0.0-45.0","SS1618435657040","instructions","","","","","","","","","","","","","","","",""
"","2800.374999998894","survey-likert","160","434859","0.0-46.0","SS1618435657040","","","","","","","","","images/stimuli/spore_stims/simple_03_A_b.gif","","","","{""Q0"":1}","[0]","","",""
"","1635.565000000468","survey-likert","161","436518","0.0-47.0","SS1618435657040","","","","","","","","","images/stimuli/spore_stims/simple_17_A_b.gif","","","","{""Q0"":1}","[0]","","",""
"","1242.1549999999115","survey-likert","162","437784","0.0-48.0","SS1618435657040","","","","","","","","","images/stimuli/spore_stims/simple_17_A_a.gif","","","","{""Q0"":1}","[0]","","",""
"","2941.6149999996996","survey-likert","163","440748","0.0-49.0","SS1618435657040","","","","","","","","","images/stimuli/spore_stims/complex_02_A_b.gif","","","","{""Q0"":4}","[0]","","",""
"","2682.039999999688","survey-likert","164","443454","0.0-50.0","SS1618435657040","","","","","","","","","images/stimuli/spore_stims/complex_16_A_b.gif","","","","{""Q0"":5}","[0]","","",""
"","2816.0749999988475","survey-likert","165","446296","0.0-51.0","SS1618435657040","","","","","","","","","images/stimuli/spore_stims/simple_06_A_a.gif","","","","{""Q0"":1}","[0]","","",""
"","2011.4150000008522","survey-likert","166","448333","0.0-52.0","SS1618435657040","","","","","","","","","images/stimuli/spore_stims/complex_17_A_a.gif","","","","{""Q0"":5}","[0]","","",""
"","1892.4450000012876","survey-likert","167","450251","0.0-53.0","SS1618435657040","","","","","","","","","images/stimuli/spore_stims/simple_05_A_b.gif","","","","{""Q0"":1}","[0]","","",""
"","1687.0699999999488","survey-likert","168","451967","0.0-54.0","SS1618435657040","","","","","","","","","images/stimuli/spore_stims/complex_05_A_a.gif","","","","{""Q0"":5}","[0]","","",""
"","1924.699999999546","survey-likert","169","453917","0.0-55.0","SS1618435657040","","","","","","","","","images/stimuli/spore_stims/complex_03_A_a.gif","","","","{""Q0"":5}","[0]","","",""
"","1683.504999997269","survey-likert","170","455626","0.0-56.0","SS1618435657040","","","","","","","","","images/stimuli/spore_stims/complex_12_A_b.gif","","","","{""Q0"":5}","[0]","","",""
"","1853.9750000017812","survey-likert","171","457505","0.0-57.0","SS1618435657040","","","","","","","","","images/stimuli/spore_stims/simple_19_A_b.gif","","","","{""Q0"":1}","[0]","","",""
"[{""page_index"":0,""viewing_time"":1878.1600000002654}]","1878.9450000004144","instructions","172","459407","0.0-58.0","SS1618435657040","instructions","","","","","","","","","","","","","","","",""
"","3856.8449999984005","demog-age","173","463282","0.0-59.0","SS1618435657040","","","","","","","","","","","","","{""age"":""18""}","","","",""
"","4064.65499999834","demog-ethnic-US","174","467365","0.0-60.0","SS1618435657040","","","","","","","","","","","","","{""ethnicity"":[""White""]}","[0]","","",""
"","4407.670000000508","demog-gender-and-education","175","471795","0.0-61.0","SS1618435657040","","","","","","","","","","","","","{""gender"":""Male"",""education"":""High school diploma""}","[0,1]","","",""
"","17140.349999997823","survey-text","176","488962","0.0-62.0","SS1618435657040","feedback","","","","","","","","","","","","{""Q0"":""No issue. Experiment was pretty smooth""}","","","",""
"[{""page_index"":0,""viewing_time"":1784.9300000016228}]","1785.7850000000326","instructions","177","490757","0.0-63.0","SS1618435657040","instructions","","","","","","","","","","","","","","","",""
