"view_history","rt","trial_type","trial_index","time_elapsed","internal_node_id","subject","stimulus_type","trial_stimulus","key_press","minimum_viewing_duration","trial_looking_time","block_deviant","block_background","exposure_type","stimulus","block_number","block_type","stimulus_displayed","responses","question_order","math_correct_answer","stimulus_left","stimulus_right"
"[{""page_index"":0,""viewing_time"":5890.400000003865}]","5891.179999998712","instructions","0","5892","0.0-0.0","SS1618435823438","","","","","","","","","","","","","","","","",""
"[{""page_index"":0,""viewing_time"":4506.7850000050385},{""page_index"":1,""viewing_time"":12179.969999997411}]","16687.06999999995","instructions","1","24581","0.0-1.0","SS1618435823438","instructions","","","","","","","","","","","","","","","",""
"","6597.134999996342","sequential-stimulus-presentation-old","2","31682","0.0-2.0","SS1618435823438","","","40","500","7097.134999996342","null","null","self_paced","","","","","","","","",""
"","8789.3849999964","sequential-stimulus-presentation-old","3","40974","0.0-3.0","SS1618435823438","","","40","500","9289.3849999964","null","null","self_paced","","","","","","","","",""
"[{""page_index"":0,""viewing_time"":20704.795000005106}]","20705.03500000632","instructions","4","61680","0.0-4.0","SS1618435823438","instructions","","","","","","","","","","","","","","","",""
"","2129.52999999834","sequential-stimulus-presentation-old","5","68812","0.0-5.0","SS1618435823438","","","40","500","2629.52999999834","null","null","forced_long","","","","","","","","",""
"","4344.94000000268","sequential-stimulus-presentation-old","6","73209","0.0-6.0","SS1618435823438","","","40","50","4394.94000000268","null","null","forced_long","","","","","","","","",""
"[{""page_index"":0,""viewing_time"":4814.4199999951525}]","4814.650000000256","instructions","7","78025","0.0-7.0","SS1618435823438","instructions","","","","","","","","","","","","","","","",""
"[{""page_index"":0,""viewing_time"":8258.880000001227},{""page_index"":1,""viewing_time"":10851.930000004359},{""page_index"":2,""viewing_time"":4082.9799999992247},{""page_index"":3,""viewing_time"":1442.0499999978347},{""page_index"":4,""viewing_time"":948.1900000027963}]","25584.360000000743","instructions","8","103610","0.0-8.0","SS1618435823438","instructions","","","","","","","","","","","","","","","",""
"","null","html-keyboard-response","9","104587","0.0-9.0-0.0","SS1618435823438","","","null","","","","","","<p><img src= images/blank.png width =""600"" height = ""600"" style=""position:fixed;top:50%; left:50%; transform: translate(-50%, -50%); border:5px solid black"">","","","","","","","",""
"","6827.230000002601","sequential-stimulus-presentation-old","10","111920","0.0-9.0-1.0","SS1618435823438","trial","","40","500","7327.230000002601","images/stimuli/spore_stims/complex_11_A_b.gif","images/stimuli/spore_stims/complex_05_A_a.gif","self_paced","","0","complex_dissimilar","images/stimuli/spore_stims/complex_05_A_a.gif","","","","",""
"","null","html-keyboard-response","11","112954","0.0-9.0-0.1","SS1618435823438","","","null","","","","","","<p><img src= images/blank.png width =""600"" height = ""600"" style=""position:fixed;top:50%; left:50%; transform: translate(-50%, -50%); border:5px solid black"">","","","","","","","",""
"","7458.700000002864","sequential-stimulus-presentation-old","12","120917","0.0-9.0-1.1","SS1618435823438","trial","","40","500","7958.700000002864","images/stimuli/spore_stims/complex_11_A_b.gif","images/stimuli/spore_stims/complex_05_A_a.gif","self_paced","","0","complex_dissimilar","images/stimuli/spore_stims/complex_05_A_a.gif","","","","",""
"","null","html-keyboard-response","13","121871","0.0-9.0-0.2","SS1618435823438","","","null","","","","","","<p><img src= images/blank.png width =""600"" height = ""600"" style=""position:fixed;top:50%; left:50%; transform: translate(-50%, -50%); border:5px solid black"">","","","","","","","",""
"","10671.540000003006","sequential-stimulus-presentation-old","14","133047","0.0-9.0-1.2","SS1618435823438","trial","","40","500","11171.540000003006","images/stimuli/spore_stims/complex_11_A_b.gif","images/stimuli/spore_stims/complex_05_A_a.gif","self_paced","","0","complex_dissimilar","images/stimuli/spore_stims/complex_05_A_a.gif","","","","",""
"","null","html-keyboard-response","15","133972","0.0-9.0-0.3","SS1618435823438","","","null","","","","","","<p><img src= images/blank.png width =""600"" height = ""600"" style=""position:fixed;top:50%; left:50%; transform: translate(-50%, -50%); border:5px solid black"">","","","","","","","",""
"","11585.319999998319","sequential-stimulus-presentation-old","16","146063","0.0-9.0-1.3","SS1618435823438","trial","","40","500","12085.319999998319","images/stimuli/spore_stims/complex_11_A_b.gif","images/stimuli/spore_stims/complex_05_A_a.gif","self_paced","","0","complex_dissimilar","images/stimuli/spore_stims/complex_05_A_a.gif","","","","",""
"","4558.680000001914","survey-multi-choice","17","150624","0.0-10.0","SS1618435823438","math_question","","","","","","","","","","","","{""Q0"":""14""}","[0]","14","",""
"","null","html-keyboard-response","18","151668","0.0-11.0-0.0","SS1618435823438","","","null","","","","","","<p><img src= images/blank.png width =""600"" height = ""600"" style=""position:fixed;top:50%; left:50%; transform: translate(-50%, -50%); border:5px solid black"">","","","","","","","",""
"","1533.899999994901","sequential-stimulus-presentation-old","19","158206","0.0-11.0-1.0","SS1618435823438","trial","","40","500","2033.899999994901","images/stimuli/spore_stims/simple_04_A_a.gif","images/stimuli/spore_stims/simple_10_A_b.gif","forced_long","","1","simple_dissimilar","images/stimuli/spore_stims/simple_10_A_b.gif","","","","",""
"","null","html-keyboard-response","20","159367","0.0-11.0-0.1","SS1618435823438","","","null","","","","","","<p><img src= images/blank.png width =""600"" height = ""600"" style=""position:fixed;top:50%; left:50%; transform: translate(-50%, -50%); border:5px solid black"">","","","","","","","",""
"","16584.58999999857","sequential-stimulus-presentation-old","21","176455","0.0-11.0-1.1","SS1618435823438","trial","","40","500","17084.58999999857","images/stimuli/spore_stims/simple_04_A_a.gif","images/stimuli/spore_stims/simple_10_A_b.gif","forced_long","","1","simple_dissimilar","images/stimuli/spore_stims/simple_10_A_b.gif","","","","",""
"","null","html-keyboard-response","22","177712","0.0-11.0-0.2","SS1618435823438","","","null","","","","","","<p><img src= images/blank.png width =""600"" height = ""600"" style=""position:fixed;top:50%; left:50%; transform: translate(-50%, -50%); border:5px solid black"">","","","","","","","",""
"","9936.600000000908","sequential-stimulus-presentation-old","23","188152","0.0-11.0-1.2","SS1618435823438","trial","","40","500","10436.600000000908","images/stimuli/spore_stims/simple_04_A_a.gif","images/stimuli/spore_stims/simple_10_A_b.gif","forced_long","","1","simple_dissimilar","images/stimuli/spore_stims/simple_10_A_b.gif","","","","",""
"","null","html-keyboard-response","24","189174","0.0-11.0-0.3","SS1618435823438","","","null","","","","","","<p><img src= images/blank.png width =""600"" height = ""600"" style=""position:fixed;top:50%; left:50%; transform: translate(-50%, -50%); border:5px solid black"">","","","","","","","",""
"","4884.94499999797","sequential-stimulus-presentation-old","25","194564","0.0-11.0-1.3","SS1618435823438","trial","","40","500","5384.94499999797","images/stimuli/spore_stims/simple_04_A_a.gif","images/stimuli/spore_stims/simple_10_A_b.gif","forced_long","","1","simple_dissimilar","images/stimuli/spore_stims/simple_04_A_a.gif","","","","",""
"","null","html-keyboard-response","26","195586","0.0-11.0-0.4","SS1618435823438","","","null","","","","","","<p><img src= images/blank.png width =""600"" height = ""600"" style=""position:fixed;top:50%; left:50%; transform: translate(-50%, -50%); border:5px solid black"">","","","","","","","",""
"","5342.795000004116","sequential-stimulus-presentation-old","27","201434","0.0-11.0-1.4","SS1618435823438","trial","","40","500","5842.795000004116","images/stimuli/spore_stims/simple_04_A_a.gif","images/stimuli/spore_stims/simple_10_A_b.gif","forced_long","","1","simple_dissimilar","images/stimuli/spore_stims/simple_04_A_a.gif","","","","",""
"","null","html-keyboard-response","28","202412","0.0-11.0-0.5","SS1618435823438","","","null","","","","","","<p><img src= images/blank.png width =""600"" height = ""600"" style=""position:fixed;top:50%; left:50%; transform: translate(-50%, -50%); border:5px solid black"">","","","","","","","",""
"","10243.959999999788","sequential-stimulus-presentation-old","29","213161","0.0-11.0-1.5","SS1618435823438","trial","","40","500","10743.959999999788","images/stimuli/spore_stims/simple_04_A_a.gif","images/stimuli/spore_stims/simple_10_A_b.gif","forced_long","","1","simple_dissimilar","images/stimuli/spore_stims/simple_10_A_b.gif","","","","",""
"","4832.519999996293","survey-multi-choice","30","217995","0.0-12.0","SS1618435823438","math_question","","","","","","","","","","","","{""Q0"":""14""}","[0]","14","",""
"","null","html-keyboard-response","31","219080","0.0-13.0-0.0","SS1618435823438","","","null","","","","","","<p><img src= images/blank.png width =""600"" height = ""600"" style=""position:fixed;top:50%; left:50%; transform: translate(-50%, -50%); border:5px solid black"">","","","","","","","",""
"","7731.764999996813","sequential-stimulus-presentation-old","32","227317","0.0-13.0-1.0","SS1618435823438","trial","","40","500","8231.764999996813","images/stimuli/spore_stims/complex_13_A_a.gif","images/stimuli/spore_stims/complex_16_A_b.gif","self_paced","","2","complex_dissimilar","images/stimuli/spore_stims/complex_16_A_b.gif","","","","",""
"","null","html-keyboard-response","33","228573","0.0-13.0-0.1","SS1618435823438","","","null","","","","","","<p><img src= images/blank.png width =""600"" height = ""600"" style=""position:fixed;top:50%; left:50%; transform: translate(-50%, -50%); border:5px solid black"">","","","","","","","",""
"","6653.1099999992875","sequential-stimulus-presentation-old","34","235731","0.0-13.0-1.1","SS1618435823438","trial","","40","500","7153.1099999992875","images/stimuli/spore_stims/complex_13_A_a.gif","images/stimuli/spore_stims/complex_16_A_b.gif","self_paced","","2","complex_dissimilar","images/stimuli/spore_stims/complex_16_A_b.gif","","","","",""
"","null","html-keyboard-response","35","236725","0.0-13.0-0.2","SS1618435823438","","","null","","","","","","<p><img src= images/blank.png width =""600"" height = ""600"" style=""position:fixed;top:50%; left:50%; transform: translate(-50%, -50%); border:5px solid black"">","","","","","","","",""
"","6689.554999997199","sequential-stimulus-presentation-old","36","243919","0.0-13.0-1.2","SS1618435823438","trial","","40","500","7189.554999997199","images/stimuli/spore_stims/complex_13_A_a.gif","images/stimuli/spore_stims/complex_16_A_b.gif","self_paced","","2","complex_dissimilar","images/stimuli/spore_stims/complex_16_A_b.gif","","","","",""
"","null","html-keyboard-response","37","245220","0.0-13.0-0.3","SS1618435823438","","","null","","","","","","<p><img src= images/blank.png width =""600"" height = ""600"" style=""position:fixed;top:50%; left:50%; transform: translate(-50%, -50%); border:5px solid black"">","","","","","","","",""
"","7147.870000000694","sequential-stimulus-presentation-old","38","252872","0.0-13.0-1.3","SS1618435823438","trial","","40","500","7647.870000000694","images/stimuli/spore_stims/complex_13_A_a.gif","images/stimuli/spore_stims/complex_16_A_b.gif","self_paced","","2","complex_dissimilar","images/stimuli/spore_stims/complex_16_A_b.gif","","","","",""
"","null","html-keyboard-response","39","254065","0.0-13.0-0.4","SS1618435823438","","","null","","","","","","<p><img src= images/blank.png width =""600"" height = ""600"" style=""position:fixed;top:50%; left:50%; transform: translate(-50%, -50%); border:5px solid black"">","","","","","","","",""
"","5777.464999999211","sequential-stimulus-presentation-old","40","260348","0.0-13.0-1.4","SS1618435823438","trial","","40","500","6277.464999999211","images/stimuli/spore_stims/complex_13_A_a.gif","images/stimuli/spore_stims/complex_16_A_b.gif","self_paced","","2","complex_dissimilar","images/stimuli/spore_stims/complex_16_A_b.gif","","","","",""
"","3518.000000003667","survey-multi-choice","41","263869","0.0-14.0","SS1618435823438","math_question","","","","","","","","","","","","{""Q0"":""5""}","[0]","5","",""
"","null","html-keyboard-response","42","265000","0.0-15.0-0.0","SS1618435823438","","","null","","","","","","<p><img src= images/blank.png width =""600"" height = ""600"" style=""position:fixed;top:50%; left:50%; transform: translate(-50%, -50%); border:5px solid black"">","","","","","","","",""
"","2404.5849999965867","sequential-stimulus-presentation-old","43","267459","0.0-15.0-1.0","SS1618435823438","trial","","40","500","2904.5849999965867","images/stimuli/spore_stims/simple_14_A_a.gif","images/stimuli/spore_stims/simple_06_A_b.gif","forced_short","","3","simple_dissimilar","images/stimuli/spore_stims/simple_06_A_b.gif","","","","",""
"","null","html-keyboard-response","44","268354","0.0-15.0-0.1","SS1618435823438","","","null","","","","","","<p><img src= images/blank.png width =""600"" height = ""600"" style=""position:fixed;top:50%; left:50%; transform: translate(-50%, -50%); border:5px solid black"">","","","","","","","",""
"","3884.08999999956","sequential-stimulus-presentation-old","45","272744","0.0-15.0-1.1","SS1618435823438","trial","","40","500","4384.08999999956","images/stimuli/spore_stims/simple_14_A_a.gif","images/stimuli/spore_stims/simple_06_A_b.gif","forced_short","","3","simple_dissimilar","images/stimuli/spore_stims/simple_06_A_b.gif","","","","",""
"","null","html-keyboard-response","46","273819","0.0-15.0-0.2","SS1618435823438","","","null","","","","","","<p><img src= images/blank.png width =""600"" height = ""600"" style=""position:fixed;top:50%; left:50%; transform: translate(-50%, -50%); border:5px solid black"">","","","","","","","",""
"","3063.640000000305","sequential-stimulus-presentation-old","47","277388","0.0-15.0-1.2","SS1618435823438","trial","","40","500","3563.640000000305","images/stimuli/spore_stims/simple_14_A_a.gif","images/stimuli/spore_stims/simple_06_A_b.gif","forced_short","","3","simple_dissimilar","images/stimuli/spore_stims/simple_06_A_b.gif","","","","",""
"","null","html-keyboard-response","48","278597","0.0-15.0-0.3","SS1618435823438","","","null","","","","","","<p><img src= images/blank.png width =""600"" height = ""600"" style=""position:fixed;top:50%; left:50%; transform: translate(-50%, -50%); border:5px solid black"">","","","","","","","",""
"","2980.569999999716","sequential-stimulus-presentation-old","49","282083","0.0-15.0-1.3","SS1618435823438","trial","","40","500","3480.569999999716","images/stimuli/spore_stims/simple_14_A_a.gif","images/stimuli/spore_stims/simple_06_A_b.gif","forced_short","","3","simple_dissimilar","images/stimuli/spore_stims/simple_06_A_b.gif","","","","",""
"","null","html-keyboard-response","50","282903","0.0-15.0-0.4","SS1618435823438","","","null","","","","","","<p><img src= images/blank.png width =""600"" height = ""600"" style=""position:fixed;top:50%; left:50%; transform: translate(-50%, -50%); border:5px solid black"">","","","","","","","",""
"","4116.96999999549","sequential-stimulus-presentation-old","51","287526","0.0-15.0-1.4","SS1618435823438","trial","","40","500","4616.96999999549","images/stimuli/spore_stims/simple_14_A_a.gif","images/stimuli/spore_stims/simple_06_A_b.gif","forced_short","","3","simple_dissimilar","images/stimuli/spore_stims/simple_06_A_b.gif","","","","",""
"","null","html-keyboard-response","52","288633","0.0-15.0-0.5","SS1618435823438","","","null","","","","","","<p><img src= images/blank.png width =""600"" height = ""600"" style=""position:fixed;top:50%; left:50%; transform: translate(-50%, -50%); border:5px solid black"">","","","","","","","",""
"","3012.0499999975436","sequential-stimulus-presentation-old","53","292150","0.0-15.0-1.5","SS1618435823438","trial","","40","500","3512.0499999975436","images/stimuli/spore_stims/simple_14_A_a.gif","images/stimuli/spore_stims/simple_06_A_b.gif","forced_short","","3","simple_dissimilar","images/stimuli/spore_stims/simple_06_A_b.gif","","","","",""
"","4089.4550000011805","survey-multi-choice","54","296243","0.0-16.0","SS1618435823438","math_question","","","","","","","","","","","","{""Q0"":""12""}","[0]","12","",""
"","null","html-keyboard-response","55","297134","0.0-17.0-0.0","SS1618435823438","","","null","","","","","","<p><img src= images/blank.png width =""600"" height = ""600"" style=""position:fixed;top:50%; left:50%; transform: translate(-50%, -50%); border:5px solid black"">","","","","","","","",""
"","2071.0049999979674","sequential-stimulus-presentation-old","56","299261","0.0-17.0-1.0","SS1618435823438","trial","","40","500","2571.0049999979674","images/stimuli/spore_stims/simple_05_A_a.gif","images/stimuli/spore_stims/simple_07_A_b.gif","forced_short","","4","simple_dissimilar","images/stimuli/spore_stims/simple_07_A_b.gif","","","","",""
"","null","html-keyboard-response","57","300321","0.0-17.0-0.1","SS1618435823438","","","null","","","","","","<p><img src= images/blank.png width =""600"" height = ""600"" style=""position:fixed;top:50%; left:50%; transform: translate(-50%, -50%); border:5px solid black"">","","","","","","","",""
"","3555.8400000008987","sequential-stimulus-presentation-old","58","304383","0.0-17.0-1.1","SS1618435823438","trial","","40","500","4055.8400000008987","images/stimuli/spore_stims/simple_05_A_a.gif","images/stimuli/spore_stims/simple_07_A_b.gif","forced_short","","4","simple_dissimilar","images/stimuli/spore_stims/simple_07_A_b.gif","","","","",""
"","null","html-keyboard-response","59","305570","0.0-17.0-0.2","SS1618435823438","","","null","","","","","","<p><img src= images/blank.png width =""600"" height = ""600"" style=""position:fixed;top:50%; left:50%; transform: translate(-50%, -50%); border:5px solid black"">","","","","","","","",""
"","3090.2900000000955","sequential-stimulus-presentation-old","60","309166","0.0-17.0-1.2","SS1618435823438","trial","","40","500","3590.2900000000955","images/stimuli/spore_stims/simple_05_A_a.gif","images/stimuli/spore_stims/simple_07_A_b.gif","forced_short","","4","simple_dissimilar","images/stimuli/spore_stims/simple_05_A_a.gif","","","","",""
"","null","html-keyboard-response","61","310223","0.0-17.0-0.3","SS1618435823438","","","null","","","","","","<p><img src= images/blank.png width =""600"" height = ""600"" style=""position:fixed;top:50%; left:50%; transform: translate(-50%, -50%); border:5px solid black"">","","","","","","","",""
"","3408.015000000887","sequential-stimulus-presentation-old","62","314136","0.0-17.0-1.3","SS1618435823438","trial","","40","500","3908.015000000887","images/stimuli/spore_stims/simple_05_A_a.gif","images/stimuli/spore_stims/simple_07_A_b.gif","forced_short","","4","simple_dissimilar","images/stimuli/spore_stims/simple_07_A_b.gif","","","","",""
"","null","html-keyboard-response","63","314979","0.0-17.0-0.4","SS1618435823438","","","null","","","","","","<p><img src= images/blank.png width =""600"" height = ""600"" style=""position:fixed;top:50%; left:50%; transform: translate(-50%, -50%); border:5px solid black"">","","","","","","","",""
"","18681.665000003704","sequential-stimulus-presentation-old","64","334166","0.0-17.0-1.4","SS1618435823438","trial","","40","500","19181.665000003704","images/stimuli/spore_stims/simple_05_A_a.gif","images/stimuli/spore_stims/simple_07_A_b.gif","forced_short","","4","simple_dissimilar","images/stimuli/spore_stims/simple_07_A_b.gif","","","","",""
"","null","html-keyboard-response","65","335280","0.0-17.0-0.5","SS1618435823438","","","null","","","","","","<p><img src= images/blank.png width =""600"" height = ""600"" style=""position:fixed;top:50%; left:50%; transform: translate(-50%, -50%); border:5px solid black"">","","","","","","","",""
"","10849.319999993895","sequential-stimulus-presentation-old","66","346636","0.0-17.0-1.5","SS1618435823438","trial","","40","500","11349.319999993895","images/stimuli/spore_stims/simple_05_A_a.gif","images/stimuli/spore_stims/simple_07_A_b.gif","forced_short","","4","simple_dissimilar","images/stimuli/spore_stims/simple_07_A_b.gif","","","","",""
"","15378.53499999619","survey-multi-choice","67","362019","0.0-18.0","SS1618435823438","math_question","","","","","","","","","","","","{""Q0"":""13""}","[0]","13","",""
"","null","html-keyboard-response","68","362868","0.0-19.0-0.0","SS1618435823438","","","null","","","","","","<p><img src= images/blank.png width =""600"" height = ""600"" style=""position:fixed;top:50%; left:50%; transform: translate(-50%, -50%); border:5px solid black"">","","","","","","","",""
"","7818.859999999404","sequential-stimulus-presentation-old","69","370743","0.0-19.0-1.0","SS1618435823438","trial","","40","500","8318.859999999404","images/stimuli/spore_stims/complex_06_A_b.gif","images/stimuli/spore_stims/complex_19_A_a.gif","forced_short","","5","complex_dissimilar","images/stimuli/spore_stims/complex_19_A_a.gif","","","","",""
"","null","html-keyboard-response","70","371640","0.0-19.0-0.1","SS1618435823438","","","null","","","","","","<p><img src= images/blank.png width =""600"" height = ""600"" style=""position:fixed;top:50%; left:50%; transform: translate(-50%, -50%); border:5px solid black"">","","","","","","","",""
"","14755.490000003192","sequential-stimulus-presentation-old","71","386902","0.0-19.0-1.1","SS1618435823438","trial","","40","500","15255.490000003192","images/stimuli/spore_stims/complex_06_A_b.gif","images/stimuli/spore_stims/complex_19_A_a.gif","forced_short","","5","complex_dissimilar","images/stimuli/spore_stims/complex_06_A_b.gif","","","","",""
"","null","html-keyboard-response","72","387920","0.0-19.0-0.2","SS1618435823438","","","null","","","","","","<p><img src= images/blank.png width =""600"" height = ""600"" style=""position:fixed;top:50%; left:50%; transform: translate(-50%, -50%); border:5px solid black"">","","","","","","","",""
"","2585.2149999991525","sequential-stimulus-presentation-old","73","391011","0.0-19.0-1.2","SS1618435823438","trial","","40","500","3085.2149999991525","images/stimuli/spore_stims/complex_06_A_b.gif","images/stimuli/spore_stims/complex_19_A_a.gif","forced_short","","5","complex_dissimilar","images/stimuli/spore_stims/complex_06_A_b.gif","","","","",""
"","null","html-keyboard-response","74","391956","0.0-19.0-0.3","SS1618435823438","","","null","","","","","","<p><img src= images/blank.png width =""600"" height = ""600"" style=""position:fixed;top:50%; left:50%; transform: translate(-50%, -50%); border:5px solid black"">","","","","","","","",""
"","3213.404999994964","sequential-stimulus-presentation-old","75","395676","0.0-19.0-1.3","SS1618435823438","trial","","40","500","3713.404999994964","images/stimuli/spore_stims/complex_06_A_b.gif","images/stimuli/spore_stims/complex_19_A_a.gif","forced_short","","5","complex_dissimilar","images/stimuli/spore_stims/complex_19_A_a.gif","","","","",""
"","null","html-keyboard-response","76","396898","0.0-19.0-0.4","SS1618435823438","","","null","","","","","","<p><img src= images/blank.png width =""600"" height = ""600"" style=""position:fixed;top:50%; left:50%; transform: translate(-50%, -50%); border:5px solid black"">","","","","","","","",""
"","3029.1549999965355","sequential-stimulus-presentation-old","77","400433","0.0-19.0-1.4","SS1618435823438","trial","","40","500","3529.1549999965355","images/stimuli/spore_stims/complex_06_A_b.gif","images/stimuli/spore_stims/complex_19_A_a.gif","forced_short","","5","complex_dissimilar","images/stimuli/spore_stims/complex_19_A_a.gif","","","","",""
"","null","html-keyboard-response","78","401351","0.0-19.0-0.5","SS1618435823438","","","null","","","","","","<p><img src= images/blank.png width =""600"" height = ""600"" style=""position:fixed;top:50%; left:50%; transform: translate(-50%, -50%); border:5px solid black"">","","","","","","","",""
"","7653.285000000324","sequential-stimulus-presentation-old","79","409510","0.0-19.0-1.5","SS1618435823438","trial","","40","500","8153.285000000324","images/stimuli/spore_stims/complex_06_A_b.gif","images/stimuli/spore_stims/complex_19_A_a.gif","forced_short","","5","complex_dissimilar","images/stimuli/spore_stims/complex_19_A_a.gif","","","","",""
"","3116.6699999957928","survey-multi-choice","80","412632","0.0-20.0","SS1618435823438","math_question","","","","","","","","","","","","{""Q0"":""14""}","[0]","14","",""
"","null","html-keyboard-response","81","413765","0.0-21.0-0.0","SS1618435823438","","","null","","","","","","<p><img src= images/blank.png width =""600"" height = ""600"" style=""position:fixed;top:50%; left:50%; transform: translate(-50%, -50%); border:5px solid black"">","","","","","","","",""
"","3283.550000000105","sequential-stimulus-presentation-old","82","417104","0.0-21.0-1.0","SS1618435823438","trial","","40","500","3783.550000000105","images/stimuli/spore_stims/complex_14_A_a.gif","images/stimuli/spore_stims/complex_18_A_b.gif","forced_short","","6","complex_dissimilar","images/stimuli/spore_stims/complex_18_A_b.gif","","","","",""
"","null","html-keyboard-response","83","418404","0.0-21.0-0.1","SS1618435823438","","","null","","","","","","<p><img src= images/blank.png width =""600"" height = ""600"" style=""position:fixed;top:50%; left:50%; transform: translate(-50%, -50%); border:5px solid black"">","","","","","","","",""
"","4121.80499999522","sequential-stimulus-presentation-old","84","423032","0.0-21.0-1.1","SS1618435823438","trial","","40","500","4621.80499999522","images/stimuli/spore_stims/complex_14_A_a.gif","images/stimuli/spore_stims/complex_18_A_b.gif","forced_short","","6","complex_dissimilar","images/stimuli/spore_stims/complex_18_A_b.gif","","","","",""
"","null","html-keyboard-response","85","424273","0.0-21.0-0.2","SS1618435823438","","","null","","","","","","<p><img src= images/blank.png width =""600"" height = ""600"" style=""position:fixed;top:50%; left:50%; transform: translate(-50%, -50%); border:5px solid black"">","","","","","","","",""
"","2184.88499999512","sequential-stimulus-presentation-old","86","426964","0.0-21.0-1.2","SS1618435823438","trial","","40","500","2684.88499999512","images/stimuli/spore_stims/complex_14_A_a.gif","images/stimuli/spore_stims/complex_18_A_b.gif","forced_short","","6","complex_dissimilar","images/stimuli/spore_stims/complex_18_A_b.gif","","","","",""
"","null","html-keyboard-response","87","428022","0.0-21.0-0.3","SS1618435823438","","","null","","","","","","<p><img src= images/blank.png width =""600"" height = ""600"" style=""position:fixed;top:50%; left:50%; transform: translate(-50%, -50%); border:5px solid black"">","","","","","","","",""
"","4168.805000001157","sequential-stimulus-presentation-old","88","432697","0.0-21.0-1.3","SS1618435823438","trial","","40","500","4668.805000001157","images/stimuli/spore_stims/complex_14_A_a.gif","images/stimuli/spore_stims/complex_18_A_b.gif","forced_short","","6","complex_dissimilar","images/stimuli/spore_stims/complex_14_A_a.gif","","","","",""
"","3060.3100000007544","survey-multi-choice","89","435762","0.0-22.0","SS1618435823438","math_question","","","","","","","","","","","","{""Q0"":""11""}","[0]","11","",""
"","null","html-keyboard-response","90","436938","0.0-23.0-0.0","SS1618435823438","","","null","","","","","","<p><img src= images/blank.png width =""600"" height = ""600"" style=""position:fixed;top:50%; left:50%; transform: translate(-50%, -50%); border:5px solid black"">","","","","","","","",""
"","1240.575000003446","sequential-stimulus-presentation-old","91","443186","0.0-23.0-1.0","SS1618435823438","trial","","40","500","1740.575000003446","images/stimuli/spore_stims/complex_04_A_a.gif","images/stimuli/spore_stims/complex_07_A_b.gif","forced_long","","7","complex_dissimilar","images/stimuli/spore_stims/complex_07_A_b.gif","","","","",""
"","null","html-keyboard-response","92","444452","0.0-23.0-0.1","SS1618435823438","","","null","","","","","","<p><img src= images/blank.png width =""600"" height = ""600"" style=""position:fixed;top:50%; left:50%; transform: translate(-50%, -50%); border:5px solid black"">","","","","","","","",""
"","5860.964999999851","sequential-stimulus-presentation-old","93","450820","0.0-23.0-1.1","SS1618435823438","trial","","40","500","6360.964999999851","images/stimuli/spore_stims/complex_04_A_a.gif","images/stimuli/spore_stims/complex_07_A_b.gif","forced_long","","7","complex_dissimilar","images/stimuli/spore_stims/complex_07_A_b.gif","","","","",""
"","null","html-keyboard-response","94","451738","0.0-23.0-0.2","SS1618435823438","","","null","","","","","","<p><img src= images/blank.png width =""600"" height = ""600"" style=""position:fixed;top:50%; left:50%; transform: translate(-50%, -50%); border:5px solid black"">","","","","","","","",""
"","6101.555000001099","sequential-stimulus-presentation-old","95","458346","0.0-23.0-1.2","SS1618435823438","trial","","40","500","6601.555000001099","images/stimuli/spore_stims/complex_04_A_a.gif","images/stimuli/spore_stims/complex_07_A_b.gif","forced_long","","7","complex_dissimilar","images/stimuli/spore_stims/complex_07_A_b.gif","","","","",""
"","null","html-keyboard-response","96","459307","0.0-23.0-0.3","SS1618435823438","","","null","","","","","","<p><img src= images/blank.png width =""600"" height = ""600"" style=""position:fixed;top:50%; left:50%; transform: translate(-50%, -50%); border:5px solid black"">","","","","","","","",""
"","4506.274999999732","sequential-stimulus-presentation-old","97","464320","0.0-23.0-1.3","SS1618435823438","trial","","40","500","5006.274999999732","images/stimuli/spore_stims/complex_04_A_a.gif","images/stimuli/spore_stims/complex_07_A_b.gif","forced_long","","7","complex_dissimilar","images/stimuli/spore_stims/complex_07_A_b.gif","","","","",""
"","2453.320000000531","survey-multi-choice","98","466778","0.0-24.0","SS1618435823438","math_question","","","","","","","","","","","","{""Q0"":""7""}","[0]","7","",""
"","null","html-keyboard-response","99","467992","0.0-25.0-0.0","SS1618435823438","","","null","","","","","","<p><img src= images/blank.png width =""600"" height = ""600"" style=""position:fixed;top:50%; left:50%; transform: translate(-50%, -50%); border:5px solid black"">","","","","","","","",""
"","5327.600000004168","sequential-stimulus-presentation-old","100","473827","0.0-25.0-1.0","SS1618435823438","trial","","40","500","5827.600000004168","images/stimuli/spore_stims/simple_03_A_a.gif","images/stimuli/spore_stims/simple_14_A_b.gif","self_paced","","8","simple_dissimilar","images/stimuli/spore_stims/simple_14_A_b.gif","","","","",""
"","null","html-keyboard-response","101","474933","0.0-25.0-0.1","SS1618435823438","","","null","","","","","","<p><img src= images/blank.png width =""600"" height = ""600"" style=""position:fixed;top:50%; left:50%; transform: translate(-50%, -50%); border:5px solid black"">","","","","","","","",""
"","4985.014999998384","sequential-stimulus-presentation-old","102","480425","0.0-25.0-1.1","SS1618435823438","trial","","40","500","5485.014999998384","images/stimuli/spore_stims/simple_03_A_a.gif","images/stimuli/spore_stims/simple_14_A_b.gif","self_paced","","8","simple_dissimilar","images/stimuli/spore_stims/simple_14_A_b.gif","","","","",""
"","null","html-keyboard-response","103","481586","0.0-25.0-0.2","SS1618435823438","","","null","","","","","","<p><img src= images/blank.png width =""600"" height = ""600"" style=""position:fixed;top:50%; left:50%; transform: translate(-50%, -50%); border:5px solid black"">","","","","","","","",""
"","4606.745000004594","sequential-stimulus-presentation-old","104","486700","0.0-25.0-1.2","SS1618435823438","trial","","40","500","5106.745000004594","images/stimuli/spore_stims/simple_03_A_a.gif","images/stimuli/spore_stims/simple_14_A_b.gif","self_paced","","8","simple_dissimilar","images/stimuli/spore_stims/simple_14_A_b.gif","","","","",""
"","null","html-keyboard-response","105","487791","0.0-25.0-0.3","SS1618435823438","","","null","","","","","","<p><img src= images/blank.png width =""600"" height = ""600"" style=""position:fixed;top:50%; left:50%; transform: translate(-50%, -50%); border:5px solid black"">","","","","","","","",""
"","3810.344999998051","sequential-stimulus-presentation-old","106","492108","0.0-25.0-1.3","SS1618435823438","trial","","40","500","4310.344999998051","images/stimuli/spore_stims/simple_03_A_a.gif","images/stimuli/spore_stims/simple_14_A_b.gif","self_paced","","8","simple_dissimilar","images/stimuli/spore_stims/simple_14_A_b.gif","","","","",""
"","null","html-keyboard-response","107","493404","0.0-25.0-0.4","SS1618435823438","","","null","","","","","","<p><img src= images/blank.png width =""600"" height = ""600"" style=""position:fixed;top:50%; left:50%; transform: translate(-50%, -50%); border:5px solid black"">","","","","","","","",""
"","3361.3299999997253","sequential-stimulus-presentation-old","108","497272","0.0-25.0-1.4","SS1618435823438","trial","","40","500","3861.3299999997253","images/stimuli/spore_stims/simple_03_A_a.gif","images/stimuli/spore_stims/simple_14_A_b.gif","self_paced","","8","simple_dissimilar","images/stimuli/spore_stims/simple_14_A_b.gif","","","","",""
"","2669.0400000006775","survey-multi-choice","109","499946","0.0-26.0","SS1618435823438","math_question","","","","","","","","","","","","{""Q0"":""11""}","[0]","11","",""
"","null","html-keyboard-response","110","500892","0.0-27.0-0.0","SS1618435823438","","","null","","","","","","<p><img src= images/blank.png width =""600"" height = ""600"" style=""position:fixed;top:50%; left:50%; transform: translate(-50%, -50%); border:5px solid black"">","","","","","","","",""
"","1460.1199999960954","sequential-stimulus-presentation-old","111","507359","0.0-27.0-1.0","SS1618435823438","trial","","40","500","1960.1199999960954","images/stimuli/spore_stims/simple_01_A_a.gif","images/stimuli/spore_stims/simple_18_A_b.gif","forced_long","","9","simple_dissimilar","images/stimuli/spore_stims/simple_18_A_b.gif","","","","",""
"","null","html-keyboard-response","112","508230","0.0-27.0-0.1","SS1618435823438","","","null","","","","","","<p><img src= images/blank.png width =""600"" height = ""600"" style=""position:fixed;top:50%; left:50%; transform: translate(-50%, -50%); border:5px solid black"">","","","","","","","",""
"","7495.049999997718","sequential-stimulus-presentation-old","113","516232","0.0-27.0-1.1","SS1618435823438","trial","","40","500","7995.049999997718","images/stimuli/spore_stims/simple_01_A_a.gif","images/stimuli/spore_stims/simple_18_A_b.gif","forced_long","","9","simple_dissimilar","images/stimuli/spore_stims/simple_18_A_b.gif","","","","",""
"","null","html-keyboard-response","114","517189","0.0-27.0-0.2","SS1618435823438","","","null","","","","","","<p><img src= images/blank.png width =""600"" height = ""600"" style=""position:fixed;top:50%; left:50%; transform: translate(-50%, -50%); border:5px solid black"">","","","","","","","",""
"","3104.4850000034203","sequential-stimulus-presentation-old","115","520801","0.0-27.0-1.2","SS1618435823438","trial","","40","500","3604.4850000034203","images/stimuli/spore_stims/simple_01_A_a.gif","images/stimuli/spore_stims/simple_18_A_b.gif","forced_long","","9","simple_dissimilar","images/stimuli/spore_stims/simple_18_A_b.gif","","","","",""
"","null","html-keyboard-response","116","521714","0.0-27.0-0.3","SS1618435823438","","","null","","","","","","<p><img src= images/blank.png width =""600"" height = ""600"" style=""position:fixed;top:50%; left:50%; transform: translate(-50%, -50%); border:5px solid black"">","","","","","","","",""
"","5592.414999999222","sequential-stimulus-presentation-old","117","527814","0.0-27.0-1.3","SS1618435823438","trial","","40","500","6092.414999999222","images/stimuli/spore_stims/simple_01_A_a.gif","images/stimuli/spore_stims/simple_18_A_b.gif","forced_long","","9","simple_dissimilar","images/stimuli/spore_stims/simple_18_A_b.gif","","","","",""
"","null","html-keyboard-response","118","528652","0.0-27.0-0.4","SS1618435823438","","","null","","","","","","<p><img src= images/blank.png width =""600"" height = ""600"" style=""position:fixed;top:50%; left:50%; transform: translate(-50%, -50%); border:5px solid black"">","","","","","","","",""
"","7308.290000000852","sequential-stimulus-presentation-old","119","536468","0.0-27.0-1.4","SS1618435823438","trial","","40","500","7808.290000000852","images/stimuli/spore_stims/simple_01_A_a.gif","images/stimuli/spore_stims/simple_18_A_b.gif","forced_long","","9","simple_dissimilar","images/stimuli/spore_stims/simple_18_A_b.gif","","","","",""
"","null","html-keyboard-response","120","537417","0.0-27.0-0.5","SS1618435823438","","","null","","","","","","<p><img src= images/blank.png width =""600"" height = ""600"" style=""position:fixed;top:50%; left:50%; transform: translate(-50%, -50%); border:5px solid black"">","","","","","","","",""
"","4792.354999997653","sequential-stimulus-presentation-old","121","542717","0.0-27.0-1.5","SS1618435823438","trial","","40","500","5292.354999997653","images/stimuli/spore_stims/simple_01_A_a.gif","images/stimuli/spore_stims/simple_18_A_b.gif","forced_long","","9","simple_dissimilar","images/stimuli/spore_stims/simple_01_A_a.gif","","","","",""
"","10336.364999995567","survey-multi-choice","122","553059","0.0-28.0","SS1618435823438","math_question","","","","","","","","","","","","{""Q0"":""11""}","[0]","11","",""
"","null","html-keyboard-response","123","553916","0.0-29.0-0.0","SS1618435823438","","","null","","","","","","<p><img src= images/blank.png width =""600"" height = ""600"" style=""position:fixed;top:50%; left:50%; transform: translate(-50%, -50%); border:5px solid black"">","","","","","","","",""
"","9822.874999998021","sequential-stimulus-presentation-old","124","568746","0.0-29.0-1.0","SS1618435823438","trial","","40","500","10322.874999998021","images/stimuli/spore_stims/complex_15_A_b.gif","images/stimuli/spore_stims/complex_08_A_a.gif","forced_long","","10","complex_dissimilar","images/stimuli/spore_stims/complex_08_A_a.gif","","","","",""
"","null","html-keyboard-response","125","569572","0.0-29.0-0.1","SS1618435823438","","","null","","","","","","<p><img src= images/blank.png width =""600"" height = ""600"" style=""position:fixed;top:50%; left:50%; transform: translate(-50%, -50%); border:5px solid black"">","","","","","","","",""
"","8129.744999998249","sequential-stimulus-presentation-old","126","578210","0.0-29.0-1.1","SS1618435823438","trial","","40","500","8629.74499999825","images/stimuli/spore_stims/complex_15_A_b.gif","images/stimuli/spore_stims/complex_08_A_a.gif","forced_long","","10","complex_dissimilar","images/stimuli/spore_stims/complex_08_A_a.gif","","","","",""
"","null","html-keyboard-response","127","579387","0.0-29.0-0.2","SS1618435823438","","","null","","","","","","<p><img src= images/blank.png width =""600"" height = ""600"" style=""position:fixed;top:50%; left:50%; transform: translate(-50%, -50%); border:5px solid black"">","","","","","","","",""
"","2719.010000000708","sequential-stimulus-presentation-old","128","582614","0.0-29.0-1.2","SS1618435823438","trial","","40","500","3219.010000000708","images/stimuli/spore_stims/complex_15_A_b.gif","images/stimuli/spore_stims/complex_08_A_a.gif","forced_long","","10","complex_dissimilar","images/stimuli/spore_stims/complex_08_A_a.gif","","","","",""
"","null","html-keyboard-response","129","583513","0.0-29.0-0.3","SS1618435823438","","","null","","","","","","<p><img src= images/blank.png width =""600"" height = ""600"" style=""position:fixed;top:50%; left:50%; transform: translate(-50%, -50%); border:5px solid black"">","","","","","","","",""
"","4017.714999994496","sequential-stimulus-presentation-old","130","588038","0.0-29.0-1.3","SS1618435823438","trial","","40","500","4517.714999994496","images/stimuli/spore_stims/complex_15_A_b.gif","images/stimuli/spore_stims/complex_08_A_a.gif","forced_long","","10","complex_dissimilar","images/stimuli/spore_stims/complex_08_A_a.gif","","","","",""
"","null","html-keyboard-response","131","589199","0.0-29.0-0.4","SS1618435823438","","","null","","","","","","<p><img src= images/blank.png width =""600"" height = ""600"" style=""position:fixed;top:50%; left:50%; transform: translate(-50%, -50%); border:5px solid black"">","","","","","","","",""
"","7005.690000005416","sequential-stimulus-presentation-old","132","596714","0.0-29.0-1.4","SS1618435823438","trial","","40","500","7505.690000005416","images/stimuli/spore_stims/complex_15_A_b.gif","images/stimuli/spore_stims/complex_08_A_a.gif","forced_long","","10","complex_dissimilar","images/stimuli/spore_stims/complex_15_A_b.gif","","","","",""
"","null","html-keyboard-response","133","597991","0.0-29.0-0.5","SS1618435823438","","","null","","","","","","<p><img src= images/blank.png width =""600"" height = ""600"" style=""position:fixed;top:50%; left:50%; transform: translate(-50%, -50%); border:5px solid black"">","","","","","","","",""
"","2688.935000005644","sequential-stimulus-presentation-old","134","601188","0.0-29.0-1.5","SS1618435823438","trial","","40","500","3188.935000005644","images/stimuli/spore_stims/complex_15_A_b.gif","images/stimuli/spore_stims/complex_08_A_a.gif","forced_long","","10","complex_dissimilar","images/stimuli/spore_stims/complex_15_A_b.gif","","","","",""
"","3713.690000004135","survey-multi-choice","135","604908","0.0-30.0","SS1618435823438","math_question","","","","","","","","","","","","{""Q0"":""9""}","[0]","9","",""
"","null","html-keyboard-response","136","605857","0.0-31.0-0.0","SS1618435823438","","","null","","","","","","<p><img src= images/blank.png width =""600"" height = ""600"" style=""position:fixed;top:50%; left:50%; transform: translate(-50%, -50%); border:5px solid black"">","","","","","","","",""
"","3089.019999999553","sequential-stimulus-presentation-old","137","609454","0.0-31.0-1.0","SS1618435823438","trial","","40","500","3589.019999999553","images/stimuli/spore_stims/simple_06_A_a.gif","images/stimuli/spore_stims/simple_02_A_b.gif","self_paced","","11","simple_dissimilar","images/stimuli/spore_stims/simple_02_A_b.gif","","","","",""
"","null","html-keyboard-response","138","610316","0.0-31.0-0.1","SS1618435823438","","","null","","","","","","<p><img src= images/blank.png width =""600"" height = ""600"" style=""position:fixed;top:50%; left:50%; transform: translate(-50%, -50%); border:5px solid black"">","","","","","","","",""
"","2981.8300000042655","sequential-stimulus-presentation-old","139","613805","0.0-31.0-1.1","SS1618435823438","trial","","40","500","3481.8300000042655","images/stimuli/spore_stims/simple_06_A_a.gif","images/stimuli/spore_stims/simple_02_A_b.gif","self_paced","","11","simple_dissimilar","images/stimuli/spore_stims/simple_02_A_b.gif","","","","",""
"","null","html-keyboard-response","140","614689","0.0-31.0-0.2","SS1618435823438","","","null","","","","","","<p><img src= images/blank.png width =""600"" height = ""600"" style=""position:fixed;top:50%; left:50%; transform: translate(-50%, -50%); border:5px solid black"">","","","","","","","",""
"","4389.309999998659","sequential-stimulus-presentation-old","141","619587","0.0-31.0-1.2","SS1618435823438","trial","","40","500","4889.309999998659","images/stimuli/spore_stims/simple_06_A_a.gif","images/stimuli/spore_stims/simple_02_A_b.gif","self_paced","","11","simple_dissimilar","images/stimuli/spore_stims/simple_02_A_b.gif","","","","",""
"","null","html-keyboard-response","142","620427","0.0-31.0-0.3","SS1618435823438","","","null","","","","","","<p><img src= images/blank.png width =""600"" height = ""600"" style=""position:fixed;top:50%; left:50%; transform: translate(-50%, -50%); border:5px solid black"">","","","","","","","",""
"","4009.465000002878","sequential-stimulus-presentation-old","143","624946","0.0-31.0-1.3","SS1618435823438","trial","","40","500","4509.465000002878","images/stimuli/spore_stims/simple_06_A_a.gif","images/stimuli/spore_stims/simple_02_A_b.gif","self_paced","","11","simple_dissimilar","images/stimuli/spore_stims/simple_02_A_b.gif","","","","",""
"","null","html-keyboard-response","144","626185","0.0-31.0-0.4","SS1618435823438","","","null","","","","","","<p><img src= images/blank.png width =""600"" height = ""600"" style=""position:fixed;top:50%; left:50%; transform: translate(-50%, -50%); border:5px solid black"">","","","","","","","",""
"","3152.9050000027055","sequential-stimulus-presentation-old","145","629846","0.0-31.0-1.4","SS1618435823438","trial","","40","500","3652.9050000027055","images/stimuli/spore_stims/simple_06_A_a.gif","images/stimuli/spore_stims/simple_02_A_b.gif","self_paced","","11","simple_dissimilar","images/stimuli/spore_stims/simple_06_A_a.gif","","","","",""
"","null","html-keyboard-response","146","630743","0.0-31.0-0.5","SS1618435823438","","","null","","","","","","<p><img src= images/blank.png width =""600"" height = ""600"" style=""position:fixed;top:50%; left:50%; transform: translate(-50%, -50%); border:5px solid black"">","","","","","","","",""
"","2968.0200000002515","sequential-stimulus-presentation-old","147","634220","0.0-31.0-1.5","SS1618435823438","trial","","40","500","3468.0200000002515","images/stimuli/spore_stims/simple_06_A_a.gif","images/stimuli/spore_stims/simple_02_A_b.gif","self_paced","","11","simple_dissimilar","images/stimuli/spore_stims/simple_02_A_b.gif","","","","",""
"[{""page_index"":0,""viewing_time"":4053.364999999758}]","4053.6599999977043","instructions","148","638280","0.0-32.0","SS1618435823438","instructions","","","","","","","","","","","","","","","",""
"","9760.89000000502","survey-likert","149","648048","0.0-33.0","SS1618435823438","similarity_question","","","","","","","","","","","","{""Q0"":3}","[0]","","images/stimuli/spore_stims/complex_06_A_b.gif","images/stimuli/spore_stims/complex_19_A_a.gif"
"","5247.089999997057","survey-likert","150","653303","0.0-34.0","SS1618435823438","similarity_question","","","","","","","","","","","","{""Q0"":5}","[0]","","images/stimuli/spore_stims/simple_04_A_a.gif","images/stimuli/spore_stims/simple_10_A_b.gif"
"","6663.690000001341","survey-likert","151","659974","0.0-35.0","SS1618435823438","similarity_question","","","","","","","","","","","","{""Q0"":2}","[0]","","images/stimuli/spore_stims/complex_11_A_b.gif","images/stimuli/spore_stims/complex_05_A_a.gif"
"","3299.279999999213","survey-likert","152","663281","0.0-36.0","SS1618435823438","similarity_question","","","","","","","","","","","","{""Q0"":5}","[0]","","images/stimuli/spore_stims/simple_14_A_a.gif","images/stimuli/spore_stims/simple_06_A_b.gif"
"","3381.065000001341","survey-likert","153","666670","0.0-37.0","SS1618435823438","similarity_question","","","","","","","","","","","","{""Q0"":4}","[0]","","images/stimuli/spore_stims/simple_07_A_b.gif","images/stimuli/spore_stims/simple_05_A_a.gif"
"","9177.205000000075","survey-likert","154","675855","0.0-38.0","SS1618435823438","similarity_question","","","","","","","","","","","","{""Q0"":1}","[0]","","images/stimuli/spore_stims/complex_18_A_b.gif","images/stimuli/spore_stims/complex_14_A_a.gif"
"","3945.299999999348","survey-likert","155","679808","0.0-39.0","SS1618435823438","similarity_question","","","","","","","","","","","","{""Q0"":1}","[0]","","images/stimuli/spore_stims/complex_08_A_a.gif","images/stimuli/spore_stims/complex_15_A_b.gif"
"","2568.009999995469","survey-likert","156","682383","0.0-40.0","SS1618435823438","similarity_question","","","","","","","","","","","","{""Q0"":1}","[0]","","images/stimuli/spore_stims/complex_13_A_a.gif","images/stimuli/spore_stims/complex_16_A_b.gif"
"","3981.4299999998184","survey-likert","157","686372","0.0-41.0","SS1618435823438","similarity_question","","","","","","","","","","","","{""Q0"":5}","[0]","","images/stimuli/spore_stims/simple_14_A_b.gif","images/stimuli/spore_stims/simple_03_A_a.gif"
"","2672.2650000010617","survey-likert","158","689052","0.0-42.0","SS1618435823438","similarity_question","","","","","","","","","","","","{""Q0"":1}","[0]","","images/stimuli/spore_stims/complex_04_A_a.gif","images/stimuli/spore_stims/complex_07_A_b.gif"
"","3223.545000000857","survey-likert","159","692283","0.0-43.0","SS1618435823438","similarity_question","","","","","","","","","","","","{""Q0"":5}","[0]","","images/stimuli/spore_stims/simple_01_A_a.gif","images/stimuli/spore_stims/simple_18_A_b.gif"
"","2431.089999998221","survey-likert","160","694722","0.0-44.0","SS1618435823438","similarity_question","","","","","","","","","","","","{""Q0"":5}","[0]","","images/stimuli/spore_stims/simple_02_A_b.gif","images/stimuli/spore_stims/simple_06_A_a.gif"
"[{""page_index"":0,""viewing_time"":2723.31000000122}]","2723.58499999973","instructions","161","697453","0.0-45.0","SS1618435823438","instructions","","","","","","","","","","","","","","","",""
"","4829.740000001038","survey-likert","162","702290","0.0-46.0","SS1618435823438","","","","","","","","","images/stimuli/spore_stims/simple_07_A_b.gif","","","","{""Q0"":0}","[0]","","",""
"","7357.915000000503","survey-likert","163","709656","0.0-47.0","SS1618435823438","","","","","","","","","images/stimuli/spore_stims/complex_11_A_b.gif","","","","{""Q0"":5}","[0]","","",""
"","2034.6599999974715","survey-likert","164","711698","0.0-48.0","SS1618435823438","","","","","","","","","images/stimuli/spore_stims/complex_19_A_a.gif","","","","{""Q0"":5}","[0]","","",""
"","2806.2950000021374","survey-likert","165","714512","0.0-49.0","SS1618435823438","","","","","","","","","images/stimuli/spore_stims/complex_13_A_a.gif","","","","{""Q0"":5}","[0]","","",""
"","2430.5149999998976","survey-likert","166","716950","0.0-50.0","SS1618435823438","","","","","","","","","images/stimuli/spore_stims/complex_04_A_a.gif","","","","{""Q0"":5}","[0]","","",""
"","2281.3349999996135","survey-likert","167","719239","0.0-51.0","SS1618435823438","","","","","","","","","images/stimuli/spore_stims/complex_18_A_b.gif","","","","{""Q0"":5}","[0]","","",""
"","2353.025000004098","survey-likert","168","721600","0.0-52.0","SS1618435823438","","","","","","","","","images/stimuli/spore_stims/simple_10_A_b.gif","","","","{""Q0"":0}","[0]","","",""
"","2107.1850000007544","survey-likert","169","723716","0.0-53.0","SS1618435823438","","","","","","","","","images/stimuli/spore_stims/simple_06_A_a.gif","","","","{""Q0"":0}","[0]","","",""
"","2489.4599999970524","survey-likert","170","726213","0.0-54.0","SS1618435823438","","","","","","","","","images/stimuli/spore_stims/simple_18_A_b.gif","","","","{""Q0"":1}","[0]","","",""
"","1615.1049999971874","survey-likert","171","727836","0.0-55.0","SS1618435823438","","","","","","","","","images/stimuli/spore_stims/simple_06_A_b.gif","","","","{""Q0"":0}","[0]","","",""
"","1906.7599999979138","survey-likert","172","729751","0.0-56.0","SS1618435823438","","","","","","","","","images/stimuli/spore_stims/simple_14_A_b.gif","","","","{""Q0"":0}","[0]","","",""
"","5058.67999999458","survey-likert","173","734818","0.0-57.0","SS1618435823438","","","","","","","","","images/stimuli/spore_stims/complex_08_A_a.gif","","","","{""Q0"":4}","[0]","","",""
"[{""page_index"":0,""viewing_time"":2135.96499999403}]","2136.289999994915","instructions","174","736962","0.0-58.0","SS1618435823438","instructions","","","","","","","","","","","","","","","",""
"","1887.430000002496","demog-age","175","738860","0.0-59.0","SS1618435823438","","","","","","","","","","","","","{""age"":""29""}","","","",""
"","2580.9999999982538","demog-ethnic-US","176","741452","0.0-60.0","SS1618435823438","","","","","","","","","","","","","{""ethnicity"":[""White""]}","[0]","","",""
"","3793.2399999990594","demog-gender-and-education","177","745254","0.0-61.0","SS1618435823438","","","","","","","","","","","","","{""gender"":""Male"",""education"":""Bachelor's Degree""}","[0,1]","","",""
"","5821.899999995367","survey-text","178","751086","0.0-62.0","SS1618435823438","feedback","","","","","","","","","","","","{""Q0"":""no issue""}","","","",""
"[{""page_index"":0,""viewing_time"":1484.1949999972712}]","1484.454999997979","instructions","179","752578","0.0-63.0","SS1618435823438","instructions","","","","","","","","","","","","","","","",""
