"view_history","rt","trial_type","trial_index","time_elapsed","internal_node_id","subject","stimulus_type","trial_stimulus","key_press","minimum_viewing_duration","trial_looking_time","block_deviant","block_background","exposure_type","stimulus","block_number","block_type","stimulus_displayed","responses","question_order","math_correct_answer","stimulus_left","stimulus_right"
"[{""page_index"":0,""viewing_time"":31427.049999998417}]","31429.390000004787","instructions","0","31432","0.0-0.0","SS1618365810136","","","","","","","","","","","","","","","","",""
"[{""page_index"":0,""viewing_time"":25001.929999998538},{""page_index"":1,""viewing_time"":8439.850000009756}]","33442.56500000483","instructions","1","66886","0.0-1.0","SS1618365810136","instructions","","","","","","","","","","","","","","","",""
"","11046.279999995022","sequential-stimulus-presentation-old","2","78443","0.0-2.0","SS1618365810136","","","40","500","11546.279999995022","null","null","self_paced","","","","","","","","",""
"","7150.8450000110315","sequential-stimulus-presentation-old","3","86109","0.0-3.0","SS1618365810136","","","40","500","7650.8450000110315","null","null","self_paced","","","","","","","","",""
"[{""page_index"":0,""viewing_time"":22869.449999998324}]","22870.349999997416","instructions","4","108983","0.0-4.0","SS1618365810136","instructions","","","","","","","","","","","","","","","",""
"","4713.380000001052","sequential-stimulus-presentation-old","5","118707","0.0-5.0","SS1618365810136","","","40","500","5213.380000001052","null","null","forced_long","","","","","","","","",""
"","6451.959999991232","sequential-stimulus-presentation-old","6","125215","0.0-6.0","SS1618365810136","","","40","50","6501.959999991232","null","null","forced_long","","","","","","","","",""
"[{""page_index"":0,""viewing_time"":5794.93000000366}]","5796.314999999595","instructions","7","131015","0.0-7.0","SS1618365810136","instructions","","","","","","","","","","","","","","","",""
"[{""page_index"":0,""viewing_time"":17005.134999999427},{""page_index"":1,""viewing_time"":16817.89999999455},{""page_index"":2,""viewing_time"":8468.525000003865},{""page_index"":3,""viewing_time"":6118.11999999918},{""page_index"":4,""viewing_time"":1614.0449999948032}]","50025.50499999779","instructions","8","181046","0.0-8.0","SS1618365810136","instructions","","","","","","","","","","","","","","","",""
"","null","html-keyboard-response","9","182283","0.0-9.0-0.0","SS1618365810136","","","null","","","","","","<p><img src= images/blank.png width =""600"" height = ""600"" style=""position:fixed;top:50%; left:50%; transform: translate(-50%, -50%); border:5px solid black"">","","","","","","","",""
"","1631.9450000009965","sequential-stimulus-presentation-old","10","188924","0.0-9.0-1.0","SS1618365810136","trial","","40","500","2131.9450000009965","images/stimuli/spore_stims/complex_13_A_b.gif","images/stimuli/spore_stims/complex_09_A_a.gif","forced_long","","0","complex_dissimilar","images/stimuli/spore_stims/complex_09_A_a.gif","","","","",""
"","null","html-keyboard-response","11","190159","0.0-9.0-0.1","SS1618365810136","","","null","","","","","","<p><img src= images/blank.png width =""600"" height = ""600"" style=""position:fixed;top:50%; left:50%; transform: translate(-50%, -50%); border:5px solid black"">","","","","","","","",""
"","15126.214999996591","sequential-stimulus-presentation-old","12","205792","0.0-9.0-1.1","SS1618365810136","trial","","40","500","15626.214999996591","images/stimuli/spore_stims/complex_13_A_b.gif","images/stimuli/spore_stims/complex_09_A_a.gif","forced_long","","0","complex_dissimilar","images/stimuli/spore_stims/complex_09_A_a.gif","","","","",""
"","null","html-keyboard-response","13","207074","0.0-9.0-0.2","SS1618365810136","","","null","","","","","","<p><img src= images/blank.png width =""600"" height = ""600"" style=""position:fixed;top:50%; left:50%; transform: translate(-50%, -50%); border:5px solid black"">","","","","","","","",""
"","2924.9549999949522","sequential-stimulus-presentation-old","14","210507","0.0-9.0-1.2","SS1618365810136","trial","","40","500","3424.9549999949522","images/stimuli/spore_stims/complex_13_A_b.gif","images/stimuli/spore_stims/complex_09_A_a.gif","forced_long","","0","complex_dissimilar","images/stimuli/spore_stims/complex_09_A_a.gif","","","","",""
"","null","html-keyboard-response","15","211351","0.0-9.0-0.3","SS1618365810136","","","null","","","","","","<p><img src= images/blank.png width =""600"" height = ""600"" style=""position:fixed;top:50%; left:50%; transform: translate(-50%, -50%); border:5px solid black"">","","","","","","","",""
"","4117.400000002817","sequential-stimulus-presentation-old","16","215978","0.0-9.0-1.3","SS1618365810136","trial","","40","500","4617.400000002817","images/stimuli/spore_stims/complex_13_A_b.gif","images/stimuli/spore_stims/complex_09_A_a.gif","forced_long","","0","complex_dissimilar","images/stimuli/spore_stims/complex_09_A_a.gif","","","","",""
"","null","html-keyboard-response","17","216833","0.0-9.0-0.4","SS1618365810136","","","null","","","","","","<p><img src= images/blank.png width =""600"" height = ""600"" style=""position:fixed;top:50%; left:50%; transform: translate(-50%, -50%); border:5px solid black"">","","","","","","","",""
"","210.85500001208857","sequential-stimulus-presentation-old","18","217555","0.0-9.0-1.4","SS1618365810136","trial","","40","500","710.8550000120886","images/stimuli/spore_stims/complex_13_A_b.gif","images/stimuli/spore_stims/complex_09_A_a.gif","forced_long","","0","complex_dissimilar","images/stimuli/spore_stims/complex_09_A_a.gif","","","","",""
"","5690.56499999715","survey-multi-choice","19","223255","0.0-10.0","SS1618365810136","math_question","","","","","","","","","","","","{""Q0"":""10""}","[0]","10","",""
"","null","html-keyboard-response","20","224221","0.0-11.0-0.0","SS1618365810136","","","null","","","","","","<p><img src= images/blank.png width =""600"" height = ""600"" style=""position:fixed;top:50%; left:50%; transform: translate(-50%, -50%); border:5px solid black"">","","","","","","","",""
"","616.1550000106217","sequential-stimulus-presentation-old","21","229846","0.0-11.0-1.0","SS1618365810136","trial","","40","500","1116.1550000106217","images/stimuli/spore_stims/complex_07_A_a.gif","images/stimuli/spore_stims/complex_19_A_b.gif","forced_long","","1","complex_dissimilar","images/stimuli/spore_stims/complex_19_A_b.gif","","","","",""
"","null","html-keyboard-response","22","230917","0.0-11.0-0.1","SS1618365810136","","","null","","","","","","<p><img src= images/blank.png width =""600"" height = ""600"" style=""position:fixed;top:50%; left:50%; transform: translate(-50%, -50%); border:5px solid black"">","","","","","","","",""
"","1187.5999999901978","sequential-stimulus-presentation-old","23","232620","0.0-11.0-1.1","SS1618365810136","trial","","40","500","1687.5999999901978","images/stimuli/spore_stims/complex_07_A_a.gif","images/stimuli/spore_stims/complex_19_A_b.gif","forced_long","","1","complex_dissimilar","images/stimuli/spore_stims/complex_19_A_b.gif","","","","",""
"","null","html-keyboard-response","24","233600","0.0-11.0-0.2","SS1618365810136","","","null","","","","","","<p><img src= images/blank.png width =""600"" height = ""600"" style=""position:fixed;top:50%; left:50%; transform: translate(-50%, -50%); border:5px solid black"">","","","","","","","",""
"","29.289999991306104","sequential-stimulus-presentation-old","25","234138","0.0-11.0-1.2","SS1618365810136","trial","","40","500","529.2899999913061","images/stimuli/spore_stims/complex_07_A_a.gif","images/stimuli/spore_stims/complex_19_A_b.gif","forced_long","","1","complex_dissimilar","images/stimuli/spore_stims/complex_19_A_b.gif","","","","",""
"","null","html-keyboard-response","26","235304","0.0-11.0-0.3","SS1618365810136","","","null","","","","","","<p><img src= images/blank.png width =""600"" height = ""600"" style=""position:fixed;top:50%; left:50%; transform: translate(-50%, -50%); border:5px solid black"">","","","","","","","",""
"","4321.9349999999395","sequential-stimulus-presentation-old","27","240133","0.0-11.0-1.3","SS1618365810136","trial","","40","500","4821.9349999999395","images/stimuli/spore_stims/complex_07_A_a.gif","images/stimuli/spore_stims/complex_19_A_b.gif","forced_long","","1","complex_dissimilar","images/stimuli/spore_stims/complex_07_A_a.gif","","","","",""
"","null","html-keyboard-response","28","241079","0.0-11.0-0.4","SS1618365810136","","","null","","","","","","<p><img src= images/blank.png width =""600"" height = ""600"" style=""position:fixed;top:50%; left:50%; transform: translate(-50%, -50%); border:5px solid black"">","","","","","","","",""
"","4819.350000005215","sequential-stimulus-presentation-old","29","246408","0.0-11.0-1.4","SS1618365810136","trial","","40","500","5319.350000005215","images/stimuli/spore_stims/complex_07_A_a.gif","images/stimuli/spore_stims/complex_19_A_b.gif","forced_long","","1","complex_dissimilar","images/stimuli/spore_stims/complex_07_A_a.gif","","","","",""
"","null","html-keyboard-response","30","247269","0.0-11.0-0.5","SS1618365810136","","","null","","","","","","<p><img src= images/blank.png width =""600"" height = ""600"" style=""position:fixed;top:50%; left:50%; transform: translate(-50%, -50%); border:5px solid black"">","","","","","","","",""
"","506.6299999889452","sequential-stimulus-presentation-old","31","248285","0.0-11.0-1.5","SS1618365810136","trial","","40","500","1006.6299999889452","images/stimuli/spore_stims/complex_07_A_a.gif","images/stimuli/spore_stims/complex_19_A_b.gif","forced_long","","1","complex_dissimilar","images/stimuli/spore_stims/complex_19_A_b.gif","","","","",""
"","3442.3399999941466","survey-multi-choice","32","251733","0.0-12.0","SS1618365810136","math_question","","","","","","","","","","","","{""Q0"":""12""}","[0]","12","",""
"","null","html-keyboard-response","33","252945","0.0-13.0-0.0","SS1618365810136","","","null","","","","","","<p><img src= images/blank.png width =""600"" height = ""600"" style=""position:fixed;top:50%; left:50%; transform: translate(-50%, -50%); border:5px solid black"">","","","","","","","",""
"","2718.6300000030315","sequential-stimulus-presentation-old","34","256171","0.0-13.0-1.0","SS1618365810136","trial","","40","500","3218.6300000030315","images/stimuli/spore_stims/simple_02_A_a.gif","images/stimuli/spore_stims/simple_07_A_b.gif","self_paced","","2","simple_dissimilar","images/stimuli/spore_stims/simple_07_A_b.gif","","","","",""
"","null","html-keyboard-response","35","257274","0.0-13.0-0.1","SS1618365810136","","","null","","","","","","<p><img src= images/blank.png width =""600"" height = ""600"" style=""position:fixed;top:50%; left:50%; transform: translate(-50%, -50%); border:5px solid black"">","","","","","","","",""
"","597.7350000030128","sequential-stimulus-presentation-old","36","258381","0.0-13.0-1.1","SS1618365810136","trial","","40","500","1097.7350000030128","images/stimuli/spore_stims/simple_02_A_a.gif","images/stimuli/spore_stims/simple_07_A_b.gif","self_paced","","2","simple_dissimilar","images/stimuli/spore_stims/simple_07_A_b.gif","","","","",""
"","null","html-keyboard-response","37","259579","0.0-13.0-0.2","SS1618365810136","","","null","","","","","","<p><img src= images/blank.png width =""600"" height = ""600"" style=""position:fixed;top:50%; left:50%; transform: translate(-50%, -50%); border:5px solid black"">","","","","","","","",""
"","1033.1549999973504","sequential-stimulus-presentation-old","38","261125","0.0-13.0-1.2","SS1618365810136","trial","","40","500","1533.1549999973504","images/stimuli/spore_stims/simple_02_A_a.gif","images/stimuli/spore_stims/simple_07_A_b.gif","self_paced","","2","simple_dissimilar","images/stimuli/spore_stims/simple_07_A_b.gif","","","","",""
"","null","html-keyboard-response","39","262297","0.0-13.0-0.3","SS1618365810136","","","null","","","","","","<p><img src= images/blank.png width =""600"" height = ""600"" style=""position:fixed;top:50%; left:50%; transform: translate(-50%, -50%); border:5px solid black"">","","","","","","","",""
"","2303.8349999987986","sequential-stimulus-presentation-old","40","265112","0.0-13.0-1.3","SS1618365810136","trial","","40","500","2803.8349999987986","images/stimuli/spore_stims/simple_02_A_a.gif","images/stimuli/spore_stims/simple_07_A_b.gif","self_paced","","2","simple_dissimilar","images/stimuli/spore_stims/simple_07_A_b.gif","","","","",""
"","null","html-keyboard-response","41","266292","0.0-13.0-0.4","SS1618365810136","","","null","","","","","","<p><img src= images/blank.png width =""600"" height = ""600"" style=""position:fixed;top:50%; left:50%; transform: translate(-50%, -50%); border:5px solid black"">","","","","","","","",""
"","1826.1300000012852","sequential-stimulus-presentation-old","42","268633","0.0-13.0-1.4","SS1618365810136","trial","","40","500","2326.130000001285","images/stimuli/spore_stims/simple_02_A_a.gif","images/stimuli/spore_stims/simple_07_A_b.gif","self_paced","","2","simple_dissimilar","images/stimuli/spore_stims/simple_07_A_b.gif","","","","",""
"","5584.199999997509","survey-multi-choice","43","274224","0.0-14.0","SS1618365810136","math_question","","","","","","","","","","","","{""Q0"":""12""}","[0]","12","",""
"","null","html-keyboard-response","44","275181","0.0-15.0-0.0","SS1618365810136","","","null","","","","","","<p><img src= images/blank.png width =""600"" height = ""600"" style=""position:fixed;top:50%; left:50%; transform: translate(-50%, -50%); border:5px solid black"">","","","","","","","",""
"","648.7649999908172","sequential-stimulus-presentation-old","45","276341","0.0-15.0-1.0","SS1618365810136","trial","","40","500","1148.7649999908172","images/stimuli/spore_stims/simple_09_A_b.gif","images/stimuli/spore_stims/simple_07_A_a.gif","self_paced","","3","simple_dissimilar","images/stimuli/spore_stims/simple_07_A_a.gif","","","","",""
"","null","html-keyboard-response","46","277382","0.0-15.0-0.1","SS1618365810136","","","null","","","","","","<p><img src= images/blank.png width =""600"" height = ""600"" style=""position:fixed;top:50%; left:50%; transform: translate(-50%, -50%); border:5px solid black"">","","","","","","","",""
"","467.98000000126194","sequential-stimulus-presentation-old","47","278372","0.0-15.0-1.1","SS1618365810136","trial","","40","500","967.9800000012619","images/stimuli/spore_stims/simple_09_A_b.gif","images/stimuli/spore_stims/simple_07_A_a.gif","self_paced","","3","simple_dissimilar","images/stimuli/spore_stims/simple_07_A_a.gif","","","","",""
"","null","html-keyboard-response","48","279437","0.0-15.0-0.2","SS1618365810136","","","null","","","","","","<p><img src= images/blank.png width =""600"" height = ""600"" style=""position:fixed;top:50%; left:50%; transform: translate(-50%, -50%); border:5px solid black"">","","","","","","","",""
"","846.6099999932339","sequential-stimulus-presentation-old","49","280795","0.0-15.0-1.2","SS1618365810136","trial","","40","500","1346.609999993234","images/stimuli/spore_stims/simple_09_A_b.gif","images/stimuli/spore_stims/simple_07_A_a.gif","self_paced","","3","simple_dissimilar","images/stimuli/spore_stims/simple_07_A_a.gif","","","","",""
"","null","html-keyboard-response","50","282027","0.0-15.0-0.3","SS1618365810136","","","null","","","","","","<p><img src= images/blank.png width =""600"" height = ""600"" style=""position:fixed;top:50%; left:50%; transform: translate(-50%, -50%); border:5px solid black"">","","","","","","","",""
"","758.350000003702","sequential-stimulus-presentation-old","51","283298","0.0-15.0-1.3","SS1618365810136","trial","","40","500","1258.350000003702","images/stimuli/spore_stims/simple_09_A_b.gif","images/stimuli/spore_stims/simple_07_A_a.gif","self_paced","","3","simple_dissimilar","images/stimuli/spore_stims/simple_07_A_a.gif","","","","",""
"","3660.7700000022305","survey-multi-choice","52","286965","0.0-16.0","SS1618365810136","math_question","","","","","","","","","","","","{""Q0"":""11""}","[0]","11","",""
"","null","html-keyboard-response","53","287814","0.0-17.0-0.0","SS1618365810136","","","null","","","","","","<p><img src= images/blank.png width =""600"" height = ""600"" style=""position:fixed;top:50%; left:50%; transform: translate(-50%, -50%); border:5px solid black"">","","","","","","","",""
"","4641.405000002123","sequential-stimulus-presentation-old","54","297465","0.0-17.0-1.0","SS1618365810136","trial","","40","500","5141.405000002123","images/stimuli/spore_stims/simple_15_A_b.gif","images/stimuli/spore_stims/simple_09_A_a.gif","forced_long","","4","simple_dissimilar","images/stimuli/spore_stims/simple_09_A_a.gif","","","","",""
"","null","html-keyboard-response","55","298623","0.0-17.0-0.1","SS1618365810136","","","null","","","","","","<p><img src= images/blank.png width =""600"" height = ""600"" style=""position:fixed;top:50%; left:50%; transform: translate(-50%, -50%); border:5px solid black"">","","","","","","","",""
"","380.0199999968754","sequential-stimulus-presentation-old","56","299514","0.0-17.0-1.1","SS1618365810136","trial","","40","500","880.0199999968754","images/stimuli/spore_stims/simple_15_A_b.gif","images/stimuli/spore_stims/simple_09_A_a.gif","forced_long","","4","simple_dissimilar","images/stimuli/spore_stims/simple_09_A_a.gif","","","","",""
"","null","html-keyboard-response","57","300669","0.0-17.0-0.2","SS1618365810136","","","null","","","","","","<p><img src= images/blank.png width =""600"" height = ""600"" style=""position:fixed;top:50%; left:50%; transform: translate(-50%, -50%); border:5px solid black"">","","","","","","","",""
"","511.32000000507105","sequential-stimulus-presentation-old","58","301687","0.0-17.0-1.2","SS1618365810136","trial","","40","500","1011.320000005071","images/stimuli/spore_stims/simple_15_A_b.gif","images/stimuli/spore_stims/simple_09_A_a.gif","forced_long","","4","simple_dissimilar","images/stimuli/spore_stims/simple_09_A_a.gif","","","","",""
"","null","html-keyboard-response","59","302964","0.0-17.0-0.3","SS1618365810136","","","null","","","","","","<p><img src= images/blank.png width =""600"" height = ""600"" style=""position:fixed;top:50%; left:50%; transform: translate(-50%, -50%); border:5px solid black"">","","","","","","","",""
"","200.85499998822343","sequential-stimulus-presentation-old","60","303677","0.0-17.0-1.3","SS1618365810136","trial","","40","500","700.8549999882234","images/stimuli/spore_stims/simple_15_A_b.gif","images/stimuli/spore_stims/simple_09_A_a.gif","forced_long","","4","simple_dissimilar","images/stimuli/spore_stims/simple_09_A_a.gif","","","","",""
"","null","html-keyboard-response","61","304543","0.0-17.0-0.4","SS1618365810136","","","null","","","","","","<p><img src= images/blank.png width =""600"" height = ""600"" style=""position:fixed;top:50%; left:50%; transform: translate(-50%, -50%); border:5px solid black"">","","","","","","","",""
"","23.335000005317852","sequential-stimulus-presentation-old","62","305073","0.0-17.0-1.4","SS1618365810136","trial","","40","500","523.3350000053179","images/stimuli/spore_stims/simple_15_A_b.gif","images/stimuli/spore_stims/simple_09_A_a.gif","forced_long","","4","simple_dissimilar","images/stimuli/spore_stims/simple_09_A_a.gif","","","","",""
"","null","html-keyboard-response","63","306201","0.0-17.0-0.5","SS1618365810136","","","null","","","","","","<p><img src= images/blank.png width =""600"" height = ""600"" style=""position:fixed;top:50%; left:50%; transform: translate(-50%, -50%); border:5px solid black"">","","","","","","","",""
"","330.6650000013178","sequential-stimulus-presentation-old","64","307041","0.0-17.0-1.5","SS1618365810136","trial","","40","500","830.6650000013178","images/stimuli/spore_stims/simple_15_A_b.gif","images/stimuli/spore_stims/simple_09_A_a.gif","forced_long","","4","simple_dissimilar","images/stimuli/spore_stims/simple_09_A_a.gif","","","","",""
"","3209.244999990915","survey-multi-choice","65","310257","0.0-18.0","SS1618365810136","math_question","","","","","","","","","","","","{""Q0"":""8""}","[0]","8","",""
"","null","html-keyboard-response","66","311246","0.0-19.0-0.0","SS1618365810136","","","null","","","","","","<p><img src= images/blank.png width =""600"" height = ""600"" style=""position:fixed;top:50%; left:50%; transform: translate(-50%, -50%); border:5px solid black"">","","","","","","","",""
"","1484.7500000032596","sequential-stimulus-presentation-old","67","312795","0.0-19.0-1.0","SS1618365810136","trial","","40","500","1984.7500000032596","images/stimuli/spore_stims/complex_02_A_a.gif","images/stimuli/spore_stims/complex_20_A_b.gif","forced_short","","5","complex_dissimilar","images/stimuli/spore_stims/complex_20_A_b.gif","","","","",""
"","null","html-keyboard-response","68","313720","0.0-19.0-0.1","SS1618365810136","","","null","","","","","","<p><img src= images/blank.png width =""600"" height = ""600"" style=""position:fixed;top:50%; left:50%; transform: translate(-50%, -50%); border:5px solid black"">","","","","","","","",""
"","3040.3349999978673","sequential-stimulus-presentation-old","69","317289","0.0-19.0-1.1","SS1618365810136","trial","","40","500","3540.3349999978673","images/stimuli/spore_stims/complex_02_A_a.gif","images/stimuli/spore_stims/complex_20_A_b.gif","forced_short","","5","complex_dissimilar","images/stimuli/spore_stims/complex_20_A_b.gif","","","","",""
"","null","html-keyboard-response","70","318435","0.0-19.0-0.2","SS1618365810136","","","null","","","","","","<p><img src= images/blank.png width =""600"" height = ""600"" style=""position:fixed;top:50%; left:50%; transform: translate(-50%, -50%); border:5px solid black"">","","","","","","","",""
"","340.5099999945378","sequential-stimulus-presentation-old","71","319289","0.0-19.0-1.2","SS1618365810136","trial","","40","500","840.5099999945378","images/stimuli/spore_stims/complex_02_A_a.gif","images/stimuli/spore_stims/complex_20_A_b.gif","forced_short","","5","complex_dissimilar","images/stimuli/spore_stims/complex_20_A_b.gif","","","","",""
"","null","html-keyboard-response","72","320357","0.0-19.0-0.3","SS1618365810136","","","null","","","","","","<p><img src= images/blank.png width =""600"" height = ""600"" style=""position:fixed;top:50%; left:50%; transform: translate(-50%, -50%); border:5px solid black"">","","","","","","","",""
"","822.520000001532","sequential-stimulus-presentation-old","73","321690","0.0-19.0-1.3","SS1618365810136","trial","","40","500","1322.520000001532","images/stimuli/spore_stims/complex_02_A_a.gif","images/stimuli/spore_stims/complex_20_A_b.gif","forced_short","","5","complex_dissimilar","images/stimuli/spore_stims/complex_20_A_b.gif","","","","",""
"","null","html-keyboard-response","74","322835","0.0-19.0-0.4","SS1618365810136","","","null","","","","","","<p><img src= images/blank.png width =""600"" height = ""600"" style=""position:fixed;top:50%; left:50%; transform: translate(-50%, -50%); border:5px solid black"">","","","","","","","",""
"","540.8000000024913","sequential-stimulus-presentation-old","75","323883","0.0-19.0-1.4","SS1618365810136","trial","","40","500","1040.8000000024913","images/stimuli/spore_stims/complex_02_A_a.gif","images/stimuli/spore_stims/complex_20_A_b.gif","forced_short","","5","complex_dissimilar","images/stimuli/spore_stims/complex_20_A_b.gif","","","","",""
"","null","html-keyboard-response","76","325022","0.0-19.0-0.5","SS1618365810136","","","null","","","","","","<p><img src= images/blank.png width =""600"" height = ""600"" style=""position:fixed;top:50%; left:50%; transform: translate(-50%, -50%); border:5px solid black"">","","","","","","","",""
"","108.38999999396037","sequential-stimulus-presentation-old","77","325640","0.0-19.0-1.5","SS1618365810136","trial","","40","500","608.3899999939604","images/stimuli/spore_stims/complex_02_A_a.gif","images/stimuli/spore_stims/complex_20_A_b.gif","forced_short","","5","complex_dissimilar","images/stimuli/spore_stims/complex_20_A_b.gif","","","","",""
"","3158.8899999915157","survey-multi-choice","78","328806","0.0-20.0","SS1618365810136","math_question","","","","","","","","","","","","{""Q0"":""11""}","[0]","11","",""
"","null","html-keyboard-response","79","329869","0.0-21.0-0.0","SS1618365810136","","","null","","","","","","<p><img src= images/blank.png width =""600"" height = ""600"" style=""position:fixed;top:50%; left:50%; transform: translate(-50%, -50%); border:5px solid black"">","","","","","","","",""
"","3269.7900000057416","sequential-stimulus-presentation-old","80","333200","0.0-21.0-1.0","SS1618365810136","trial","","40","500","3769.7900000057416","images/stimuli/spore_stims/simple_17_A_a.gif","images/stimuli/spore_stims/simple_16_A_b.gif","forced_short","","6","simple_dissimilar","images/stimuli/spore_stims/simple_16_A_b.gif","","","","",""
"","null","html-keyboard-response","81","334145","0.0-21.0-0.1","SS1618365810136","","","null","","","","","","<p><img src= images/blank.png width =""600"" height = ""600"" style=""position:fixed;top:50%; left:50%; transform: translate(-50%, -50%); border:5px solid black"">","","","","","","","",""
"","895.3349999937927","sequential-stimulus-presentation-old","82","335551","0.0-21.0-1.1","SS1618365810136","trial","","40","500","1395.3349999937927","images/stimuli/spore_stims/simple_17_A_a.gif","images/stimuli/spore_stims/simple_16_A_b.gif","forced_short","","6","simple_dissimilar","images/stimuli/spore_stims/simple_16_A_b.gif","","","","",""
"","null","html-keyboard-response","83","336582","0.0-21.0-0.2","SS1618365810136","","","null","","","","","","<p><img src= images/blank.png width =""600"" height = ""600"" style=""position:fixed;top:50%; left:50%; transform: translate(-50%, -50%); border:5px solid black"">","","","","","","","",""
"","1502.249999990454","sequential-stimulus-presentation-old","84","338591","0.0-21.0-1.2","SS1618365810136","trial","","40","500","2002.249999990454","images/stimuli/spore_stims/simple_17_A_a.gif","images/stimuli/spore_stims/simple_16_A_b.gif","forced_short","","6","simple_dissimilar","images/stimuli/spore_stims/simple_17_A_a.gif","","","","",""
"","null","html-keyboard-response","85","339661","0.0-21.0-0.3","SS1618365810136","","","null","","","","","","<p><img src= images/blank.png width =""600"" height = ""600"" style=""position:fixed;top:50%; left:50%; transform: translate(-50%, -50%); border:5px solid black"">","","","","","","","",""
"","43.72499999590218","sequential-stimulus-presentation-old","86","340212","0.0-21.0-1.3","SS1618365810136","trial","","40","500","543.7249999959022","images/stimuli/spore_stims/simple_17_A_a.gif","images/stimuli/spore_stims/simple_16_A_b.gif","forced_short","","6","simple_dissimilar","images/stimuli/spore_stims/simple_16_A_b.gif","","","","",""
"","2961.5800000028685","survey-multi-choice","87","343179","0.0-22.0","SS1618365810136","math_question","","","","","","","","","","","","{""Q0"":""6""}","[0]","6","",""
"","null","html-keyboard-response","88","344470","0.0-23.0-0.0","SS1618365810136","","","null","","","","","","<p><img src= images/blank.png width =""600"" height = ""600"" style=""position:fixed;top:50%; left:50%; transform: translate(-50%, -50%); border:5px solid black"">","","","","","","","",""
"","4137.759999997797","sequential-stimulus-presentation-old","89","349116","0.0-23.0-1.0","SS1618365810136","trial","","40","500","4637.759999997797","images/stimuli/spore_stims/complex_06_A_a.gif","images/stimuli/spore_stims/complex_01_A_b.gif","self_paced","","7","complex_dissimilar","images/stimuli/spore_stims/complex_01_A_b.gif","","","","",""
"","null","html-keyboard-response","90","350248","0.0-23.0-0.1","SS1618365810136","","","null","","","","","","<p><img src= images/blank.png width =""600"" height = ""600"" style=""position:fixed;top:50%; left:50%; transform: translate(-50%, -50%); border:5px solid black"">","","","","","","","",""
"","1619.6100000088336","sequential-stimulus-presentation-old","91","352377","0.0-23.0-1.1","SS1618365810136","trial","","40","500","2119.6100000088336","images/stimuli/spore_stims/complex_06_A_a.gif","images/stimuli/spore_stims/complex_01_A_b.gif","self_paced","","7","complex_dissimilar","images/stimuli/spore_stims/complex_06_A_a.gif","","","","",""
"","null","html-keyboard-response","92","353360","0.0-23.0-0.2","SS1618365810136","","","null","","","","","","<p><img src= images/blank.png width =""600"" height = ""600"" style=""position:fixed;top:50%; left:50%; transform: translate(-50%, -50%); border:5px solid black"">","","","","","","","",""
"","1631.2650000036228","sequential-stimulus-presentation-old","93","355500","0.0-23.0-1.2","SS1618365810136","trial","","40","500","2131.265000003623","images/stimuli/spore_stims/complex_06_A_a.gif","images/stimuli/spore_stims/complex_01_A_b.gif","self_paced","","7","complex_dissimilar","images/stimuli/spore_stims/complex_01_A_b.gif","","","","",""
"","null","html-keyboard-response","94","356692","0.0-23.0-0.3","SS1618365810136","","","null","","","","","","<p><img src= images/blank.png width =""600"" height = ""600"" style=""position:fixed;top:50%; left:50%; transform: translate(-50%, -50%); border:5px solid black"">","","","","","","","",""
"","272.87499999511056","sequential-stimulus-presentation-old","95","357476","0.0-23.0-1.3","SS1618365810136","trial","","40","500","772.8749999951106","images/stimuli/spore_stims/complex_06_A_a.gif","images/stimuli/spore_stims/complex_01_A_b.gif","self_paced","","7","complex_dissimilar","images/stimuli/spore_stims/complex_01_A_b.gif","","","","",""
"","null","html-keyboard-response","96","358567","0.0-23.0-0.4","SS1618365810136","","","null","","","","","","<p><img src= images/blank.png width =""600"" height = ""600"" style=""position:fixed;top:50%; left:50%; transform: translate(-50%, -50%); border:5px solid black"">","","","","","","","",""
"","198.24499999231193","sequential-stimulus-presentation-old","97","359277","0.0-23.0-1.4","SS1618365810136","trial","","40","500","698.2449999923119","images/stimuli/spore_stims/complex_06_A_a.gif","images/stimuli/spore_stims/complex_01_A_b.gif","self_paced","","7","complex_dissimilar","images/stimuli/spore_stims/complex_06_A_a.gif","","","","",""
"","2938.7750000023516","survey-multi-choice","98","362222","0.0-24.0","SS1618365810136","math_question","","","","","","","","","","","","{""Q0"":""9""}","[0]","9","",""
"","null","html-keyboard-response","99","363443","0.0-25.0-0.0","SS1618365810136","","","null","","","","","","<p><img src= images/blank.png width =""600"" height = ""600"" style=""position:fixed;top:50%; left:50%; transform: translate(-50%, -50%); border:5px solid black"">","","","","","","","",""
"","1018.8899999920977","sequential-stimulus-presentation-old","100","364524","0.0-25.0-1.0","SS1618365810136","trial","","40","500","1518.8899999920977","images/stimuli/spore_stims/complex_17_A_b.gif","images/stimuli/spore_stims/complex_04_A_a.gif","forced_short","","8","complex_dissimilar","images/stimuli/spore_stims/complex_04_A_a.gif","","","","",""
"","null","html-keyboard-response","101","365597","0.0-25.0-0.1","SS1618365810136","","","null","","","","","","<p><img src= images/blank.png width =""600"" height = ""600"" style=""position:fixed;top:50%; left:50%; transform: translate(-50%, -50%); border:5px solid black"">","","","","","","","",""
"","132.40999999106862","sequential-stimulus-presentation-old","102","366237","0.0-25.0-1.1","SS1618365810136","trial","","40","500","632.4099999910686","images/stimuli/spore_stims/complex_17_A_b.gif","images/stimuli/spore_stims/complex_04_A_a.gif","forced_short","","8","complex_dissimilar","images/stimuli/spore_stims/complex_17_A_b.gif","","","","",""
"","null","html-keyboard-response","103","367071","0.0-25.0-0.2","SS1618365810136","","","null","","","","","","<p><img src= images/blank.png width =""600"" height = ""600"" style=""position:fixed;top:50%; left:50%; transform: translate(-50%, -50%); border:5px solid black"">","","","","","","","",""
"","128.31000000005588","sequential-stimulus-presentation-old","104","367711","0.0-25.0-1.2","SS1618365810136","trial","","40","500","628.3100000000559","images/stimuli/spore_stims/complex_17_A_b.gif","images/stimuli/spore_stims/complex_04_A_a.gif","forced_short","","8","complex_dissimilar","images/stimuli/spore_stims/complex_04_A_a.gif","","","","",""
"","null","html-keyboard-response","105","368899","0.0-25.0-0.3","SS1618365810136","","","null","","","","","","<p><img src= images/blank.png width =""600"" height = ""600"" style=""position:fixed;top:50%; left:50%; transform: translate(-50%, -50%); border:5px solid black"">","","","","","","","",""
"","3698.994999998831","sequential-stimulus-presentation-old","106","373107","0.0-25.0-1.3","SS1618365810136","trial","","40","500","4198.994999998831","images/stimuli/spore_stims/complex_17_A_b.gif","images/stimuli/spore_stims/complex_04_A_a.gif","forced_short","","8","complex_dissimilar","images/stimuli/spore_stims/complex_04_A_a.gif","","","","",""
"","null","html-keyboard-response","107","374356","0.0-25.0-0.4","SS1618365810136","","","null","","","","","","<p><img src= images/blank.png width =""600"" height = ""600"" style=""position:fixed;top:50%; left:50%; transform: translate(-50%, -50%); border:5px solid black"">","","","","","","","",""
"","2185.8550000033574","sequential-stimulus-presentation-old","108","377052","0.0-25.0-1.4","SS1618365810136","trial","","40","500","2685.8550000033574","images/stimuli/spore_stims/complex_17_A_b.gif","images/stimuli/spore_stims/complex_04_A_a.gif","forced_short","","8","complex_dissimilar","images/stimuli/spore_stims/complex_17_A_b.gif","","","","",""
"","4210.869999995339","survey-multi-choice","109","381269","0.0-26.0","SS1618365810136","math_question","","","","","","","","","","","","{""Q0"":""7""}","[0]","7","",""
"","null","html-keyboard-response","110","382155","0.0-27.0-0.0","SS1618365810136","","","null","","","","","","<p><img src= images/blank.png width =""600"" height = ""600"" style=""position:fixed;top:50%; left:50%; transform: translate(-50%, -50%); border:5px solid black"">","","","","","","","",""
"","1803.8649999944028","sequential-stimulus-presentation-old","111","384469","0.0-27.0-1.0","SS1618365810136","trial","","40","500","2303.8649999944028","images/stimuli/spore_stims/complex_15_A_a.gif","images/stimuli/spore_stims/complex_11_A_b.gif","self_paced","","9","complex_dissimilar","images/stimuli/spore_stims/complex_11_A_b.gif","","","","",""
"","null","html-keyboard-response","112","385639","0.0-27.0-0.1","SS1618365810136","","","null","","","","","","<p><img src= images/blank.png width =""600"" height = ""600"" style=""position:fixed;top:50%; left:50%; transform: translate(-50%, -50%); border:5px solid black"">","","","","","","","",""
"","1908.5900000063702","sequential-stimulus-presentation-old","113","388057","0.0-27.0-1.1","SS1618365810136","trial","","40","500","2408.5900000063702","images/stimuli/spore_stims/complex_15_A_a.gif","images/stimuli/spore_stims/complex_11_A_b.gif","self_paced","","9","complex_dissimilar","images/stimuli/spore_stims/complex_15_A_a.gif","","","","",""
"","null","html-keyboard-response","114","389148","0.0-27.0-0.2","SS1618365810136","","","null","","","","","","<p><img src= images/blank.png width =""600"" height = ""600"" style=""position:fixed;top:50%; left:50%; transform: translate(-50%, -50%); border:5px solid black"">","","","","","","","",""
"","631.0300000041025","sequential-stimulus-presentation-old","115","390287","0.0-27.0-1.2","SS1618365810136","trial","","40","500","1131.0300000041025","images/stimuli/spore_stims/complex_15_A_a.gif","images/stimuli/spore_stims/complex_11_A_b.gif","self_paced","","9","complex_dissimilar","images/stimuli/spore_stims/complex_11_A_b.gif","","","","",""
"","null","html-keyboard-response","116","391359","0.0-27.0-0.3","SS1618365810136","","","null","","","","","","<p><img src= images/blank.png width =""600"" height = ""600"" style=""position:fixed;top:50%; left:50%; transform: translate(-50%, -50%); border:5px solid black"">","","","","","","","",""
"","604.7550000075717","sequential-stimulus-presentation-old","117","392475","0.0-27.0-1.3","SS1618365810136","trial","","40","500","1104.7550000075717","images/stimuli/spore_stims/complex_15_A_a.gif","images/stimuli/spore_stims/complex_11_A_b.gif","self_paced","","9","complex_dissimilar","images/stimuli/spore_stims/complex_11_A_b.gif","","","","",""
"","null","html-keyboard-response","118","393632","0.0-27.0-0.4","SS1618365810136","","","null","","","","","","<p><img src= images/blank.png width =""600"" height = ""600"" style=""position:fixed;top:50%; left:50%; transform: translate(-50%, -50%); border:5px solid black"">","","","","","","","",""
"","238.8749999954598","sequential-stimulus-presentation-old","119","394383","0.0-27.0-1.4","SS1618365810136","trial","","40","500","738.8749999954598","images/stimuli/spore_stims/complex_15_A_a.gif","images/stimuli/spore_stims/complex_11_A_b.gif","self_paced","","9","complex_dissimilar","images/stimuli/spore_stims/complex_15_A_a.gif","","","","",""
"","3145.590000000084","survey-multi-choice","120","397536","0.0-28.0","SS1618365810136","math_question","","","","","","","","","","","","{""Q0"":""10""}","[0]","10","",""
"","null","html-keyboard-response","121","398366","0.0-29.0-0.0","SS1618365810136","","","null","","","","","","<p><img src= images/blank.png width =""600"" height = ""600"" style=""position:fixed;top:50%; left:50%; transform: translate(-50%, -50%); border:5px solid black"">","","","","","","","",""
"","2436.2200000032317","sequential-stimulus-presentation-old","122","400864","0.0-29.0-1.0","SS1618365810136","trial","","40","500","2936.2200000032317","images/stimuli/spore_stims/simple_01_A_b.gif","images/stimuli/spore_stims/simple_19_A_a.gif","forced_short","","10","simple_dissimilar","images/stimuli/spore_stims/simple_19_A_a.gif","","","","",""
"","null","html-keyboard-response","123","401905","0.0-29.0-0.1","SS1618365810136","","","null","","","","","","<p><img src= images/blank.png width =""600"" height = ""600"" style=""position:fixed;top:50%; left:50%; transform: translate(-50%, -50%); border:5px solid black"">","","","","","","","",""
"","528.4649999957765","sequential-stimulus-presentation-old","124","402942","0.0-29.0-1.1","SS1618365810136","trial","","40","500","1028.4649999957765","images/stimuli/spore_stims/simple_01_A_b.gif","images/stimuli/spore_stims/simple_19_A_a.gif","forced_short","","10","simple_dissimilar","images/stimuli/spore_stims/simple_19_A_a.gif","","","","",""
"","null","html-keyboard-response","125","404137","0.0-29.0-0.2","SS1618365810136","","","null","","","","","","<p><img src= images/blank.png width =""600"" height = ""600"" style=""position:fixed;top:50%; left:50%; transform: translate(-50%, -50%); border:5px solid black"">","","","","","","","",""
"","91.53499999956694","sequential-stimulus-presentation-old","126","404738","0.0-29.0-1.2","SS1618365810136","trial","","40","500","591.5349999995669","images/stimuli/spore_stims/simple_01_A_b.gif","images/stimuli/spore_stims/simple_19_A_a.gif","forced_short","","10","simple_dissimilar","images/stimuli/spore_stims/simple_19_A_a.gif","","","","",""
"","null","html-keyboard-response","127","405808","0.0-29.0-0.3","SS1618365810136","","","null","","","","","","<p><img src= images/blank.png width =""600"" height = ""600"" style=""position:fixed;top:50%; left:50%; transform: translate(-50%, -50%); border:5px solid black"">","","","","","","","",""
"","848.3300000079907","sequential-stimulus-presentation-old","128","407170","0.0-29.0-1.3","SS1618365810136","trial","","40","500","1348.3300000079907","images/stimuli/spore_stims/simple_01_A_b.gif","images/stimuli/spore_stims/simple_19_A_a.gif","forced_short","","10","simple_dissimilar","images/stimuli/spore_stims/simple_19_A_a.gif","","","","",""
"","null","html-keyboard-response","129","408286","0.0-29.0-0.4","SS1618365810136","","","null","","","","","","<p><img src= images/blank.png width =""600"" height = ""600"" style=""position:fixed;top:50%; left:50%; transform: translate(-50%, -50%); border:5px solid black"">","","","","","","","",""
"","359.5749999949476","sequential-stimulus-presentation-old","130","409154","0.0-29.0-1.4","SS1618365810136","trial","","40","500","859.5749999949476","images/stimuli/spore_stims/simple_01_A_b.gif","images/stimuli/spore_stims/simple_19_A_a.gif","forced_short","","10","simple_dissimilar","images/stimuli/spore_stims/simple_01_A_b.gif","","","","",""
"","5235.565000009956","survey-multi-choice","131","414399","0.0-30.0","SS1618365810136","math_question","","","","","","","","","","","","{""Q0"":""11""}","[0]","11","",""
"","null","html-keyboard-response","132","415422","0.0-31.0-0.0","SS1618365810136","","","null","","","","","","<p><img src= images/blank.png width =""600"" height = ""600"" style=""position:fixed;top:50%; left:50%; transform: translate(-50%, -50%); border:5px solid black"">","","","","","","","",""
"","10582.474999988335","sequential-stimulus-presentation-old","133","431017","0.0-31.0-1.0","SS1618365810136","trial","","40","500","11082.474999988335","images/stimuli/spore_stims/simple_20_A_a.gif","images/stimuli/spore_stims/simple_04_A_b.gif","forced_long","","11","simple_dissimilar","images/stimuli/spore_stims/simple_04_A_b.gif","","","","",""
"","null","html-keyboard-response","134","432203","0.0-31.0-0.1","SS1618365810136","","","null","","","","","","<p><img src= images/blank.png width =""600"" height = ""600"" style=""position:fixed;top:50%; left:50%; transform: translate(-50%, -50%); border:5px solid black"">","","","","","","","",""
"","649.8300000093877","sequential-stimulus-presentation-old","135","433365","0.0-31.0-1.1","SS1618365810136","trial","","40","500","1149.8300000093877","images/stimuli/spore_stims/simple_20_A_a.gif","images/stimuli/spore_stims/simple_04_A_b.gif","forced_long","","11","simple_dissimilar","images/stimuli/spore_stims/simple_20_A_a.gif","","","","",""
"","null","html-keyboard-response","136","434442","0.0-31.0-0.2","SS1618365810136","","","null","","","","","","<p><img src= images/blank.png width =""600"" height = ""600"" style=""position:fixed;top:50%; left:50%; transform: translate(-50%, -50%); border:5px solid black"">","","","","","","","",""
"","168.28500000701752","sequential-stimulus-presentation-old","137","435123","0.0-31.0-1.2","SS1618365810136","trial","","40","500","668.2850000070175","images/stimuli/spore_stims/simple_20_A_a.gif","images/stimuli/spore_stims/simple_04_A_b.gif","forced_long","","11","simple_dissimilar","images/stimuli/spore_stims/simple_04_A_b.gif","","","","",""
"","null","html-keyboard-response","138","436288","0.0-31.0-0.3","SS1618365810136","","","null","","","","","","<p><img src= images/blank.png width =""600"" height = ""600"" style=""position:fixed;top:50%; left:50%; transform: translate(-50%, -50%); border:5px solid black"">","","","","","","","",""
"","36.915000004228204","sequential-stimulus-presentation-old","139","436834","0.0-31.0-1.3","SS1618365810136","trial","","40","500","536.9150000042282","images/stimuli/spore_stims/simple_20_A_a.gif","images/stimuli/spore_stims/simple_04_A_b.gif","forced_long","","11","simple_dissimilar","images/stimuli/spore_stims/simple_04_A_b.gif","","","","",""
"","null","html-keyboard-response","140","437946","0.0-31.0-0.4","SS1618365810136","","","null","","","","","","<p><img src= images/blank.png width =""600"" height = ""600"" style=""position:fixed;top:50%; left:50%; transform: translate(-50%, -50%); border:5px solid black"">","","","","","","","",""
"","1554.1550000052666","sequential-stimulus-presentation-old","141","440009","0.0-31.0-1.4","SS1618365810136","trial","","40","500","2054.1550000052666","images/stimuli/spore_stims/simple_20_A_a.gif","images/stimuli/spore_stims/simple_04_A_b.gif","forced_long","","11","simple_dissimilar","images/stimuli/spore_stims/simple_04_A_b.gif","","","","",""
"[{""page_index"":0,""viewing_time"":7935.785000008764}]","7936.67500000447","instructions","142","447952","0.0-32.0","SS1618365810136","instructions","","","","","","","","","","","","","","","",""
"","8485.719999996945","survey-likert","143","456453","0.0-33.0","SS1618365810136","similarity_question","","","","","","","","","","","","{""Q0"":1}","[0]","","images/stimuli/spore_stims/complex_13_A_b.gif","images/stimuli/spore_stims/complex_09_A_a.gif"
"","4110.0749999895925","survey-likert","144","460581","0.0-34.0","SS1618365810136","similarity_question","","","","","","","","","","","","{""Q0"":4}","[0]","","images/stimuli/spore_stims/simple_20_A_a.gif","images/stimuli/spore_stims/simple_04_A_b.gif"
"","6965.660000001662","survey-likert","145","467562","0.0-35.0","SS1618365810136","similarity_question","","","","","","","","","","","","{""Q0"":1}","[0]","","images/stimuli/spore_stims/complex_07_A_a.gif","images/stimuli/spore_stims/complex_19_A_b.gif"
"","4841.664999999921","survey-likert","146","472418","0.0-36.0","SS1618365810136","similarity_question","","","","","","","","","","","","{""Q0"":5}","[0]","","images/stimuli/spore_stims/simple_02_A_a.gif","images/stimuli/spore_stims/simple_07_A_b.gif"
"","4646.760000003269","survey-likert","147","477078","0.0-37.0","SS1618365810136","similarity_question","","","","","","","","","","","","{""Q0"":1}","[0]","","images/stimuli/spore_stims/complex_20_A_b.gif","images/stimuli/spore_stims/complex_02_A_a.gif"
"","4846.570000008796","survey-likert","148","481940","0.0-38.0","SS1618365810136","similarity_question","","","","","","","","","","","","{""Q0"":2}","[0]","","images/stimuli/spore_stims/simple_17_A_a.gif","images/stimuli/spore_stims/simple_16_A_b.gif"
"","3512.8100000001723","survey-likert","149","485466","0.0-39.0","SS1618365810136","similarity_question","","","","","","","","","","","","{""Q0"":4}","[0]","","images/stimuli/spore_stims/simple_15_A_b.gif","images/stimuli/spore_stims/simple_09_A_a.gif"
"","3942.754999996396","survey-likert","150","489423","0.0-40.0","SS1618365810136","similarity_question","","","","","","","","","","","","{""Q0"":1}","[0]","","images/stimuli/spore_stims/complex_04_A_a.gif","images/stimuli/spore_stims/complex_17_A_b.gif"
"","4135.929999989457","survey-likert","151","493569","0.0-41.0","SS1618365810136","similarity_question","","","","","","","","","","","","{""Q0"":1}","[0]","","images/stimuli/spore_stims/complex_06_A_a.gif","images/stimuli/spore_stims/complex_01_A_b.gif"
"","6219.194999997853","survey-likert","152","499801","0.0-42.0","SS1618365810136","similarity_question","","","","","","","","","","","","{""Q0"":4}","[0]","","images/stimuli/spore_stims/simple_19_A_a.gif","images/stimuli/spore_stims/simple_01_A_b.gif"
"","3811.714999988908","survey-likert","153","503625","0.0-43.0","SS1618365810136","similarity_question","","","","","","","","","","","","{""Q0"":0}","[0]","","images/stimuli/spore_stims/complex_15_A_a.gif","images/stimuli/spore_stims/complex_11_A_b.gif"
"","5496.0099999880185","survey-likert","154","509134","0.0-44.0","SS1618365810136","similarity_question","","","","","","","","","","","","{""Q0"":2}","[0]","","images/stimuli/spore_stims/simple_07_A_a.gif","images/stimuli/spore_stims/simple_09_A_b.gif"
"[{""page_index"":0,""viewing_time"":7819.000000003143}]","7819.974999991246","instructions","155","516964","0.0-45.0","SS1618365810136","instructions","","","","","","","","","","","","","","","",""
"","4308.424999995623","survey-likert","156","521286","0.0-46.0","SS1618365810136","","","","","","","","","images/stimuli/spore_stims/simple_07_A_a.gif","","","","{""Q0"":1}","[0]","","",""
"","5027.620000008028","survey-likert","157","526325","0.0-47.0","SS1618365810136","","","","","","","","","images/stimuli/spore_stims/complex_04_A_a.gif","","","","{""Q0"":5}","[0]","","",""
"","3263.474999999744","survey-likert","158","529604","0.0-48.0","SS1618365810136","","","","","","","","","images/stimuli/spore_stims/simple_19_A_a.gif","","","","{""Q0"":1}","[0]","","",""
"","4457.764999999199","survey-likert","159","534076","0.0-49.0","SS1618365810136","","","","","","","","","images/stimuli/spore_stims/complex_19_A_b.gif","","","","{""Q0"":4}","[0]","","",""
"","4259.66999999946","survey-likert","160","538350","0.0-50.0","SS1618365810136","","","","","","","","","images/stimuli/spore_stims/simple_17_A_a.gif","","","","{""Q0"":0}","[0]","","",""
"","3693.38000001153","survey-likert","161","542056","0.0-51.0","SS1618365810136","","","","","","","","","images/stimuli/spore_stims/complex_01_A_b.gif","","","","{""Q0"":4}","[0]","","",""
"","4804.0500000061","survey-likert","162","546874","0.0-52.0","SS1618365810136","","","","","","","","","images/stimuli/spore_stims/complex_15_A_a.gif","","","","{""Q0"":5}","[0]","","",""
"","4624.195000011241","survey-likert","163","551509","0.0-53.0","SS1618365810136","","","","","","","","","images/stimuli/spore_stims/complex_02_A_a.gif","","","","{""Q0"":6}","[0]","","",""
"","3235.14500001329","survey-likert","164","554757","0.0-54.0","SS1618365810136","","","","","","","","","images/stimuli/spore_stims/simple_09_A_a.gif","","","","{""Q0"":0}","[0]","","",""
"","3673.8900000054855","survey-likert","165","558446","0.0-55.0","SS1618365810136","","","","","","","","","images/stimuli/spore_stims/simple_20_A_a.gif","","","","{""Q0"":1}","[0]","","",""
"","3600.6349999952363","survey-likert","166","562059","0.0-56.0","SS1618365810136","","","","","","","","","images/stimuli/spore_stims/simple_02_A_a.gif","","","","{""Q0"":0}","[0]","","",""
"","3881.7800000106217","survey-likert","167","565955","0.0-57.0","SS1618365810136","","","","","","","","","images/stimuli/spore_stims/complex_13_A_b.gif","","","","{""Q0"":5}","[0]","","",""
"[{""page_index"":0,""viewing_time"":4830.175000010058}]","4831.07500000915","instructions","168","570795","0.0-58.0","SS1618365810136","instructions","","","","","","","","","","","","","","","",""
"","3423.2950000005076","demog-age","169","574242","0.0-59.0","SS1618365810136","","","","","","","","","","","","","{""age"":""21""}","","","",""
"","2881.3500000105705","demog-ethnic-US","170","577145","0.0-60.0","SS1618365810136","","","","","","","","","","","","","{""ethnicity"":[""Hispanic or Latino""]}","[0]","","",""
"","11292.51500000828","demog-gender-and-education","171","588453","0.0-61.0","SS1618365810136","","","","","","","","","","","","","{""gender"":""Male"",""education"":""Bachelor's Degree""}","[0,1]","","",""
"","9198.355000000447","survey-text","172","597678","0.0-62.0","SS1618365810136","feedback","","","","","","","","","","","","{""Q0"":""No""}","","","",""
"[{""page_index"":0,""viewing_time"":3462.020000006305}]","3462.874999997439","instructions","173","601151","0.0-63.0","SS1618365810136","instructions","","","","","","","","","","","","","","","",""
