"view_history","rt","trial_type","trial_index","time_elapsed","internal_node_id","subject","stimulus_type","trial_stimulus","key_press","minimum_viewing_duration","trial_looking_time","block_deviant","block_background","exposure_type","stimulus","block_number","block_type","stimulus_displayed","responses","question_order","math_correct_answer","stimulus_left","stimulus_right"
"[{""page_index"":0,""viewing_time"":7612.395000003744}]","7613.949999999022","instructions","0","7616","0.0-0.0","SS1618435648254","","","","","","","","","","","","","","","","",""
"[{""page_index"":0,""viewing_time"":12254.335000005085},{""page_index"":1,""viewing_time"":7079.865000006976}]","19334.645000024466","instructions","1","28957","0.0-1.0","SS1618435648254","instructions","","","","","","","","","","","","","","","",""
"","6785.105000017211","sequential-stimulus-presentation-old","2","36247","0.0-2.0","SS1618435648254","","","40","500","7285.105000017211","null","null","self_paced","","","","","","","","",""
"","3799.425000004703","sequential-stimulus-presentation-old","3","40549","0.0-3.0","SS1618435648254","","","40","500","4299.425000004703","null","null","self_paced","","","","","","","","",""
"[{""page_index"":0,""viewing_time"":8118.480000004638}]","8118.914999999106","instructions","4","48669","0.0-4.0","SS1618435648254","instructions","","","","","","","","","","","","","","","",""
"","1586.5300000004936","sequential-stimulus-presentation-old","5","55260","0.0-5.0","SS1618435648254","","","40","500","2086.5300000004936","null","null","forced_long","","","","","","","","",""
"","11388.37999998941","sequential-stimulus-presentation-old","6","66701","0.0-6.0","SS1618435648254","","","40","50","11438.37999998941","null","null","forced_long","","","","","","","","",""
"[{""page_index"":0,""viewing_time"":3821.5499999932945}]","3821.945000003325","instructions","7","70524","0.0-7.0","SS1618435648254","instructions","","","","","","","","","","","","","","","",""
"[{""page_index"":0,""viewing_time"":10205.929999996442},{""page_index"":1,""viewing_time"":6671.97500000475},{""page_index"":2,""viewing_time"":2551.9900000072084},{""page_index"":3,""viewing_time"":2016.0049999831244},{""page_index"":4,""viewing_time"":1192.0150000078138}]","22638.33000001614","instructions","8","93164","0.0-8.0","SS1618435648254","instructions","","","","","","","","","","","","","","","",""
"","null","html-keyboard-response","9","94155","0.0-9.0-0.0","SS1618435648254","","","null","","","","","","<p><img src= images/blank.png width =""600"" height = ""600"" style=""position:fixed;top:50%; left:50%; transform: translate(-50%, -50%); border:5px solid black"">","","","","","","","",""
"","176.01500000455417","sequential-stimulus-presentation-old","10","99340","0.0-9.0-1.0","SS1618435648254","trial","","40","500","676.0150000045542","images/stimuli/spore_stims/simple_05_A_a.gif","images/stimuli/spore_stims/simple_14_A_b.gif","forced_long","","0","simple_dissimilar","images/stimuli/spore_stims/simple_14_A_b.gif","","","","",""
"","null","html-keyboard-response","11","100446","0.0-9.0-0.1","SS1618435648254","","","null","","","","","","<p><img src= images/blank.png width =""600"" height = ""600"" style=""position:fixed;top:50%; left:50%; transform: translate(-50%, -50%); border:5px solid black"">","","","","","","","",""
"","452.6499999919906","sequential-stimulus-presentation-old","12","101404","0.0-9.0-1.1","SS1618435648254","trial","","40","500","952.6499999919906","images/stimuli/spore_stims/simple_05_A_a.gif","images/stimuli/spore_stims/simple_14_A_b.gif","forced_long","","0","simple_dissimilar","images/stimuli/spore_stims/simple_14_A_b.gif","","","","",""
"","null","html-keyboard-response","13","102292","0.0-9.0-0.2","SS1618435648254","","","null","","","","","","<p><img src= images/blank.png width =""600"" height = ""600"" style=""position:fixed;top:50%; left:50%; transform: translate(-50%, -50%); border:5px solid black"">","","","","","","","",""
"","470.07000001030974","sequential-stimulus-presentation-old","14","103267","0.0-9.0-1.2","SS1618435648254","trial","","40","500","970.0700000103097","images/stimuli/spore_stims/simple_05_A_a.gif","images/stimuli/spore_stims/simple_14_A_b.gif","forced_long","","0","simple_dissimilar","images/stimuli/spore_stims/simple_14_A_b.gif","","","","",""
"","null","html-keyboard-response","15","104481","0.0-9.0-0.3","SS1618435648254","","","null","","","","","","<p><img src= images/blank.png width =""600"" height = ""600"" style=""position:fixed;top:50%; left:50%; transform: translate(-50%, -50%); border:5px solid black"">","","","","","","","",""
"","409.2650000238791","sequential-stimulus-presentation-old","16","105395","0.0-9.0-1.3","SS1618435648254","trial","","40","500","909.2650000238791","images/stimuli/spore_stims/simple_05_A_a.gif","images/stimuli/spore_stims/simple_14_A_b.gif","forced_long","","0","simple_dissimilar","images/stimuli/spore_stims/simple_14_A_b.gif","","","","",""
"","null","html-keyboard-response","17","106332","0.0-9.0-0.4","SS1618435648254","","","null","","","","","","<p><img src= images/blank.png width =""600"" height = ""600"" style=""position:fixed;top:50%; left:50%; transform: translate(-50%, -50%); border:5px solid black"">","","","","","","","",""
"","14.08999998238869","sequential-stimulus-presentation-old","18","106851","0.0-9.0-1.4","SS1618435648254","trial","","40","500","514.0899999823887","images/stimuli/spore_stims/simple_05_A_a.gif","images/stimuli/spore_stims/simple_14_A_b.gif","forced_long","","0","simple_dissimilar","images/stimuli/spore_stims/simple_14_A_b.gif","","","","",""
"","null","html-keyboard-response","19","107883","0.0-9.0-0.5","SS1618435648254","","","null","","","","","","<p><img src= images/blank.png width =""600"" height = ""600"" style=""position:fixed;top:50%; left:50%; transform: translate(-50%, -50%); border:5px solid black"">","","","","","","","",""
"","1249.7200000216253","sequential-stimulus-presentation-old","20","109637","0.0-9.0-1.5","SS1618435648254","trial","","40","500","1749.7200000216253","images/stimuli/spore_stims/simple_05_A_a.gif","images/stimuli/spore_stims/simple_14_A_b.gif","forced_long","","0","simple_dissimilar","images/stimuli/spore_stims/simple_05_A_a.gif","","","","",""
"","5282.565000001341","survey-multi-choice","21","114925","0.0-10.0","SS1618435648254","math_question","","","","","","","","","","","","{""Q0"":""10""}","[0]","10","",""
"","null","html-keyboard-response","22","116189","0.0-11.0-0.0","SS1618435648254","","","null","","","","","","<p><img src= images/blank.png width =""600"" height = ""600"" style=""position:fixed;top:50%; left:50%; transform: translate(-50%, -50%); border:5px solid black"">","","","","","","","",""
"","6429.555000009714","sequential-stimulus-presentation-old","23","127627","0.0-11.0-1.0","SS1618435648254","trial","","40","500","6929.555000009714","images/stimuli/spore_stims/complex_08_A_b.gif","images/stimuli/spore_stims/complex_11_A_a.gif","forced_long","","1","complex_dissimilar","images/stimuli/spore_stims/complex_11_A_a.gif","","","","",""
"","null","html-keyboard-response","24","128588","0.0-11.0-0.1","SS1618435648254","","","null","","","","","","<p><img src= images/blank.png width =""600"" height = ""600"" style=""position:fixed;top:50%; left:50%; transform: translate(-50%, -50%); border:5px solid black"">","","","","","","","",""
"","3573.560000018915","sequential-stimulus-presentation-old","25","132667","0.0-11.0-1.1","SS1618435648254","trial","","40","500","4073.560000018915","images/stimuli/spore_stims/complex_08_A_b.gif","images/stimuli/spore_stims/complex_11_A_a.gif","forced_long","","1","complex_dissimilar","images/stimuli/spore_stims/complex_11_A_a.gif","","","","",""
"","null","html-keyboard-response","26","133691","0.0-11.0-0.2","SS1618435648254","","","null","","","","","","<p><img src= images/blank.png width =""600"" height = ""600"" style=""position:fixed;top:50%; left:50%; transform: translate(-50%, -50%); border:5px solid black"">","","","","","","","",""
"","1495.88999999105","sequential-stimulus-presentation-old","27","135691","0.0-11.0-1.2","SS1618435648254","trial","","40","500","1995.88999999105","images/stimuli/spore_stims/complex_08_A_b.gif","images/stimuli/spore_stims/complex_11_A_a.gif","forced_long","","1","complex_dissimilar","images/stimuli/spore_stims/complex_08_A_b.gif","","","","",""
"","null","html-keyboard-response","28","136587","0.0-11.0-0.3","SS1618435648254","","","null","","","","","","<p><img src= images/blank.png width =""600"" height = ""600"" style=""position:fixed;top:50%; left:50%; transform: translate(-50%, -50%); border:5px solid black"">","","","","","","","",""
"","262.53999999607913","sequential-stimulus-presentation-old","29","137355","0.0-11.0-1.3","SS1618435648254","trial","","40","500","762.5399999960791","images/stimuli/spore_stims/complex_08_A_b.gif","images/stimuli/spore_stims/complex_11_A_a.gif","forced_long","","1","complex_dissimilar","images/stimuli/spore_stims/complex_08_A_b.gif","","","","",""
"","null","html-keyboard-response","30","138213","0.0-11.0-0.4","SS1618435648254","","","null","","","","","","<p><img src= images/blank.png width =""600"" height = ""600"" style=""position:fixed;top:50%; left:50%; transform: translate(-50%, -50%); border:5px solid black"">","","","","","","","",""
"","3013.7049999902956","sequential-stimulus-presentation-old","31","141732","0.0-11.0-1.4","SS1618435648254","trial","","40","500","3513.7049999902956","images/stimuli/spore_stims/complex_08_A_b.gif","images/stimuli/spore_stims/complex_11_A_a.gif","forced_long","","1","complex_dissimilar","images/stimuli/spore_stims/complex_11_A_a.gif","","","","",""
"","null","html-keyboard-response","32","142560","0.0-11.0-0.5","SS1618435648254","","","null","","","","","","<p><img src= images/blank.png width =""600"" height = ""600"" style=""position:fixed;top:50%; left:50%; transform: translate(-50%, -50%); border:5px solid black"">","","","","","","","",""
"","652.2600000025705","sequential-stimulus-presentation-old","33","143723","0.0-11.0-1.5","SS1618435648254","trial","","40","500","1152.2600000025705","images/stimuli/spore_stims/complex_08_A_b.gif","images/stimuli/spore_stims/complex_11_A_a.gif","forced_long","","1","complex_dissimilar","images/stimuli/spore_stims/complex_11_A_a.gif","","","","",""
"","4101.900000008754","survey-multi-choice","34","147827","0.0-12.0","SS1618435648254","math_question","","","","","","","","","","","","{""Q0"":""14""}","[0]","14","",""
"","null","html-keyboard-response","35","149050","0.0-13.0-0.0","SS1618435648254","","","null","","","","","","<p><img src= images/blank.png width =""600"" height = ""600"" style=""position:fixed;top:50%; left:50%; transform: translate(-50%, -50%); border:5px solid black"">","","","","","","","",""
"","6510.559999995166","sequential-stimulus-presentation-old","36","155619","0.0-13.0-1.0","SS1618435648254","trial","","40","500","7010.559999995166","images/stimuli/spore_stims/simple_03_A_a.gif","images/stimuli/spore_stims/simple_08_A_b.gif","forced_short","","2","simple_dissimilar","images/stimuli/spore_stims/simple_08_A_b.gif","","","","",""
"","null","html-keyboard-response","37","156858","0.0-13.0-0.1","SS1618435648254","","","null","","","","","","<p><img src= images/blank.png width =""600"" height = ""600"" style=""position:fixed;top:50%; left:50%; transform: translate(-50%, -50%); border:5px solid black"">","","","","","","","",""
"","774.4499999971595","sequential-stimulus-presentation-old","38","158139","0.0-13.0-1.1","SS1618435648254","trial","","40","500","1274.4499999971595","images/stimuli/spore_stims/simple_03_A_a.gif","images/stimuli/spore_stims/simple_08_A_b.gif","forced_short","","2","simple_dissimilar","images/stimuli/spore_stims/simple_03_A_a.gif","","","","",""
"","null","html-keyboard-response","39","159042","0.0-13.0-0.2","SS1618435648254","","","null","","","","","","<p><img src= images/blank.png width =""600"" height = ""600"" style=""position:fixed;top:50%; left:50%; transform: translate(-50%, -50%); border:5px solid black"">","","","","","","","",""
"","384.6849999972619","sequential-stimulus-presentation-old","40","159930","0.0-13.0-1.2","SS1618435648254","trial","","40","500","884.6849999972619","images/stimuli/spore_stims/simple_03_A_a.gif","images/stimuli/spore_stims/simple_08_A_b.gif","forced_short","","2","simple_dissimilar","images/stimuli/spore_stims/simple_08_A_b.gif","","","","",""
"","null","html-keyboard-response","41","160974","0.0-13.0-0.3","SS1618435648254","","","null","","","","","","<p><img src= images/blank.png width =""600"" height = ""600"" style=""position:fixed;top:50%; left:50%; transform: translate(-50%, -50%); border:5px solid black"">","","","","","","","",""
"","155.6900000141468","sequential-stimulus-presentation-old","42","161634","0.0-13.0-1.3","SS1618435648254","trial","","40","500","655.6900000141468","images/stimuli/spore_stims/simple_03_A_a.gif","images/stimuli/spore_stims/simple_08_A_b.gif","forced_short","","2","simple_dissimilar","images/stimuli/spore_stims/simple_03_A_a.gif","","","","",""
"","3492.5550000043586","survey-multi-choice","43","165130","0.0-14.0","SS1618435648254","math_question","","","","","","","","","","","","{""Q0"":""7""}","[0]","7","",""
"","null","html-keyboard-response","44","166038","0.0-15.0-0.0","SS1618435648254","","","null","","","","","","<p><img src= images/blank.png width =""600"" height = ""600"" style=""position:fixed;top:50%; left:50%; transform: translate(-50%, -50%); border:5px solid black"">","","","","","","","",""
"","851.2500000069849","sequential-stimulus-presentation-old","45","167395","0.0-15.0-1.0","SS1618435648254","trial","","40","500","1351.250000006985","images/stimuli/spore_stims/simple_08_A_a.gif","images/stimuli/spore_stims/simple_19_A_b.gif","self_paced","","3","simple_dissimilar","images/stimuli/spore_stims/simple_19_A_b.gif","","","","",""
"","null","html-keyboard-response","46","168522","0.0-15.0-0.1","SS1618435648254","","","null","","","","","","<p><img src= images/blank.png width =""600"" height = ""600"" style=""position:fixed;top:50%; left:50%; transform: translate(-50%, -50%); border:5px solid black"">","","","","","","","",""
"","148.00000001559965","sequential-stimulus-presentation-old","47","169178","0.0-15.0-1.1","SS1618435648254","trial","","40","500","648.0000000155997","images/stimuli/spore_stims/simple_08_A_a.gif","images/stimuli/spore_stims/simple_19_A_b.gif","self_paced","","3","simple_dissimilar","images/stimuli/spore_stims/simple_19_A_b.gif","","","","",""
"","null","html-keyboard-response","48","170133","0.0-15.0-0.2","SS1618435648254","","","null","","","","","","<p><img src= images/blank.png width =""600"" height = ""600"" style=""position:fixed;top:50%; left:50%; transform: translate(-50%, -50%); border:5px solid black"">","","","","","","","",""
"","1267.3700000159442","sequential-stimulus-presentation-old","49","171906","0.0-15.0-1.2","SS1618435648254","trial","","40","500","1767.3700000159442","images/stimuli/spore_stims/simple_08_A_a.gif","images/stimuli/spore_stims/simple_19_A_b.gif","self_paced","","3","simple_dissimilar","images/stimuli/spore_stims/simple_08_A_a.gif","","","","",""
"","null","html-keyboard-response","50","172918","0.0-15.0-0.3","SS1618435648254","","","null","","","","","","<p><img src= images/blank.png width =""600"" height = ""600"" style=""position:fixed;top:50%; left:50%; transform: translate(-50%, -50%); border:5px solid black"">","","","","","","","",""
"","1449.270000011893","sequential-stimulus-presentation-old","51","174874","0.0-15.0-1.3","SS1618435648254","trial","","40","500","1949.270000011893","images/stimuli/spore_stims/simple_08_A_a.gif","images/stimuli/spore_stims/simple_19_A_b.gif","self_paced","","3","simple_dissimilar","images/stimuli/spore_stims/simple_19_A_b.gif","","","","",""
"","null","html-keyboard-response","52","176031","0.0-15.0-0.4","SS1618435648254","","","null","","","","","","<p><img src= images/blank.png width =""600"" height = ""600"" style=""position:fixed;top:50%; left:50%; transform: translate(-50%, -50%); border:5px solid black"">","","","","","","","",""
"","183.00500002806075","sequential-stimulus-presentation-old","53","176722","0.0-15.0-1.4","SS1618435648254","trial","","40","500","683.0050000280607","images/stimuli/spore_stims/simple_08_A_a.gif","images/stimuli/spore_stims/simple_19_A_b.gif","self_paced","","3","simple_dissimilar","images/stimuli/spore_stims/simple_19_A_b.gif","","","","",""
"","5749.559999996563","survey-multi-choice","54","182475","0.0-16.0","SS1618435648254","math_question","","","","","","","","","","","","{""Q0"":""8""}","[0]","8","",""
"","null","html-keyboard-response","55","183752","0.0-17.0-0.0","SS1618435648254","","","null","","","","","","<p><img src= images/blank.png width =""600"" height = ""600"" style=""position:fixed;top:50%; left:50%; transform: translate(-50%, -50%); border:5px solid black"">","","","","","","","",""
"","566.6550000023562","sequential-stimulus-presentation-old","56","184378","0.0-17.0-1.0","SS1618435648254","trial","","40","500","1066.6550000023562","images/stimuli/spore_stims/complex_01_A_b.gif","images/stimuli/spore_stims/complex_13_A_a.gif","forced_short","","4","complex_dissimilar","images/stimuli/spore_stims/complex_13_A_a.gif","","","","",""
"","null","html-keyboard-response","57","185604","0.0-17.0-0.1","SS1618435648254","","","null","","","","","","<p><img src= images/blank.png width =""600"" height = ""600"" style=""position:fixed;top:50%; left:50%; transform: translate(-50%, -50%); border:5px solid black"">","","","","","","","",""
"","157.92500000679865","sequential-stimulus-presentation-old","58","186266","0.0-17.0-1.1","SS1618435648254","trial","","40","500","657.9250000067987","images/stimuli/spore_stims/complex_01_A_b.gif","images/stimuli/spore_stims/complex_13_A_a.gif","forced_short","","4","complex_dissimilar","images/stimuli/spore_stims/complex_13_A_a.gif","","","","",""
"","null","html-keyboard-response","59","187305","0.0-17.0-0.2","SS1618435648254","","","null","","","","","","<p><img src= images/blank.png width =""600"" height = ""600"" style=""position:fixed;top:50%; left:50%; transform: translate(-50%, -50%); border:5px solid black"">","","","","","","","",""
"","1695.2900000032969","sequential-stimulus-presentation-old","60","189506","0.0-17.0-1.2","SS1618435648254","trial","","40","500","2195.290000003297","images/stimuli/spore_stims/complex_01_A_b.gif","images/stimuli/spore_stims/complex_13_A_a.gif","forced_short","","4","complex_dissimilar","images/stimuli/spore_stims/complex_01_A_b.gif","","","","",""
"","null","html-keyboard-response","61","190509","0.0-17.0-0.3","SS1618435648254","","","null","","","","","","<p><img src= images/blank.png width =""600"" height = ""600"" style=""position:fixed;top:50%; left:50%; transform: translate(-50%, -50%); border:5px solid black"">","","","","","","","",""
"","2777.2300000069663","sequential-stimulus-presentation-old","62","193794","0.0-17.0-1.3","SS1618435648254","trial","","40","500","3277.2300000069663","images/stimuli/spore_stims/complex_01_A_b.gif","images/stimuli/spore_stims/complex_13_A_a.gif","forced_short","","4","complex_dissimilar","images/stimuli/spore_stims/complex_13_A_a.gif","","","","",""
"","4829.010000015842","survey-multi-choice","63","198626","0.0-18.0","SS1618435648254","math_question","","","","","","","","","","","","{""Q0"":""15""}","[0]","15","",""
"","null","html-keyboard-response","64","199744","0.0-19.0-0.0","SS1618435648254","","","null","","","","","","<p><img src= images/blank.png width =""600"" height = ""600"" style=""position:fixed;top:50%; left:50%; transform: translate(-50%, -50%); border:5px solid black"">","","","","","","","",""
"","1615.4650000098627","sequential-stimulus-presentation-old","65","201865","0.0-19.0-1.0","SS1618435648254","trial","","40","500","2115.4650000098627","images/stimuli/spore_stims/complex_01_A_a.gif","images/stimuli/spore_stims/complex_15_A_b.gif","self_paced","","5","complex_dissimilar","images/stimuli/spore_stims/complex_15_A_b.gif","","","","",""
"","null","html-keyboard-response","66","202966","0.0-19.0-0.1","SS1618435648254","","","null","","","","","","<p><img src= images/blank.png width =""600"" height = ""600"" style=""position:fixed;top:50%; left:50%; transform: translate(-50%, -50%); border:5px solid black"">","","","","","","","",""
"","1570.739999995567","sequential-stimulus-presentation-old","67","205042","0.0-19.0-1.1","SS1618435648254","trial","","40","500","2070.739999995567","images/stimuli/spore_stims/complex_01_A_a.gif","images/stimuli/spore_stims/complex_15_A_b.gif","self_paced","","5","complex_dissimilar","images/stimuli/spore_stims/complex_15_A_b.gif","","","","",""
"","null","html-keyboard-response","68","206327","0.0-19.0-0.2","SS1618435648254","","","null","","","","","","<p><img src= images/blank.png width =""600"" height = ""600"" style=""position:fixed;top:50%; left:50%; transform: translate(-50%, -50%); border:5px solid black"">","","","","","","","",""
"","1531.0699999972712","sequential-stimulus-presentation-old","69","208369","0.0-19.0-1.2","SS1618435648254","trial","","40","500","2031.0699999972712","images/stimuli/spore_stims/complex_01_A_a.gif","images/stimuli/spore_stims/complex_15_A_b.gif","self_paced","","5","complex_dissimilar","images/stimuli/spore_stims/complex_15_A_b.gif","","","","",""
"","null","html-keyboard-response","70","209317","0.0-19.0-0.3","SS1618435648254","","","null","","","","","","<p><img src= images/blank.png width =""600"" height = ""600"" style=""position:fixed;top:50%; left:50%; transform: translate(-50%, -50%); border:5px solid black"">","","","","","","","",""
"","620.5950000148732","sequential-stimulus-presentation-old","71","210442","0.0-19.0-1.3","SS1618435648254","trial","","40","500","1120.5950000148732","images/stimuli/spore_stims/complex_01_A_a.gif","images/stimuli/spore_stims/complex_15_A_b.gif","self_paced","","5","complex_dissimilar","images/stimuli/spore_stims/complex_01_A_a.gif","","","","",""
"","null","html-keyboard-response","72","211384","0.0-19.0-0.4","SS1618435648254","","","null","","","","","","<p><img src= images/blank.png width =""600"" height = ""600"" style=""position:fixed;top:50%; left:50%; transform: translate(-50%, -50%); border:5px solid black"">","","","","","","","",""
"","1000.9850000205915","sequential-stimulus-presentation-old","73","212889","0.0-19.0-1.4","SS1618435648254","trial","","40","500","1500.9850000205915","images/stimuli/spore_stims/complex_01_A_a.gif","images/stimuli/spore_stims/complex_15_A_b.gif","self_paced","","5","complex_dissimilar","images/stimuli/spore_stims/complex_01_A_a.gif","","","","",""
"","null","html-keyboard-response","74","214140","0.0-19.0-0.5","SS1618435648254","","","null","","","","","","<p><img src= images/blank.png width =""600"" height = ""600"" style=""position:fixed;top:50%; left:50%; transform: translate(-50%, -50%); border:5px solid black"">","","","","","","","",""
"","604.1250000125729","sequential-stimulus-presentation-old","75","215250","0.0-19.0-1.5","SS1618435648254","trial","","40","500","1104.1250000125729","images/stimuli/spore_stims/complex_01_A_a.gif","images/stimuli/spore_stims/complex_15_A_b.gif","self_paced","","5","complex_dissimilar","images/stimuli/spore_stims/complex_15_A_b.gif","","","","",""
"","4356.325000000652","survey-multi-choice","76","219610","0.0-20.0","SS1618435648254","math_question","","","","","","","","","","","","{""Q0"":""7""}","[0]","7","",""
"","null","html-keyboard-response","77","220474","0.0-21.0-0.0","SS1618435648254","","","null","","","","","","<p><img src= images/blank.png width =""600"" height = ""600"" style=""position:fixed;top:50%; left:50%; transform: translate(-50%, -50%); border:5px solid black"">","","","","","","","",""
"","213.4749999968335","sequential-stimulus-presentation-old","78","225697","0.0-21.0-1.0","SS1618435648254","trial","","40","500","713.4749999968335","images/stimuli/spore_stims/simple_07_A_a.gif","images/stimuli/spore_stims/simple_03_A_b.gif","forced_long","","6","simple_dissimilar","images/stimuli/spore_stims/simple_03_A_b.gif","","","","",""
"","null","html-keyboard-response","79","226917","0.0-21.0-0.1","SS1618435648254","","","null","","","","","","<p><img src= images/blank.png width =""600"" height = ""600"" style=""position:fixed;top:50%; left:50%; transform: translate(-50%, -50%); border:5px solid black"">","","","","","","","",""
"","147.0850000041537","sequential-stimulus-presentation-old","80","227569","0.0-21.0-1.1","SS1618435648254","trial","","40","500","647.0850000041537","images/stimuli/spore_stims/simple_07_A_a.gif","images/stimuli/spore_stims/simple_03_A_b.gif","forced_long","","6","simple_dissimilar","images/stimuli/spore_stims/simple_07_A_a.gif","","","","",""
"","null","html-keyboard-response","81","228380","0.0-21.0-0.2","SS1618435648254","","","null","","","","","","<p><img src= images/blank.png width =""600"" height = ""600"" style=""position:fixed;top:50%; left:50%; transform: translate(-50%, -50%); border:5px solid black"">","","","","","","","",""
"","35.83000000799075","sequential-stimulus-presentation-old","82","228921","0.0-21.0-1.2","SS1618435648254","trial","","40","500","535.8300000079907","images/stimuli/spore_stims/simple_07_A_a.gif","images/stimuli/spore_stims/simple_03_A_b.gif","forced_long","","6","simple_dissimilar","images/stimuli/spore_stims/simple_03_A_b.gif","","","","",""
"","null","html-keyboard-response","83","230144","0.0-21.0-0.3","SS1618435648254","","","null","","","","","","<p><img src= images/blank.png width =""600"" height = ""600"" style=""position:fixed;top:50%; left:50%; transform: translate(-50%, -50%); border:5px solid black"">","","","","","","","",""
"","7.530000002589077","sequential-stimulus-presentation-old","84","230657","0.0-21.0-1.3","SS1618435648254","trial","","40","500","507.5300000025891","images/stimuli/spore_stims/simple_07_A_a.gif","images/stimuli/spore_stims/simple_03_A_b.gif","forced_long","","6","simple_dissimilar","images/stimuli/spore_stims/simple_03_A_b.gif","","","","",""
"","3307.954999996582","survey-multi-choice","85","233969","0.0-22.0","SS1618435648254","math_question","","","","","","","","","","","","{""Q0"":""12""}","[0]","12","",""
"","null","html-keyboard-response","86","235235","0.0-23.0-0.0","SS1618435648254","","","null","","","","","","<p><img src= images/blank.png width =""600"" height = ""600"" style=""position:fixed;top:50%; left:50%; transform: translate(-50%, -50%); border:5px solid black"">","","","","","","","",""
"","1811.8299999914598","sequential-stimulus-presentation-old","87","237105","0.0-23.0-1.0","SS1618435648254","trial","","40","500","2311.8299999914598","images/stimuli/spore_stims/simple_07_A_b.gif","images/stimuli/spore_stims/simple_12_A_a.gif","forced_short","","7","simple_dissimilar","images/stimuli/spore_stims/simple_12_A_a.gif","","","","",""
"","null","html-keyboard-response","88","238120","0.0-23.0-0.1","SS1618435648254","","","null","","","","","","<p><img src= images/blank.png width =""600"" height = ""600"" style=""position:fixed;top:50%; left:50%; transform: translate(-50%, -50%); border:5px solid black"">","","","","","","","",""
"","228.7699999869801","sequential-stimulus-presentation-old","89","238857","0.0-23.0-1.1","SS1618435648254","trial","","40","500","728.7699999869801","images/stimuli/spore_stims/simple_07_A_b.gif","images/stimuli/spore_stims/simple_12_A_a.gif","forced_short","","7","simple_dissimilar","images/stimuli/spore_stims/simple_07_A_b.gif","","","","",""
"","null","html-keyboard-response","90","240047","0.0-23.0-0.2","SS1618435648254","","","null","","","","","","<p><img src= images/blank.png width =""600"" height = ""600"" style=""position:fixed;top:50%; left:50%; transform: translate(-50%, -50%); border:5px solid black"">","","","","","","","",""
"","920.3900000138674","sequential-stimulus-presentation-old","91","241473","0.0-23.0-1.2","SS1618435648254","trial","","40","500","1420.3900000138674","images/stimuli/spore_stims/simple_07_A_b.gif","images/stimuli/spore_stims/simple_12_A_a.gif","forced_short","","7","simple_dissimilar","images/stimuli/spore_stims/simple_12_A_a.gif","","","","",""
"","null","html-keyboard-response","92","242306","0.0-23.0-0.3","SS1618435648254","","","null","","","","","","<p><img src= images/blank.png width =""600"" height = ""600"" style=""position:fixed;top:50%; left:50%; transform: translate(-50%, -50%); border:5px solid black"">","","","","","","","",""
"","544.3899999954738","sequential-stimulus-presentation-old","93","243360","0.0-23.0-1.3","SS1618435648254","trial","","40","500","1044.3899999954738","images/stimuli/spore_stims/simple_07_A_b.gif","images/stimuli/spore_stims/simple_12_A_a.gif","forced_short","","7","simple_dissimilar","images/stimuli/spore_stims/simple_12_A_a.gif","","","","",""
"","null","html-keyboard-response","94","244218","0.0-23.0-0.4","SS1618435648254","","","null","","","","","","<p><img src= images/blank.png width =""600"" height = ""600"" style=""position:fixed;top:50%; left:50%; transform: translate(-50%, -50%); border:5px solid black"">","","","","","","","",""
"","234.12000000826083","sequential-stimulus-presentation-old","95","244961","0.0-23.0-1.4","SS1618435648254","trial","","40","500","734.1200000082608","images/stimuli/spore_stims/simple_07_A_b.gif","images/stimuli/spore_stims/simple_12_A_a.gif","forced_short","","7","simple_dissimilar","images/stimuli/spore_stims/simple_12_A_a.gif","","","","",""
"","null","html-keyboard-response","96","245991","0.0-23.0-0.5","SS1618435648254","","","null","","","","","","<p><img src= images/blank.png width =""600"" height = ""600"" style=""position:fixed;top:50%; left:50%; transform: translate(-50%, -50%); border:5px solid black"">","","","","","","","",""
"","248.49999998696148","sequential-stimulus-presentation-old","97","246745","0.0-23.0-1.5","SS1618435648254","trial","","40","500","748.4999999869615","images/stimuli/spore_stims/simple_07_A_b.gif","images/stimuli/spore_stims/simple_12_A_a.gif","forced_short","","7","simple_dissimilar","images/stimuli/spore_stims/simple_07_A_b.gif","","","","",""
"","4371.840000007069","survey-multi-choice","98","251120","0.0-24.0","SS1618435648254","math_question","","","","","","","","","","","","{""Q0"":""13""}","[0]","13","",""
"","null","html-keyboard-response","99","252142","0.0-25.0-0.0","SS1618435648254","","","null","","","","","","<p><img src= images/blank.png width =""600"" height = ""600"" style=""position:fixed;top:50%; left:50%; transform: translate(-50%, -50%); border:5px solid black"">","","","","","","","",""
"","2640.4700000130106","sequential-stimulus-presentation-old","100","255289","0.0-25.0-1.0","SS1618435648254","trial","","40","500","3140.4700000130106","images/stimuli/spore_stims/complex_10_A_b.gif","images/stimuli/spore_stims/complex_03_A_a.gif","self_paced","","8","complex_dissimilar","images/stimuli/spore_stims/complex_03_A_a.gif","","","","",""
"","null","html-keyboard-response","101","256588","0.0-25.0-0.1","SS1618435648254","","","null","","","","","","<p><img src= images/blank.png width =""600"" height = ""600"" style=""position:fixed;top:50%; left:50%; transform: translate(-50%, -50%); border:5px solid black"">","","","","","","","",""
"","1071.7050000093877","sequential-stimulus-presentation-old","102","258168","0.0-25.0-1.1","SS1618435648254","trial","","40","500","1571.7050000093877","images/stimuli/spore_stims/complex_10_A_b.gif","images/stimuli/spore_stims/complex_03_A_a.gif","self_paced","","8","complex_dissimilar","images/stimuli/spore_stims/complex_03_A_a.gif","","","","",""
"","null","html-keyboard-response","103","259333","0.0-25.0-0.2","SS1618435648254","","","null","","","","","","<p><img src= images/blank.png width =""600"" height = ""600"" style=""position:fixed;top:50%; left:50%; transform: translate(-50%, -50%); border:5px solid black"">","","","","","","","",""
"","32.565000001341105","sequential-stimulus-presentation-old","104","259873","0.0-25.0-1.2","SS1618435648254","trial","","40","500","532.5650000013411","images/stimuli/spore_stims/complex_10_A_b.gif","images/stimuli/spore_stims/complex_03_A_a.gif","self_paced","","8","complex_dissimilar","images/stimuli/spore_stims/complex_03_A_a.gif","","","","",""
"","null","html-keyboard-response","105","260713","0.0-25.0-0.3","SS1618435648254","","","null","","","","","","<p><img src= images/blank.png width =""600"" height = ""600"" style=""position:fixed;top:50%; left:50%; transform: translate(-50%, -50%); border:5px solid black"">","","","","","","","",""
"","9.335000009741634","sequential-stimulus-presentation-old","106","261233","0.0-25.0-1.3","SS1618435648254","trial","","40","500","509.33500000974163","images/stimuli/spore_stims/complex_10_A_b.gif","images/stimuli/spore_stims/complex_03_A_a.gif","self_paced","","8","complex_dissimilar","images/stimuli/spore_stims/complex_03_A_a.gif","","","","",""
"","null","html-keyboard-response","107","262227","0.0-25.0-0.4","SS1618435648254","","","null","","","","","","<p><img src= images/blank.png width =""600"" height = ""600"" style=""position:fixed;top:50%; left:50%; transform: translate(-50%, -50%); border:5px solid black"">","","","","","","","",""
"","1187.9299999854993","sequential-stimulus-presentation-old","108","263921","0.0-25.0-1.4","SS1618435648254","trial","","40","500","1687.9299999854993","images/stimuli/spore_stims/complex_10_A_b.gif","images/stimuli/spore_stims/complex_03_A_a.gif","self_paced","","8","complex_dissimilar","images/stimuli/spore_stims/complex_03_A_a.gif","","","","",""
"","null","html-keyboard-response","109","265200","0.0-25.0-0.5","SS1618435648254","","","null","","","","","","<p><img src= images/blank.png width =""600"" height = ""600"" style=""position:fixed;top:50%; left:50%; transform: translate(-50%, -50%); border:5px solid black"">","","","","","","","",""
"","1197.7999999944586","sequential-stimulus-presentation-old","110","266904","0.0-25.0-1.5","SS1618435648254","trial","","40","500","1697.7999999944586","images/stimuli/spore_stims/complex_10_A_b.gif","images/stimuli/spore_stims/complex_03_A_a.gif","self_paced","","8","complex_dissimilar","images/stimuli/spore_stims/complex_03_A_a.gif","","","","",""
"","4444.370000011986","survey-multi-choice","111","271353","0.0-26.0","SS1618435648254","math_question","","","","","","","","","","","","{""Q0"":""11""}","[0]","11","",""
"","null","html-keyboard-response","112","272421","0.0-27.0-0.0","SS1618435648254","","","null","","","","","","<p><img src= images/blank.png width =""600"" height = ""600"" style=""position:fixed;top:50%; left:50%; transform: translate(-50%, -50%); border:5px solid black"">","","","","","","","",""
"","8790.104999992764","sequential-stimulus-presentation-old","113","281272","0.0-27.0-1.0","SS1618435648254","trial","","40","500","9290.104999992764","images/stimuli/spore_stims/complex_09_A_a.gif","images/stimuli/spore_stims/complex_05_A_b.gif","forced_short","","9","complex_dissimilar","images/stimuli/spore_stims/complex_05_A_b.gif","","","","",""
"","null","html-keyboard-response","114","282117","0.0-27.0-0.1","SS1618435648254","","","null","","","","","","<p><img src= images/blank.png width =""600"" height = ""600"" style=""position:fixed;top:50%; left:50%; transform: translate(-50%, -50%); border:5px solid black"">","","","","","","","",""
"","3281.0349999926984","sequential-stimulus-presentation-old","115","285908","0.0-27.0-1.1","SS1618435648254","trial","","40","500","3781.0349999926984","images/stimuli/spore_stims/complex_09_A_a.gif","images/stimuli/spore_stims/complex_05_A_b.gif","forced_short","","9","complex_dissimilar","images/stimuli/spore_stims/complex_05_A_b.gif","","","","",""
"","null","html-keyboard-response","116","286811","0.0-27.0-0.2","SS1618435648254","","","null","","","","","","<p><img src= images/blank.png width =""600"" height = ""600"" style=""position:fixed;top:50%; left:50%; transform: translate(-50%, -50%); border:5px solid black"">","","","","","","","",""
"","407.10500002023764","sequential-stimulus-presentation-old","117","287725","0.0-27.0-1.2","SS1618435648254","trial","","40","500","907.1050000202376","images/stimuli/spore_stims/complex_09_A_a.gif","images/stimuli/spore_stims/complex_05_A_b.gif","forced_short","","9","complex_dissimilar","images/stimuli/spore_stims/complex_05_A_b.gif","","","","",""
"","null","html-keyboard-response","118","288762","0.0-27.0-0.3","SS1618435648254","","","null","","","","","","<p><img src= images/blank.png width =""600"" height = ""600"" style=""position:fixed;top:50%; left:50%; transform: translate(-50%, -50%); border:5px solid black"">","","","","","","","",""
"","194.645000010496","sequential-stimulus-presentation-old","119","289464","0.0-27.0-1.3","SS1618435648254","trial","","40","500","694.645000010496","images/stimuli/spore_stims/complex_09_A_a.gif","images/stimuli/spore_stims/complex_05_A_b.gif","forced_short","","9","complex_dissimilar","images/stimuli/spore_stims/complex_05_A_b.gif","","","","",""
"","null","html-keyboard-response","120","290580","0.0-27.0-0.4","SS1618435648254","","","null","","","","","","<p><img src= images/blank.png width =""600"" height = ""600"" style=""position:fixed;top:50%; left:50%; transform: translate(-50%, -50%); border:5px solid black"">","","","","","","","",""
"","248.97000001510605","sequential-stimulus-presentation-old","121","291336","0.0-27.0-1.4","SS1618435648254","trial","","40","500","748.970000015106","images/stimuli/spore_stims/complex_09_A_a.gif","images/stimuli/spore_stims/complex_05_A_b.gif","forced_short","","9","complex_dissimilar","images/stimuli/spore_stims/complex_05_A_b.gif","","","","",""
"","3572.005000023637","survey-multi-choice","122","294912","0.0-28.0","SS1618435648254","math_question","","","","","","","","","","","","{""Q0"":""7""}","[0]","7","",""
"","null","html-keyboard-response","123","295919","0.0-29.0-0.0","SS1618435648254","","","null","","","","","","<p><img src= images/blank.png width =""600"" height = ""600"" style=""position:fixed;top:50%; left:50%; transform: translate(-50%, -50%); border:5px solid black"">","","","","","","","",""
"","4206.5850000071805","sequential-stimulus-presentation-old","124","305136","0.0-29.0-1.0","SS1618435648254","trial","","40","500","4706.5850000071805","images/stimuli/spore_stims/complex_13_A_b.gif","images/stimuli/spore_stims/complex_08_A_a.gif","forced_long","","10","complex_dissimilar","images/stimuli/spore_stims/complex_08_A_a.gif","","","","",""
"","null","html-keyboard-response","125","306373","0.0-29.0-0.1","SS1618435648254","","","null","","","","","","<p><img src= images/blank.png width =""600"" height = ""600"" style=""position:fixed;top:50%; left:50%; transform: translate(-50%, -50%); border:5px solid black"">","","","","","","","",""
"","2541.6299999924377","sequential-stimulus-presentation-old","126","309424","0.0-29.0-1.1","SS1618435648254","trial","","40","500","3041.6299999924377","images/stimuli/spore_stims/complex_13_A_b.gif","images/stimuli/spore_stims/complex_08_A_a.gif","forced_long","","10","complex_dissimilar","images/stimuli/spore_stims/complex_08_A_a.gif","","","","",""
"","null","html-keyboard-response","127","310583","0.0-29.0-0.2","SS1618435648254","","","null","","","","","","<p><img src= images/blank.png width =""600"" height = ""600"" style=""position:fixed;top:50%; left:50%; transform: translate(-50%, -50%); border:5px solid black"">","","","","","","","",""
"","1833.9349999732804","sequential-stimulus-presentation-old","128","312927","0.0-29.0-1.2","SS1618435648254","trial","","40","500","2333.9349999732804","images/stimuli/spore_stims/complex_13_A_b.gif","images/stimuli/spore_stims/complex_08_A_a.gif","forced_long","","10","complex_dissimilar","images/stimuli/spore_stims/complex_08_A_a.gif","","","","",""
"","null","html-keyboard-response","129","313909","0.0-29.0-0.3","SS1618435648254","","","null","","","","","","<p><img src= images/blank.png width =""600"" height = ""600"" style=""position:fixed;top:50%; left:50%; transform: translate(-50%, -50%); border:5px solid black"">","","","","","","","",""
"","52.55500000203028","sequential-stimulus-presentation-old","130","314472","0.0-29.0-1.3","SS1618435648254","trial","","40","500","552.5550000020303","images/stimuli/spore_stims/complex_13_A_b.gif","images/stimuli/spore_stims/complex_08_A_a.gif","forced_long","","10","complex_dissimilar","images/stimuli/spore_stims/complex_08_A_a.gif","","","","",""
"","null","html-keyboard-response","131","315627","0.0-29.0-0.4","SS1618435648254","","","null","","","","","","<p><img src= images/blank.png width =""600"" height = ""600"" style=""position:fixed;top:50%; left:50%; transform: translate(-50%, -50%); border:5px solid black"">","","","","","","","",""
"","227.6199999905657","sequential-stimulus-presentation-old","132","316360","0.0-29.0-1.4","SS1618435648254","trial","","40","500","727.6199999905657","images/stimuli/spore_stims/complex_13_A_b.gif","images/stimuli/spore_stims/complex_08_A_a.gif","forced_long","","10","complex_dissimilar","images/stimuli/spore_stims/complex_13_A_b.gif","","","","",""
"","3795.48000000068","survey-multi-choice","133","320160","0.0-30.0","SS1618435648254","math_question","","","","","","","","","","","","{""Q0"":""10""}","[0]","10","",""
"","null","html-keyboard-response","134","321101","0.0-31.0-0.0","SS1618435648254","","","null","","","","","","<p><img src= images/blank.png width =""600"" height = ""600"" style=""position:fixed;top:50%; left:50%; transform: translate(-50%, -50%); border:5px solid black"">","","","","","","","",""
"","1339.365000021644","sequential-stimulus-presentation-old","135","322947","0.0-31.0-1.0","SS1618435648254","trial","","40","500","1839.365000021644","images/stimuli/spore_stims/simple_06_A_a.gif","images/stimuli/spore_stims/simple_02_A_b.gif","self_paced","","11","simple_dissimilar","images/stimuli/spore_stims/simple_02_A_b.gif","","","","",""
"","null","html-keyboard-response","136","324015","0.0-31.0-0.1","SS1618435648254","","","null","","","","","","<p><img src= images/blank.png width =""600"" height = ""600"" style=""position:fixed;top:50%; left:50%; transform: translate(-50%, -50%); border:5px solid black"">","","","","","","","",""
"","794.8700000124518","sequential-stimulus-presentation-old","137","325319","0.0-31.0-1.1","SS1618435648254","trial","","40","500","1294.8700000124518","images/stimuli/spore_stims/simple_06_A_a.gif","images/stimuli/spore_stims/simple_02_A_b.gif","self_paced","","11","simple_dissimilar","images/stimuli/spore_stims/simple_02_A_b.gif","","","","",""
"","null","html-keyboard-response","138","326535","0.0-31.0-0.2","SS1618435648254","","","null","","","","","","<p><img src= images/blank.png width =""600"" height = ""600"" style=""position:fixed;top:50%; left:50%; transform: translate(-50%, -50%); border:5px solid black"">","","","","","","","",""
"","230.8199999970384","sequential-stimulus-presentation-old","139","327271","0.0-31.0-1.2","SS1618435648254","trial","","40","500","730.8199999970384","images/stimuli/spore_stims/simple_06_A_a.gif","images/stimuli/spore_stims/simple_02_A_b.gif","self_paced","","11","simple_dissimilar","images/stimuli/spore_stims/simple_06_A_a.gif","","","","",""
"","null","html-keyboard-response","140","328560","0.0-31.0-0.3","SS1618435648254","","","null","","","","","","<p><img src= images/blank.png width =""600"" height = ""600"" style=""position:fixed;top:50%; left:50%; transform: translate(-50%, -50%); border:5px solid black"">","","","","","","","",""
"","68.99500000872649","sequential-stimulus-presentation-old","141","329135","0.0-31.0-1.3","SS1618435648254","trial","","40","500","568.9950000087265","images/stimuli/spore_stims/simple_06_A_a.gif","images/stimuli/spore_stims/simple_02_A_b.gif","self_paced","","11","simple_dissimilar","images/stimuli/spore_stims/simple_02_A_b.gif","","","","",""
"","null","html-keyboard-response","142","330248","0.0-31.0-0.4","SS1618435648254","","","null","","","","","","<p><img src= images/blank.png width =""600"" height = ""600"" style=""position:fixed;top:50%; left:50%; transform: translate(-50%, -50%); border:5px solid black"">","","","","","","","",""
"","203.99000000907108","sequential-stimulus-presentation-old","143","330959","0.0-31.0-1.4","SS1618435648254","trial","","40","500","703.9900000090711","images/stimuli/spore_stims/simple_06_A_a.gif","images/stimuli/spore_stims/simple_02_A_b.gif","self_paced","","11","simple_dissimilar","images/stimuli/spore_stims/simple_06_A_a.gif","","","","",""
"[{""page_index"":0,""viewing_time"":2620.0600000156555}]","2620.515000016894","instructions","144","333583","0.0-32.0","SS1618435648254","instructions","","","","","","","","","","","","","","","",""
"","3674.425000004703","survey-likert","145","337264","0.0-33.0","SS1618435648254","similarity_question","","","","","","","","","","","","{""Q0"":3}","[0]","","images/stimuli/spore_stims/simple_07_A_a.gif","images/stimuli/spore_stims/simple_03_A_b.gif"
"","3400.835000007646","survey-likert","146","340671","0.0-34.0","SS1618435648254","similarity_question","","","","","","","","","","","","{""Q0"":3}","[0]","","images/stimuli/spore_stims/complex_08_A_b.gif","images/stimuli/spore_stims/complex_11_A_a.gif"
"","3466.4400000183377","survey-likert","147","344144","0.0-35.0","SS1618435648254","similarity_question","","","","","","","","","","","","{""Q0"":3}","[0]","","images/stimuli/spore_stims/simple_03_A_a.gif","images/stimuli/spore_stims/simple_08_A_b.gif"
"","1736.9250000047032","survey-likert","148","345887","0.0-36.0","SS1618435648254","similarity_question","","","","","","","","","","","","{""Q0"":3}","[0]","","images/stimuli/spore_stims/simple_02_A_b.gif","images/stimuli/spore_stims/simple_06_A_a.gif"
"","1794.5599999802653","survey-likert","149","347688","0.0-37.0","SS1618435648254","similarity_question","","","","","","","","","","","","{""Q0"":3}","[0]","","images/stimuli/spore_stims/complex_09_A_a.gif","images/stimuli/spore_stims/complex_05_A_b.gif"
"","3241.745000006631","survey-likert","150","350936","0.0-38.0","SS1618435648254","similarity_question","","","","","","","","","","","","{""Q0"":3}","[0]","","images/stimuli/spore_stims/complex_01_A_b.gif","images/stimuli/spore_stims/complex_13_A_a.gif"
"","7155.215000006137","survey-likert","151","358098","0.0-39.0","SS1618435648254","similarity_question","","","","","","","","","","","","{""Q0"":1}","[0]","","images/stimuli/spore_stims/complex_03_A_a.gif","images/stimuli/spore_stims/complex_10_A_b.gif"
"","3135.44000001275","survey-likert","152","361239","0.0-40.0","SS1618435648254","similarity_question","","","","","","","","","","","","{""Q0"":3}","[0]","","images/stimuli/spore_stims/complex_01_A_a.gif","images/stimuli/spore_stims/complex_15_A_b.gif"
"","2850.3450000134762","survey-likert","153","364095","0.0-41.0","SS1618435648254","similarity_question","","","","","","","","","","","","{""Q0"":3}","[0]","","images/stimuli/spore_stims/simple_19_A_b.gif","images/stimuli/spore_stims/simple_08_A_a.gif"
"","4896.08499998576","survey-likert","154","368999","0.0-42.0","SS1618435648254","similarity_question","","","","","","","","","","","","{""Q0"":3}","[0]","","images/stimuli/spore_stims/simple_14_A_b.gif","images/stimuli/spore_stims/simple_05_A_a.gif"
"","2623.699999996461","survey-likert","155","371631","0.0-43.0","SS1618435648254","similarity_question","","","","","","","","","","","","{""Q0"":3}","[0]","","images/stimuli/spore_stims/simple_12_A_a.gif","images/stimuli/spore_stims/simple_07_A_b.gif"
"","2089.8250000027474","survey-likert","156","373728","0.0-44.0","SS1618435648254","similarity_question","","","","","","","","","","","","{""Q0"":3}","[0]","","images/stimuli/spore_stims/complex_13_A_b.gif","images/stimuli/spore_stims/complex_08_A_a.gif"
"[{""page_index"":0,""viewing_time"":1816.8250000162516}]","1817.269999999553","instructions","157","375550","0.0-45.0","SS1618435648254","instructions","","","","","","","","","","","","","","","",""
"","4330.160000012256","survey-likert","158","379887","0.0-46.0","SS1618435648254","","","","","","","","","images/stimuli/spore_stims/simple_19_A_b.gif","","","","{""Q0"":2}","[0]","","",""
"","3608.784999989439","survey-likert","159","383503","0.0-47.0","SS1618435648254","","","","","","","","","images/stimuli/spore_stims/complex_05_A_b.gif","","","","{""Q0"":2}","[0]","","",""
"","3600.234999990789","survey-likert","160","387111","0.0-48.0","SS1618435648254","","","","","","","","","images/stimuli/spore_stims/complex_15_A_b.gif","","","","{""Q0"":4}","[0]","","",""
"","2881.179999996675","survey-likert","161","389999","0.0-49.0","SS1618435648254","","","","","","","","","images/stimuli/spore_stims/complex_13_A_a.gif","","","","{""Q0"":4}","[0]","","",""
"","4008.5399999807123","survey-likert","162","394015","0.0-50.0","SS1618435648254","","","","","","","","","images/stimuli/spore_stims/simple_07_A_a.gif","","","","{""Q0"":1}","[0]","","",""
"","2985.5350000143517","survey-likert","163","397007","0.0-51.0","SS1618435648254","","","","","","","","","images/stimuli/spore_stims/simple_06_A_a.gif","","","","{""Q0"":1}","[0]","","",""
"","3348.7549999845214","survey-likert","164","400362","0.0-52.0","SS1618435648254","","","","","","","","","images/stimuli/spore_stims/complex_08_A_a.gif","","","","{""Q0"":2}","[0]","","",""
"","3415.37000000244","survey-likert","165","403783","0.0-53.0","SS1618435648254","","","","","","","","","images/stimuli/spore_stims/simple_12_A_a.gif","","","","{""Q0"":1}","[0]","","",""
"","2376.1200000008103","survey-likert","166","406166","0.0-54.0","SS1618435648254","","","","","","","","","images/stimuli/spore_stims/simple_05_A_a.gif","","","","{""Q0"":1}","[0]","","",""
"","7401.149999990594","survey-likert","167","413574","0.0-55.0","SS1618435648254","","","","","","","","","images/stimuli/spore_stims/complex_10_A_b.gif","","","","{""Q0"":1}","[0]","","",""
"","3361.895000009099","survey-likert","168","416942","0.0-56.0","SS1618435648254","","","","","","","","","images/stimuli/spore_stims/simple_03_A_a.gif","","","","{""Q0"":1}","[0]","","",""
"","3088.580000010552","survey-likert","169","420038","0.0-57.0","SS1618435648254","","","","","","","","","images/stimuli/spore_stims/complex_08_A_b.gif","","","","{""Q0"":2}","[0]","","",""
"[{""page_index"":0,""viewing_time"":2482.495000003837}]","2482.965000002878","instructions","170","422526","0.0-58.0","SS1618435648254","instructions","","","","","","","","","","","","","","","",""
"","4408.74499999336","demog-age","171","426942","0.0-59.0","SS1618435648254","","","","","","","","","","","","","{""age"":""41""}","","","",""
"","2878.8599999970756","demog-ethnic-US","172","429831","0.0-60.0","SS1618435648254","","","","","","","","","","","","","{""ethnicity"":[""White""]}","[0]","","",""
"","5336.82499997667","demog-gender-and-education","173","435175","0.0-61.0","SS1618435648254","","","","","","","","","","","","","{""gender"":""Female"",""education"":""Master's Degree""}","[0,1]","","",""
"","18110.92999999528","survey-text","174","453293","0.0-62.0","SS1618435648254","feedback","","","","","","","","","","","","{""Q0"":""mo""}","","","",""
"[{""page_index"":0,""viewing_time"":1770.199999999022}]","1770.699999993667","instructions","175","455069","0.0-63.0","SS1618435648254","instructions","","","","","","","","","","","","","","","",""
