"view_history","rt","trial_type","trial_index","time_elapsed","internal_node_id","subject","stimulus_type","trial_stimulus","key_press","minimum_viewing_duration","trial_looking_time","block_deviant","block_background","exposure_type","stimulus","block_number","block_type","stimulus_displayed","responses","question_order","math_correct_answer","stimulus_left","stimulus_right"
"[{""page_index"":0,""viewing_time"":19793}]","19793","instructions","0","19797","0.0-0.0","SS1618008161238","","","","","","","","","","","","","","","","",""
"[{""page_index"":0,""viewing_time"":20984},{""page_index"":1,""viewing_time"":6303}]","27287","instructions","1","49094","0.0-1.0","SS1618008161238","instructions","","","","","","","","","","","","","","","",""
"","7804","sequential-stimulus-presentation-old","2","57411","0.0-2.0","SS1618008161238","","","40","500","8304","null","null","self_paced","","","","","","","","",""
"","11531","sequential-stimulus-presentation-old","3","69455","0.0-3.0","SS1618008161238","","","40","500","12031","null","null","self_paced","","","","","","","","",""
"[{""page_index"":0,""viewing_time"":15752}]","15752","instructions","4","85210","0.0-4.0","SS1618008161238","instructions","","","","","","","","","","","","","","","",""
"","6154","sequential-stimulus-presentation-old","5","96370","0.0-5.0","SS1618008161238","","","40","500","6654","null","null","forced_long","","","","","","","","",""
"","3505","sequential-stimulus-presentation-old","6","99939","0.0-6.0","SS1618008161238","","","40","50","3555","null","null","forced_long","","","","","","","","",""
"[{""page_index"":0,""viewing_time"":4299}]","4299","instructions","7","104241","0.0-7.0","SS1618008161238","instructions","","","","","","","","","","","","","","","",""
"[{""page_index"":0,""viewing_time"":8676},{""page_index"":1,""viewing_time"":14129},{""page_index"":2,""viewing_time"":5502},{""page_index"":3,""viewing_time"":2086},{""page_index"":4,""viewing_time"":1891}]","32285","instructions","8","136529","0.0-8.0","SS1618008161238","instructions","","","","","","","","","","","","","","","",""
"","null","html-keyboard-response","9","137417","0.0-9.0-0.0","SS1618008161238","","","null","","","","","","<p><img src= images/blank.png width =""600"" height = ""600"" style=""position:fixed;top:50%; left:50%; transform: translate(-50%, -50%); border:5px solid black"">","","","","","","","",""
"","6522","sequential-stimulus-presentation-old","10","144467","0.0-9.0-1.0","SS1618008161238","trial","","40","500","7022","images/stimuli/spore_stims/complex_06_A_a.gif","images/stimuli/spore_stims/complex_01_A_b.gif","self_paced","","0","complex_dissimilar","images/stimuli/spore_stims/complex_01_A_b.gif","","","","",""
"","null","html-keyboard-response","11","145704","0.0-9.0-0.1","SS1618008161238","","","null","","","","","","<p><img src= images/blank.png width =""600"" height = ""600"" style=""position:fixed;top:50%; left:50%; transform: translate(-50%, -50%); border:5px solid black"">","","","","","","","",""
"","5805","sequential-stimulus-presentation-old","12","152019","0.0-9.0-1.1","SS1618008161238","trial","","40","500","6305","images/stimuli/spore_stims/complex_06_A_a.gif","images/stimuli/spore_stims/complex_01_A_b.gif","self_paced","","0","complex_dissimilar","images/stimuli/spore_stims/complex_01_A_b.gif","","","","",""
"","null","html-keyboard-response","13","152874","0.0-9.0-0.2","SS1618008161238","","","null","","","","","","<p><img src= images/blank.png width =""600"" height = ""600"" style=""position:fixed;top:50%; left:50%; transform: translate(-50%, -50%); border:5px solid black"">","","","","","","","",""
"","4138","sequential-stimulus-presentation-old","14","157522","0.0-9.0-1.2","SS1618008161238","trial","","40","500","4638","images/stimuli/spore_stims/complex_06_A_a.gif","images/stimuli/spore_stims/complex_01_A_b.gif","self_paced","","0","complex_dissimilar","images/stimuli/spore_stims/complex_01_A_b.gif","","","","",""
"","null","html-keyboard-response","15","158454","0.0-9.0-0.3","SS1618008161238","","","null","","","","","","<p><img src= images/blank.png width =""600"" height = ""600"" style=""position:fixed;top:50%; left:50%; transform: translate(-50%, -50%); border:5px solid black"">","","","","","","","",""
"","2630","sequential-stimulus-presentation-old","16","161593","0.0-9.0-1.3","SS1618008161238","trial","","40","500","3130","images/stimuli/spore_stims/complex_06_A_a.gif","images/stimuli/spore_stims/complex_01_A_b.gif","self_paced","","0","complex_dissimilar","images/stimuli/spore_stims/complex_01_A_b.gif","","","","",""
"","null","html-keyboard-response","17","162685","0.0-9.0-0.4","SS1618008161238","","","null","","","","","","<p><img src= images/blank.png width =""600"" height = ""600"" style=""position:fixed;top:50%; left:50%; transform: translate(-50%, -50%); border:5px solid black"">","","","","","","","",""
"","3050","sequential-stimulus-presentation-old","18","166254","0.0-9.0-1.4","SS1618008161238","trial","","40","500","3550","images/stimuli/spore_stims/complex_06_A_a.gif","images/stimuli/spore_stims/complex_01_A_b.gif","self_paced","","0","complex_dissimilar","images/stimuli/spore_stims/complex_01_A_b.gif","","","","",""
"","3715","survey-multi-choice","19","169971","0.0-10.0","SS1618008161238","math_question","","","","","","","","","","","","{""Q0"":""9""}","[0]","9","",""
"","null","html-keyboard-response","20","170974","0.0-11.0-0.0","SS1618008161238","","","null","","","","","","<p><img src= images/blank.png width =""600"" height = ""600"" style=""position:fixed;top:50%; left:50%; transform: translate(-50%, -50%); border:5px solid black"">","","","","","","","",""
"","8086","sequential-stimulus-presentation-old","21","179579","0.0-11.0-1.0","SS1618008161238","trial","","40","500","8586","images/stimuli/spore_stims/simple_03_A_b.gif","images/stimuli/spore_stims/simple_14_A_a.gif","self_paced","","1","simple_dissimilar","images/stimuli/spore_stims/simple_14_A_a.gif","","","","",""
"","null","html-keyboard-response","22","180614","0.0-11.0-0.1","SS1618008161238","","","null","","","","","","<p><img src= images/blank.png width =""600"" height = ""600"" style=""position:fixed;top:50%; left:50%; transform: translate(-50%, -50%); border:5px solid black"">","","","","","","","",""
"","3301","sequential-stimulus-presentation-old","23","184435","0.0-11.0-1.1","SS1618008161238","trial","","40","500","3801","images/stimuli/spore_stims/simple_03_A_b.gif","images/stimuli/spore_stims/simple_14_A_a.gif","self_paced","","1","simple_dissimilar","images/stimuli/spore_stims/simple_14_A_a.gif","","","","",""
"","null","html-keyboard-response","24","185424","0.0-11.0-0.2","SS1618008161238","","","null","","","","","","<p><img src= images/blank.png width =""600"" height = ""600"" style=""position:fixed;top:50%; left:50%; transform: translate(-50%, -50%); border:5px solid black"">","","","","","","","",""
"","1532","sequential-stimulus-presentation-old","25","187466","0.0-11.0-1.2","SS1618008161238","trial","","40","500","2032","images/stimuli/spore_stims/simple_03_A_b.gif","images/stimuli/spore_stims/simple_14_A_a.gif","self_paced","","1","simple_dissimilar","images/stimuli/spore_stims/simple_14_A_a.gif","","","","",""
"","null","html-keyboard-response","26","188454","0.0-11.0-0.3","SS1618008161238","","","null","","","","","","<p><img src= images/blank.png width =""600"" height = ""600"" style=""position:fixed;top:50%; left:50%; transform: translate(-50%, -50%); border:5px solid black"">","","","","","","","",""
"","8398","sequential-stimulus-presentation-old","27","197361","0.0-11.0-1.3","SS1618008161238","trial","","40","500","8898","images/stimuli/spore_stims/simple_03_A_b.gif","images/stimuli/spore_stims/simple_14_A_a.gif","self_paced","","1","simple_dissimilar","images/stimuli/spore_stims/simple_03_A_b.gif","","","","",""
"","null","html-keyboard-response","28","198384","0.0-11.0-0.4","SS1618008161238","","","null","","","","","","<p><img src= images/blank.png width =""600"" height = ""600"" style=""position:fixed;top:50%; left:50%; transform: translate(-50%, -50%); border:5px solid black"">","","","","","","","",""
"","2012","sequential-stimulus-presentation-old","29","200905","0.0-11.0-1.4","SS1618008161238","trial","","40","500","2512","images/stimuli/spore_stims/simple_03_A_b.gif","images/stimuli/spore_stims/simple_14_A_a.gif","self_paced","","1","simple_dissimilar","images/stimuli/spore_stims/simple_14_A_a.gif","","","","",""
"","null","html-keyboard-response","30","201763","0.0-11.0-0.5","SS1618008161238","","","null","","","","","","<p><img src= images/blank.png width =""600"" height = ""600"" style=""position:fixed;top:50%; left:50%; transform: translate(-50%, -50%); border:5px solid black"">","","","","","","","",""
"","3255","sequential-stimulus-presentation-old","31","205538","0.0-11.0-1.5","SS1618008161238","trial","","40","500","3755","images/stimuli/spore_stims/simple_03_A_b.gif","images/stimuli/spore_stims/simple_14_A_a.gif","self_paced","","1","simple_dissimilar","images/stimuli/spore_stims/simple_14_A_a.gif","","","","",""
"","4934","survey-multi-choice","32","210478","0.0-12.0","SS1618008161238","math_question","","","","","","","","","","","","{""Q0"":""7""}","[0]","7","",""
"","null","html-keyboard-response","33","211516","0.0-13.0-0.0","SS1618008161238","","","null","","","","","","<p><img src= images/blank.png width =""600"" height = ""600"" style=""position:fixed;top:50%; left:50%; transform: translate(-50%, -50%); border:5px solid black"">","","","","","","","",""
"","6837","sequential-stimulus-presentation-old","34","218883","0.0-13.0-1.0","SS1618008161238","trial","","40","500","7337","images/stimuli/spore_stims/simple_08_A_b.gif","images/stimuli/spore_stims/simple_07_A_a.gif","self_paced","","2","simple_dissimilar","images/stimuli/spore_stims/simple_07_A_a.gif","","","","",""
"","null","html-keyboard-response","35","219906","0.0-13.0-0.1","SS1618008161238","","","null","","","","","","<p><img src= images/blank.png width =""600"" height = ""600"" style=""position:fixed;top:50%; left:50%; transform: translate(-50%, -50%); border:5px solid black"">","","","","","","","",""
"","7162","sequential-stimulus-presentation-old","36","227586","0.0-13.0-1.1","SS1618008161238","trial","","40","500","7662","images/stimuli/spore_stims/simple_08_A_b.gif","images/stimuli/spore_stims/simple_07_A_a.gif","self_paced","","2","simple_dissimilar","images/stimuli/spore_stims/simple_07_A_a.gif","","","","",""
"","null","html-keyboard-response","37","228783","0.0-13.0-0.2","SS1618008161238","","","null","","","","","","<p><img src= images/blank.png width =""600"" height = ""600"" style=""position:fixed;top:50%; left:50%; transform: translate(-50%, -50%); border:5px solid black"">","","","","","","","",""
"","1129","sequential-stimulus-presentation-old","38","230433","0.0-13.0-1.2","SS1618008161238","trial","","40","500","1629","images/stimuli/spore_stims/simple_08_A_b.gif","images/stimuli/spore_stims/simple_07_A_a.gif","self_paced","","2","simple_dissimilar","images/stimuli/spore_stims/simple_07_A_a.gif","","","","",""
"","null","html-keyboard-response","39","231244","0.0-13.0-0.3","SS1618008161238","","","null","","","","","","<p><img src= images/blank.png width =""600"" height = ""600"" style=""position:fixed;top:50%; left:50%; transform: translate(-50%, -50%); border:5px solid black"">","","","","","","","",""
"","726","sequential-stimulus-presentation-old","40","232489","0.0-13.0-1.3","SS1618008161238","trial","","40","500","1226","images/stimuli/spore_stims/simple_08_A_b.gif","images/stimuli/spore_stims/simple_07_A_a.gif","self_paced","","2","simple_dissimilar","images/stimuli/spore_stims/simple_07_A_a.gif","","","","",""
"","null","html-keyboard-response","41","233385","0.0-13.0-0.4","SS1618008161238","","","null","","","","","","<p><img src= images/blank.png width =""600"" height = ""600"" style=""position:fixed;top:50%; left:50%; transform: translate(-50%, -50%); border:5px solid black"">","","","","","","","",""
"","11972","sequential-stimulus-presentation-old","42","245866","0.0-13.0-1.4","SS1618008161238","trial","","40","500","12472","images/stimuli/spore_stims/simple_08_A_b.gif","images/stimuli/spore_stims/simple_07_A_a.gif","self_paced","","2","simple_dissimilar","images/stimuli/spore_stims/simple_08_A_b.gif","","","","",""
"","7256","survey-multi-choice","43","253127","0.0-14.0","SS1618008161238","math_question","","","","","","","","","","","","{""Q0"":""14""}","[0]","14","",""
"","null","html-keyboard-response","44","254360","0.0-15.0-0.0","SS1618008161238","","","null","","","","","","<p><img src= images/blank.png width =""600"" height = ""600"" style=""position:fixed;top:50%; left:50%; transform: translate(-50%, -50%); border:5px solid black"">","","","","","","","",""
"","2929","sequential-stimulus-presentation-old","45","262314","0.0-15.0-1.0","SS1618008161238","trial","","40","500","3429","images/stimuli/spore_stims/complex_06_A_b.gif","images/stimuli/spore_stims/complex_03_A_a.gif","forced_long","","3","complex_dissimilar","images/stimuli/spore_stims/complex_03_A_a.gif","","","","",""
"","null","html-keyboard-response","46","263363","0.0-15.0-0.1","SS1618008161238","","","null","","","","","","<p><img src= images/blank.png width =""600"" height = ""600"" style=""position:fixed;top:50%; left:50%; transform: translate(-50%, -50%); border:5px solid black"">","","","","","","","",""
"","9310","sequential-stimulus-presentation-old","47","273194","0.0-15.0-1.1","SS1618008161238","trial","","40","500","9810","images/stimuli/spore_stims/complex_06_A_b.gif","images/stimuli/spore_stims/complex_03_A_a.gif","forced_long","","3","complex_dissimilar","images/stimuli/spore_stims/complex_03_A_a.gif","","","","",""
"","null","html-keyboard-response","48","274194","0.0-15.0-0.2","SS1618008161238","","","null","","","","","","<p><img src= images/blank.png width =""600"" height = ""600"" style=""position:fixed;top:50%; left:50%; transform: translate(-50%, -50%); border:5px solid black"">","","","","","","","",""
"","3384","sequential-stimulus-presentation-old","49","278097","0.0-15.0-1.2","SS1618008161238","trial","","40","500","3884","images/stimuli/spore_stims/complex_06_A_b.gif","images/stimuli/spore_stims/complex_03_A_a.gif","forced_long","","3","complex_dissimilar","images/stimuli/spore_stims/complex_03_A_a.gif","","","","",""
"","null","html-keyboard-response","50","279393","0.0-15.0-0.3","SS1618008161238","","","null","","","","","","<p><img src= images/blank.png width =""600"" height = ""600"" style=""position:fixed;top:50%; left:50%; transform: translate(-50%, -50%); border:5px solid black"">","","","","","","","",""
"","3135","sequential-stimulus-presentation-old","51","283049","0.0-15.0-1.3","SS1618008161238","trial","","40","500","3635","images/stimuli/spore_stims/complex_06_A_b.gif","images/stimuli/spore_stims/complex_03_A_a.gif","forced_long","","3","complex_dissimilar","images/stimuli/spore_stims/complex_03_A_a.gif","","","","",""
"","null","html-keyboard-response","52","283943","0.0-15.0-0.4","SS1618008161238","","","null","","","","","","<p><img src= images/blank.png width =""600"" height = ""600"" style=""position:fixed;top:50%; left:50%; transform: translate(-50%, -50%); border:5px solid black"">","","","","","","","",""
"","315","sequential-stimulus-presentation-old","53","284777","0.0-15.0-1.4","SS1618008161238","trial","","40","500","815","images/stimuli/spore_stims/complex_06_A_b.gif","images/stimuli/spore_stims/complex_03_A_a.gif","forced_long","","3","complex_dissimilar","images/stimuli/spore_stims/complex_03_A_a.gif","","","","",""
"","5511","survey-multi-choice","54","290297","0.0-16.0","SS1618008161238","math_question","","","","","","","","","","","","{""Q0"":""11""}","[0]","11","",""
"","null","html-keyboard-response","55","291474","0.0-17.0-0.0","SS1618008161238","","","null","","","","","","<p><img src= images/blank.png width =""600"" height = ""600"" style=""position:fixed;top:50%; left:50%; transform: translate(-50%, -50%); border:5px solid black"">","","","","","","","",""
"","12","sequential-stimulus-presentation-old","56","296506","0.0-17.0-1.0","SS1618008161238","trial","","40","500","512","images/stimuli/spore_stims/simple_16_A_b.gif","images/stimuli/spore_stims/simple_11_A_a.gif","forced_long","","4","simple_dissimilar","images/stimuli/spore_stims/simple_11_A_a.gif","","","","",""
"","null","html-keyboard-response","57","297813","0.0-17.0-0.1","SS1618008161238","","","null","","","","","","<p><img src= images/blank.png width =""600"" height = ""600"" style=""position:fixed;top:50%; left:50%; transform: translate(-50%, -50%); border:5px solid black"">","","","","","","","",""
"","1735","sequential-stimulus-presentation-old","58","300058","0.0-17.0-1.1","SS1618008161238","trial","","40","500","2235","images/stimuli/spore_stims/simple_16_A_b.gif","images/stimuli/spore_stims/simple_11_A_a.gif","forced_long","","4","simple_dissimilar","images/stimuli/spore_stims/simple_11_A_a.gif","","","","",""
"","null","html-keyboard-response","59","301033","0.0-17.0-0.2","SS1618008161238","","","null","","","","","","<p><img src= images/blank.png width =""600"" height = ""600"" style=""position:fixed;top:50%; left:50%; transform: translate(-50%, -50%); border:5px solid black"">","","","","","","","",""
"","1442","sequential-stimulus-presentation-old","60","302995","0.0-17.0-1.2","SS1618008161238","trial","","40","500","1942","images/stimuli/spore_stims/simple_16_A_b.gif","images/stimuli/spore_stims/simple_11_A_a.gif","forced_long","","4","simple_dissimilar","images/stimuli/spore_stims/simple_11_A_a.gif","","","","",""
"","null","html-keyboard-response","61","303834","0.0-17.0-0.3","SS1618008161238","","","null","","","","","","<p><img src= images/blank.png width =""600"" height = ""600"" style=""position:fixed;top:50%; left:50%; transform: translate(-50%, -50%); border:5px solid black"">","","","","","","","",""
"","443","sequential-stimulus-presentation-old","62","304785","0.0-17.0-1.3","SS1618008161238","trial","","40","500","943","images/stimuli/spore_stims/simple_16_A_b.gif","images/stimuli/spore_stims/simple_11_A_a.gif","forced_long","","4","simple_dissimilar","images/stimuli/spore_stims/simple_11_A_a.gif","","","","",""
"","3954","survey-multi-choice","63","308747","0.0-18.0","SS1618008161238","math_question","","","","","","","","","","","","{""Q0"":""9""}","[0]","9","",""
"","null","html-keyboard-response","64","309713","0.0-19.0-0.0","SS1618008161238","","","null","","","","","","<p><img src= images/blank.png width =""600"" height = ""600"" style=""position:fixed;top:50%; left:50%; transform: translate(-50%, -50%); border:5px solid black"">","","","","","","","",""
"","17732","sequential-stimulus-presentation-old","65","332465","0.0-19.0-1.0","SS1618008161238","trial","","40","500","18232","images/stimuli/spore_stims/complex_05_A_b.gif","images/stimuli/spore_stims/complex_20_A_a.gif","forced_long","","5","complex_dissimilar","images/stimuli/spore_stims/complex_20_A_a.gif","","","","",""
"","null","html-keyboard-response","66","333753","0.0-19.0-0.1","SS1618008161238","","","null","","","","","","<p><img src= images/blank.png width =""600"" height = ""600"" style=""position:fixed;top:50%; left:50%; transform: translate(-50%, -50%); border:5px solid black"">","","","","","","","",""
"","4095","sequential-stimulus-presentation-old","67","338369","0.0-19.0-1.1","SS1618008161238","trial","","40","500","4595","images/stimuli/spore_stims/complex_05_A_b.gif","images/stimuli/spore_stims/complex_20_A_a.gif","forced_long","","5","complex_dissimilar","images/stimuli/spore_stims/complex_20_A_a.gif","","","","",""
"","null","html-keyboard-response","68","339283","0.0-19.0-0.2","SS1618008161238","","","null","","","","","","<p><img src= images/blank.png width =""600"" height = ""600"" style=""position:fixed;top:50%; left:50%; transform: translate(-50%, -50%); border:5px solid black"">","","","","","","","",""
"","1247","sequential-stimulus-presentation-old","69","341041","0.0-19.0-1.2","SS1618008161238","trial","","40","500","1747","images/stimuli/spore_stims/complex_05_A_b.gif","images/stimuli/spore_stims/complex_20_A_a.gif","forced_long","","5","complex_dissimilar","images/stimuli/spore_stims/complex_20_A_a.gif","","","","",""
"","null","html-keyboard-response","70","342003","0.0-19.0-0.3","SS1618008161238","","","null","","","","","","<p><img src= images/blank.png width =""600"" height = ""600"" style=""position:fixed;top:50%; left:50%; transform: translate(-50%, -50%); border:5px solid black"">","","","","","","","",""
"","7325","sequential-stimulus-presentation-old","71","349848","0.0-19.0-1.3","SS1618008161238","trial","","40","500","7825","images/stimuli/spore_stims/complex_05_A_b.gif","images/stimuli/spore_stims/complex_20_A_a.gif","forced_long","","5","complex_dissimilar","images/stimuli/spore_stims/complex_05_A_b.gif","","","","",""
"","3365","survey-multi-choice","72","353222","0.0-20.0","SS1618008161238","math_question","","","","","","","","","","","","{""Q0"":""5""}","[0]","5","",""
"","null","html-keyboard-response","73","354312","0.0-21.0-0.0","SS1618008161238","","","null","","","","","","<p><img src= images/blank.png width =""600"" height = ""600"" style=""position:fixed;top:50%; left:50%; transform: translate(-50%, -50%); border:5px solid black"">","","","","","","","",""
"","8987","sequential-stimulus-presentation-old","74","363361","0.0-21.0-1.0","SS1618008161238","trial","","40","500","9487","images/stimuli/spore_stims/complex_16_A_b.gif","images/stimuli/spore_stims/complex_07_A_a.gif","forced_short","","6","complex_dissimilar","images/stimuli/spore_stims/complex_07_A_a.gif","","","","",""
"","null","html-keyboard-response","75","364473","0.0-21.0-0.1","SS1618008161238","","","null","","","","","","<p><img src= images/blank.png width =""600"" height = ""600"" style=""position:fixed;top:50%; left:50%; transform: translate(-50%, -50%); border:5px solid black"">","","","","","","","",""
"","9231","sequential-stimulus-presentation-old","76","374225","0.0-21.0-1.1","SS1618008161238","trial","","40","500","9731","images/stimuli/spore_stims/complex_16_A_b.gif","images/stimuli/spore_stims/complex_07_A_a.gif","forced_short","","6","complex_dissimilar","images/stimuli/spore_stims/complex_07_A_a.gif","","","","",""
"","null","html-keyboard-response","77","375344","0.0-21.0-0.2","SS1618008161238","","","null","","","","","","<p><img src= images/blank.png width =""600"" height = ""600"" style=""position:fixed;top:50%; left:50%; transform: translate(-50%, -50%); border:5px solid black"">","","","","","","","",""
"","2900","sequential-stimulus-presentation-old","78","378752","0.0-21.0-1.2","SS1618008161238","trial","","40","500","3400","images/stimuli/spore_stims/complex_16_A_b.gif","images/stimuli/spore_stims/complex_07_A_a.gif","forced_short","","6","complex_dissimilar","images/stimuli/spore_stims/complex_07_A_a.gif","","","","",""
"","null","html-keyboard-response","79","379944","0.0-21.0-0.3","SS1618008161238","","","null","","","","","","<p><img src= images/blank.png width =""600"" height = ""600"" style=""position:fixed;top:50%; left:50%; transform: translate(-50%, -50%); border:5px solid black"">","","","","","","","",""
"","2306","sequential-stimulus-presentation-old","80","382768","0.0-21.0-1.3","SS1618008161238","trial","","40","500","2806","images/stimuli/spore_stims/complex_16_A_b.gif","images/stimuli/spore_stims/complex_07_A_a.gif","forced_short","","6","complex_dissimilar","images/stimuli/spore_stims/complex_07_A_a.gif","","","","",""
"","null","html-keyboard-response","81","384002","0.0-21.0-0.4","SS1618008161238","","","null","","","","","","<p><img src= images/blank.png width =""600"" height = ""600"" style=""position:fixed;top:50%; left:50%; transform: translate(-50%, -50%); border:5px solid black"">","","","","","","","",""
"","2424","sequential-stimulus-presentation-old","82","386937","0.0-21.0-1.4","SS1618008161238","trial","","40","500","2924","images/stimuli/spore_stims/complex_16_A_b.gif","images/stimuli/spore_stims/complex_07_A_a.gif","forced_short","","6","complex_dissimilar","images/stimuli/spore_stims/complex_07_A_a.gif","","","","",""
"","4989","survey-multi-choice","83","391935","0.0-22.0","SS1618008161238","math_question","","","","","","","","","","","","{""Q0"":""16""}","[0]","16","",""
"","null","html-keyboard-response","84","392874","0.0-23.0-0.0","SS1618008161238","","","null","","","","","","<p><img src= images/blank.png width =""600"" height = ""600"" style=""position:fixed;top:50%; left:50%; transform: translate(-50%, -50%); border:5px solid black"">","","","","","","","",""
"","1594","sequential-stimulus-presentation-old","85","394537","0.0-23.0-1.0","SS1618008161238","trial","","40","500","2094","images/stimuli/spore_stims/simple_18_A_a.gif","images/stimuli/spore_stims/simple_01_A_b.gif","forced_short","","7","simple_dissimilar","images/stimuli/spore_stims/simple_01_A_b.gif","","","","",""
"","null","html-keyboard-response","86","395723","0.0-23.0-0.1","SS1618008161238","","","null","","","","","","<p><img src= images/blank.png width =""600"" height = ""600"" style=""position:fixed;top:50%; left:50%; transform: translate(-50%, -50%); border:5px solid black"">","","","","","","","",""
"","6917","sequential-stimulus-presentation-old","87","403161","0.0-23.0-1.1","SS1618008161238","trial","","40","500","7417","images/stimuli/spore_stims/simple_18_A_a.gif","images/stimuli/spore_stims/simple_01_A_b.gif","forced_short","","7","simple_dissimilar","images/stimuli/spore_stims/simple_18_A_a.gif","","","","",""
"","null","html-keyboard-response","88","404193","0.0-23.0-0.2","SS1618008161238","","","null","","","","","","<p><img src= images/blank.png width =""600"" height = ""600"" style=""position:fixed;top:50%; left:50%; transform: translate(-50%, -50%); border:5px solid black"">","","","","","","","",""
"","3408","sequential-stimulus-presentation-old","89","408121","0.0-23.0-1.2","SS1618008161238","trial","","40","500","3908","images/stimuli/spore_stims/simple_18_A_a.gif","images/stimuli/spore_stims/simple_01_A_b.gif","forced_short","","7","simple_dissimilar","images/stimuli/spore_stims/simple_18_A_a.gif","","","","",""
"","null","html-keyboard-response","90","409143","0.0-23.0-0.3","SS1618008161238","","","null","","","","","","<p><img src= images/blank.png width =""600"" height = ""600"" style=""position:fixed;top:50%; left:50%; transform: translate(-50%, -50%); border:5px solid black"">","","","","","","","",""
"","11314","sequential-stimulus-presentation-old","91","420977","0.0-23.0-1.3","SS1618008161238","trial","","40","500","11814","images/stimuli/spore_stims/simple_18_A_a.gif","images/stimuli/spore_stims/simple_01_A_b.gif","forced_short","","7","simple_dissimilar","images/stimuli/spore_stims/simple_01_A_b.gif","","","","",""
"","3362","survey-multi-choice","92","424353","0.0-24.0","SS1618008161238","math_question","","","","","","","","","","","","{""Q0"":""10""}","[0]","10","",""
"","null","html-keyboard-response","93","425543","0.0-25.0-0.0","SS1618008161238","","","null","","","","","","<p><img src= images/blank.png width =""600"" height = ""600"" style=""position:fixed;top:50%; left:50%; transform: translate(-50%, -50%); border:5px solid black"">","","","","","","","",""
"","10290","sequential-stimulus-presentation-old","94","436353","0.0-25.0-1.0","SS1618008161238","trial","","40","500","10790","images/stimuli/spore_stims/complex_09_A_b.gif","images/stimuli/spore_stims/complex_11_A_a.gif","self_paced","","8","complex_dissimilar","images/stimuli/spore_stims/complex_11_A_a.gif","","","","",""
"","null","html-keyboard-response","95","437392","0.0-25.0-0.1","SS1618008161238","","","null","","","","","","<p><img src= images/blank.png width =""600"" height = ""600"" style=""position:fixed;top:50%; left:50%; transform: translate(-50%, -50%); border:5px solid black"">","","","","","","","",""
"","11024","sequential-stimulus-presentation-old","96","448937","0.0-25.0-1.1","SS1618008161238","trial","","40","500","11524","images/stimuli/spore_stims/complex_09_A_b.gif","images/stimuli/spore_stims/complex_11_A_a.gif","self_paced","","8","complex_dissimilar","images/stimuli/spore_stims/complex_11_A_a.gif","","","","",""
"","null","html-keyboard-response","97","450084","0.0-25.0-0.2","SS1618008161238","","","null","","","","","","<p><img src= images/blank.png width =""600"" height = ""600"" style=""position:fixed;top:50%; left:50%; transform: translate(-50%, -50%); border:5px solid black"">","","","","","","","",""
"","5799","sequential-stimulus-presentation-old","98","456392","0.0-25.0-1.2","SS1618008161238","trial","","40","500","6299","images/stimuli/spore_stims/complex_09_A_b.gif","images/stimuli/spore_stims/complex_11_A_a.gif","self_paced","","8","complex_dissimilar","images/stimuli/spore_stims/complex_09_A_b.gif","","","","",""
"","null","html-keyboard-response","99","457353","0.0-25.0-0.3","SS1618008161238","","","null","","","","","","<p><img src= images/blank.png width =""600"" height = ""600"" style=""position:fixed;top:50%; left:50%; transform: translate(-50%, -50%); border:5px solid black"">","","","","","","","",""
"","1855","sequential-stimulus-presentation-old","100","459736","0.0-25.0-1.3","SS1618008161238","trial","","40","500","2355","images/stimuli/spore_stims/complex_09_A_b.gif","images/stimuli/spore_stims/complex_11_A_a.gif","self_paced","","8","complex_dissimilar","images/stimuli/spore_stims/complex_11_A_a.gif","","","","",""
"","null","html-keyboard-response","101","460672","0.0-25.0-0.4","SS1618008161238","","","null","","","","","","<p><img src= images/blank.png width =""600"" height = ""600"" style=""position:fixed;top:50%; left:50%; transform: translate(-50%, -50%); border:5px solid black"">","","","","","","","",""
"","2393","sequential-stimulus-presentation-old","102","463576","0.0-25.0-1.4","SS1618008161238","trial","","40","500","2893","images/stimuli/spore_stims/complex_09_A_b.gif","images/stimuli/spore_stims/complex_11_A_a.gif","self_paced","","8","complex_dissimilar","images/stimuli/spore_stims/complex_11_A_a.gif","","","","",""
"","null","html-keyboard-response","103","464682","0.0-25.0-0.5","SS1618008161238","","","null","","","","","","<p><img src= images/blank.png width =""600"" height = ""600"" style=""position:fixed;top:50%; left:50%; transform: translate(-50%, -50%); border:5px solid black"">","","","","","","","",""
"","3957","sequential-stimulus-presentation-old","104","469160","0.0-25.0-1.5","SS1618008161238","trial","","40","500","4457","images/stimuli/spore_stims/complex_09_A_b.gif","images/stimuli/spore_stims/complex_11_A_a.gif","self_paced","","8","complex_dissimilar","images/stimuli/spore_stims/complex_09_A_b.gif","","","","",""
"","3831","survey-multi-choice","105","473003","0.0-26.0","SS1618008161238","math_question","","","","","","","","","","","","{""Q0"":""10""}","[0]","10","",""
"","null","html-keyboard-response","106","474033","0.0-27.0-0.0","SS1618008161238","","","null","","","","","","<p><img src= images/blank.png width =""600"" height = ""600"" style=""position:fixed;top:50%; left:50%; transform: translate(-50%, -50%); border:5px solid black"">","","","","","","","",""
"","8102","sequential-stimulus-presentation-old","107","487145","0.0-27.0-1.0","SS1618008161238","trial","","40","500","8602","images/stimuli/spore_stims/simple_14_A_b.gif","images/stimuli/spore_stims/simple_04_A_a.gif","forced_long","","9","simple_dissimilar","images/stimuli/spore_stims/simple_04_A_a.gif","","","","",""
"","null","html-keyboard-response","108","488464","0.0-27.0-0.1","SS1618008161238","","","null","","","","","","<p><img src= images/blank.png width =""600"" height = ""600"" style=""position:fixed;top:50%; left:50%; transform: translate(-50%, -50%); border:5px solid black"">","","","","","","","",""
"","2770","sequential-stimulus-presentation-old","109","491752","0.0-27.0-1.1","SS1618008161238","trial","","40","500","3270","images/stimuli/spore_stims/simple_14_A_b.gif","images/stimuli/spore_stims/simple_04_A_a.gif","forced_long","","9","simple_dissimilar","images/stimuli/spore_stims/simple_14_A_b.gif","","","","",""
"","null","html-keyboard-response","110","492763","0.0-27.0-0.2","SS1618008161238","","","null","","","","","","<p><img src= images/blank.png width =""600"" height = ""600"" style=""position:fixed;top:50%; left:50%; transform: translate(-50%, -50%); border:5px solid black"">","","","","","","","",""
"","646","sequential-stimulus-presentation-old","111","493929","0.0-27.0-1.2","SS1618008161238","trial","","40","500","1146","images/stimuli/spore_stims/simple_14_A_b.gif","images/stimuli/spore_stims/simple_04_A_a.gif","forced_long","","9","simple_dissimilar","images/stimuli/spore_stims/simple_14_A_b.gif","","","","",""
"","null","html-keyboard-response","112","495052","0.0-27.0-0.3","SS1618008161238","","","null","","","","","","<p><img src= images/blank.png width =""600"" height = ""600"" style=""position:fixed;top:50%; left:50%; transform: translate(-50%, -50%); border:5px solid black"">","","","","","","","",""
"","788","sequential-stimulus-presentation-old","113","496361","0.0-27.0-1.3","SS1618008161238","trial","","40","500","1288","images/stimuli/spore_stims/simple_14_A_b.gif","images/stimuli/spore_stims/simple_04_A_a.gif","forced_long","","9","simple_dissimilar","images/stimuli/spore_stims/simple_04_A_a.gif","","","","",""
"","null","html-keyboard-response","114","497602","0.0-27.0-0.4","SS1618008161238","","","null","","","","","","<p><img src= images/blank.png width =""600"" height = ""600"" style=""position:fixed;top:50%; left:50%; transform: translate(-50%, -50%); border:5px solid black"">","","","","","","","",""
"","375","sequential-stimulus-presentation-old","115","498488","0.0-27.0-1.4","SS1618008161238","trial","","40","500","875","images/stimuli/spore_stims/simple_14_A_b.gif","images/stimuli/spore_stims/simple_04_A_a.gif","forced_long","","9","simple_dissimilar","images/stimuli/spore_stims/simple_04_A_a.gif","","","","",""
"","null","html-keyboard-response","116","499333","0.0-27.0-0.5","SS1618008161238","","","null","","","","","","<p><img src= images/blank.png width =""600"" height = ""600"" style=""position:fixed;top:50%; left:50%; transform: translate(-50%, -50%); border:5px solid black"">","","","","","","","",""
"","508","sequential-stimulus-presentation-old","117","500360","0.0-27.0-1.5","SS1618008161238","trial","","40","500","1008","images/stimuli/spore_stims/simple_14_A_b.gif","images/stimuli/spore_stims/simple_04_A_a.gif","forced_long","","9","simple_dissimilar","images/stimuli/spore_stims/simple_04_A_a.gif","","","","",""
"","3712","survey-multi-choice","118","504083","0.0-28.0","SS1618008161238","math_question","","","","","","","","","","","","{""Q0"":""9""}","[0]","9","",""
"","null","html-keyboard-response","119","505362","0.0-29.0-0.0","SS1618008161238","","","null","","","","","","<p><img src= images/blank.png width =""600"" height = ""600"" style=""position:fixed;top:50%; left:50%; transform: translate(-50%, -50%); border:5px solid black"">","","","","","","","",""
"","1564","sequential-stimulus-presentation-old","120","506985","0.0-29.0-1.0","SS1618008161238","trial","","40","500","2064","images/stimuli/spore_stims/complex_18_A_a.gif","images/stimuli/spore_stims/complex_02_A_b.gif","forced_short","","10","complex_dissimilar","images/stimuli/spore_stims/complex_02_A_b.gif","","","","",""
"","null","html-keyboard-response","121","508303","0.0-29.0-0.1","SS1618008161238","","","null","","","","","","<p><img src= images/blank.png width =""600"" height = ""600"" style=""position:fixed;top:50%; left:50%; transform: translate(-50%, -50%); border:5px solid black"">","","","","","","","",""
"","4417","sequential-stimulus-presentation-old","122","513241","0.0-29.0-1.1","SS1618008161238","trial","","40","500","4917","images/stimuli/spore_stims/complex_18_A_a.gif","images/stimuli/spore_stims/complex_02_A_b.gif","forced_short","","10","complex_dissimilar","images/stimuli/spore_stims/complex_02_A_b.gif","","","","",""
"","null","html-keyboard-response","123","514462","0.0-29.0-0.2","SS1618008161238","","","null","","","","","","<p><img src= images/blank.png width =""600"" height = ""600"" style=""position:fixed;top:50%; left:50%; transform: translate(-50%, -50%); border:5px solid black"">","","","","","","","",""
"","2768","sequential-stimulus-presentation-old","124","517753","0.0-29.0-1.2","SS1618008161238","trial","","40","500","3268","images/stimuli/spore_stims/complex_18_A_a.gif","images/stimuli/spore_stims/complex_02_A_b.gif","forced_short","","10","complex_dissimilar","images/stimuli/spore_stims/complex_02_A_b.gif","","","","",""
"","null","html-keyboard-response","125","518843","0.0-29.0-0.3","SS1618008161238","","","null","","","","","","<p><img src= images/blank.png width =""600"" height = ""600"" style=""position:fixed;top:50%; left:50%; transform: translate(-50%, -50%); border:5px solid black"">","","","","","","","",""
"","208","sequential-stimulus-presentation-old","126","519560","0.0-29.0-1.3","SS1618008161238","trial","","40","500","708","images/stimuli/spore_stims/complex_18_A_a.gif","images/stimuli/spore_stims/complex_02_A_b.gif","forced_short","","10","complex_dissimilar","images/stimuli/spore_stims/complex_02_A_b.gif","","","","",""
"","null","html-keyboard-response","127","520432","0.0-29.0-0.4","SS1618008161238","","","null","","","","","","<p><img src= images/blank.png width =""600"" height = ""600"" style=""position:fixed;top:50%; left:50%; transform: translate(-50%, -50%); border:5px solid black"">","","","","","","","",""
"","5665","sequential-stimulus-presentation-old","128","526617","0.0-29.0-1.4","SS1618008161238","trial","","40","500","6165","images/stimuli/spore_stims/complex_18_A_a.gif","images/stimuli/spore_stims/complex_02_A_b.gif","forced_short","","10","complex_dissimilar","images/stimuli/spore_stims/complex_18_A_a.gif","","","","",""
"","3461","survey-multi-choice","129","530088","0.0-30.0","SS1618008161238","math_question","","","","","","","","","","","","{""Q0"":""3""}","[0]","3","",""
"","null","html-keyboard-response","130","531043","0.0-31.0-0.0","SS1618008161238","","","null","","","","","","<p><img src= images/blank.png width =""600"" height = ""600"" style=""position:fixed;top:50%; left:50%; transform: translate(-50%, -50%); border:5px solid black"">","","","","","","","",""
"","1046","sequential-stimulus-presentation-old","131","532168","0.0-31.0-1.0","SS1618008161238","trial","","40","500","1546","images/stimuli/spore_stims/simple_13_A_b.gif","images/stimuli/spore_stims/simple_06_A_a.gif","forced_short","","11","simple_dissimilar","images/stimuli/spore_stims/simple_06_A_a.gif","","","","",""
"","null","html-keyboard-response","132","533142","0.0-31.0-0.1","SS1618008161238","","","null","","","","","","<p><img src= images/blank.png width =""600"" height = ""600"" style=""position:fixed;top:50%; left:50%; transform: translate(-50%, -50%); border:5px solid black"">","","","","","","","",""
"","3258","sequential-stimulus-presentation-old","133","536921","0.0-31.0-1.1","SS1618008161238","trial","","40","500","3758","images/stimuli/spore_stims/simple_13_A_b.gif","images/stimuli/spore_stims/simple_06_A_a.gif","forced_short","","11","simple_dissimilar","images/stimuli/spore_stims/simple_06_A_a.gif","","","","",""
"","null","html-keyboard-response","134","538053","0.0-31.0-0.2","SS1618008161238","","","null","","","","","","<p><img src= images/blank.png width =""600"" height = ""600"" style=""position:fixed;top:50%; left:50%; transform: translate(-50%, -50%); border:5px solid black"">","","","","","","","",""
"","2892","sequential-stimulus-presentation-old","135","541464","0.0-31.0-1.2","SS1618008161238","trial","","40","500","3392","images/stimuli/spore_stims/simple_13_A_b.gif","images/stimuli/spore_stims/simple_06_A_a.gif","forced_short","","11","simple_dissimilar","images/stimuli/spore_stims/simple_06_A_a.gif","","","","",""
"","null","html-keyboard-response","136","542635","0.0-31.0-0.3","SS1618008161238","","","null","","","","","","<p><img src= images/blank.png width =""600"" height = ""600"" style=""position:fixed;top:50%; left:50%; transform: translate(-50%, -50%); border:5px solid black"">","","","","","","","",""
"","1510","sequential-stimulus-presentation-old","137","544672","0.0-31.0-1.3","SS1618008161238","trial","","40","500","2010","images/stimuli/spore_stims/simple_13_A_b.gif","images/stimuli/spore_stims/simple_06_A_a.gif","forced_short","","11","simple_dissimilar","images/stimuli/spore_stims/simple_06_A_a.gif","","","","",""
"","null","html-keyboard-response","138","545742","0.0-31.0-0.4","SS1618008161238","","","null","","","","","","<p><img src= images/blank.png width =""600"" height = ""600"" style=""position:fixed;top:50%; left:50%; transform: translate(-50%, -50%); border:5px solid black"">","","","","","","","",""
"","1306","sequential-stimulus-presentation-old","139","547568","0.0-31.0-1.4","SS1618008161238","trial","","40","500","1806","images/stimuli/spore_stims/simple_13_A_b.gif","images/stimuli/spore_stims/simple_06_A_a.gif","forced_short","","11","simple_dissimilar","images/stimuli/spore_stims/simple_06_A_a.gif","","","","",""
"","null","html-keyboard-response","140","548733","0.0-31.0-0.5","SS1618008161238","","","null","","","","","","<p><img src= images/blank.png width =""600"" height = ""600"" style=""position:fixed;top:50%; left:50%; transform: translate(-50%, -50%); border:5px solid black"">","","","","","","","",""
"","515","sequential-stimulus-presentation-old","141","549768","0.0-31.0-1.5","SS1618008161238","trial","","40","500","1015","images/stimuli/spore_stims/simple_13_A_b.gif","images/stimuli/spore_stims/simple_06_A_a.gif","forced_short","","11","simple_dissimilar","images/stimuli/spore_stims/simple_06_A_a.gif","","","","",""
"[{""page_index"":0,""viewing_time"":8649}]","8650","instructions","142","558427","0.0-32.0","SS1618008161238","instructions","","","","","","","","","","","","","","","",""
"","7786","survey-likert","143","566219","0.0-33.0","SS1618008161238","similarity_question","","","","","","","","","","","","{""Q0"":4}","[0]","","images/stimuli/spore_stims/simple_06_A_a.gif","images/stimuli/spore_stims/simple_13_A_b.gif"
"","7754","survey-likert","144","573988","0.0-34.0","SS1618008161238","similarity_question","","","","","","","","","","","","{""Q0"":3}","[0]","","images/stimuli/spore_stims/simple_01_A_b.gif","images/stimuli/spore_stims/simple_18_A_a.gif"
"","9816","survey-likert","145","583818","0.0-35.0","SS1618008161238","similarity_question","","","","","","","","","","","","{""Q0"":1}","[0]","","images/stimuli/spore_stims/complex_07_A_a.gif","images/stimuli/spore_stims/complex_16_A_b.gif"
"","5850","survey-likert","146","589685","0.0-36.0","SS1618008161238","similarity_question","","","","","","","","","","","","{""Q0"":5}","[0]","","images/stimuli/spore_stims/simple_16_A_b.gif","images/stimuli/spore_stims/simple_11_A_a.gif"
"","6421","survey-likert","147","596120","0.0-37.0","SS1618008161238","similarity_question","","","","","","","","","","","","{""Q0"":3}","[0]","","images/stimuli/spore_stims/simple_08_A_b.gif","images/stimuli/spore_stims/simple_07_A_a.gif"
"","10717","survey-likert","148","606853","0.0-38.0","SS1618008161238","similarity_question","","","","","","","","","","","","{""Q0"":0}","[0]","","images/stimuli/spore_stims/complex_11_A_a.gif","images/stimuli/spore_stims/complex_09_A_b.gif"
"","3937","survey-likert","149","610804","0.0-39.0","SS1618008161238","similarity_question","","","","","","","","","","","","{""Q0"":0}","[0]","","images/stimuli/spore_stims/complex_06_A_b.gif","images/stimuli/spore_stims/complex_03_A_a.gif"
"","4804","survey-likert","150","615624","0.0-40.0","SS1618008161238","similarity_question","","","","","","","","","","","","{""Q0"":2}","[0]","","images/stimuli/spore_stims/simple_04_A_a.gif","images/stimuli/spore_stims/simple_14_A_b.gif"
"","9573","survey-likert","151","625210","0.0-41.0","SS1618008161238","similarity_question","","","","","","","","","","","","{""Q0"":0}","[0]","","images/stimuli/spore_stims/complex_02_A_b.gif","images/stimuli/spore_stims/complex_18_A_a.gif"
"","7198","survey-likert","152","632424","0.0-42.0","SS1618008161238","similarity_question","","","","","","","","","","","","{""Q0"":1}","[0]","","images/stimuli/spore_stims/complex_01_A_b.gif","images/stimuli/spore_stims/complex_06_A_a.gif"
"","7818","survey-likert","153","640255","0.0-43.0","SS1618008161238","similarity_question","","","","","","","","","","","","{""Q0"":3}","[0]","","images/stimuli/spore_stims/simple_03_A_b.gif","images/stimuli/spore_stims/simple_14_A_a.gif"
"","9618","survey-likert","154","649889","0.0-44.0","SS1618008161238","similarity_question","","","","","","","","","","","","{""Q0"":0}","[0]","","images/stimuli/spore_stims/complex_20_A_a.gif","images/stimuli/spore_stims/complex_05_A_b.gif"
"[{""page_index"":0,""viewing_time"":3761}]","3761","instructions","155","653664","0.0-45.0","SS1618008161238","instructions","","","","","","","","","","","","","","","",""
"","5527","survey-likert","156","659196","0.0-46.0","SS1618008161238","","","","","","","","","images/stimuli/spore_stims/complex_03_A_a.gif","","","","{""Q0"":5}","[0]","","",""
"","3822","survey-likert","157","663035","0.0-47.0","SS1618008161238","","","","","","","","","images/stimuli/spore_stims/simple_03_A_b.gif","","","","{""Q0"":1}","[0]","","",""
"","2389","survey-likert","158","665439","0.0-48.0","SS1618008161238","","","","","","","","","images/stimuli/spore_stims/simple_06_A_a.gif","","","","{""Q0"":1}","[0]","","",""
"","2693","survey-likert","159","668146","0.0-49.0","SS1618008161238","","","","","","","","","images/stimuli/spore_stims/simple_16_A_b.gif","","","","{""Q0"":1}","[0]","","",""
"","2771","survey-likert","160","670932","0.0-50.0","SS1618008161238","","","","","","","","","images/stimuli/spore_stims/simple_08_A_b.gif","","","","{""Q0"":0}","[0]","","",""
"","2408","survey-likert","161","673355","0.0-51.0","SS1618008161238","","","","","","","","","images/stimuli/spore_stims/simple_04_A_a.gif","","","","{""Q0"":1}","[0]","","",""
"","8927","survey-likert","162","682297","0.0-52.0","SS1618008161238","","","","","","","","","images/stimuli/spore_stims/complex_06_A_a.gif","","","","{""Q0"":6}","[0]","","",""
"","2467","survey-likert","163","684779","0.0-53.0","SS1618008161238","","","","","","","","","images/stimuli/spore_stims/complex_16_A_b.gif","","","","{""Q0"":6}","[0]","","",""
"","2709","survey-likert","164","687502","0.0-54.0","SS1618008161238","","","","","","","","","images/stimuli/spore_stims/complex_09_A_b.gif","","","","{""Q0"":6}","[0]","","",""
"","2966","survey-likert","165","690485","0.0-55.0","SS1618008161238","","","","","","","","","images/stimuli/spore_stims/simple_01_A_b.gif","","","","{""Q0"":1}","[0]","","",""
"","6050","survey-likert","166","696546","0.0-56.0","SS1618008161238","","","","","","","","","images/stimuli/spore_stims/complex_20_A_a.gif","","","","{""Q0"":5}","[0]","","",""
"","3305","survey-likert","167","699868","0.0-57.0","SS1618008161238","","","","","","","","","images/stimuli/spore_stims/complex_02_A_b.gif","","","","{""Q0"":5}","[0]","","",""
"[{""page_index"":0,""viewing_time"":1931}]","1932","instructions","168","701813","0.0-58.0","SS1618008161238","instructions","","","","","","","","","","","","","","","",""
"","2827","demog-age","169","704651","0.0-59.0","SS1618008161238","","","","","","","","","","","","","{""age"":""35""}","","","",""
"","4938","demog-ethnic-US","170","709598","0.0-60.0","SS1618008161238","","","","","","","","","","","","","{""ethnicity"":[""White""]}","[0]","","",""
"","4277","demog-gender-and-education","171","713892","0.0-61.0","SS1618008161238","","","","","","","","","","","","","{""gender"":""Male"",""education"":""Master's Degree""}","[0,1]","","",""
"","7019","survey-text","172","720936","0.0-62.0","SS1618008161238","feedback","","","","","","","","","","","","{""Q0"":""no""}","","","",""
"[{""page_index"":0,""viewing_time"":1974}]","1974","instructions","173","722917","0.0-63.0","SS1618008161238","instructions","","","","","","","","","","","","","","","",""
