"view_history","rt","trial_type","trial_index","time_elapsed","internal_node_id","subject","stimulus_type","trial_stimulus","key_press","minimum_viewing_duration","trial_looking_time","block_deviant","block_background","exposure_type","stimulus","block_number","block_type","stimulus_displayed","responses","question_order","math_correct_answer","stimulus_left","stimulus_right"
"[{""page_index"":0,""viewing_time"":14173.025000025518}]","14174.984999932349","instructions","0","14177","0.0-0.0","SS1618006392203","","","","","","","","","","","","","","","","",""
"[{""page_index"":0,""viewing_time"":19787.71499998402},{""page_index"":1,""viewing_time"":14687.97500000801}]","34476.02500009816","instructions","1","50657","0.0-1.0","SS1618006392203","instructions","","","","","","","","","","","","","","","",""
"","12221.445000031963","sequential-stimulus-presentation-old","2","63384","0.0-2.0","SS1618006392203","","","40","500","12721.445000031963","null","null","self_paced","","","","","","","","",""
"","11393.389999982901","sequential-stimulus-presentation-old","3","75293","0.0-3.0","SS1618006392203","","","40","500","11893.389999982901","null","null","self_paced","","","","","","","","",""
"[{""page_index"":0,""viewing_time"":32654.52500001993}]","32654.835000052117","instructions","4","107949","0.0-4.0","SS1618006392203","instructions","","","","","","","","","","","","","","","",""
"","14776.60499990452","sequential-stimulus-presentation-old","5","127730","0.0-5.0","SS1618006392203","","","40","500","15276.60499990452","null","null","forced_long","","","","","","","","",""
"","9626.994999940507","sequential-stimulus-presentation-old","6","137411","0.0-6.0","SS1618006392203","","","40","50","9676.994999940507","null","null","forced_long","","","","","","","","",""
"[{""page_index"":0,""viewing_time"":14069.52999997884}]","14069.784999941476","instructions","7","151482","0.0-7.0","SS1618006392203","instructions","","","","","","","","","","","","","","","",""
"[{""page_index"":0,""viewing_time"":15877.854999969713},{""page_index"":1,""viewing_time"":28215.93499998562},{""page_index"":2,""viewing_time"":11459.4550000038},{""page_index"":3,""viewing_time"":3132.660000002943},{""page_index"":4,""viewing_time"":3179.869999992661}]","61866.25500000082","instructions","8","213350","0.0-8.0","SS1618006392203","instructions","","","","","","","","","","","","","","","",""
"","null","html-keyboard-response","9","214527","0.0-9.0-0.0","SS1618006392203","","","null","","","","","","<p><img src= images/blank.png width =""600"" height = ""600"" style=""position:fixed;top:50%; left:50%; transform: translate(-50%, -50%); border:5px solid black"">","","","","","","","",""
"","2072.0049999654293","sequential-stimulus-presentation-old","10","221604","0.0-9.0-1.0","SS1618006392203","trial","","40","500","2572.0049999654293","images/stimuli/spore_stims/simple_09_A_b.gif","images/stimuli/spore_stims/simple_14_A_a.gif","forced_long","","0","simple_dissimilar","images/stimuli/spore_stims/simple_14_A_a.gif","","","","",""
"","null","html-keyboard-response","11","222852","0.0-9.0-0.1","SS1618006392203","","","null","","","","","","<p><img src= images/blank.png width =""600"" height = ""600"" style=""position:fixed;top:50%; left:50%; transform: translate(-50%, -50%); border:5px solid black"">","","","","","","","",""
"","20287.955000065267","sequential-stimulus-presentation-old","12","243644","0.0-9.0-1.1","SS1618006392203","trial","","40","500","20787.955000065267","images/stimuli/spore_stims/simple_09_A_b.gif","images/stimuli/spore_stims/simple_14_A_a.gif","forced_long","","0","simple_dissimilar","images/stimuli/spore_stims/simple_14_A_a.gif","","","","",""
"","null","html-keyboard-response","13","244848","0.0-9.0-0.2","SS1618006392203","","","null","","","","","","<p><img src= images/blank.png width =""600"" height = ""600"" style=""position:fixed;top:50%; left:50%; transform: translate(-50%, -50%); border:5px solid black"">","","","","","","","",""
"","5983.175000059418","sequential-stimulus-presentation-old","14","251336","0.0-9.0-1.2","SS1618006392203","trial","","40","500","6483.175000059418","images/stimuli/spore_stims/simple_09_A_b.gif","images/stimuli/spore_stims/simple_14_A_a.gif","forced_long","","0","simple_dissimilar","images/stimuli/spore_stims/simple_14_A_a.gif","","","","",""
"","null","html-keyboard-response","15","252277","0.0-9.0-0.3","SS1618006392203","","","null","","","","","","<p><img src= images/blank.png width =""600"" height = ""600"" style=""position:fixed;top:50%; left:50%; transform: translate(-50%, -50%); border:5px solid black"">","","","","","","","",""
"","8610.469999955967","sequential-stimulus-presentation-old","16","261391","0.0-9.0-1.3","SS1618006392203","trial","","40","500","9110.469999955967","images/stimuli/spore_stims/simple_09_A_b.gif","images/stimuli/spore_stims/simple_14_A_a.gif","forced_long","","0","simple_dissimilar","images/stimuli/spore_stims/simple_14_A_a.gif","","","","",""
"","null","html-keyboard-response","17","262558","0.0-9.0-0.4","SS1618006392203","","","null","","","","","","<p><img src= images/blank.png width =""600"" height = ""600"" style=""position:fixed;top:50%; left:50%; transform: translate(-50%, -50%); border:5px solid black"">","","","","","","","",""
"","7415.8949999837205","sequential-stimulus-presentation-old","18","270479","0.0-9.0-1.4","SS1618006392203","trial","","40","500","7915.8949999837205","images/stimuli/spore_stims/simple_09_A_b.gif","images/stimuli/spore_stims/simple_14_A_a.gif","forced_long","","0","simple_dissimilar","images/stimuli/spore_stims/simple_14_A_a.gif","","","","",""
"","null","html-keyboard-response","19","271733","0.0-9.0-0.5","SS1618006392203","","","null","","","","","","<p><img src= images/blank.png width =""600"" height = ""600"" style=""position:fixed;top:50%; left:50%; transform: translate(-50%, -50%); border:5px solid black"">","","","","","","","",""
"","17328.26500001829","sequential-stimulus-presentation-old","20","289566","0.0-9.0-1.5","SS1618006392203","trial","","40","500","17828.26500001829","images/stimuli/spore_stims/simple_09_A_b.gif","images/stimuli/spore_stims/simple_14_A_a.gif","forced_long","","0","simple_dissimilar","images/stimuli/spore_stims/simple_14_A_a.gif","","","","",""
"","6675.805000006221","survey-multi-choice","21","296247","0.0-10.0","SS1618006392203","math_question","","","","","","","","","","","","{""Q0"":""17""}","[0]","17","",""
"","null","html-keyboard-response","22","297514","0.0-11.0-0.0","SS1618006392203","","","null","","","","","","<p><img src= images/blank.png width =""600"" height = ""600"" style=""position:fixed;top:50%; left:50%; transform: translate(-50%, -50%); border:5px solid black"">","","","","","","","",""
"","4322.620000108145","sequential-stimulus-presentation-old","23","301903","0.0-11.0-1.0","SS1618006392203","trial","","40","500","4822.620000108145","images/stimuli/spore_stims/simple_15_A_a.gif","images/stimuli/spore_stims/simple_07_A_b.gif","forced_short","","1","simple_dissimilar","images/stimuli/spore_stims/simple_07_A_b.gif","","","","",""
"","null","html-keyboard-response","24","302992","0.0-11.0-0.1","SS1618006392203","","","null","","","","","","<p><img src= images/blank.png width =""600"" height = ""600"" style=""position:fixed;top:50%; left:50%; transform: translate(-50%, -50%); border:5px solid black"">","","","","","","","",""
"","14093.460000003688","sequential-stimulus-presentation-old","25","317591","0.0-11.0-1.1","SS1618006392203","trial","","40","500","14593.460000003688","images/stimuli/spore_stims/simple_15_A_a.gif","images/stimuli/spore_stims/simple_07_A_b.gif","forced_short","","1","simple_dissimilar","images/stimuli/spore_stims/simple_07_A_b.gif","","","","",""
"","null","html-keyboard-response","26","318569","0.0-11.0-0.2","SS1618006392203","","","null","","","","","","<p><img src= images/blank.png width =""600"" height = ""600"" style=""position:fixed;top:50%; left:50%; transform: translate(-50%, -50%); border:5px solid black"">","","","","","","","",""
"","13787.755000055768","sequential-stimulus-presentation-old","27","332873","0.0-11.0-1.2","SS1618006392203","trial","","40","500","14287.755000055768","images/stimuli/spore_stims/simple_15_A_a.gif","images/stimuli/spore_stims/simple_07_A_b.gif","forced_short","","1","simple_dissimilar","images/stimuli/spore_stims/simple_07_A_b.gif","","","","",""
"","null","html-keyboard-response","28","334123","0.0-11.0-0.3","SS1618006392203","","","null","","","","","","<p><img src= images/blank.png width =""600"" height = ""600"" style=""position:fixed;top:50%; left:50%; transform: translate(-50%, -50%); border:5px solid black"">","","","","","","","",""
"","9226.699999999255","sequential-stimulus-presentation-old","29","343856","0.0-11.0-1.3","SS1618006392203","trial","","40","500","9726.699999999255","images/stimuli/spore_stims/simple_15_A_a.gif","images/stimuli/spore_stims/simple_07_A_b.gif","forced_short","","1","simple_dissimilar","images/stimuli/spore_stims/simple_07_A_b.gif","","","","",""
"","null","html-keyboard-response","30","345067","0.0-11.0-0.4","SS1618006392203","","","null","","","","","","<p><img src= images/blank.png width =""600"" height = ""600"" style=""position:fixed;top:50%; left:50%; transform: translate(-50%, -50%); border:5px solid black"">","","","","","","","",""
"","10133.840000024065","sequential-stimulus-presentation-old","31","355705","0.0-11.0-1.4","SS1618006392203","trial","","40","500","10633.840000024065","images/stimuli/spore_stims/simple_15_A_a.gif","images/stimuli/spore_stims/simple_07_A_b.gif","forced_short","","1","simple_dissimilar","images/stimuli/spore_stims/simple_15_A_a.gif","","","","",""
"","null","html-keyboard-response","32","356523","0.0-11.0-0.5","SS1618006392203","","","null","","","","","","<p><img src= images/blank.png width =""600"" height = ""600"" style=""position:fixed;top:50%; left:50%; transform: translate(-50%, -50%); border:5px solid black"">","","","","","","","",""
"","7213.420000043698","sequential-stimulus-presentation-old","33","364244","0.0-11.0-1.5","SS1618006392203","trial","","40","500","7713.420000043698","images/stimuli/spore_stims/simple_15_A_a.gif","images/stimuli/spore_stims/simple_07_A_b.gif","forced_short","","1","simple_dissimilar","images/stimuli/spore_stims/simple_15_A_a.gif","","","","",""
"","4823.474999982864","survey-multi-choice","34","369070","0.0-12.0","SS1618006392203","math_question","","","","","","","","","","","","{""Q0"":""8""}","[0]","8","",""
"","null","html-keyboard-response","35","370289","0.0-13.0-0.0","SS1618006392203","","","null","","","","","","<p><img src= images/blank.png width =""600"" height = ""600"" style=""position:fixed;top:50%; left:50%; transform: translate(-50%, -50%); border:5px solid black"">","","","","","","","",""
"","4033.045000047423","sequential-stimulus-presentation-old","36","379328","0.0-13.0-1.0","SS1618006392203","trial","","40","500","4533.045000047423","images/stimuli/spore_stims/complex_20_A_b.gif","images/stimuli/spore_stims/complex_15_A_a.gif","forced_long","","2","complex_dissimilar","images/stimuli/spore_stims/complex_15_A_a.gif","","","","",""
"","null","html-keyboard-response","37","380236","0.0-13.0-0.1","SS1618006392203","","","null","","","","","","<p><img src= images/blank.png width =""600"" height = ""600"" style=""position:fixed;top:50%; left:50%; transform: translate(-50%, -50%); border:5px solid black"">","","","","","","","",""
"","14448.40499991551","sequential-stimulus-presentation-old","38","395190","0.0-13.0-1.1","SS1618006392203","trial","","40","500","14948.40499991551","images/stimuli/spore_stims/complex_20_A_b.gif","images/stimuli/spore_stims/complex_15_A_a.gif","forced_long","","2","complex_dissimilar","images/stimuli/spore_stims/complex_20_A_b.gif","","","","",""
"","null","html-keyboard-response","39","396332","0.0-13.0-0.2","SS1618006392203","","","null","","","","","","<p><img src= images/blank.png width =""600"" height = ""600"" style=""position:fixed;top:50%; left:50%; transform: translate(-50%, -50%); border:5px solid black"">","","","","","","","",""
"","10349.144999985583","sequential-stimulus-presentation-old","40","407186","0.0-13.0-1.2","SS1618006392203","trial","","40","500","10849.144999985583","images/stimuli/spore_stims/complex_20_A_b.gif","images/stimuli/spore_stims/complex_15_A_a.gif","forced_long","","2","complex_dissimilar","images/stimuli/spore_stims/complex_15_A_a.gif","","","","",""
"","null","html-keyboard-response","41","408453","0.0-13.0-0.3","SS1618006392203","","","null","","","","","","<p><img src= images/blank.png width =""600"" height = ""600"" style=""position:fixed;top:50%; left:50%; transform: translate(-50%, -50%); border:5px solid black"">","","","","","","","",""
"","1326.1850000126287","sequential-stimulus-presentation-old","42","410285","0.0-13.0-1.3","SS1618006392203","trial","","40","500","1826.1850000126287","images/stimuli/spore_stims/complex_20_A_b.gif","images/stimuli/spore_stims/complex_15_A_a.gif","forced_long","","2","complex_dissimilar","images/stimuli/spore_stims/complex_15_A_a.gif","","","","",""
"","null","html-keyboard-response","43","411431","0.0-13.0-0.4","SS1618006392203","","","null","","","","","","<p><img src= images/blank.png width =""600"" height = ""600"" style=""position:fixed;top:50%; left:50%; transform: translate(-50%, -50%); border:5px solid black"">","","","","","","","",""
"","7996.580000035465","sequential-stimulus-presentation-old","44","419933","0.0-13.0-1.4","SS1618006392203","trial","","40","500","8496.580000035465","images/stimuli/spore_stims/complex_20_A_b.gif","images/stimuli/spore_stims/complex_15_A_a.gif","forced_long","","2","complex_dissimilar","images/stimuli/spore_stims/complex_20_A_b.gif","","","","",""
"","4678.399999975227","survey-multi-choice","45","424614","0.0-14.0","SS1618006392203","math_question","","","","","","","","","","","","{""Q0"":""4""}","[0]","4","",""
"","null","html-keyboard-response","46","425757","0.0-15.0-0.0","SS1618006392203","","","null","","","","","","<p><img src= images/blank.png width =""600"" height = ""600"" style=""position:fixed;top:50%; left:50%; transform: translate(-50%, -50%); border:5px solid black"">","","","","","","","",""
"","6518.290000036359","sequential-stimulus-presentation-old","47","432330","0.0-15.0-1.0","SS1618006392203","trial","","40","500","7018.290000036359","images/stimuli/spore_stims/complex_10_A_b.gif","images/stimuli/spore_stims/complex_12_A_a.gif","forced_short","","3","complex_dissimilar","images/stimuli/spore_stims/complex_12_A_a.gif","","","","",""
"","null","html-keyboard-response","48","433417","0.0-15.0-0.1","SS1618006392203","","","null","","","","","","<p><img src= images/blank.png width =""600"" height = ""600"" style=""position:fixed;top:50%; left:50%; transform: translate(-50%, -50%); border:5px solid black"">","","","","","","","",""
"","8735.504999989644","sequential-stimulus-presentation-old","49","442658","0.0-15.0-1.1","SS1618006392203","trial","","40","500","9235.504999989644","images/stimuli/spore_stims/complex_10_A_b.gif","images/stimuli/spore_stims/complex_12_A_a.gif","forced_short","","3","complex_dissimilar","images/stimuli/spore_stims/complex_12_A_a.gif","","","","",""
"","null","html-keyboard-response","50","443827","0.0-15.0-0.2","SS1618006392203","","","null","","","","","","<p><img src= images/blank.png width =""600"" height = ""600"" style=""position:fixed;top:50%; left:50%; transform: translate(-50%, -50%); border:5px solid black"">","","","","","","","",""
"","3678.0300000682473","sequential-stimulus-presentation-old","51","448024","0.0-15.0-1.2","SS1618006392203","trial","","40","500","4178.030000068247","images/stimuli/spore_stims/complex_10_A_b.gif","images/stimuli/spore_stims/complex_12_A_a.gif","forced_short","","3","complex_dissimilar","images/stimuli/spore_stims/complex_12_A_a.gif","","","","",""
"","null","html-keyboard-response","52","449066","0.0-15.0-0.3","SS1618006392203","","","null","","","","","","<p><img src= images/blank.png width =""600"" height = ""600"" style=""position:fixed;top:50%; left:50%; transform: translate(-50%, -50%); border:5px solid black"">","","","","","","","",""
"","12121.55999999959","sequential-stimulus-presentation-old","53","461691","0.0-15.0-1.3","SS1618006392203","trial","","40","500","12621.55999999959","images/stimuli/spore_stims/complex_10_A_b.gif","images/stimuli/spore_stims/complex_12_A_a.gif","forced_short","","3","complex_dissimilar","images/stimuli/spore_stims/complex_10_A_b.gif","","","","",""
"","null","html-keyboard-response","54","462758","0.0-15.0-0.4","SS1618006392203","","","null","","","","","","<p><img src= images/blank.png width =""600"" height = ""600"" style=""position:fixed;top:50%; left:50%; transform: translate(-50%, -50%); border:5px solid black"">","","","","","","","",""
"","9454.225000110455","sequential-stimulus-presentation-old","55","472718","0.0-15.0-1.4","SS1618006392203","trial","","40","500","9954.225000110455","images/stimuli/spore_stims/complex_10_A_b.gif","images/stimuli/spore_stims/complex_12_A_a.gif","forced_short","","3","complex_dissimilar","images/stimuli/spore_stims/complex_12_A_a.gif","","","","",""
"","null","html-keyboard-response","56","473723","0.0-15.0-0.5","SS1618006392203","","","null","","","","","","<p><img src= images/blank.png width =""600"" height = ""600"" style=""position:fixed;top:50%; left:50%; transform: translate(-50%, -50%); border:5px solid black"">","","","","","","","",""
"","6496.030000038445","sequential-stimulus-presentation-old","57","480725","0.0-15.0-1.5","SS1618006392203","trial","","40","500","6996.030000038445","images/stimuli/spore_stims/complex_10_A_b.gif","images/stimuli/spore_stims/complex_12_A_a.gif","forced_short","","3","complex_dissimilar","images/stimuli/spore_stims/complex_10_A_b.gif","","","","",""
"","5033.689999952912","survey-multi-choice","58","485762","0.0-16.0","SS1618006392203","math_question","","","","","","","","","","","","{""Q0"":""10""}","[0]","10","",""
"","null","html-keyboard-response","59","486657","0.0-17.0-0.0","SS1618006392203","","","null","","","","","","<p><img src= images/blank.png width =""600"" height = ""600"" style=""position:fixed;top:50%; left:50%; transform: translate(-50%, -50%); border:5px solid black"">","","","","","","","",""
"","2439.3350000027567","sequential-stimulus-presentation-old","60","494102","0.0-17.0-1.0","SS1618006392203","trial","","40","500","2939.3350000027567","images/stimuli/spore_stims/complex_06_A_a.gif","images/stimuli/spore_stims/complex_11_A_b.gif","forced_long","","4","complex_dissimilar","images/stimuli/spore_stims/complex_11_A_b.gif","","","","",""
"","null","html-keyboard-response","61","495002","0.0-17.0-0.1","SS1618006392203","","","null","","","","","","<p><img src= images/blank.png width =""600"" height = ""600"" style=""position:fixed;top:50%; left:50%; transform: translate(-50%, -50%); border:5px solid black"">","","","","","","","",""
"","5516.7099999962375","sequential-stimulus-presentation-old","62","501024","0.0-17.0-1.1","SS1618006392203","trial","","40","500","6016.7099999962375","images/stimuli/spore_stims/complex_06_A_a.gif","images/stimuli/spore_stims/complex_11_A_b.gif","forced_long","","4","complex_dissimilar","images/stimuli/spore_stims/complex_11_A_b.gif","","","","",""
"","null","html-keyboard-response","63","501951","0.0-17.0-0.2","SS1618006392203","","","null","","","","","","<p><img src= images/blank.png width =""600"" height = ""600"" style=""position:fixed;top:50%; left:50%; transform: translate(-50%, -50%); border:5px solid black"">","","","","","","","",""
"","3167.765000020154","sequential-stimulus-presentation-old","64","505625","0.0-17.0-1.2","SS1618006392203","trial","","40","500","3667.765000020154","images/stimuli/spore_stims/complex_06_A_a.gif","images/stimuli/spore_stims/complex_11_A_b.gif","forced_long","","4","complex_dissimilar","images/stimuli/spore_stims/complex_11_A_b.gif","","","","",""
"","null","html-keyboard-response","65","506796","0.0-17.0-0.3","SS1618006392203","","","null","","","","","","<p><img src= images/blank.png width =""600"" height = ""600"" style=""position:fixed;top:50%; left:50%; transform: translate(-50%, -50%); border:5px solid black"">","","","","","","","",""
"","6987.409999943338","sequential-stimulus-presentation-old","66","514289","0.0-17.0-1.3","SS1618006392203","trial","","40","500","7487.409999943338","images/stimuli/spore_stims/complex_06_A_a.gif","images/stimuli/spore_stims/complex_11_A_b.gif","forced_long","","4","complex_dissimilar","images/stimuli/spore_stims/complex_11_A_b.gif","","","","",""
"","null","html-keyboard-response","67","515197","0.0-17.0-0.4","SS1618006392203","","","null","","","","","","<p><img src= images/blank.png width =""600"" height = ""600"" style=""position:fixed;top:50%; left:50%; transform: translate(-50%, -50%); border:5px solid black"">","","","","","","","",""
"","7784.800000023097","sequential-stimulus-presentation-old","68","523488","0.0-17.0-1.4","SS1618006392203","trial","","40","500","8284.800000023097","images/stimuli/spore_stims/complex_06_A_a.gif","images/stimuli/spore_stims/complex_11_A_b.gif","forced_long","","4","complex_dissimilar","images/stimuli/spore_stims/complex_06_A_a.gif","","","","",""
"","null","html-keyboard-response","69","524563","0.0-17.0-0.5","SS1618006392203","","","null","","","","","","<p><img src= images/blank.png width =""600"" height = ""600"" style=""position:fixed;top:50%; left:50%; transform: translate(-50%, -50%); border:5px solid black"">","","","","","","","",""
"","5583.47000007052","sequential-stimulus-presentation-old","70","530653","0.0-17.0-1.5","SS1618006392203","trial","","40","500","6083.47000007052","images/stimuli/spore_stims/complex_06_A_a.gif","images/stimuli/spore_stims/complex_11_A_b.gif","forced_long","","4","complex_dissimilar","images/stimuli/spore_stims/complex_11_A_b.gif","","","","",""
"","3734.040000010282","survey-multi-choice","71","534390","0.0-18.0","SS1618006392203","math_question","","","","","","","","","","","","{""Q0"":""3""}","[0]","3","",""
"","null","html-keyboard-response","72","535399","0.0-19.0-0.0","SS1618006392203","","","null","","","","","","<p><img src= images/blank.png width =""600"" height = ""600"" style=""position:fixed;top:50%; left:50%; transform: translate(-50%, -50%); border:5px solid black"">","","","","","","","",""
"","5847.7149999234825","sequential-stimulus-presentation-old","73","546245","0.0-19.0-1.0","SS1618006392203","trial","","40","500","6347.7149999234825","images/stimuli/spore_stims/simple_17_A_b.gif","images/stimuli/spore_stims/simple_01_A_a.gif","forced_long","","5","simple_dissimilar","images/stimuli/spore_stims/simple_01_A_a.gif","","","","",""
"","null","html-keyboard-response","74","547118","0.0-19.0-0.1","SS1618006392203","","","null","","","","","","<p><img src= images/blank.png width =""600"" height = ""600"" style=""position:fixed;top:50%; left:50%; transform: translate(-50%, -50%); border:5px solid black"">","","","","","","","",""
"","6009.510000003502","sequential-stimulus-presentation-old","75","553633","0.0-19.0-1.1","SS1618006392203","trial","","40","500","6509.510000003502","images/stimuli/spore_stims/simple_17_A_b.gif","images/stimuli/spore_stims/simple_01_A_a.gif","forced_long","","5","simple_dissimilar","images/stimuli/spore_stims/simple_01_A_a.gif","","","","",""
"","null","html-keyboard-response","76","554833","0.0-19.0-0.2","SS1618006392203","","","null","","","","","","<p><img src= images/blank.png width =""600"" height = ""600"" style=""position:fixed;top:50%; left:50%; transform: translate(-50%, -50%); border:5px solid black"">","","","","","","","",""
"","1648.7399999750778","sequential-stimulus-presentation-old","77","557002","0.0-19.0-1.2","SS1618006392203","trial","","40","500","2148.739999975078","images/stimuli/spore_stims/simple_17_A_b.gif","images/stimuli/spore_stims/simple_01_A_a.gif","forced_long","","5","simple_dissimilar","images/stimuli/spore_stims/simple_01_A_a.gif","","","","",""
"","null","html-keyboard-response","78","558058","0.0-19.0-0.3","SS1618006392203","","","null","","","","","","<p><img src= images/blank.png width =""600"" height = ""600"" style=""position:fixed;top:50%; left:50%; transform: translate(-50%, -50%); border:5px solid black"">","","","","","","","",""
"","3835.795000079088","sequential-stimulus-presentation-old","79","562399","0.0-19.0-1.3","SS1618006392203","trial","","40","500","4335.795000079088","images/stimuli/spore_stims/simple_17_A_b.gif","images/stimuli/spore_stims/simple_01_A_a.gif","forced_long","","5","simple_dissimilar","images/stimuli/spore_stims/simple_17_A_b.gif","","","","",""
"","4191.36499997694","survey-multi-choice","80","566594","0.0-20.0","SS1618006392203","math_question","","","","","","","","","","","","{""Q0"":""15""}","[0]","15","",""
"","null","html-keyboard-response","81","567839","0.0-21.0-0.0","SS1618006392203","","","null","","","","","","<p><img src= images/blank.png width =""600"" height = ""600"" style=""position:fixed;top:50%; left:50%; transform: translate(-50%, -50%); border:5px solid black"">","","","","","","","",""
"","5534.59500009194","sequential-stimulus-presentation-old","82","573880","0.0-21.0-1.0","SS1618006392203","trial","","40","500","6034.59500009194","images/stimuli/spore_stims/complex_18_A_a.gif","images/stimuli/spore_stims/complex_19_A_b.gif","self_paced","","6","complex_dissimilar","images/stimuli/spore_stims/complex_19_A_b.gif","","","","",""
"","null","html-keyboard-response","83","574776","0.0-21.0-0.1","SS1618006392203","","","null","","","","","","<p><img src= images/blank.png width =""600"" height = ""600"" style=""position:fixed;top:50%; left:50%; transform: translate(-50%, -50%); border:5px solid black"">","","","","","","","",""
"","3542.420000070706","sequential-stimulus-presentation-old","84","578823","0.0-21.0-1.1","SS1618006392203","trial","","40","500","4042.420000070706","images/stimuli/spore_stims/complex_18_A_a.gif","images/stimuli/spore_stims/complex_19_A_b.gif","self_paced","","6","complex_dissimilar","images/stimuli/spore_stims/complex_19_A_b.gif","","","","",""
"","null","html-keyboard-response","85","580068","0.0-21.0-0.2","SS1618006392203","","","null","","","","","","<p><img src= images/blank.png width =""600"" height = ""600"" style=""position:fixed;top:50%; left:50%; transform: translate(-50%, -50%); border:5px solid black"">","","","","","","","",""
"","876.9049999536946","sequential-stimulus-presentation-old","86","581452","0.0-21.0-1.2","SS1618006392203","trial","","40","500","1376.9049999536946","images/stimuli/spore_stims/complex_18_A_a.gif","images/stimuli/spore_stims/complex_19_A_b.gif","self_paced","","6","complex_dissimilar","images/stimuli/spore_stims/complex_19_A_b.gif","","","","",""
"","null","html-keyboard-response","87","582387","0.0-21.0-0.3","SS1618006392203","","","null","","","","","","<p><img src= images/blank.png width =""600"" height = ""600"" style=""position:fixed;top:50%; left:50%; transform: translate(-50%, -50%); border:5px solid black"">","","","","","","","",""
"","2104.8300000838935","sequential-stimulus-presentation-old","88","584997","0.0-21.0-1.3","SS1618006392203","trial","","40","500","2604.8300000838935","images/stimuli/spore_stims/complex_18_A_a.gif","images/stimuli/spore_stims/complex_19_A_b.gif","self_paced","","6","complex_dissimilar","images/stimuli/spore_stims/complex_18_A_a.gif","","","","",""
"","null","html-keyboard-response","89","585984","0.0-21.0-0.4","SS1618006392203","","","null","","","","","","<p><img src= images/blank.png width =""600"" height = ""600"" style=""position:fixed;top:50%; left:50%; transform: translate(-50%, -50%); border:5px solid black"">","","","","","","","",""
"","1865.7850000308827","sequential-stimulus-presentation-old","90","588355","0.0-21.0-1.4","SS1618006392203","trial","","40","500","2365.7850000308827","images/stimuli/spore_stims/complex_18_A_a.gif","images/stimuli/spore_stims/complex_19_A_b.gif","self_paced","","6","complex_dissimilar","images/stimuli/spore_stims/complex_19_A_b.gif","","","","",""
"","3327.170000062324","survey-multi-choice","91","591686","0.0-22.0","SS1618006392203","math_question","","","","","","","","","","","","{""Q0"":""5""}","[0]","5","",""
"","null","html-keyboard-response","92","592833","0.0-23.0-0.0","SS1618006392203","","","null","","","","","","<p><img src= images/blank.png width =""600"" height = ""600"" style=""position:fixed;top:50%; left:50%; transform: translate(-50%, -50%); border:5px solid black"">","","","","","","","",""
"","10091.360000078566","sequential-stimulus-presentation-old","93","602980","0.0-23.0-1.0","SS1618006392203","trial","","40","500","10591.360000078566","images/stimuli/spore_stims/simple_05_A_b.gif","images/stimuli/spore_stims/simple_04_A_a.gif","forced_short","","7","simple_dissimilar","images/stimuli/spore_stims/simple_04_A_a.gif","","","","",""
"","null","html-keyboard-response","94","604271","0.0-23.0-0.1","SS1618006392203","","","null","","","","","","<p><img src= images/blank.png width =""600"" height = ""600"" style=""position:fixed;top:50%; left:50%; transform: translate(-50%, -50%); border:5px solid black"">","","","","","","","",""
"","9226.79500002414","sequential-stimulus-presentation-old","95","614014","0.0-23.0-1.1","SS1618006392203","trial","","40","500","9726.79500002414","images/stimuli/spore_stims/simple_05_A_b.gif","images/stimuli/spore_stims/simple_04_A_a.gif","forced_short","","7","simple_dissimilar","images/stimuli/spore_stims/simple_04_A_a.gif","","","","",""
"","null","html-keyboard-response","96","614903","0.0-23.0-0.2","SS1618006392203","","","null","","","","","","<p><img src= images/blank.png width =""600"" height = ""600"" style=""position:fixed;top:50%; left:50%; transform: translate(-50%, -50%); border:5px solid black"">","","","","","","","",""
"","4411.32000007201","sequential-stimulus-presentation-old","97","619829","0.0-23.0-1.2","SS1618006392203","trial","","40","500","4911.32000007201","images/stimuli/spore_stims/simple_05_A_b.gif","images/stimuli/spore_stims/simple_04_A_a.gif","forced_short","","7","simple_dissimilar","images/stimuli/spore_stims/simple_04_A_a.gif","","","","",""
"","null","html-keyboard-response","98","620919","0.0-23.0-0.3","SS1618006392203","","","null","","","","","","<p><img src= images/blank.png width =""600"" height = ""600"" style=""position:fixed;top:50%; left:50%; transform: translate(-50%, -50%); border:5px solid black"">","","","","","","","",""
"","4286.695000017062","sequential-stimulus-presentation-old","99","625718","0.0-23.0-1.3","SS1618006392203","trial","","40","500","4786.695000017062","images/stimuli/spore_stims/simple_05_A_b.gif","images/stimuli/spore_stims/simple_04_A_a.gif","forced_short","","7","simple_dissimilar","images/stimuli/spore_stims/simple_04_A_a.gif","","","","",""
"","null","html-keyboard-response","100","626692","0.0-23.0-0.4","SS1618006392203","","","null","","","","","","<p><img src= images/blank.png width =""600"" height = ""600"" style=""position:fixed;top:50%; left:50%; transform: translate(-50%, -50%); border:5px solid black"">","","","","","","","",""
"","1437.7749999985099","sequential-stimulus-presentation-old","101","628637","0.0-23.0-1.4","SS1618006392203","trial","","40","500","1937.7749999985099","images/stimuli/spore_stims/simple_05_A_b.gif","images/stimuli/spore_stims/simple_04_A_a.gif","forced_short","","7","simple_dissimilar","images/stimuli/spore_stims/simple_04_A_a.gif","","","","",""
"","3977.180000045337","survey-multi-choice","102","632619","0.0-24.0","SS1618006392203","math_question","","","","","","","","","","","","{""Q0"":""10""}","[0]","10","",""
"","null","html-keyboard-response","103","633476","0.0-25.0-0.0","SS1618006392203","","","null","","","","","","<p><img src= images/blank.png width =""600"" height = ""600"" style=""position:fixed;top:50%; left:50%; transform: translate(-50%, -50%); border:5px solid black"">","","","","","","","",""
"","4942.11499998346","sequential-stimulus-presentation-old","104","638923","0.0-25.0-1.0","SS1618006392203","trial","","40","500","5442.11499998346","images/stimuli/spore_stims/simple_02_A_b.gif","images/stimuli/spore_stims/simple_08_A_a.gif","self_paced","","8","simple_dissimilar","images/stimuli/spore_stims/simple_08_A_a.gif","","","","",""
"","null","html-keyboard-response","105","639933","0.0-25.0-0.1","SS1618006392203","","","null","","","","","","<p><img src= images/blank.png width =""600"" height = ""600"" style=""position:fixed;top:50%; left:50%; transform: translate(-50%, -50%); border:5px solid black"">","","","","","","","",""
"","1883.4550000028685","sequential-stimulus-presentation-old","106","642324","0.0-25.0-1.1","SS1618006392203","trial","","40","500","2383.4550000028685","images/stimuli/spore_stims/simple_02_A_b.gif","images/stimuli/spore_stims/simple_08_A_a.gif","self_paced","","8","simple_dissimilar","images/stimuli/spore_stims/simple_08_A_a.gif","","","","",""
"","null","html-keyboard-response","107","643438","0.0-25.0-0.2","SS1618006392203","","","null","","","","","","<p><img src= images/blank.png width =""600"" height = ""600"" style=""position:fixed;top:50%; left:50%; transform: translate(-50%, -50%); border:5px solid black"">","","","","","","","",""
"","71.98999996762723","sequential-stimulus-presentation-old","108","644016","0.0-25.0-1.2","SS1618006392203","trial","","40","500","571.9899999676272","images/stimuli/spore_stims/simple_02_A_b.gif","images/stimuli/spore_stims/simple_08_A_a.gif","self_paced","","8","simple_dissimilar","images/stimuli/spore_stims/simple_08_A_a.gif","","","","",""
"","null","html-keyboard-response","109","645122","0.0-25.0-0.3","SS1618006392203","","","null","","","","","","<p><img src= images/blank.png width =""600"" height = ""600"" style=""position:fixed;top:50%; left:50%; transform: translate(-50%, -50%); border:5px solid black"">","","","","","","","",""
"","367.5650000805035","sequential-stimulus-presentation-old","110","645995","0.0-25.0-1.3","SS1618006392203","trial","","40","500","867.5650000805035","images/stimuli/spore_stims/simple_02_A_b.gif","images/stimuli/spore_stims/simple_08_A_a.gif","self_paced","","8","simple_dissimilar","images/stimuli/spore_stims/simple_08_A_a.gif","","","","",""
"","3803.459999966435","survey-multi-choice","111","649802","0.0-26.0","SS1618006392203","math_question","","","","","","","","","","","","{""Q0"":""13""}","[0]","13","",""
"","null","html-keyboard-response","112","650759","0.0-27.0-0.0","SS1618006392203","","","null","","","","","","<p><img src= images/blank.png width =""600"" height = ""600"" style=""position:fixed;top:50%; left:50%; transform: translate(-50%, -50%); border:5px solid black"">","","","","","","","",""
"","3844.3399999523535","sequential-stimulus-presentation-old","113","655110","0.0-27.0-1.0","SS1618006392203","trial","","40","500","4344.3399999523535","images/stimuli/spore_stims/simple_16_A_b.gif","images/stimuli/spore_stims/simple_07_A_a.gif","self_paced","","9","simple_dissimilar","images/stimuli/spore_stims/simple_07_A_a.gif","","","","",""
"","null","html-keyboard-response","114","656077","0.0-27.0-0.1","SS1618006392203","","","null","","","","","","<p><img src= images/blank.png width =""600"" height = ""600"" style=""position:fixed;top:50%; left:50%; transform: translate(-50%, -50%); border:5px solid black"">","","","","","","","",""
"","322.19999993685633","sequential-stimulus-presentation-old","115","656904","0.0-27.0-1.1","SS1618006392203","trial","","40","500","822.1999999368563","images/stimuli/spore_stims/simple_16_A_b.gif","images/stimuli/spore_stims/simple_07_A_a.gif","self_paced","","9","simple_dissimilar","images/stimuli/spore_stims/simple_07_A_a.gif","","","","",""
"","null","html-keyboard-response","116","658096","0.0-27.0-0.2","SS1618006392203","","","null","","","","","","<p><img src= images/blank.png width =""600"" height = ""600"" style=""position:fixed;top:50%; left:50%; transform: translate(-50%, -50%); border:5px solid black"">","","","","","","","",""
"","3306.7700000246987","sequential-stimulus-presentation-old","117","661907","0.0-27.0-1.2","SS1618006392203","trial","","40","500","3806.7700000246987","images/stimuli/spore_stims/simple_16_A_b.gif","images/stimuli/spore_stims/simple_07_A_a.gif","self_paced","","9","simple_dissimilar","images/stimuli/spore_stims/simple_16_A_b.gif","","","","",""
"","null","html-keyboard-response","118","663171","0.0-27.0-0.3","SS1618006392203","","","null","","","","","","<p><img src= images/blank.png width =""600"" height = ""600"" style=""position:fixed;top:50%; left:50%; transform: translate(-50%, -50%); border:5px solid black"">","","","","","","","",""
"","1518.114999984391","sequential-stimulus-presentation-old","119","665194","0.0-27.0-1.3","SS1618006392203","trial","","40","500","2018.114999984391","images/stimuli/spore_stims/simple_16_A_b.gif","images/stimuli/spore_stims/simple_07_A_a.gif","self_paced","","9","simple_dissimilar","images/stimuli/spore_stims/simple_16_A_b.gif","","","","",""
"","null","html-keyboard-response","120","666468","0.0-27.0-0.4","SS1618006392203","","","null","","","","","","<p><img src= images/blank.png width =""600"" height = ""600"" style=""position:fixed;top:50%; left:50%; transform: translate(-50%, -50%); border:5px solid black"">","","","","","","","",""
"","4707.064999965951","sequential-stimulus-presentation-old","121","671681","0.0-27.0-1.4","SS1618006392203","trial","","40","500","5207.064999965951","images/stimuli/spore_stims/simple_16_A_b.gif","images/stimuli/spore_stims/simple_07_A_a.gif","self_paced","","9","simple_dissimilar","images/stimuli/spore_stims/simple_07_A_a.gif","","","","",""
"","4412.224999978207","survey-multi-choice","122","676097","0.0-28.0","SS1618006392203","math_question","","","","","","","","","","","","{""Q0"":""13""}","[0]","13","",""
"","null","html-keyboard-response","123","676970","0.0-29.0-0.0","SS1618006392203","","","null","","","","","","<p><img src= images/blank.png width =""600"" height = ""600"" style=""position:fixed;top:50%; left:50%; transform: translate(-50%, -50%); border:5px solid black"">","","","","","","","",""
"","5404.7150000697","sequential-stimulus-presentation-old","124","682881","0.0-29.0-1.0","SS1618006392203","trial","","40","500","5904.7150000697","images/stimuli/spore_stims/complex_05_A_a.gif","images/stimuli/spore_stims/complex_02_A_b.gif","self_paced","","10","complex_dissimilar","images/stimuli/spore_stims/complex_02_A_b.gif","","","","",""
"","null","html-keyboard-response","125","683879","0.0-29.0-0.1","SS1618006392203","","","null","","","","","","<p><img src= images/blank.png width =""600"" height = ""600"" style=""position:fixed;top:50%; left:50%; transform: translate(-50%, -50%); border:5px solid black"">","","","","","","","",""
"","2631.400000071153","sequential-stimulus-presentation-old","126","687016","0.0-29.0-1.1","SS1618006392203","trial","","40","500","3131.400000071153","images/stimuli/spore_stims/complex_05_A_a.gif","images/stimuli/spore_stims/complex_02_A_b.gif","self_paced","","10","complex_dissimilar","images/stimuli/spore_stims/complex_02_A_b.gif","","","","",""
"","null","html-keyboard-response","127","688088","0.0-29.0-0.2","SS1618006392203","","","null","","","","","","<p><img src= images/blank.png width =""600"" height = ""600"" style=""position:fixed;top:50%; left:50%; transform: translate(-50%, -50%); border:5px solid black"">","","","","","","","",""
"","7937.57499998901","sequential-stimulus-presentation-old","128","696533","0.0-29.0-1.2","SS1618006392203","trial","","40","500","8437.57499998901","images/stimuli/spore_stims/complex_05_A_a.gif","images/stimuli/spore_stims/complex_02_A_b.gif","self_paced","","10","complex_dissimilar","images/stimuli/spore_stims/complex_05_A_a.gif","","","","",""
"","null","html-keyboard-response","129","697773","0.0-29.0-0.3","SS1618006392203","","","null","","","","","","<p><img src= images/blank.png width =""600"" height = ""600"" style=""position:fixed;top:50%; left:50%; transform: translate(-50%, -50%); border:5px solid black"">","","","","","","","",""
"","3279.469999950379","sequential-stimulus-presentation-old","130","701559","0.0-29.0-1.3","SS1618006392203","trial","","40","500","3779.469999950379","images/stimuli/spore_stims/complex_05_A_a.gif","images/stimuli/spore_stims/complex_02_A_b.gif","self_paced","","10","complex_dissimilar","images/stimuli/spore_stims/complex_02_A_b.gif","","","","",""
"","null","html-keyboard-response","131","702368","0.0-29.0-0.4","SS1618006392203","","","null","","","","","","<p><img src= images/blank.png width =""600"" height = ""600"" style=""position:fixed;top:50%; left:50%; transform: translate(-50%, -50%); border:5px solid black"">","","","","","","","",""
"","906.3849999802187","sequential-stimulus-presentation-old","132","703785","0.0-29.0-1.4","SS1618006392203","trial","","40","500","1406.3849999802187","images/stimuli/spore_stims/complex_05_A_a.gif","images/stimuli/spore_stims/complex_02_A_b.gif","self_paced","","10","complex_dissimilar","images/stimuli/spore_stims/complex_02_A_b.gif","","","","",""
"","null","html-keyboard-response","133","704863","0.0-29.0-0.5","SS1618006392203","","","null","","","","","","<p><img src= images/blank.png width =""600"" height = ""600"" style=""position:fixed;top:50%; left:50%; transform: translate(-50%, -50%); border:5px solid black"">","","","","","","","",""
"","628.110000048764","sequential-stimulus-presentation-old","134","706005","0.0-29.0-1.5","SS1618006392203","trial","","40","500","1128.110000048764","images/stimuli/spore_stims/complex_05_A_a.gif","images/stimuli/spore_stims/complex_02_A_b.gif","self_paced","","10","complex_dissimilar","images/stimuli/spore_stims/complex_05_A_a.gif","","","","",""
"","3666.1849999800324","survey-multi-choice","135","709676","0.0-30.0","SS1618006392203","math_question","","","","","","","","","","","","{""Q0"":""7""}","[0]","7","",""
"","null","html-keyboard-response","136","710851","0.0-31.0-0.0","SS1618006392203","","","null","","","","","","<p><img src= images/blank.png width =""600"" height = ""600"" style=""position:fixed;top:50%; left:50%; transform: translate(-50%, -50%); border:5px solid black"">","","","","","","","",""
"","4289.199999999255","sequential-stimulus-presentation-old","137","715196","0.0-31.0-1.0","SS1618006392203","trial","","40","500","4789.199999999255","images/stimuli/spore_stims/complex_07_A_b.gif","images/stimuli/spore_stims/complex_04_A_a.gif","forced_short","","11","complex_dissimilar","images/stimuli/spore_stims/complex_04_A_a.gif","","","","",""
"","null","html-keyboard-response","138","716160","0.0-31.0-0.1","SS1618006392203","","","null","","","","","","<p><img src= images/blank.png width =""600"" height = ""600"" style=""position:fixed;top:50%; left:50%; transform: translate(-50%, -50%); border:5px solid black"">","","","","","","","",""
"","4408.395000034943","sequential-stimulus-presentation-old","139","721075","0.0-31.0-1.1","SS1618006392203","trial","","40","500","4908.395000034943","images/stimuli/spore_stims/complex_07_A_b.gif","images/stimuli/spore_stims/complex_04_A_a.gif","forced_short","","11","complex_dissimilar","images/stimuli/spore_stims/complex_04_A_a.gif","","","","",""
"","null","html-keyboard-response","140","722281","0.0-31.0-0.2","SS1618006392203","","","null","","","","","","<p><img src= images/blank.png width =""600"" height = ""600"" style=""position:fixed;top:50%; left:50%; transform: translate(-50%, -50%); border:5px solid black"">","","","","","","","",""
"","378.77000006847084","sequential-stimulus-presentation-old","141","723167","0.0-31.0-1.2","SS1618006392203","trial","","40","500","878.7700000684708","images/stimuli/spore_stims/complex_07_A_b.gif","images/stimuli/spore_stims/complex_04_A_a.gif","forced_short","","11","complex_dissimilar","images/stimuli/spore_stims/complex_04_A_a.gif","","","","",""
"","null","html-keyboard-response","142","723980","0.0-31.0-0.3","SS1618006392203","","","null","","","","","","<p><img src= images/blank.png width =""600"" height = ""600"" style=""position:fixed;top:50%; left:50%; transform: translate(-50%, -50%); border:5px solid black"">","","","","","","","",""
"","5575.994999962859","sequential-stimulus-presentation-old","143","730063","0.0-31.0-1.3","SS1618006392203","trial","","40","500","6075.994999962859","images/stimuli/spore_stims/complex_07_A_b.gif","images/stimuli/spore_stims/complex_04_A_a.gif","forced_short","","11","complex_dissimilar","images/stimuli/spore_stims/complex_07_A_b.gif","","","","",""
"","null","html-keyboard-response","144","731184","0.0-31.0-0.4","SS1618006392203","","","null","","","","","","<p><img src= images/blank.png width =""600"" height = ""600"" style=""position:fixed;top:50%; left:50%; transform: translate(-50%, -50%); border:5px solid black"">","","","","","","","",""
"","2965.1099999900907","sequential-stimulus-presentation-old","145","734656","0.0-31.0-1.4","SS1618006392203","trial","","40","500","3465.1099999900907","images/stimuli/spore_stims/complex_07_A_b.gif","images/stimuli/spore_stims/complex_04_A_a.gif","forced_short","","11","complex_dissimilar","images/stimuli/spore_stims/complex_04_A_a.gif","","","","",""
"","null","html-keyboard-response","146","735484","0.0-31.0-0.5","SS1618006392203","","","null","","","","","","<p><img src= images/blank.png width =""600"" height = ""600"" style=""position:fixed;top:50%; left:50%; transform: translate(-50%, -50%); border:5px solid black"">","","","","","","","",""
"","3732.9599999357015","sequential-stimulus-presentation-old","147","739724","0.0-31.0-1.5","SS1618006392203","trial","","40","500","4232.9599999357015","images/stimuli/spore_stims/complex_07_A_b.gif","images/stimuli/spore_stims/complex_04_A_a.gif","forced_short","","11","complex_dissimilar","images/stimuli/spore_stims/complex_04_A_a.gif","","","","",""
"[{""page_index"":0,""viewing_time"":9001.219999976456}]","9001.385000068694","instructions","148","748729","0.0-32.0","SS1618006392203","instructions","","","","","","","","","","","","","","","",""
"","14876.300000003539","survey-likert","149","763611","0.0-33.0","SS1618006392203","similarity_question","","","","","","","","","","","","{""Q0"":4}","[0]","","images/stimuli/spore_stims/simple_16_A_b.gif","images/stimuli/spore_stims/simple_07_A_a.gif"
"","13805.614999961108","survey-likert","150","777422","0.0-34.0","SS1618006392203","similarity_question","","","","","","","","","","","","{""Q0"":1}","[0]","","images/stimuli/spore_stims/complex_12_A_a.gif","images/stimuli/spore_stims/complex_10_A_b.gif"
"","7697.829999960959","survey-likert","151","785126","0.0-35.0","SS1618006392203","similarity_question","","","","","","","","","","","","{""Q0"":5}","[0]","","images/stimuli/spore_stims/simple_14_A_a.gif","images/stimuli/spore_stims/simple_09_A_b.gif"
"","5772.860000026412","survey-likert","152","790905","0.0-36.0","SS1618006392203","similarity_question","","","","","","","","","","","","{""Q0"":5}","[0]","","images/stimuli/spore_stims/simple_05_A_b.gif","images/stimuli/spore_stims/simple_04_A_a.gif"
"","8423.975000041537","survey-likert","153","799338","0.0-37.0","SS1618006392203","similarity_question","","","","","","","","","","","","{""Q0"":0}","[0]","","images/stimuli/spore_stims/complex_06_A_a.gif","images/stimuli/spore_stims/complex_11_A_b.gif"
"","4697.359999991022","survey-likert","154","804042","0.0-38.0","SS1618006392203","similarity_question","","","","","","","","","","","","{""Q0"":4}","[0]","","images/stimuli/spore_stims/complex_15_A_a.gif","images/stimuli/spore_stims/complex_20_A_b.gif"
"","5708.334999973886","survey-likert","155","809758","0.0-39.0","SS1618006392203","similarity_question","","","","","","","","","","","","{""Q0"":4}","[0]","","images/stimuli/spore_stims/complex_07_A_b.gif","images/stimuli/spore_stims/complex_04_A_a.gif"
"","4593.929999973625","survey-likert","156","814358","0.0-40.0","SS1618006392203","similarity_question","","","","","","","","","","","","{""Q0"":3}","[0]","","images/stimuli/spore_stims/simple_07_A_b.gif","images/stimuli/spore_stims/simple_15_A_a.gif"
"","8709.034999948926","survey-likert","157","823074","0.0-41.0","SS1618006392203","similarity_question","","","","","","","","","","","","{""Q0"":2}","[0]","","images/stimuli/spore_stims/complex_18_A_a.gif","images/stimuli/spore_stims/complex_19_A_b.gif"
"","3616.8349999934435","survey-likert","158","826698","0.0-42.0","SS1618006392203","similarity_question","","","","","","","","","","","","{""Q0"":5}","[0]","","images/stimuli/spore_stims/simple_08_A_a.gif","images/stimuli/spore_stims/simple_02_A_b.gif"
"","7770.23999998346","survey-likert","159","834474","0.0-43.0","SS1618006392203","similarity_question","","","","","","","","","","","","{""Q0"":5}","[0]","","images/stimuli/spore_stims/simple_17_A_b.gif","images/stimuli/spore_stims/simple_01_A_a.gif"
"","13033.575000008568","survey-likert","160","847514","0.0-44.0","SS1618006392203","similarity_question","","","","","","","","","","","","{""Q0"":4}","[0]","","images/stimuli/spore_stims/complex_05_A_a.gif","images/stimuli/spore_stims/complex_02_A_b.gif"
"[{""page_index"":0,""viewing_time"":6289.489999995567}]","6289.800000027753","instructions","161","853809","0.0-45.0","SS1618006392203","instructions","","","","","","","","","","","","","","","",""
"","6861.235000076704","survey-likert","162","860678","0.0-46.0","SS1618006392203","","","","","","","","","images/stimuli/spore_stims/simple_07_A_b.gif","","","","{""Q0"":0}","[0]","","",""
"","7973.050000029616","survey-likert","163","868662","0.0-47.0","SS1618006392203","","","","","","","","","images/stimuli/spore_stims/complex_11_A_b.gif","","","","{""Q0"":4}","[0]","","",""
"","4509.530000039376","survey-likert","164","873178","0.0-48.0","SS1618006392203","","","","","","","","","images/stimuli/spore_stims/simple_08_A_a.gif","","","","{""Q0"":0}","[0]","","",""
"","7413.739999989048","survey-likert","165","880599","0.0-49.0","SS1618006392203","","","","","","","","","images/stimuli/spore_stims/complex_05_A_a.gif","","","","{""Q0"":4}","[0]","","",""
"","6267.564999987371","survey-likert","166","886874","0.0-50.0","SS1618006392203","","","","","","","","","images/stimuli/spore_stims/complex_18_A_a.gif","","","","{""Q0"":5}","[0]","","",""
"","5165.760000003502","survey-likert","167","892046","0.0-51.0","SS1618006392203","","","","","","","","","images/stimuli/spore_stims/complex_10_A_b.gif","","","","{""Q0"":4}","[0]","","",""
"","3284.474999993108","survey-likert","168","895338","0.0-52.0","SS1618006392203","","","","","","","","","images/stimuli/spore_stims/complex_04_A_a.gif","","","","{""Q0"":4}","[0]","","",""
"","5649.394999956712","survey-likert","169","900994","0.0-53.0","SS1618006392203","","","","","","","","","images/stimuli/spore_stims/simple_14_A_a.gif","","","","{""Q0"":1}","[0]","","",""
"","4770.149999996647","survey-likert","170","905770","0.0-54.0","SS1618006392203","","","","","","","","","images/stimuli/spore_stims/simple_05_A_b.gif","","","","{""Q0"":0}","[0]","","",""
"","5945.1549999648705","survey-likert","171","911722","0.0-55.0","SS1618006392203","","","","","","","","","images/stimuli/spore_stims/simple_17_A_b.gif","","","","{""Q0"":0}","[0]","","",""
"","4177.324999938719","survey-likert","172","915906","0.0-56.0","SS1618006392203","","","","","","","","","images/stimuli/spore_stims/complex_20_A_b.gif","","","","{""Q0"":4}","[0]","","",""
"","4645.540000055917","survey-likert","173","920558","0.0-57.0","SS1618006392203","","","","","","","","","images/stimuli/spore_stims/simple_16_A_b.gif","","","","{""Q0"":0}","[0]","","",""
"[{""page_index"":0,""viewing_time"":4480.169999995269}]","4480.480000027455","instructions","174","925046","0.0-58.0","SS1618006392203","instructions","","","","","","","","","","","","","","","",""
"","2844.5150000043213","demog-age","175","927898","0.0-59.0","SS1618006392203","","","","","","","","","","","","","{""age"":""30""}","","","",""
"","7007.224999950267","demog-ethnic-US","176","934918","0.0-60.0","SS1618006392203","","","","","","","","","","","","","{""ethnicity"":[""White""]}","[0]","","",""
"","5548.5699999844655","demog-gender-and-education","177","940474","0.0-61.0","SS1618006392203","","","","","","","","","","","","","{""gender"":""Male"",""education"":""Doctorate/Professional degree""}","[0,1]","","",""
"","11806.599999894388","survey-text","178","952290","0.0-62.0","SS1618006392203","feedback","","","","","","","","","","","","{""Q0"":""no""}","","","",""
"[{""page_index"":0,""viewing_time"":3927.919999929145}]","3928.1750000081956","instructions","179","956225","0.0-63.0","SS1618006392203","instructions","","","","","","","","","","","","","","","",""
