"view_history","rt","trial_type","trial_index","time_elapsed","internal_node_id","subject","stimulus_type","trial_stimulus","key_press","minimum_viewing_duration","trial_looking_time","block_deviant","block_background","exposure_type","stimulus","block_number","block_type","stimulus_displayed","responses","question_order","math_correct_answer","stimulus_left","stimulus_right"
"[{""page_index"":0,""viewing_time"":66914.37499999302}]","66914.89999998885","instructions","0","66916","0.0-0.0","SS1618435648519","","","","","","","","","","","","","","","","",""
"[{""page_index"":0,""viewing_time"":19951.799999995274},{""page_index"":1,""viewing_time"":8592.010000007576}]","28543.999999994412","instructions","1","97473","0.0-1.0","SS1618435648519","instructions","","","","","","","","","","","","","","","",""
"","7283.035000000382","sequential-stimulus-presentation-old","2","105258","0.0-2.0","SS1618435648519","","","40","500","7783.035000000382","null","null","self_paced","","","","","","","","",""
"","2952.7300000045216","sequential-stimulus-presentation-old","3","108712","0.0-3.0","SS1618435648519","","","40","500","3452.7300000045216","null","null","self_paced","","","","","","","","",""
"[{""page_index"":0,""viewing_time"":21451.25499999267}]","21451.430000000983","instructions","4","130164","0.0-4.0","SS1618435648519","instructions","","","","","","","","","","","","","","","",""
"","697.9649999993853","sequential-stimulus-presentation-old","5","135865","0.0-5.0","SS1618435648519","","","40","500","1197.9649999993853","null","null","forced_long","","","","","","","","",""
"","3224.8099999997066","sequential-stimulus-presentation-old","6","139145","0.0-6.0","SS1618435648519","","","40","50","3274.8099999997066","null","null","forced_long","","","","","","","","",""
"[{""page_index"":0,""viewing_time"":7351.249999992433}]","7351.479999997537","instructions","7","146497","0.0-7.0","SS1618435648519","instructions","","","","","","","","","","","","","","","",""
"[{""page_index"":0,""viewing_time"":13391.950000004726},{""page_index"":1,""viewing_time"":15751.08000000182},{""page_index"":2,""viewing_time"":8077.884999991511},{""page_index"":3,""viewing_time"":2362.990000008722},{""page_index"":4,""viewing_time"":1165.064999993774}]","40749.1549999977","instructions","8","187246","0.0-8.0","SS1618435648519","instructions","","","","","","","","","","","","","","","",""
"","null","html-keyboard-response","9","188166","0.0-9.0-0.0","SS1618435648519","","","null","","","","","","<p><img src= images/blank.png width =""600"" height = ""600"" style=""position:fixed;top:50%; left:50%; transform: translate(-50%, -50%); border:5px solid black"">","","","","","","","",""
"","543.9949999999953","sequential-stimulus-presentation-old","10","193713","0.0-9.0-1.0","SS1618435648519","trial","","40","500","1043.9949999999953","images/stimuli/spore_stims/simple_17_A_a.gif","images/stimuli/spore_stims/simple_05_A_b.gif","forced_long","","0","simple_dissimilar","images/stimuli/spore_stims/simple_05_A_b.gif","","","","",""
"","null","html-keyboard-response","11","194699","0.0-9.0-0.1","SS1618435648519","","","null","","","","","","<p><img src= images/blank.png width =""600"" height = ""600"" style=""position:fixed;top:50%; left:50%; transform: translate(-50%, -50%); border:5px solid black"">","","","","","","","",""
"","18971.174999998766","sequential-stimulus-presentation-old","12","214176","0.0-9.0-1.1","SS1618435648519","trial","","40","500","19471.174999998766","images/stimuli/spore_stims/simple_17_A_a.gif","images/stimuli/spore_stims/simple_05_A_b.gif","forced_long","","0","simple_dissimilar","images/stimuli/spore_stims/simple_05_A_b.gif","","","","",""
"","null","html-keyboard-response","13","215321","0.0-9.0-0.2","SS1618435648519","","","null","","","","","","<p><img src= images/blank.png width =""600"" height = ""600"" style=""position:fixed;top:50%; left:50%; transform: translate(-50%, -50%); border:5px solid black"">","","","","","","","",""
"","35521.020000000135","sequential-stimulus-presentation-old","14","251345","0.0-9.0-1.2","SS1618435648519","trial","","40","500","36021.020000000135","images/stimuli/spore_stims/simple_17_A_a.gif","images/stimuli/spore_stims/simple_05_A_b.gif","forced_long","","0","simple_dissimilar","images/stimuli/spore_stims/simple_05_A_b.gif","","","","",""
"","null","html-keyboard-response","15","252609","0.0-9.0-0.3","SS1618435648519","","","null","","","","","","<p><img src= images/blank.png width =""600"" height = ""600"" style=""position:fixed;top:50%; left:50%; transform: translate(-50%, -50%); border:5px solid black"">","","","","","","","",""
"","2654.6000000089407","sequential-stimulus-presentation-old","16","255776","0.0-9.0-1.3","SS1618435648519","trial","","40","500","3154.6000000089407","images/stimuli/spore_stims/simple_17_A_a.gif","images/stimuli/spore_stims/simple_05_A_b.gif","forced_long","","0","simple_dissimilar","images/stimuli/spore_stims/simple_05_A_b.gif","","","","",""
"","4547.6049999997485","survey-multi-choice","17","260326","0.0-10.0","SS1618435648519","math_question","","","","","","","","","","","","{""Q0"":""9""}","[0]","9","",""
"","null","html-keyboard-response","18","261157","0.0-11.0-0.0","SS1618435648519","","","null","","","","","","<p><img src= images/blank.png width =""600"" height = ""600"" style=""position:fixed;top:50%; left:50%; transform: translate(-50%, -50%); border:5px solid black"">","","","","","","","",""
"","15301.869999995688","sequential-stimulus-presentation-old","19","276962","0.0-11.0-1.0","SS1618435648519","trial","","40","500","15801.869999995688","images/stimuli/spore_stims/complex_04_A_b.gif","images/stimuli/spore_stims/complex_03_A_a.gif","self_paced","","1","complex_dissimilar","images/stimuli/spore_stims/complex_03_A_a.gif","","","","",""
"","null","html-keyboard-response","20","278017","0.0-11.0-0.1","SS1618435648519","","","null","","","","","","<p><img src= images/blank.png width =""600"" height = ""600"" style=""position:fixed;top:50%; left:50%; transform: translate(-50%, -50%); border:5px solid black"">","","","","","","","",""
"","29711.78999998665","sequential-stimulus-presentation-old","21","308232","0.0-11.0-1.1","SS1618435648519","trial","","40","500","30211.78999998665","images/stimuli/spore_stims/complex_04_A_b.gif","images/stimuli/spore_stims/complex_03_A_a.gif","self_paced","","1","complex_dissimilar","images/stimuli/spore_stims/complex_03_A_a.gif","","","","",""
"","null","html-keyboard-response","22","309504","0.0-11.0-0.2","SS1618435648519","","","null","","","","","","<p><img src= images/blank.png width =""600"" height = ""600"" style=""position:fixed;top:50%; left:50%; transform: translate(-50%, -50%); border:5px solid black"">","","","","","","","",""
"","5484.660000001895","sequential-stimulus-presentation-old","23","315496","0.0-11.0-1.2","SS1618435648519","trial","","40","500","5984.660000001895","images/stimuli/spore_stims/complex_04_A_b.gif","images/stimuli/spore_stims/complex_03_A_a.gif","self_paced","","1","complex_dissimilar","images/stimuli/spore_stims/complex_04_A_b.gif","","","","",""
"","null","html-keyboard-response","24","316628","0.0-11.0-0.3","SS1618435648519","","","null","","","","","","<p><img src= images/blank.png width =""600"" height = ""600"" style=""position:fixed;top:50%; left:50%; transform: translate(-50%, -50%); border:5px solid black"">","","","","","","","",""
"","5607.024999990244","sequential-stimulus-presentation-old","25","322737","0.0-11.0-1.3","SS1618435648519","trial","","40","500","6107.024999990244","images/stimuli/spore_stims/complex_04_A_b.gif","images/stimuli/spore_stims/complex_03_A_a.gif","self_paced","","1","complex_dissimilar","images/stimuli/spore_stims/complex_03_A_a.gif","","","","",""
"","3991.309999997611","survey-multi-choice","26","326730","0.0-12.0","SS1618435648519","math_question","","","","","","","","","","","","{""Q0"":""14""}","[0]","14","",""
"","null","html-keyboard-response","27","327887","0.0-13.0-0.0","SS1618435648519","","","null","","","","","","<p><img src= images/blank.png width =""600"" height = ""600"" style=""position:fixed;top:50%; left:50%; transform: translate(-50%, -50%); border:5px solid black"">","","","","","","","",""
"","2293.6049999989336","sequential-stimulus-presentation-old","28","330688","0.0-13.0-1.0","SS1618435648519","trial","","40","500","2793.6049999989336","images/stimuli/spore_stims/complex_10_A_a.gif","images/stimuli/spore_stims/complex_15_A_b.gif","self_paced","","2","complex_dissimilar","images/stimuli/spore_stims/complex_15_A_b.gif","","","","",""
"","null","html-keyboard-response","29","331828","0.0-13.0-0.1","SS1618435648519","","","null","","","","","","<p><img src= images/blank.png width =""600"" height = ""600"" style=""position:fixed;top:50%; left:50%; transform: translate(-50%, -50%); border:5px solid black"">","","","","","","","",""
"","4047.0599999971455","sequential-stimulus-presentation-old","30","336377","0.0-13.0-1.1","SS1618435648519","trial","","40","500","4547.0599999971455","images/stimuli/spore_stims/complex_10_A_a.gif","images/stimuli/spore_stims/complex_15_A_b.gif","self_paced","","2","complex_dissimilar","images/stimuli/spore_stims/complex_15_A_b.gif","","","","",""
"","null","html-keyboard-response","31","337377","0.0-13.0-0.2","SS1618435648519","","","null","","","","","","<p><img src= images/blank.png width =""600"" height = ""600"" style=""position:fixed;top:50%; left:50%; transform: translate(-50%, -50%); border:5px solid black"">","","","","","","","",""
"","9340.205000000424","sequential-stimulus-presentation-old","32","347225","0.0-13.0-1.2","SS1618435648519","trial","","40","500","9840.205000000424","images/stimuli/spore_stims/complex_10_A_a.gif","images/stimuli/spore_stims/complex_15_A_b.gif","self_paced","","2","complex_dissimilar","images/stimuli/spore_stims/complex_10_A_a.gif","","","","",""
"","null","html-keyboard-response","33","348384","0.0-13.0-0.3","SS1618435648519","","","null","","","","","","<p><img src= images/blank.png width =""600"" height = ""600"" style=""position:fixed;top:50%; left:50%; transform: translate(-50%, -50%); border:5px solid black"">","","","","","","","",""
"","6321.364999996149","sequential-stimulus-presentation-old","34","355208","0.0-13.0-1.3","SS1618435648519","trial","","40","500","6821.364999996149","images/stimuli/spore_stims/complex_10_A_a.gif","images/stimuli/spore_stims/complex_15_A_b.gif","self_paced","","2","complex_dissimilar","images/stimuli/spore_stims/complex_15_A_b.gif","","","","",""
"","null","html-keyboard-response","35","356161","0.0-13.0-0.4","SS1618435648519","","","null","","","","","","<p><img src= images/blank.png width =""600"" height = ""600"" style=""position:fixed;top:50%; left:50%; transform: translate(-50%, -50%); border:5px solid black"">","","","","","","","",""
"","4377.78999999864","sequential-stimulus-presentation-old","36","361049","0.0-13.0-1.4","SS1618435648519","trial","","40","500","4877.78999999864","images/stimuli/spore_stims/complex_10_A_a.gif","images/stimuli/spore_stims/complex_15_A_b.gif","self_paced","","2","complex_dissimilar","images/stimuli/spore_stims/complex_10_A_a.gif","","","","",""
"","2055.465000012191","survey-multi-choice","37","363106","0.0-14.0","SS1618435648519","math_question","","","","","","","","","","","","{""Q0"":""4""}","[0]","4","",""
"","null","html-keyboard-response","38","364151","0.0-15.0-0.0","SS1618435648519","","","null","","","","","","<p><img src= images/blank.png width =""600"" height = ""600"" style=""position:fixed;top:50%; left:50%; transform: translate(-50%, -50%); border:5px solid black"">","","","","","","","",""
"","917.1900000073947","sequential-stimulus-presentation-old","39","365120","0.0-15.0-1.0","SS1618435648519","trial","","40","500","1417.1900000073947","images/stimuli/spore_stims/complex_05_A_b.gif","images/stimuli/spore_stims/complex_16_A_a.gif","forced_short","","3","complex_dissimilar","images/stimuli/spore_stims/complex_16_A_a.gif","","","","",""
"","null","html-keyboard-response","40","366342","0.0-15.0-0.1","SS1618435648519","","","null","","","","","","<p><img src= images/blank.png width =""600"" height = ""600"" style=""position:fixed;top:50%; left:50%; transform: translate(-50%, -50%); border:5px solid black"">","","","","","","","",""
"","13754.390000001877","sequential-stimulus-presentation-old","41","380608","0.0-15.0-1.1","SS1618435648519","trial","","40","500","14254.390000001877","images/stimuli/spore_stims/complex_05_A_b.gif","images/stimuli/spore_stims/complex_16_A_a.gif","forced_short","","3","complex_dissimilar","images/stimuli/spore_stims/complex_16_A_a.gif","","","","",""
"","null","html-keyboard-response","42","381897","0.0-15.0-0.2","SS1618435648519","","","null","","","","","","<p><img src= images/blank.png width =""600"" height = ""600"" style=""position:fixed;top:50%; left:50%; transform: translate(-50%, -50%); border:5px solid black"">","","","","","","","",""
"","18871.7200000101","sequential-stimulus-presentation-old","43","401280","0.0-15.0-1.2","SS1618435648519","trial","","40","500","19371.7200000101","images/stimuli/spore_stims/complex_05_A_b.gif","images/stimuli/spore_stims/complex_16_A_a.gif","forced_short","","3","complex_dissimilar","images/stimuli/spore_stims/complex_16_A_a.gif","","","","",""
"","null","html-keyboard-response","44","402209","0.0-15.0-0.3","SS1618435648519","","","null","","","","","","<p><img src= images/blank.png width =""600"" height = ""600"" style=""position:fixed;top:50%; left:50%; transform: translate(-50%, -50%); border:5px solid black"">","","","","","","","",""
"","3316.6150000033667","sequential-stimulus-presentation-old","45","406032","0.0-15.0-1.3","SS1618435648519","trial","","40","500","3816.6150000033667","images/stimuli/spore_stims/complex_05_A_b.gif","images/stimuli/spore_stims/complex_16_A_a.gif","forced_short","","3","complex_dissimilar","images/stimuli/spore_stims/complex_16_A_a.gif","","","","",""
"","null","html-keyboard-response","46","407267","0.0-15.0-0.4","SS1618435648519","","","null","","","","","","<p><img src= images/blank.png width =""600"" height = ""600"" style=""position:fixed;top:50%; left:50%; transform: translate(-50%, -50%); border:5px solid black"">","","","","","","","",""
"","86855.32499999681","sequential-stimulus-presentation-old","47","494624","0.0-15.0-1.4","SS1618435648519","trial","","40","500","87355.32499999681","images/stimuli/spore_stims/complex_05_A_b.gif","images/stimuli/spore_stims/complex_16_A_a.gif","forced_short","","3","complex_dissimilar","images/stimuli/spore_stims/complex_16_A_a.gif","","","","",""
"","null","html-keyboard-response","48","495758","0.0-15.0-0.5","SS1618435648519","","","null","","","","","","<p><img src= images/blank.png width =""600"" height = ""600"" style=""position:fixed;top:50%; left:50%; transform: translate(-50%, -50%); border:5px solid black"">","","","","","","","",""
"","2595.5099999991944","sequential-stimulus-presentation-old","49","498856","0.0-15.0-1.5","SS1618435648519","trial","","40","500","3095.5099999991944","images/stimuli/spore_stims/complex_05_A_b.gif","images/stimuli/spore_stims/complex_16_A_a.gif","forced_short","","3","complex_dissimilar","images/stimuli/spore_stims/complex_16_A_a.gif","","","","",""
"","2326.805000004242","survey-multi-choice","50","501184","0.0-16.0","SS1618435648519","math_question","","","","","","","","","","","","{""Q0"":""8""}","[0]","8","",""
"","null","html-keyboard-response","51","502193","0.0-17.0-0.0","SS1618435648519","","","null","","","","","","<p><img src= images/blank.png width =""600"" height = ""600"" style=""position:fixed;top:50%; left:50%; transform: translate(-50%, -50%); border:5px solid black"">","","","","","","","",""
"","2356.0549999965588","sequential-stimulus-presentation-old","52","509552","0.0-17.0-1.0","SS1618435648519","trial","","40","500","2856.0549999965588","images/stimuli/spore_stims/simple_18_A_b.gif","images/stimuli/spore_stims/simple_06_A_a.gif","forced_long","","4","simple_dissimilar","images/stimuli/spore_stims/simple_06_A_a.gif","","","","",""
"","null","html-keyboard-response","53","510802","0.0-17.0-0.1","SS1618435648519","","","null","","","","","","<p><img src= images/blank.png width =""600"" height = ""600"" style=""position:fixed;top:50%; left:50%; transform: translate(-50%, -50%); border:5px solid black"">","","","","","","","",""
"","4929.040000002715","sequential-stimulus-presentation-old","54","516233","0.0-17.0-1.1","SS1618435648519","trial","","40","500","5429.040000002715","images/stimuli/spore_stims/simple_18_A_b.gif","images/stimuli/spore_stims/simple_06_A_a.gif","forced_long","","4","simple_dissimilar","images/stimuli/spore_stims/simple_06_A_a.gif","","","","",""
"","null","html-keyboard-response","55","517293","0.0-17.0-0.2","SS1618435648519","","","null","","","","","","<p><img src= images/blank.png width =""600"" height = ""600"" style=""position:fixed;top:50%; left:50%; transform: translate(-50%, -50%); border:5px solid black"">","","","","","","","",""
"","4925.199999997858","sequential-stimulus-presentation-old","56","522720","0.0-17.0-1.2","SS1618435648519","trial","","40","500","5425.199999997858","images/stimuli/spore_stims/simple_18_A_b.gif","images/stimuli/spore_stims/simple_06_A_a.gif","forced_long","","4","simple_dissimilar","images/stimuli/spore_stims/simple_06_A_a.gif","","","","",""
"","null","html-keyboard-response","57","523913","0.0-17.0-0.3","SS1618435648519","","","null","","","","","","<p><img src= images/blank.png width =""600"" height = ""600"" style=""position:fixed;top:50%; left:50%; transform: translate(-50%, -50%); border:5px solid black"">","","","","","","","",""
"","28624.754999997094","sequential-stimulus-presentation-old","58","553040","0.0-17.0-1.3","SS1618435648519","trial","","40","500","29124.754999997094","images/stimuli/spore_stims/simple_18_A_b.gif","images/stimuli/spore_stims/simple_06_A_a.gif","forced_long","","4","simple_dissimilar","images/stimuli/spore_stims/simple_06_A_a.gif","","","","",""
"","null","html-keyboard-response","59","553979","0.0-17.0-0.4","SS1618435648519","","","null","","","","","","<p><img src= images/blank.png width =""600"" height = ""600"" style=""position:fixed;top:50%; left:50%; transform: translate(-50%, -50%); border:5px solid black"">","","","","","","","",""
"","1662.5650000059977","sequential-stimulus-presentation-old","60","556144","0.0-17.0-1.4","SS1618435648519","trial","","40","500","2162.5650000059977","images/stimuli/spore_stims/simple_18_A_b.gif","images/stimuli/spore_stims/simple_06_A_a.gif","forced_long","","4","simple_dissimilar","images/stimuli/spore_stims/simple_06_A_a.gif","","","","",""
"","2568.6100000020815","survey-multi-choice","61","558714","0.0-18.0","SS1618435648519","math_question","","","","","","","","","","","","{""Q0"":""7""}","[0]","7","",""
"","null","html-keyboard-response","62","559640","0.0-19.0-0.0","SS1618435648519","","","null","","","","","","<p><img src= images/blank.png width =""600"" height = ""600"" style=""position:fixed;top:50%; left:50%; transform: translate(-50%, -50%); border:5px solid black"">","","","","","","","",""
"","2643.564999991213","sequential-stimulus-presentation-old","63","562785","0.0-19.0-1.0","SS1618435648519","trial","","40","500","3143.564999991213","images/stimuli/spore_stims/simple_08_A_a.gif","images/stimuli/spore_stims/simple_11_A_b.gif","self_paced","","5","simple_dissimilar","images/stimuli/spore_stims/simple_11_A_b.gif","","","","",""
"","null","html-keyboard-response","64","563603","0.0-19.0-0.1","SS1618435648519","","","null","","","","","","<p><img src= images/blank.png width =""600"" height = ""600"" style=""position:fixed;top:50%; left:50%; transform: translate(-50%, -50%); border:5px solid black"">","","","","","","","",""
"","3537.4750000046333","sequential-stimulus-presentation-old","65","567648","0.0-19.0-1.1","SS1618435648519","trial","","40","500","4037.4750000046333","images/stimuli/spore_stims/simple_08_A_a.gif","images/stimuli/spore_stims/simple_11_A_b.gif","self_paced","","5","simple_dissimilar","images/stimuli/spore_stims/simple_11_A_b.gif","","","","",""
"","null","html-keyboard-response","66","568897","0.0-19.0-0.2","SS1618435648519","","","null","","","","","","<p><img src= images/blank.png width =""600"" height = ""600"" style=""position:fixed;top:50%; left:50%; transform: translate(-50%, -50%); border:5px solid black"">","","","","","","","",""
"","5209.709999995539","sequential-stimulus-presentation-old","67","574609","0.0-19.0-1.2","SS1618435648519","trial","","40","500","5709.709999995539","images/stimuli/spore_stims/simple_08_A_a.gif","images/stimuli/spore_stims/simple_11_A_b.gif","self_paced","","5","simple_dissimilar","images/stimuli/spore_stims/simple_11_A_b.gif","","","","",""
"","null","html-keyboard-response","68","575504","0.0-19.0-0.3","SS1618435648519","","","null","","","","","","<p><img src= images/blank.png width =""600"" height = ""600"" style=""position:fixed;top:50%; left:50%; transform: translate(-50%, -50%); border:5px solid black"">","","","","","","","",""
"","4433.279999997467","sequential-stimulus-presentation-old","69","580440","0.0-19.0-1.3","SS1618435648519","trial","","40","500","4933.279999997467","images/stimuli/spore_stims/simple_08_A_a.gif","images/stimuli/spore_stims/simple_11_A_b.gif","self_paced","","5","simple_dissimilar","images/stimuli/spore_stims/simple_08_A_a.gif","","","","",""
"","null","html-keyboard-response","70","581445","0.0-19.0-0.4","SS1618435648519","","","null","","","","","","<p><img src= images/blank.png width =""600"" height = ""600"" style=""position:fixed;top:50%; left:50%; transform: translate(-50%, -50%); border:5px solid black"">","","","","","","","",""
"","5173.3600000006845","sequential-stimulus-presentation-old","71","587129","0.0-19.0-1.4","SS1618435648519","trial","","40","500","5673.3600000006845","images/stimuli/spore_stims/simple_08_A_a.gif","images/stimuli/spore_stims/simple_11_A_b.gif","self_paced","","5","simple_dissimilar","images/stimuli/spore_stims/simple_11_A_b.gif","","","","",""
"","null","html-keyboard-response","72","588024","0.0-19.0-0.5","SS1618435648519","","","null","","","","","","<p><img src= images/blank.png width =""600"" height = ""600"" style=""position:fixed;top:50%; left:50%; transform: translate(-50%, -50%); border:5px solid black"">","","","","","","","",""
"","5257.545000000391","sequential-stimulus-presentation-old","73","593784","0.0-19.0-1.5","SS1618435648519","trial","","40","500","5757.545000000391","images/stimuli/spore_stims/simple_08_A_a.gif","images/stimuli/spore_stims/simple_11_A_b.gif","self_paced","","5","simple_dissimilar","images/stimuli/spore_stims/simple_11_A_b.gif","","","","",""
"","2181.639999995241","survey-multi-choice","74","595967","0.0-20.0","SS1618435648519","math_question","","","","","","","","","","","","{""Q0"":""6""}","[0]","6","",""
"","null","html-keyboard-response","75","596889","0.0-21.0-0.0","SS1618435648519","","","null","","","","","","<p><img src= images/blank.png width =""600"" height = ""600"" style=""position:fixed;top:50%; left:50%; transform: translate(-50%, -50%); border:5px solid black"">","","","","","","","",""
"","1584.0600000083214","sequential-stimulus-presentation-old","76","598528","0.0-21.0-1.0","SS1618435648519","trial","","40","500","2084.0600000083214","images/stimuli/spore_stims/simple_13_A_a.gif","images/stimuli/spore_stims/simple_01_A_b.gif","forced_short","","6","simple_dissimilar","images/stimuli/spore_stims/simple_01_A_b.gif","","","","",""
"","null","html-keyboard-response","77","599763","0.0-21.0-0.1","SS1618435648519","","","null","","","","","","<p><img src= images/blank.png width =""600"" height = ""600"" style=""position:fixed;top:50%; left:50%; transform: translate(-50%, -50%); border:5px solid black"">","","","","","","","",""
"","18902.819999988424","sequential-stimulus-presentation-old","78","619168","0.0-21.0-1.1","SS1618435648519","trial","","40","500","19402.819999988424","images/stimuli/spore_stims/simple_13_A_a.gif","images/stimuli/spore_stims/simple_01_A_b.gif","forced_short","","6","simple_dissimilar","images/stimuli/spore_stims/simple_01_A_b.gif","","","","",""
"","null","html-keyboard-response","79","620443","0.0-21.0-0.2","SS1618435648519","","","null","","","","","","<p><img src= images/blank.png width =""600"" height = ""600"" style=""position:fixed;top:50%; left:50%; transform: translate(-50%, -50%); border:5px solid black"">","","","","","","","",""
"","3053.634999989299","sequential-stimulus-presentation-old","80","624000","0.0-21.0-1.2","SS1618435648519","trial","","40","500","3553.634999989299","images/stimuli/spore_stims/simple_13_A_a.gif","images/stimuli/spore_stims/simple_01_A_b.gif","forced_short","","6","simple_dissimilar","images/stimuli/spore_stims/simple_01_A_b.gif","","","","",""
"","null","html-keyboard-response","81","624994","0.0-21.0-0.3","SS1618435648519","","","null","","","","","","<p><img src= images/blank.png width =""600"" height = ""600"" style=""position:fixed;top:50%; left:50%; transform: translate(-50%, -50%); border:5px solid black"">","","","","","","","",""
"","2814.6100000012666","sequential-stimulus-presentation-old","82","628312","0.0-21.0-1.3","SS1618435648519","trial","","40","500","3314.6100000012666","images/stimuli/spore_stims/simple_13_A_a.gif","images/stimuli/spore_stims/simple_01_A_b.gif","forced_short","","6","simple_dissimilar","images/stimuli/spore_stims/simple_13_A_a.gif","","","","",""
"","null","html-keyboard-response","83","629270","0.0-21.0-0.4","SS1618435648519","","","null","","","","","","<p><img src= images/blank.png width =""600"" height = ""600"" style=""position:fixed;top:50%; left:50%; transform: translate(-50%, -50%); border:5px solid black"">","","","","","","","",""
"","3197.78000000224","sequential-stimulus-presentation-old","84","632969","0.0-21.0-1.4","SS1618435648519","trial","","40","500","3697.78000000224","images/stimuli/spore_stims/simple_13_A_a.gif","images/stimuli/spore_stims/simple_01_A_b.gif","forced_short","","6","simple_dissimilar","images/stimuli/spore_stims/simple_01_A_b.gif","","","","",""
"","null","html-keyboard-response","85","634060","0.0-21.0-0.5","SS1618435648519","","","null","","","","","","<p><img src= images/blank.png width =""600"" height = ""600"" style=""position:fixed;top:50%; left:50%; transform: translate(-50%, -50%); border:5px solid black"">","","","","","","","",""
"","4318.415000001551","sequential-stimulus-presentation-old","86","638880","0.0-21.0-1.5","SS1618435648519","trial","","40","500","4818.415000001551","images/stimuli/spore_stims/simple_13_A_a.gif","images/stimuli/spore_stims/simple_01_A_b.gif","forced_short","","6","simple_dissimilar","images/stimuli/spore_stims/simple_13_A_a.gif","","","","",""
"","3115.4850000020815","survey-multi-choice","87","641997","0.0-22.0","SS1618435648519","math_question","","","","","","","","","","","","{""Q0"":""13""}","[0]","13","",""
"","null","html-keyboard-response","88","643220","0.0-23.0-0.0","SS1618435648519","","","null","","","","","","<p><img src= images/blank.png width =""600"" height = ""600"" style=""position:fixed;top:50%; left:50%; transform: translate(-50%, -50%); border:5px solid black"">","","","","","","","",""
"","1055.4249999986496","sequential-stimulus-presentation-old","89","644778","0.0-23.0-1.0","SS1618435648519","trial","","40","500","1555.4249999986496","images/stimuli/spore_stims/simple_12_A_b.gif","images/stimuli/spore_stims/simple_05_A_a.gif","self_paced","","7","simple_dissimilar","images/stimuli/spore_stims/simple_05_A_a.gif","","","","",""
"","null","html-keyboard-response","90","645882","0.0-23.0-0.1","SS1618435648519","","","null","","","","","","<p><img src= images/blank.png width =""600"" height = ""600"" style=""position:fixed;top:50%; left:50%; transform: translate(-50%, -50%); border:5px solid black"">","","","","","","","",""
"","3792.4849999981234","sequential-stimulus-presentation-old","91","650176","0.0-23.0-1.1","SS1618435648519","trial","","40","500","4292.484999998123","images/stimuli/spore_stims/simple_12_A_b.gif","images/stimuli/spore_stims/simple_05_A_a.gif","self_paced","","7","simple_dissimilar","images/stimuli/spore_stims/simple_12_A_b.gif","","","","",""
"","null","html-keyboard-response","92","651245","0.0-23.0-0.2","SS1618435648519","","","null","","","","","","<p><img src= images/blank.png width =""600"" height = ""600"" style=""position:fixed;top:50%; left:50%; transform: translate(-50%, -50%); border:5px solid black"">","","","","","","","",""
"","3821.109999989858","sequential-stimulus-presentation-old","93","655569","0.0-23.0-1.2","SS1618435648519","trial","","40","500","4321.109999989858","images/stimuli/spore_stims/simple_12_A_b.gif","images/stimuli/spore_stims/simple_05_A_a.gif","self_paced","","7","simple_dissimilar","images/stimuli/spore_stims/simple_05_A_a.gif","","","","",""
"","null","html-keyboard-response","94","656734","0.0-23.0-0.3","SS1618435648519","","","null","","","","","","<p><img src= images/blank.png width =""600"" height = ""600"" style=""position:fixed;top:50%; left:50%; transform: translate(-50%, -50%); border:5px solid black"">","","","","","","","",""
"","3307.715000002645","sequential-stimulus-presentation-old","95","660544","0.0-23.0-1.3","SS1618435648519","trial","","40","500","3807.715000002645","images/stimuli/spore_stims/simple_12_A_b.gif","images/stimuli/spore_stims/simple_05_A_a.gif","self_paced","","7","simple_dissimilar","images/stimuli/spore_stims/simple_05_A_a.gif","","","","",""
"","null","html-keyboard-response","96","661416","0.0-23.0-0.4","SS1618435648519","","","null","","","","","","<p><img src= images/blank.png width =""600"" height = ""600"" style=""position:fixed;top:50%; left:50%; transform: translate(-50%, -50%); border:5px solid black"">","","","","","","","",""
"","3026.5700000018114","sequential-stimulus-presentation-old","97","664944","0.0-23.0-1.4","SS1618435648519","trial","","40","500","3526.5700000018114","images/stimuli/spore_stims/simple_12_A_b.gif","images/stimuli/spore_stims/simple_05_A_a.gif","self_paced","","7","simple_dissimilar","images/stimuli/spore_stims/simple_05_A_a.gif","","","","",""
"","null","html-keyboard-response","98","666000","0.0-23.0-0.5","SS1618435648519","","","null","","","","","","<p><img src= images/blank.png width =""600"" height = ""600"" style=""position:fixed;top:50%; left:50%; transform: translate(-50%, -50%); border:5px solid black"">","","","","","","","",""
"","2547.4249999970198","sequential-stimulus-presentation-old","99","669049","0.0-23.0-1.5","SS1618435648519","trial","","40","500","3047.4249999970198","images/stimuli/spore_stims/simple_12_A_b.gif","images/stimuli/spore_stims/simple_05_A_a.gif","self_paced","","7","simple_dissimilar","images/stimuli/spore_stims/simple_05_A_a.gif","","","","",""
"","5103.109999996377","survey-multi-choice","100","674154","0.0-24.0","SS1618435648519","math_question","","","","","","","","","","","","{""Q0"":""5""}","[0]","5","",""
"","null","html-keyboard-response","101","675130","0.0-25.0-0.0","SS1618435648519","","","null","","","","","","<p><img src= images/blank.png width =""600"" height = ""600"" style=""position:fixed;top:50%; left:50%; transform: translate(-50%, -50%); border:5px solid black"">","","","","","","","",""
"","5603.7950000027195","sequential-stimulus-presentation-old","102","685736","0.0-25.0-1.0","SS1618435648519","trial","","40","500","6103.7950000027195","images/stimuli/spore_stims/complex_19_A_b.gif","images/stimuli/spore_stims/complex_11_A_a.gif","forced_long","","8","complex_dissimilar","images/stimuli/spore_stims/complex_11_A_a.gif","","","","",""
"","null","html-keyboard-response","103","686964","0.0-25.0-0.1","SS1618435648519","","","null","","","","","","<p><img src= images/blank.png width =""600"" height = ""600"" style=""position:fixed;top:50%; left:50%; transform: translate(-50%, -50%); border:5px solid black"">","","","","","","","",""
"","62084.41999999923","sequential-stimulus-presentation-old","104","749552","0.0-25.0-1.1","SS1618435648519","trial","","40","500","62584.41999999923","images/stimuli/spore_stims/complex_19_A_b.gif","images/stimuli/spore_stims/complex_11_A_a.gif","forced_long","","8","complex_dissimilar","images/stimuli/spore_stims/complex_11_A_a.gif","","","","",""
"","null","html-keyboard-response","105","750399","0.0-25.0-0.2","SS1618435648519","","","null","","","","","","<p><img src= images/blank.png width =""600"" height = ""600"" style=""position:fixed;top:50%; left:50%; transform: translate(-50%, -50%); border:5px solid black"">","","","","","","","",""
"","1570.3099999955157","sequential-stimulus-presentation-old","106","752480","0.0-25.0-1.2","SS1618435648519","trial","","40","500","2070.3099999955157","images/stimuli/spore_stims/complex_19_A_b.gif","images/stimuli/spore_stims/complex_11_A_a.gif","forced_long","","8","complex_dissimilar","images/stimuli/spore_stims/complex_11_A_a.gif","","","","",""
"","null","html-keyboard-response","107","753644","0.0-25.0-0.3","SS1618435648519","","","null","","","","","","<p><img src= images/blank.png width =""600"" height = ""600"" style=""position:fixed;top:50%; left:50%; transform: translate(-50%, -50%); border:5px solid black"">","","","","","","","",""
"","2488.470000011148","sequential-stimulus-presentation-old","108","756640","0.0-25.0-1.3","SS1618435648519","trial","","40","500","2988.470000011148","images/stimuli/spore_stims/complex_19_A_b.gif","images/stimuli/spore_stims/complex_11_A_a.gif","forced_long","","8","complex_dissimilar","images/stimuli/spore_stims/complex_11_A_a.gif","","","","",""
"","null","html-keyboard-response","109","757495","0.0-25.0-0.4","SS1618435648519","","","null","","","","","","<p><img src= images/blank.png width =""600"" height = ""600"" style=""position:fixed;top:50%; left:50%; transform: translate(-50%, -50%); border:5px solid black"">","","","","","","","",""
"","2494.784999988042","sequential-stimulus-presentation-old","110","760497","0.0-25.0-1.4","SS1618435648519","trial","","40","500","2994.784999988042","images/stimuli/spore_stims/complex_19_A_b.gif","images/stimuli/spore_stims/complex_11_A_a.gif","forced_long","","8","complex_dissimilar","images/stimuli/spore_stims/complex_11_A_a.gif","","","","",""
"","null","html-keyboard-response","111","762633","0.0-25.0-0.5","SS1618435648519","","","null","","","","","","<p><img src= images/blank.png width =""600"" height = ""600"" style=""position:fixed;top:50%; left:50%; transform: translate(-50%, -50%); border:5px solid black"">","","","","","","","",""
"","5536.234999992303","sequential-stimulus-presentation-old","112","769168","0.0-25.0-1.5","SS1618435648519","trial","","40","500","6036.234999992303","images/stimuli/spore_stims/complex_19_A_b.gif","images/stimuli/spore_stims/complex_11_A_a.gif","forced_long","","8","complex_dissimilar","images/stimuli/spore_stims/complex_19_A_b.gif","","","","",""
"","2234.1299999970943","survey-multi-choice","113","771404","0.0-26.0","SS1618435648519","math_question","","","","","","","","","","","","{""Q0"":""7""}","[0]","7","",""
"","null","html-keyboard-response","114","772661","0.0-27.0-0.0","SS1618435648519","","","null","","","","","","<p><img src= images/blank.png width =""600"" height = ""600"" style=""position:fixed;top:50%; left:50%; transform: translate(-50%, -50%); border:5px solid black"">","","","","","","","",""
"","615.0499999930616","sequential-stimulus-presentation-old","115","773329","0.0-27.0-1.0","SS1618435648519","trial","","40","500","1115.0499999930616","images/stimuli/spore_stims/simple_03_A_a.gif","images/stimuli/spore_stims/simple_10_A_b.gif","forced_short","","9","simple_dissimilar","images/stimuli/spore_stims/simple_10_A_b.gif","","","","",""
"","null","html-keyboard-response","116","774238","0.0-27.0-0.1","SS1618435648519","","","null","","","","","","<p><img src= images/blank.png width =""600"" height = ""600"" style=""position:fixed;top:50%; left:50%; transform: translate(-50%, -50%); border:5px solid black"">","","","","","","","",""
"","1403.1700000050478","sequential-stimulus-presentation-old","117","776144","0.0-27.0-1.1","SS1618435648519","trial","","40","500","1903.1700000050478","images/stimuli/spore_stims/simple_03_A_a.gif","images/stimuli/spore_stims/simple_10_A_b.gif","forced_short","","9","simple_dissimilar","images/stimuli/spore_stims/simple_10_A_b.gif","","","","",""
"","null","html-keyboard-response","118","777259","0.0-27.0-0.2","SS1618435648519","","","null","","","","","","<p><img src= images/blank.png width =""600"" height = ""600"" style=""position:fixed;top:50%; left:50%; transform: translate(-50%, -50%); border:5px solid black"">","","","","","","","",""
"","685.4250000033062","sequential-stimulus-presentation-old","119","778456","0.0-27.0-1.2","SS1618435648519","trial","","40","500","1185.4250000033062","images/stimuli/spore_stims/simple_03_A_a.gif","images/stimuli/spore_stims/simple_10_A_b.gif","forced_short","","9","simple_dissimilar","images/stimuli/spore_stims/simple_03_A_a.gif","","","","",""
"","null","html-keyboard-response","120","779538","0.0-27.0-0.3","SS1618435648519","","","null","","","","","","<p><img src= images/blank.png width =""600"" height = ""600"" style=""position:fixed;top:50%; left:50%; transform: translate(-50%, -50%); border:5px solid black"">","","","","","","","",""
"","1287.4849999934668","sequential-stimulus-presentation-old","121","781328","0.0-27.0-1.3","SS1618435648519","trial","","40","500","1787.4849999934668","images/stimuli/spore_stims/simple_03_A_a.gif","images/stimuli/spore_stims/simple_10_A_b.gif","forced_short","","9","simple_dissimilar","images/stimuli/spore_stims/simple_03_A_a.gif","","","","",""
"","null","html-keyboard-response","122","782142","0.0-27.0-0.4","SS1618435648519","","","null","","","","","","<p><img src= images/blank.png width =""600"" height = ""600"" style=""position:fixed;top:50%; left:50%; transform: translate(-50%, -50%); border:5px solid black"">","","","","","","","",""
"","1138.6599999968894","sequential-stimulus-presentation-old","123","783785","0.0-27.0-1.4","SS1618435648519","trial","","40","500","1638.6599999968894","images/stimuli/spore_stims/simple_03_A_a.gif","images/stimuli/spore_stims/simple_10_A_b.gif","forced_short","","9","simple_dissimilar","images/stimuli/spore_stims/simple_10_A_b.gif","","","","",""
"","null","html-keyboard-response","124","784971","0.0-27.0-0.5","SS1618435648519","","","null","","","","","","<p><img src= images/blank.png width =""600"" height = ""600"" style=""position:fixed;top:50%; left:50%; transform: translate(-50%, -50%); border:5px solid black"">","","","","","","","",""
"","838.9150000002701","sequential-stimulus-presentation-old","125","786312","0.0-27.0-1.5","SS1618435648519","trial","","40","500","1338.91500000027","images/stimuli/spore_stims/simple_03_A_a.gif","images/stimuli/spore_stims/simple_10_A_b.gif","forced_short","","9","simple_dissimilar","images/stimuli/spore_stims/simple_10_A_b.gif","","","","",""
"","4501.689999990049","survey-multi-choice","126","790816","0.0-28.0","SS1618435648519","math_question","","","","","","","","","","","","{""Q0"":""17""}","[0]","17","",""
"","null","html-keyboard-response","127","791935","0.0-29.0-0.0","SS1618435648519","","","null","","","","","","<p><img src= images/blank.png width =""600"" height = ""600"" style=""position:fixed;top:50%; left:50%; transform: translate(-50%, -50%); border:5px solid black"">","","","","","","","",""
"","278.0499999935273","sequential-stimulus-presentation-old","128","797216","0.0-29.0-1.0","SS1618435648519","trial","","40","500","778.0499999935273","images/stimuli/spore_stims/complex_07_A_a.gif","images/stimuli/spore_stims/complex_09_A_b.gif","forced_long","","10","complex_dissimilar","images/stimuli/spore_stims/complex_09_A_b.gif","","","","",""
"","null","html-keyboard-response","129","798031","0.0-29.0-0.1","SS1618435648519","","","null","","","","","","<p><img src= images/blank.png width =""600"" height = ""600"" style=""position:fixed;top:50%; left:50%; transform: translate(-50%, -50%); border:5px solid black"">","","","","","","","",""
"","1818.3900000003632","sequential-stimulus-presentation-old","130","800352","0.0-29.0-1.1","SS1618435648519","trial","","40","500","2318.390000000363","images/stimuli/spore_stims/complex_07_A_a.gif","images/stimuli/spore_stims/complex_09_A_b.gif","forced_long","","10","complex_dissimilar","images/stimuli/spore_stims/complex_07_A_a.gif","","","","",""
"","null","html-keyboard-response","131","801243","0.0-29.0-0.2","SS1618435648519","","","null","","","","","","<p><img src= images/blank.png width =""600"" height = ""600"" style=""position:fixed;top:50%; left:50%; transform: translate(-50%, -50%); border:5px solid black"">","","","","","","","",""
"","2319.665000002715","sequential-stimulus-presentation-old","132","804065","0.0-29.0-1.2","SS1618435648519","trial","","40","500","2819.665000002715","images/stimuli/spore_stims/complex_07_A_a.gif","images/stimuli/spore_stims/complex_09_A_b.gif","forced_long","","10","complex_dissimilar","images/stimuli/spore_stims/complex_09_A_b.gif","","","","",""
"","null","html-keyboard-response","133","805333","0.0-29.0-0.3","SS1618435648519","","","null","","","","","","<p><img src= images/blank.png width =""600"" height = ""600"" style=""position:fixed;top:50%; left:50%; transform: translate(-50%, -50%); border:5px solid black"">","","","","","","","",""
"","1491.4849999913713","sequential-stimulus-presentation-old","134","807328","0.0-29.0-1.3","SS1618435648519","trial","","40","500","1991.4849999913713","images/stimuli/spore_stims/complex_07_A_a.gif","images/stimuli/spore_stims/complex_09_A_b.gif","forced_long","","10","complex_dissimilar","images/stimuli/spore_stims/complex_09_A_b.gif","","","","",""
"","null","html-keyboard-response","135","808628","0.0-29.0-0.4","SS1618435648519","","","null","","","","","","<p><img src= images/blank.png width =""600"" height = ""600"" style=""position:fixed;top:50%; left:50%; transform: translate(-50%, -50%); border:5px solid black"">","","","","","","","",""
"","1311.5949999919394","sequential-stimulus-presentation-old","136","810448","0.0-29.0-1.4","SS1618435648519","trial","","40","500","1811.5949999919394","images/stimuli/spore_stims/complex_07_A_a.gif","images/stimuli/spore_stims/complex_09_A_b.gif","forced_long","","10","complex_dissimilar","images/stimuli/spore_stims/complex_07_A_a.gif","","","","",""
"","3273.044999994454","survey-multi-choice","137","813723","0.0-30.0","SS1618435648519","math_question","","","","","","","","","","","","{""Q0"":""13""}","[0]","13","",""
"","null","html-keyboard-response","138","814993","0.0-31.0-0.0","SS1618435648519","","","null","","","","","","<p><img src= images/blank.png width =""600"" height = ""600"" style=""position:fixed;top:50%; left:50%; transform: translate(-50%, -50%); border:5px solid black"">","","","","","","","",""
"","794.8099999921396","sequential-stimulus-presentation-old","139","815841","0.0-31.0-1.0","SS1618435648519","trial","","40","500","1294.8099999921396","images/stimuli/spore_stims/complex_10_A_b.gif","images/stimuli/spore_stims/complex_14_A_a.gif","forced_short","","11","complex_dissimilar","images/stimuli/spore_stims/complex_14_A_a.gif","","","","",""
"","null","html-keyboard-response","140","817107","0.0-31.0-0.1","SS1618435648519","","","null","","","","","","<p><img src= images/blank.png width =""600"" height = ""600"" style=""position:fixed;top:50%; left:50%; transform: translate(-50%, -50%); border:5px solid black"">","","","","","","","",""
"","1533.4850000072038","sequential-stimulus-presentation-old","141","819144","0.0-31.0-1.1","SS1618435648519","trial","","40","500","2033.4850000072038","images/stimuli/spore_stims/complex_10_A_b.gif","images/stimuli/spore_stims/complex_14_A_a.gif","forced_short","","11","complex_dissimilar","images/stimuli/spore_stims/complex_14_A_a.gif","","","","",""
"","null","html-keyboard-response","142","820257","0.0-31.0-0.2","SS1618435648519","","","null","","","","","","<p><img src= images/blank.png width =""600"" height = ""600"" style=""position:fixed;top:50%; left:50%; transform: translate(-50%, -50%); border:5px solid black"">","","","","","","","",""
"","2311.539999995148","sequential-stimulus-presentation-old","143","823072","0.0-31.0-1.2","SS1618435648519","trial","","40","500","2811.539999995148","images/stimuli/spore_stims/complex_10_A_b.gif","images/stimuli/spore_stims/complex_14_A_a.gif","forced_short","","11","complex_dissimilar","images/stimuli/spore_stims/complex_14_A_a.gif","","","","",""
"","null","html-keyboard-response","144","824142","0.0-31.0-0.3","SS1618435648519","","","null","","","","","","<p><img src= images/blank.png width =""600"" height = ""600"" style=""position:fixed;top:50%; left:50%; transform: translate(-50%, -50%); border:5px solid black"">","","","","","","","",""
"","2747.850000014296","sequential-stimulus-presentation-old","145","827393","0.0-31.0-1.3","SS1618435648519","trial","","40","500","3247.850000014296","images/stimuli/spore_stims/complex_10_A_b.gif","images/stimuli/spore_stims/complex_14_A_a.gif","forced_short","","11","complex_dissimilar","images/stimuli/spore_stims/complex_14_A_a.gif","","","","",""
"","null","html-keyboard-response","146","828490","0.0-31.0-0.4","SS1618435648519","","","null","","","","","","<p><img src= images/blank.png width =""600"" height = ""600"" style=""position:fixed;top:50%; left:50%; transform: translate(-50%, -50%); border:5px solid black"">","","","","","","","",""
"","658.2350000098813","sequential-stimulus-presentation-old","147","829656","0.0-31.0-1.4","SS1618435648519","trial","","40","500","1158.2350000098813","images/stimuli/spore_stims/complex_10_A_b.gif","images/stimuli/spore_stims/complex_14_A_a.gif","forced_short","","11","complex_dissimilar","images/stimuli/spore_stims/complex_14_A_a.gif","","","","",""
"[{""page_index"":0,""viewing_time"":4538.985000006505}]","4539.474999997765","instructions","148","834197","0.0-32.0","SS1618435648519","instructions","","","","","","","","","","","","","","","",""
"","5616.129999994882","survey-likert","149","839816","0.0-33.0","SS1618435648519","similarity_question","","","","","","","","","","","","{""Q0"":1}","[0]","","images/stimuli/spore_stims/complex_04_A_b.gif","images/stimuli/spore_stims/complex_03_A_a.gif"
"","5812.3800000030315","survey-likert","150","845634","0.0-34.0","SS1618435648519","similarity_question","","","","","","","","","","","","{""Q0"":2}","[0]","","images/stimuli/spore_stims/complex_14_A_a.gif","images/stimuli/spore_stims/complex_10_A_b.gif"
"","3467.739999992773","survey-likert","151","849108","0.0-35.0","SS1618435648519","similarity_question","","","","","","","","","","","","{""Q0"":5}","[0]","","images/stimuli/spore_stims/simple_05_A_b.gif","images/stimuli/spore_stims/simple_17_A_a.gif"
"","3504.254999992554","survey-likert","152","852618","0.0-36.0","SS1618435648519","similarity_question","","","","","","","","","","","","{""Q0"":5}","[0]","","images/stimuli/spore_stims/simple_10_A_b.gif","images/stimuli/spore_stims/simple_03_A_a.gif"
"","3175.294999993639","survey-likert","153","855799","0.0-37.0","SS1618435648519","similarity_question","","","","","","","","","","","","{""Q0"":1}","[0]","","images/stimuli/spore_stims/complex_10_A_a.gif","images/stimuli/spore_stims/complex_15_A_b.gif"
"","2806.479999999283","survey-likert","154","858611","0.0-38.0","SS1618435648519","similarity_question","","","","","","","","","","","","{""Q0"":1}","[0]","","images/stimuli/spore_stims/complex_11_A_a.gif","images/stimuli/spore_stims/complex_19_A_b.gif"
"","2611.5649999992456","survey-likert","155","861229","0.0-39.0","SS1618435648519","similarity_question","","","","","","","","","","","","{""Q0"":2}","[0]","","images/stimuli/spore_stims/complex_16_A_a.gif","images/stimuli/spore_stims/complex_05_A_b.gif"
"","2891.3900000043213","survey-likert","156","864126","0.0-40.0","SS1618435648519","similarity_question","","","","","","","","","","","","{""Q0"":4}","[0]","","images/stimuli/spore_stims/simple_01_A_b.gif","images/stimuli/spore_stims/simple_13_A_a.gif"
"","2242.37500000163","survey-likert","157","866374","0.0-41.0","SS1618435648519","similarity_question","","","","","","","","","","","","{""Q0"":1}","[0]","","images/stimuli/spore_stims/complex_09_A_b.gif","images/stimuli/spore_stims/complex_07_A_a.gif"
"","1820.370000001276","survey-likert","158","868200","0.0-42.0","SS1618435648519","similarity_question","","","","","","","","","","","","{""Q0"":4}","[0]","","images/stimuli/spore_stims/simple_08_A_a.gif","images/stimuli/spore_stims/simple_11_A_b.gif"
"","2771.065000008093","survey-likert","159","870976","0.0-43.0","SS1618435648519","similarity_question","","","","","","","","","","","","{""Q0"":2}","[0]","","images/stimuli/spore_stims/simple_06_A_a.gif","images/stimuli/spore_stims/simple_18_A_b.gif"
"","1751.235000003362","survey-likert","160","872733","0.0-44.0","SS1618435648519","similarity_question","","","","","","","","","","","","{""Q0"":4}","[0]","","images/stimuli/spore_stims/simple_12_A_b.gif","images/stimuli/spore_stims/simple_05_A_a.gif"
"[{""page_index"":0,""viewing_time"":5240.245000008144}]","5240.445000003092","instructions","161","877979","0.0-45.0","SS1618435648519","instructions","","","","","","","","","","","","","","","",""
"","4708.2550000050105","survey-likert","162","882690","0.0-46.0","SS1618435648519","","","","","","","","","images/stimuli/spore_stims/simple_11_A_b.gif","","","","{""Q0"":1}","[0]","","",""
"","2470.5550000071526","survey-likert","163","885166","0.0-47.0","SS1618435648519","","","","","","","","","images/stimuli/spore_stims/simple_17_A_a.gif","","","","{""Q0"":1}","[0]","","",""
"","1949.975000010454","survey-likert","164","887122","0.0-48.0","SS1618435648519","","","","","","","","","images/stimuli/spore_stims/simple_06_A_a.gif","","","","{""Q0"":1}","[0]","","",""
"","3668.3049999992363","survey-likert","165","890796","0.0-49.0","SS1618435648519","","","","","","","","","images/stimuli/spore_stims/complex_16_A_a.gif","","","","{""Q0"":5}","[0]","","",""
"","2377.374999996391","survey-likert","166","893179","0.0-50.0","SS1618435648519","","","","","","","","","images/stimuli/spore_stims/complex_03_A_a.gif","","","","{""Q0"":4}","[0]","","",""
"","1772.9399999952875","survey-likert","167","894958","0.0-51.0","SS1618435648519","","","","","","","","","images/stimuli/spore_stims/complex_09_A_b.gif","","","","{""Q0"":5}","[0]","","",""
"","1596.705000003567","survey-likert","168","896561","0.0-52.0","SS1618435648519","","","","","","","","","images/stimuli/spore_stims/complex_10_A_a.gif","","","","{""Q0"":5}","[0]","","",""
"","1901.3299999933224","survey-likert","169","898468","0.0-53.0","SS1618435648519","","","","","","","","","images/stimuli/spore_stims/simple_10_A_b.gif","","","","{""Q0"":1}","[0]","","",""
"","2350.160000001779","survey-likert","170","900824","0.0-54.0","SS1618435648519","","","","","","","","","images/stimuli/spore_stims/complex_14_A_a.gif","","","","{""Q0"":5}","[0]","","",""
"","2435.0500000000466","survey-likert","171","903265","0.0-55.0","SS1618435648519","","","","","","","","","images/stimuli/spore_stims/simple_01_A_b.gif","","","","{""Q0"":1}","[0]","","",""
"","3582.955000005313","survey-likert","172","906854","0.0-56.0","SS1618435648519","","","","","","","","","images/stimuli/spore_stims/complex_11_A_a.gif","","","","{""Q0"":5}","[0]","","",""
"","1469.3499999993946","survey-likert","173","908329","0.0-57.0","SS1618435648519","","","","","","","","","images/stimuli/spore_stims/simple_05_A_a.gif","","","","{""Q0"":1}","[0]","","",""
"[{""page_index"":0,""viewing_time"":2075.9350000007544}]","2076.1249999923166","instructions","174","910411","0.0-58.0","SS1618435648519","instructions","","","","","","","","","","","","","","","",""
"","3274.539999998524","demog-age","175","913690","0.0-59.0","SS1618435648519","","","","","","","","","","","","","{""age"":""18""}","","","",""
"","2498.7099999998463","demog-ethnic-US","176","916193","0.0-60.0","SS1618435648519","","","","","","","","","","","","","{""ethnicity"":[""White""]}","[0]","","",""
"","7306.3249999977415","demog-gender-and-education","177","923506","0.0-61.0","SS1618435648519","","","","","","","","","","","","","{""gender"":""Male"",""education"":""High school diploma""}","[0,1]","","",""
"","8681.210000009742","survey-text","178","932194","0.0-62.0","SS1618435648519","feedback","","","","","","","","","","","","{""Q0"":""no""}","","","",""
"[{""page_index"":0,""viewing_time"":1314.1199999954551}]","1314.3049999926006","instructions","179","933511","0.0-63.0","SS1618435648519","instructions","","","","","","","","","","","","","","","",""
