"view_history","rt","trial_type","trial_index","time_elapsed","internal_node_id","subject","stimulus_type","trial_stimulus","key_press","minimum_viewing_duration","trial_looking_time","block_deviant","block_background","exposure_type","stimulus","block_number","block_type","stimulus_displayed","responses","question_order","math_correct_answer","stimulus_left","stimulus_right"
"[{""page_index"":0,""viewing_time"":15705.300000030547}]","15706.635000009555","instructions","0","15711","0.0-0.0","SS1618365786262","","","","","","","","","","","","","","","","",""
"[{""page_index"":0,""viewing_time"":17600.91999999713},{""page_index"":1,""viewing_time"":9815.14000002062}]","27416.454999998678","instructions","1","45142","0.0-1.0","SS1618365786262","instructions","","","","","","","","","","","","","","","",""
"","9122.954999969807","sequential-stimulus-presentation-old","2","54781","0.0-2.0","SS1618365786262","","","40","500","9622.954999969807","null","null","self_paced","","","","","","","","",""
"","6163.119999982882","sequential-stimulus-presentation-old","3","61454","0.0-3.0","SS1618365786262","","","40","500","6663.119999982882","null","null","self_paced","","","","","","","","",""
"[{""page_index"":0,""viewing_time"":28892.744999960996}]","28893.12499994412","instructions","4","90348","0.0-4.0","SS1618365786262","instructions","","","","","","","","","","","","","","","",""
"","9769.610000017565","sequential-stimulus-presentation-old","5","105122","0.0-5.0","SS1618365786262","","","40","500","10269.610000017565","null","null","forced_long","","","","","","","","",""
"","6507.649999985006","sequential-stimulus-presentation-old","6","111685","0.0-6.0","SS1618365786262","","","40","50","6557.649999985006","null","null","forced_long","","","","","","","","",""
"[{""page_index"":0,""viewing_time"":4796.305000025313}]","4796.695000026375","instructions","7","116483","0.0-7.0","SS1618365786262","instructions","","","","","","","","","","","","","","","",""
"[{""page_index"":0,""viewing_time"":8537.145000009332},{""page_index"":1,""viewing_time"":14482.230000023264},{""page_index"":2,""viewing_time"":9155.014999967534},{""page_index"":3,""viewing_time"":1541.9950000359677},{""page_index"":4,""viewing_time"":1168.9299999852665}]","34885.690000024624","instructions","8","151373","0.0-8.0","SS1618365786262","instructions","","","","","","","","","","","","","","","",""
"","null","html-keyboard-response","9","152585","0.0-9.0-0.0","SS1618365786262","","","null","","","","","","<p><img src= images/blank.png width =""600"" height = ""600"" style=""position:fixed;top:50%; left:50%; transform: translate(-50%, -50%); border:5px solid black"">","","","","","","","",""
"","9101.475000032224","sequential-stimulus-presentation-old","10","162198","0.0-9.0-1.0","SS1618365786262","trial","","40","500","9601.475000032224","images/stimuli/spore_stims/simple_13_A_a.gif","images/stimuli/spore_stims/simple_05_A_b.gif","self_paced","","0","simple_dissimilar","images/stimuli/spore_stims/simple_05_A_b.gif","","","","",""
"","null","html-keyboard-response","11","163194","0.0-9.0-0.1","SS1618365786262","","","null","","","","","","<p><img src= images/blank.png width =""600"" height = ""600"" style=""position:fixed;top:50%; left:50%; transform: translate(-50%, -50%); border:5px solid black"">","","","","","","","",""
"","13545.730000012554","sequential-stimulus-presentation-old","12","177245","0.0-9.0-1.1","SS1618365786262","trial","","40","500","14045.730000012554","images/stimuli/spore_stims/simple_13_A_a.gif","images/stimuli/spore_stims/simple_05_A_b.gif","self_paced","","0","simple_dissimilar","images/stimuli/spore_stims/simple_05_A_b.gif","","","","",""
"","null","html-keyboard-response","13","178287","0.0-9.0-0.2","SS1618365786262","","","null","","","","","","<p><img src= images/blank.png width =""600"" height = ""600"" style=""position:fixed;top:50%; left:50%; transform: translate(-50%, -50%); border:5px solid black"">","","","","","","","",""
"","7439.360000018496","sequential-stimulus-presentation-old","14","186238","0.0-9.0-1.2","SS1618365786262","trial","","40","500","7939.360000018496","images/stimuli/spore_stims/simple_13_A_a.gif","images/stimuli/spore_stims/simple_05_A_b.gif","self_paced","","0","simple_dissimilar","images/stimuli/spore_stims/simple_05_A_b.gif","","","","",""
"","null","html-keyboard-response","15","187408","0.0-9.0-0.3","SS1618365786262","","","null","","","","","","<p><img src= images/blank.png width =""600"" height = ""600"" style=""position:fixed;top:50%; left:50%; transform: translate(-50%, -50%); border:5px solid black"">","","","","","","","",""
"","19460.17000003485","sequential-stimulus-presentation-old","16","207375","0.0-9.0-1.3","SS1618365786262","trial","","40","500","19960.17000003485","images/stimuli/spore_stims/simple_13_A_a.gif","images/stimuli/spore_stims/simple_05_A_b.gif","self_paced","","0","simple_dissimilar","images/stimuli/spore_stims/simple_05_A_b.gif","","","","",""
"","null","html-keyboard-response","17","208568","0.0-9.0-0.4","SS1618365786262","","","null","","","","","","<p><img src= images/blank.png width =""600"" height = ""600"" style=""position:fixed;top:50%; left:50%; transform: translate(-50%, -50%); border:5px solid black"">","","","","","","","",""
"","10443.35499999579","sequential-stimulus-presentation-old","18","219519","0.0-9.0-1.4","SS1618365786262","trial","","40","500","10943.35499999579","images/stimuli/spore_stims/simple_13_A_a.gif","images/stimuli/spore_stims/simple_05_A_b.gif","self_paced","","0","simple_dissimilar","images/stimuli/spore_stims/simple_05_A_b.gif","","","","",""
"","null","html-keyboard-response","19","220784","0.0-9.0-0.5","SS1618365786262","","","null","","","","","","<p><img src= images/blank.png width =""600"" height = ""600"" style=""position:fixed;top:50%; left:50%; transform: translate(-50%, -50%); border:5px solid black"">","","","","","","","",""
"","7883.254999993369","sequential-stimulus-presentation-old","20","229185","0.0-9.0-1.5","SS1618365786262","trial","","40","500","8383.254999993369","images/stimuli/spore_stims/simple_13_A_a.gif","images/stimuli/spore_stims/simple_05_A_b.gif","self_paced","","0","simple_dissimilar","images/stimuli/spore_stims/simple_05_A_b.gif","","","","",""
"","3543.1949999765493","survey-multi-choice","21","232735","0.0-10.0","SS1618365786262","math_question","","","","","","","","","","","","{""Q0"":""7""}","[0]","7","",""
"","null","html-keyboard-response","22","233741","0.0-11.0-0.0","SS1618365786262","","","null","","","","","","<p><img src= images/blank.png width =""600"" height = ""600"" style=""position:fixed;top:50%; left:50%; transform: translate(-50%, -50%); border:5px solid black"">","","","","","","","",""
"","1541.0900000133552","sequential-stimulus-presentation-old","23","240292","0.0-11.0-1.0","SS1618365786262","trial","","40","500","2041.0900000133552","images/stimuli/spore_stims/complex_11_A_b.gif","images/stimuli/spore_stims/complex_07_A_a.gif","forced_long","","1","complex_dissimilar","images/stimuli/spore_stims/complex_07_A_a.gif","","","","",""
"","null","html-keyboard-response","24","241136","0.0-11.0-0.1","SS1618365786262","","","null","","","","","","<p><img src= images/blank.png width =""600"" height = ""600"" style=""position:fixed;top:50%; left:50%; transform: translate(-50%, -50%); border:5px solid black"">","","","","","","","",""
"","14826.479999988806","sequential-stimulus-presentation-old","25","256474","0.0-11.0-1.1","SS1618365786262","trial","","40","500","15326.479999988806","images/stimuli/spore_stims/complex_11_A_b.gif","images/stimuli/spore_stims/complex_07_A_a.gif","forced_long","","1","complex_dissimilar","images/stimuli/spore_stims/complex_11_A_b.gif","","","","",""
"","null","html-keyboard-response","26","257516","0.0-11.0-0.2","SS1618365786262","","","null","","","","","","<p><img src= images/blank.png width =""600"" height = ""600"" style=""position:fixed;top:50%; left:50%; transform: translate(-50%, -50%); border:5px solid black"">","","","","","","","",""
"","10537.884999997914","sequential-stimulus-presentation-old","27","268559","0.0-11.0-1.2","SS1618365786262","trial","","40","500","11037.884999997914","images/stimuli/spore_stims/complex_11_A_b.gif","images/stimuli/spore_stims/complex_07_A_a.gif","forced_long","","1","complex_dissimilar","images/stimuli/spore_stims/complex_07_A_a.gif","","","","",""
"","null","html-keyboard-response","28","269711","0.0-11.0-0.3","SS1618365786262","","","null","","","","","","<p><img src= images/blank.png width =""600"" height = ""600"" style=""position:fixed;top:50%; left:50%; transform: translate(-50%, -50%); border:5px solid black"">","","","","","","","",""
"","10652.604999952018","sequential-stimulus-presentation-old","29","280877","0.0-11.0-1.3","SS1618365786262","trial","","40","500","11152.604999952018","images/stimuli/spore_stims/complex_11_A_b.gif","images/stimuli/spore_stims/complex_07_A_a.gif","forced_long","","1","complex_dissimilar","images/stimuli/spore_stims/complex_07_A_a.gif","","","","",""
"","null","html-keyboard-response","30","281875","0.0-11.0-0.4","SS1618365786262","","","null","","","","","","<p><img src= images/blank.png width =""600"" height = ""600"" style=""position:fixed;top:50%; left:50%; transform: translate(-50%, -50%); border:5px solid black"">","","","","","","","",""
"","11544.469999964349","sequential-stimulus-presentation-old","31","293928","0.0-11.0-1.4","SS1618365786262","trial","","40","500","12044.469999964349","images/stimuli/spore_stims/complex_11_A_b.gif","images/stimuli/spore_stims/complex_07_A_a.gif","forced_long","","1","complex_dissimilar","images/stimuli/spore_stims/complex_07_A_a.gif","","","","",""
"","null","html-keyboard-response","32","294764","0.0-11.0-0.5","SS1618365786262","","","null","","","","","","<p><img src= images/blank.png width =""600"" height = ""600"" style=""position:fixed;top:50%; left:50%; transform: translate(-50%, -50%); border:5px solid black"">","","","","","","","",""
"","8534.639999968931","sequential-stimulus-presentation-old","33","303813","0.0-11.0-1.5","SS1618365786262","trial","","40","500","9034.639999968931","images/stimuli/spore_stims/complex_11_A_b.gif","images/stimuli/spore_stims/complex_07_A_a.gif","forced_long","","1","complex_dissimilar","images/stimuli/spore_stims/complex_11_A_b.gif","","","","",""
"","3480.405000038445","survey-multi-choice","34","307297","0.0-12.0","SS1618365786262","math_question","","","","","","","","","","","","{""Q0"":""11""}","[0]","11","",""
"","null","html-keyboard-response","35","308232","0.0-13.0-0.0","SS1618365786262","","","null","","","","","","<p><img src= images/blank.png width =""600"" height = ""600"" style=""position:fixed;top:50%; left:50%; transform: translate(-50%, -50%); border:5px solid black"">","","","","","","","",""
"","8786.849999974947","sequential-stimulus-presentation-old","36","317533","0.0-13.0-1.0","SS1618365786262","trial","","40","500","9286.849999974947","images/stimuli/spore_stims/complex_18_A_a.gif","images/stimuli/spore_stims/complex_16_A_b.gif","self_paced","","2","complex_dissimilar","images/stimuli/spore_stims/complex_16_A_b.gif","","","","",""
"","null","html-keyboard-response","37","318365","0.0-13.0-0.1","SS1618365786262","","","null","","","","","","<p><img src= images/blank.png width =""600"" height = ""600"" style=""position:fixed;top:50%; left:50%; transform: translate(-50%, -50%); border:5px solid black"">","","","","","","","",""
"","8871.320000034757","sequential-stimulus-presentation-old","38","327744","0.0-13.0-1.1","SS1618365786262","trial","","40","500","9371.320000034757","images/stimuli/spore_stims/complex_18_A_a.gif","images/stimuli/spore_stims/complex_16_A_b.gif","self_paced","","2","complex_dissimilar","images/stimuli/spore_stims/complex_16_A_b.gif","","","","",""
"","null","html-keyboard-response","39","328818","0.0-13.0-0.2","SS1618365786262","","","null","","","","","","<p><img src= images/blank.png width =""600"" height = ""600"" style=""position:fixed;top:50%; left:50%; transform: translate(-50%, -50%); border:5px solid black"">","","","","","","","",""
"","7836.52000001166","sequential-stimulus-presentation-old","40","337162","0.0-13.0-1.2","SS1618365786262","trial","","40","500","8336.52000001166","images/stimuli/spore_stims/complex_18_A_a.gif","images/stimuli/spore_stims/complex_16_A_b.gif","self_paced","","2","complex_dissimilar","images/stimuli/spore_stims/complex_16_A_b.gif","","","","",""
"","null","html-keyboard-response","41","338015","0.0-13.0-0.3","SS1618365786262","","","null","","","","","","<p><img src= images/blank.png width =""600"" height = ""600"" style=""position:fixed;top:50%; left:50%; transform: translate(-50%, -50%); border:5px solid black"">","","","","","","","",""
"","9477.759999979753","sequential-stimulus-presentation-old","42","348008","0.0-13.0-1.3","SS1618365786262","trial","","40","500","9977.759999979753","images/stimuli/spore_stims/complex_18_A_a.gif","images/stimuli/spore_stims/complex_16_A_b.gif","self_paced","","2","complex_dissimilar","images/stimuli/spore_stims/complex_16_A_b.gif","","","","",""
"","3344.375000044238","survey-multi-choice","43","351357","0.0-14.0","SS1618365786262","math_question","","","","","","","","","","","","{""Q0"":""11""}","[0]","11","",""
"","null","html-keyboard-response","44","352333","0.0-15.0-0.0","SS1618365786262","","","null","","","","","","<p><img src= images/blank.png width =""600"" height = ""600"" style=""position:fixed;top:50%; left:50%; transform: translate(-50%, -50%); border:5px solid black"">","","","","","","","",""
"","5063.190000015311","sequential-stimulus-presentation-old","45","357454","0.0-15.0-1.0","SS1618365786262","trial","","40","500","5563.190000015311","images/stimuli/spore_stims/simple_07_A_a.gif","images/stimuli/spore_stims/simple_20_A_b.gif","forced_short","","3","simple_dissimilar","images/stimuli/spore_stims/simple_20_A_b.gif","","","","",""
"","null","html-keyboard-response","46","358271","0.0-15.0-0.1","SS1618365786262","","","null","","","","","","<p><img src= images/blank.png width =""600"" height = ""600"" style=""position:fixed;top:50%; left:50%; transform: translate(-50%, -50%); border:5px solid black"">","","","","","","","",""
"","8127.884999965318","sequential-stimulus-presentation-old","47","366913","0.0-15.0-1.1","SS1618365786262","trial","","40","500","8627.884999965318","images/stimuli/spore_stims/simple_07_A_a.gif","images/stimuli/spore_stims/simple_20_A_b.gif","forced_short","","3","simple_dissimilar","images/stimuli/spore_stims/simple_20_A_b.gif","","","","",""
"","null","html-keyboard-response","48","367816","0.0-15.0-0.2","SS1618365786262","","","null","","","","","","<p><img src= images/blank.png width =""600"" height = ""600"" style=""position:fixed;top:50%; left:50%; transform: translate(-50%, -50%); border:5px solid black"">","","","","","","","",""
"","8321.815000032075","sequential-stimulus-presentation-old","49","376644","0.0-15.0-1.2","SS1618365786262","trial","","40","500","8821.815000032075","images/stimuli/spore_stims/simple_07_A_a.gif","images/stimuli/spore_stims/simple_20_A_b.gif","forced_short","","3","simple_dissimilar","images/stimuli/spore_stims/simple_20_A_b.gif","","","","",""
"","null","html-keyboard-response","50","377756","0.0-15.0-0.3","SS1618365786262","","","null","","","","","","<p><img src= images/blank.png width =""600"" height = ""600"" style=""position:fixed;top:50%; left:50%; transform: translate(-50%, -50%); border:5px solid black"">","","","","","","","",""
"","6084.769999957643","sequential-stimulus-presentation-old","51","384350","0.0-15.0-1.3","SS1618365786262","trial","","40","500","6584.769999957643","images/stimuli/spore_stims/simple_07_A_a.gif","images/stimuli/spore_stims/simple_20_A_b.gif","forced_short","","3","simple_dissimilar","images/stimuli/spore_stims/simple_20_A_b.gif","","","","",""
"","null","html-keyboard-response","52","385551","0.0-15.0-0.4","SS1618365786262","","","null","","","","","","<p><img src= images/blank.png width =""600"" height = ""600"" style=""position:fixed;top:50%; left:50%; transform: translate(-50%, -50%); border:5px solid black"">","","","","","","","",""
"","5574.259999964852","sequential-stimulus-presentation-old","53","391631","0.0-15.0-1.4","SS1618365786262","trial","","40","500","6074.259999964852","images/stimuli/spore_stims/simple_07_A_a.gif","images/stimuli/spore_stims/simple_20_A_b.gif","forced_short","","3","simple_dissimilar","images/stimuli/spore_stims/simple_20_A_b.gif","","","","",""
"","null","html-keyboard-response","54","392559","0.0-15.0-0.5","SS1618365786262","","","null","","","","","","<p><img src= images/blank.png width =""600"" height = ""600"" style=""position:fixed;top:50%; left:50%; transform: translate(-50%, -50%); border:5px solid black"">","","","","","","","",""
"","5886.36999996379","sequential-stimulus-presentation-old","55","398954","0.0-15.0-1.5","SS1618365786262","trial","","40","500","6386.36999996379","images/stimuli/spore_stims/simple_07_A_a.gif","images/stimuli/spore_stims/simple_20_A_b.gif","forced_short","","3","simple_dissimilar","images/stimuli/spore_stims/simple_20_A_b.gif","","","","",""
"","3104.8599999630824","survey-multi-choice","56","402063","0.0-16.0","SS1618365786262","math_question","","","","","","","","","","","","{""Q0"":""7""}","[0]","7","",""
"","null","html-keyboard-response","57","403038","0.0-17.0-0.0","SS1618365786262","","","null","","","","","","<p><img src= images/blank.png width =""600"" height = ""600"" style=""position:fixed;top:50%; left:50%; transform: translate(-50%, -50%); border:5px solid black"">","","","","","","","",""
"","5830.9599999920465","sequential-stimulus-presentation-old","58","409382","0.0-17.0-1.0","SS1618365786262","trial","","40","500","6330.9599999920465","images/stimuli/spore_stims/simple_07_A_b.gif","images/stimuli/spore_stims/simple_14_A_a.gif","self_paced","","4","simple_dissimilar","images/stimuli/spore_stims/simple_14_A_a.gif","","","","",""
"","null","html-keyboard-response","59","410390","0.0-17.0-0.1","SS1618365786262","","","null","","","","","","<p><img src= images/blank.png width =""600"" height = ""600"" style=""position:fixed;top:50%; left:50%; transform: translate(-50%, -50%); border:5px solid black"">","","","","","","","",""
"","4949.094999989029","sequential-stimulus-presentation-old","60","415845","0.0-17.0-1.1","SS1618365786262","trial","","40","500","5449.094999989029","images/stimuli/spore_stims/simple_07_A_b.gif","images/stimuli/spore_stims/simple_14_A_a.gif","self_paced","","4","simple_dissimilar","images/stimuli/spore_stims/simple_07_A_b.gif","","","","",""
"","null","html-keyboard-response","61","416757","0.0-17.0-0.2","SS1618365786262","","","null","","","","","","<p><img src= images/blank.png width =""600"" height = ""600"" style=""position:fixed;top:50%; left:50%; transform: translate(-50%, -50%); border:5px solid black"">","","","","","","","",""
"","6504.084999964107","sequential-stimulus-presentation-old","62","423776","0.0-17.0-1.2","SS1618365786262","trial","","40","500","7004.084999964107","images/stimuli/spore_stims/simple_07_A_b.gif","images/stimuli/spore_stims/simple_14_A_a.gif","self_paced","","4","simple_dissimilar","images/stimuli/spore_stims/simple_07_A_b.gif","","","","",""
"","null","html-keyboard-response","63","424955","0.0-17.0-0.3","SS1618365786262","","","null","","","","","","<p><img src= images/blank.png width =""600"" height = ""600"" style=""position:fixed;top:50%; left:50%; transform: translate(-50%, -50%); border:5px solid black"">","","","","","","","",""
"","6035.495000018273","sequential-stimulus-presentation-old","64","431507","0.0-17.0-1.3","SS1618365786262","trial","","40","500","6535.495000018273","images/stimuli/spore_stims/simple_07_A_b.gif","images/stimuli/spore_stims/simple_14_A_a.gif","self_paced","","4","simple_dissimilar","images/stimuli/spore_stims/simple_14_A_a.gif","","","","",""
"","3062.229999981355","survey-multi-choice","65","434574","0.0-18.0","SS1618365786262","math_question","","","","","","","","","","","","{""Q0"":""7""}","[0]","7","",""
"","null","html-keyboard-response","66","435525","0.0-19.0-0.0","SS1618365786262","","","null","","","","","","<p><img src= images/blank.png width =""600"" height = ""600"" style=""position:fixed;top:50%; left:50%; transform: translate(-50%, -50%); border:5px solid black"">","","","","","","","",""
"","5502.220000023954","sequential-stimulus-presentation-old","67","441536","0.0-19.0-1.0","SS1618365786262","trial","","40","500","6002.220000023954","images/stimuli/spore_stims/complex_15_A_a.gif","images/stimuli/spore_stims/complex_19_A_b.gif","self_paced","","5","complex_dissimilar","images/stimuli/spore_stims/complex_19_A_b.gif","","","","",""
"","null","html-keyboard-response","68","442722","0.0-19.0-0.1","SS1618365786262","","","null","","","","","","<p><img src= images/blank.png width =""600"" height = ""600"" style=""position:fixed;top:50%; left:50%; transform: translate(-50%, -50%); border:5px solid black"">","","","","","","","",""
"","5526.5350000117905","sequential-stimulus-presentation-old","69","448761","0.0-19.0-1.1","SS1618365786262","trial","","40","500","6026.5350000117905","images/stimuli/spore_stims/complex_15_A_a.gif","images/stimuli/spore_stims/complex_19_A_b.gif","self_paced","","5","complex_dissimilar","images/stimuli/spore_stims/complex_19_A_b.gif","","","","",""
"","null","html-keyboard-response","70","449761","0.0-19.0-0.2","SS1618365786262","","","null","","","","","","<p><img src= images/blank.png width =""600"" height = ""600"" style=""position:fixed;top:50%; left:50%; transform: translate(-50%, -50%); border:5px solid black"">","","","","","","","",""
"","6350.6950000301","sequential-stimulus-presentation-old","71","456627","0.0-19.0-1.2","SS1618365786262","trial","","40","500","6850.6950000301","images/stimuli/spore_stims/complex_15_A_a.gif","images/stimuli/spore_stims/complex_19_A_b.gif","self_paced","","5","complex_dissimilar","images/stimuli/spore_stims/complex_19_A_b.gif","","","","",""
"","null","html-keyboard-response","72","457839","0.0-19.0-0.3","SS1618365786262","","","null","","","","","","<p><img src= images/blank.png width =""600"" height = ""600"" style=""position:fixed;top:50%; left:50%; transform: translate(-50%, -50%); border:5px solid black"">","","","","","","","",""
"","4483.3000000217","sequential-stimulus-presentation-old","73","462832","0.0-19.0-1.3","SS1618365786262","trial","","40","500","4983.3000000217","images/stimuli/spore_stims/complex_15_A_a.gif","images/stimuli/spore_stims/complex_19_A_b.gif","self_paced","","5","complex_dissimilar","images/stimuli/spore_stims/complex_19_A_b.gif","","","","",""
"","null","html-keyboard-response","74","463864","0.0-19.0-0.4","SS1618365786262","","","null","","","","","","<p><img src= images/blank.png width =""600"" height = ""600"" style=""position:fixed;top:50%; left:50%; transform: translate(-50%, -50%); border:5px solid black"">","","","","","","","",""
"","3544.080000021495","sequential-stimulus-presentation-old","75","467924","0.0-19.0-1.4","SS1618365786262","trial","","40","500","4044.080000021495","images/stimuli/spore_stims/complex_15_A_a.gif","images/stimuli/spore_stims/complex_19_A_b.gif","self_paced","","5","complex_dissimilar","images/stimuli/spore_stims/complex_19_A_b.gif","","","","",""
"","3413.5999999707565","survey-multi-choice","76","471342","0.0-20.0","SS1618365786262","math_question","","","","","","","","","","","","{""Q0"":""9""}","[0]","9","",""
"","null","html-keyboard-response","77","472201","0.0-21.0-0.0","SS1618365786262","","","null","","","","","","<p><img src= images/blank.png width =""600"" height = ""600"" style=""position:fixed;top:50%; left:50%; transform: translate(-50%, -50%); border:5px solid black"">","","","","","","","",""
"","1491.3749999832362","sequential-stimulus-presentation-old","78","473757","0.0-21.0-1.0","SS1618365786262","trial","","40","500","1991.3749999832362","images/stimuli/spore_stims/complex_01_A_a.gif","images/stimuli/spore_stims/complex_20_A_b.gif","forced_short","","6","complex_dissimilar","images/stimuli/spore_stims/complex_20_A_b.gif","","","","",""
"","null","html-keyboard-response","79","474748","0.0-21.0-0.1","SS1618365786262","","","null","","","","","","<p><img src= images/blank.png width =""600"" height = ""600"" style=""position:fixed;top:50%; left:50%; transform: translate(-50%, -50%); border:5px solid black"">","","","","","","","",""
"","5758.425000007264","sequential-stimulus-presentation-old","80","481022","0.0-21.0-1.1","SS1618365786262","trial","","40","500","6258.425000007264","images/stimuli/spore_stims/complex_01_A_a.gif","images/stimuli/spore_stims/complex_20_A_b.gif","forced_short","","6","complex_dissimilar","images/stimuli/spore_stims/complex_20_A_b.gif","","","","",""
"","null","html-keyboard-response","81","482031","0.0-21.0-0.2","SS1618365786262","","","null","","","","","","<p><img src= images/blank.png width =""600"" height = ""600"" style=""position:fixed;top:50%; left:50%; transform: translate(-50%, -50%); border:5px solid black"">","","","","","","","",""
"","6226.419999962673","sequential-stimulus-presentation-old","82","488769","0.0-21.0-1.2","SS1618365786262","trial","","40","500","6726.419999962673","images/stimuli/spore_stims/complex_01_A_a.gif","images/stimuli/spore_stims/complex_20_A_b.gif","forced_short","","6","complex_dissimilar","images/stimuli/spore_stims/complex_01_A_a.gif","","","","",""
"","null","html-keyboard-response","83","489952","0.0-21.0-0.3","SS1618365786262","","","null","","","","","","<p><img src= images/blank.png width =""600"" height = ""600"" style=""position:fixed;top:50%; left:50%; transform: translate(-50%, -50%); border:5px solid black"">","","","","","","","",""
"","5372.105000016745","sequential-stimulus-presentation-old","84","495837","0.0-21.0-1.3","SS1618365786262","trial","","40","500","5872.105000016745","images/stimuli/spore_stims/complex_01_A_a.gif","images/stimuli/spore_stims/complex_20_A_b.gif","forced_short","","6","complex_dissimilar","images/stimuli/spore_stims/complex_20_A_b.gif","","","","",""
"","null","html-keyboard-response","85","496796","0.0-21.0-0.4","SS1618365786262","","","null","","","","","","<p><img src= images/blank.png width =""600"" height = ""600"" style=""position:fixed;top:50%; left:50%; transform: translate(-50%, -50%); border:5px solid black"">","","","","","","","",""
"","5720.604999980424","sequential-stimulus-presentation-old","86","503023","0.0-21.0-1.4","SS1618365786262","trial","","40","500","6220.604999980424","images/stimuli/spore_stims/complex_01_A_a.gif","images/stimuli/spore_stims/complex_20_A_b.gif","forced_short","","6","complex_dissimilar","images/stimuli/spore_stims/complex_20_A_b.gif","","","","",""
"","4382.704999996349","survey-multi-choice","87","507411","0.0-22.0","SS1618365786262","math_question","","","","","","","","","","","","{""Q0"":""7""}","[0]","7","",""
"","null","html-keyboard-response","88","508358","0.0-23.0-0.0","SS1618365786262","","","null","","","","","","<p><img src= images/blank.png width =""600"" height = ""600"" style=""position:fixed;top:50%; left:50%; transform: translate(-50%, -50%); border:5px solid black"">","","","","","","","",""
"","2535.8699999633245","sequential-stimulus-presentation-old","89","515901","0.0-23.0-1.0","SS1618365786262","trial","","40","500","3035.8699999633245","images/stimuli/spore_stims/simple_01_A_a.gif","images/stimuli/spore_stims/simple_04_A_b.gif","forced_long","","7","simple_dissimilar","images/stimuli/spore_stims/simple_04_A_b.gif","","","","",""
"","null","html-keyboard-response","90","517022","0.0-23.0-0.1","SS1618365786262","","","null","","","","","","<p><img src= images/blank.png width =""600"" height = ""600"" style=""position:fixed;top:50%; left:50%; transform: translate(-50%, -50%); border:5px solid black"">","","","","","","","",""
"","7071.649999998044","sequential-stimulus-presentation-old","91","524611","0.0-23.0-1.1","SS1618365786262","trial","","40","500","7571.649999998044","images/stimuli/spore_stims/simple_01_A_a.gif","images/stimuli/spore_stims/simple_04_A_b.gif","forced_long","","7","simple_dissimilar","images/stimuli/spore_stims/simple_04_A_b.gif","","","","",""
"","null","html-keyboard-response","92","525524","0.0-23.0-0.2","SS1618365786262","","","null","","","","","","<p><img src= images/blank.png width =""600"" height = ""600"" style=""position:fixed;top:50%; left:50%; transform: translate(-50%, -50%); border:5px solid black"">","","","","","","","",""
"","5601.059999957215","sequential-stimulus-presentation-old","93","531641","0.0-23.0-1.2","SS1618365786262","trial","","40","500","6101.059999957215","images/stimuli/spore_stims/simple_01_A_a.gif","images/stimuli/spore_stims/simple_04_A_b.gif","forced_long","","7","simple_dissimilar","images/stimuli/spore_stims/simple_01_A_a.gif","","","","",""
"","null","html-keyboard-response","94","532538","0.0-23.0-0.3","SS1618365786262","","","null","","","","","","<p><img src= images/blank.png width =""600"" height = ""600"" style=""position:fixed;top:50%; left:50%; transform: translate(-50%, -50%); border:5px solid black"">","","","","","","","",""
"","4811.385000008158","sequential-stimulus-presentation-old","95","537864","0.0-23.0-1.3","SS1618365786262","trial","","40","500","5311.385000008158","images/stimuli/spore_stims/simple_01_A_a.gif","images/stimuli/spore_stims/simple_04_A_b.gif","forced_long","","7","simple_dissimilar","images/stimuli/spore_stims/simple_04_A_b.gif","","","","",""
"","null","html-keyboard-response","96","538988","0.0-23.0-0.4","SS1618365786262","","","null","","","","","","<p><img src= images/blank.png width =""600"" height = ""600"" style=""position:fixed;top:50%; left:50%; transform: translate(-50%, -50%); border:5px solid black"">","","","","","","","",""
"","3983.47500001546","sequential-stimulus-presentation-old","97","543480","0.0-23.0-1.4","SS1618365786262","trial","","40","500","4483.47500001546","images/stimuli/spore_stims/simple_01_A_a.gif","images/stimuli/spore_stims/simple_04_A_b.gif","forced_long","","7","simple_dissimilar","images/stimuli/spore_stims/simple_04_A_b.gif","","","","",""
"","null","html-keyboard-response","98","544499","0.0-23.0-0.5","SS1618365786262","","","null","","","","","","<p><img src= images/blank.png width =""600"" height = ""600"" style=""position:fixed;top:50%; left:50%; transform: translate(-50%, -50%); border:5px solid black"">","","","","","","","",""
"","7766.585000033956","sequential-stimulus-presentation-old","99","552780","0.0-23.0-1.5","SS1618365786262","trial","","40","500","8266.585000033956","images/stimuli/spore_stims/simple_01_A_a.gif","images/stimuli/spore_stims/simple_04_A_b.gif","forced_long","","7","simple_dissimilar","images/stimuli/spore_stims/simple_01_A_a.gif","","","","",""
"","3726.005000004079","survey-multi-choice","100","556511","0.0-24.0","SS1618365786262","math_question","","","","","","","","","","","","{""Q0"":""10""}","[0]","10","",""
"","null","html-keyboard-response","101","557531","0.0-25.0-0.0","SS1618365786262","","","null","","","","","","<p><img src= images/blank.png width =""600"" height = ""600"" style=""position:fixed;top:50%; left:50%; transform: translate(-50%, -50%); border:5px solid black"">","","","","","","","",""
"","1951.9599999766797","sequential-stimulus-presentation-old","102","564496","0.0-25.0-1.0","SS1618365786262","trial","","40","500","2451.9599999766797","images/stimuli/spore_stims/complex_05_A_b.gif","images/stimuli/spore_stims/complex_04_A_a.gif","forced_long","","8","complex_dissimilar","images/stimuli/spore_stims/complex_04_A_a.gif","","","","",""
"","null","html-keyboard-response","103","565479","0.0-25.0-0.1","SS1618365786262","","","null","","","","","","<p><img src= images/blank.png width =""600"" height = ""600"" style=""position:fixed;top:50%; left:50%; transform: translate(-50%, -50%); border:5px solid black"">","","","","","","","",""
"","4931.0849999892525","sequential-stimulus-presentation-old","104","570924","0.0-25.0-1.1","SS1618365786262","trial","","40","500","5431.0849999892525","images/stimuli/spore_stims/complex_05_A_b.gif","images/stimuli/spore_stims/complex_04_A_a.gif","forced_long","","8","complex_dissimilar","images/stimuli/spore_stims/complex_04_A_a.gif","","","","",""
"","null","html-keyboard-response","105","572068","0.0-25.0-0.2","SS1618365786262","","","null","","","","","","<p><img src= images/blank.png width =""600"" height = ""600"" style=""position:fixed;top:50%; left:50%; transform: translate(-50%, -50%); border:5px solid black"">","","","","","","","",""
"","4279.3849999434315","sequential-stimulus-presentation-old","106","576858","0.0-25.0-1.2","SS1618365786262","trial","","40","500","4779.3849999434315","images/stimuli/spore_stims/complex_05_A_b.gif","images/stimuli/spore_stims/complex_04_A_a.gif","forced_long","","8","complex_dissimilar","images/stimuli/spore_stims/complex_05_A_b.gif","","","","",""
"","null","html-keyboard-response","107","578166","0.0-25.0-0.3","SS1618365786262","","","null","","","","","","<p><img src= images/blank.png width =""600"" height = ""600"" style=""position:fixed;top:50%; left:50%; transform: translate(-50%, -50%); border:5px solid black"">","","","","","","","",""
"","5713.240000011865","sequential-stimulus-presentation-old","108","584393","0.0-25.0-1.3","SS1618365786262","trial","","40","500","6213.240000011865","images/stimuli/spore_stims/complex_05_A_b.gif","images/stimuli/spore_stims/complex_04_A_a.gif","forced_long","","8","complex_dissimilar","images/stimuli/spore_stims/complex_04_A_a.gif","","","","",""
"","null","html-keyboard-response","109","585301","0.0-25.0-0.4","SS1618365786262","","","null","","","","","","<p><img src= images/blank.png width =""600"" height = ""600"" style=""position:fixed;top:50%; left:50%; transform: translate(-50%, -50%); border:5px solid black"">","","","","","","","",""
"","6785.525000013877","sequential-stimulus-presentation-old","110","592600","0.0-25.0-1.4","SS1618365786262","trial","","40","500","7285.525000013877","images/stimuli/spore_stims/complex_05_A_b.gif","images/stimuli/spore_stims/complex_04_A_a.gif","forced_long","","8","complex_dissimilar","images/stimuli/spore_stims/complex_04_A_a.gif","","","","",""
"","null","html-keyboard-response","111","593656","0.0-25.0-0.5","SS1618365786262","","","null","","","","","","<p><img src= images/blank.png width =""600"" height = ""600"" style=""position:fixed;top:50%; left:50%; transform: translate(-50%, -50%); border:5px solid black"">","","","","","","","",""
"","6774.054999987129","sequential-stimulus-presentation-old","112","600946","0.0-25.0-1.5","SS1618365786262","trial","","40","500","7274.054999987129","images/stimuli/spore_stims/complex_05_A_b.gif","images/stimuli/spore_stims/complex_04_A_a.gif","forced_long","","8","complex_dissimilar","images/stimuli/spore_stims/complex_05_A_b.gif","","","","",""
"","2809.964999963995","survey-multi-choice","113","603763","0.0-26.0","SS1618365786262","math_question","","","","","","","","","","","","{""Q0"":""9""}","[0]","9","",""
"","null","html-keyboard-response","114","604859","0.0-27.0-0.0","SS1618365786262","","","null","","","","","","<p><img src= images/blank.png width =""600"" height = ""600"" style=""position:fixed;top:50%; left:50%; transform: translate(-50%, -50%); border:5px solid black"">","","","","","","","",""
"","2737.685000000056","sequential-stimulus-presentation-old","115","607664","0.0-27.0-1.0","SS1618365786262","trial","","40","500","3237.685000000056","images/stimuli/spore_stims/simple_06_A_b.gif","images/stimuli/spore_stims/simple_20_A_a.gif","forced_short","","9","simple_dissimilar","images/stimuli/spore_stims/simple_20_A_a.gif","","","","",""
"","null","html-keyboard-response","116","608816","0.0-27.0-0.1","SS1618365786262","","","null","","","","","","<p><img src= images/blank.png width =""600"" height = ""600"" style=""position:fixed;top:50%; left:50%; transform: translate(-50%, -50%); border:5px solid black"">","","","","","","","",""
"","6244.969999999739","sequential-stimulus-presentation-old","117","615571","0.0-27.0-1.1","SS1618365786262","trial","","40","500","6744.969999999739","images/stimuli/spore_stims/simple_06_A_b.gif","images/stimuli/spore_stims/simple_20_A_a.gif","forced_short","","9","simple_dissimilar","images/stimuli/spore_stims/simple_20_A_a.gif","","","","",""
"","null","html-keyboard-response","118","616802","0.0-27.0-0.2","SS1618365786262","","","null","","","","","","<p><img src= images/blank.png width =""600"" height = ""600"" style=""position:fixed;top:50%; left:50%; transform: translate(-50%, -50%); border:5px solid black"">","","","","","","","",""
"","7941.709999984596","sequential-stimulus-presentation-old","119","625259","0.0-27.0-1.2","SS1618365786262","trial","","40","500","8441.709999984596","images/stimuli/spore_stims/simple_06_A_b.gif","images/stimuli/spore_stims/simple_20_A_a.gif","forced_short","","9","simple_dissimilar","images/stimuli/spore_stims/simple_20_A_a.gif","","","","",""
"","null","html-keyboard-response","120","626221","0.0-27.0-0.3","SS1618365786262","","","null","","","","","","<p><img src= images/blank.png width =""600"" height = ""600"" style=""position:fixed;top:50%; left:50%; transform: translate(-50%, -50%); border:5px solid black"">","","","","","","","",""
"","6442.8149999585","sequential-stimulus-presentation-old","121","633175","0.0-27.0-1.3","SS1618365786262","trial","","40","500","6942.8149999585","images/stimuli/spore_stims/simple_06_A_b.gif","images/stimuli/spore_stims/simple_20_A_a.gif","forced_short","","9","simple_dissimilar","images/stimuli/spore_stims/simple_20_A_a.gif","","","","",""
"","2506.924999994226","survey-multi-choice","122","635688","0.0-28.0","SS1618365786262","math_question","","","","","","","","","","","","{""Q0"":""10""}","[0]","10","",""
"","null","html-keyboard-response","123","636555","0.0-29.0-0.0","SS1618365786262","","","null","","","","","","<p><img src= images/blank.png width =""600"" height = ""600"" style=""position:fixed;top:50%; left:50%; transform: translate(-50%, -50%); border:5px solid black"">","","","","","","","",""
"","774.5399999548681","sequential-stimulus-presentation-old","124","642340","0.0-29.0-1.0","SS1618365786262","trial","","40","500","1274.539999954868","images/stimuli/spore_stims/simple_11_A_b.gif","images/stimuli/spore_stims/simple_08_A_a.gif","forced_long","","10","simple_dissimilar","images/stimuli/spore_stims/simple_08_A_a.gif","","","","",""
"","null","html-keyboard-response","125","643246","0.0-29.0-0.1","SS1618365786262","","","null","","","","","","<p><img src= images/blank.png width =""600"" height = ""600"" style=""position:fixed;top:50%; left:50%; transform: translate(-50%, -50%); border:5px solid black"">","","","","","","","",""
"","2450.6749999709427","sequential-stimulus-presentation-old","126","646208","0.0-29.0-1.1","SS1618365786262","trial","","40","500","2950.6749999709427","images/stimuli/spore_stims/simple_11_A_b.gif","images/stimuli/spore_stims/simple_08_A_a.gif","forced_long","","10","simple_dissimilar","images/stimuli/spore_stims/simple_08_A_a.gif","","","","",""
"","null","html-keyboard-response","127","647058","0.0-29.0-0.2","SS1618365786262","","","null","","","","","","<p><img src= images/blank.png width =""600"" height = ""600"" style=""position:fixed;top:50%; left:50%; transform: translate(-50%, -50%); border:5px solid black"">","","","","","","","",""
"","1266.689999960363","sequential-stimulus-presentation-old","128","648831","0.0-29.0-1.2","SS1618365786262","trial","","40","500","1766.689999960363","images/stimuli/spore_stims/simple_11_A_b.gif","images/stimuli/spore_stims/simple_08_A_a.gif","forced_long","","10","simple_dissimilar","images/stimuli/spore_stims/simple_08_A_a.gif","","","","",""
"","null","html-keyboard-response","129","650009","0.0-29.0-0.3","SS1618365786262","","","null","","","","","","<p><img src= images/blank.png width =""600"" height = ""600"" style=""position:fixed;top:50%; left:50%; transform: translate(-50%, -50%); border:5px solid black"">","","","","","","","",""
"","2603.334999992512","sequential-stimulus-presentation-old","130","653124","0.0-29.0-1.3","SS1618365786262","trial","","40","500","3103.334999992512","images/stimuli/spore_stims/simple_11_A_b.gif","images/stimuli/spore_stims/simple_08_A_a.gif","forced_long","","10","simple_dissimilar","images/stimuli/spore_stims/simple_08_A_a.gif","","","","",""
"","3915.320000029169","survey-multi-choice","131","657046","0.0-30.0","SS1618365786262","math_question","","","","","","","","","","","","{""Q0"":""8""}","[0]","8","",""
"","null","html-keyboard-response","132","658059","0.0-31.0-0.0","SS1618365786262","","","null","","","","","","<p><img src= images/blank.png width =""600"" height = ""600"" style=""position:fixed;top:50%; left:50%; transform: translate(-50%, -50%); border:5px solid black"">","","","","","","","",""
"","1577.1350000286475","sequential-stimulus-presentation-old","133","659701","0.0-31.0-1.0","SS1618365786262","trial","","40","500","2077.1350000286475","images/stimuli/spore_stims/complex_06_A_a.gif","images/stimuli/spore_stims/complex_17_A_b.gif","forced_short","","11","complex_dissimilar","images/stimuli/spore_stims/complex_17_A_b.gif","","","","",""
"","null","html-keyboard-response","134","660520","0.0-31.0-0.1","SS1618365786262","","","null","","","","","","<p><img src= images/blank.png width =""600"" height = ""600"" style=""position:fixed;top:50%; left:50%; transform: translate(-50%, -50%); border:5px solid black"">","","","","","","","",""
"","1507.819999998901","sequential-stimulus-presentation-old","135","662541","0.0-31.0-1.1","SS1618365786262","trial","","40","500","2007.819999998901","images/stimuli/spore_stims/complex_06_A_a.gif","images/stimuli/spore_stims/complex_17_A_b.gif","forced_short","","11","complex_dissimilar","images/stimuli/spore_stims/complex_17_A_b.gif","","","","",""
"","null","html-keyboard-response","136","663459","0.0-31.0-0.2","SS1618365786262","","","null","","","","","","<p><img src= images/blank.png width =""600"" height = ""600"" style=""position:fixed;top:50%; left:50%; transform: translate(-50%, -50%); border:5px solid black"">","","","","","","","",""
"","1063.2900000200607","sequential-stimulus-presentation-old","137","665038","0.0-31.0-1.2","SS1618365786262","trial","","40","500","1563.2900000200607","images/stimuli/spore_stims/complex_06_A_a.gif","images/stimuli/spore_stims/complex_17_A_b.gif","forced_short","","11","complex_dissimilar","images/stimuli/spore_stims/complex_17_A_b.gif","","","","",""
"","null","html-keyboard-response","138","666036","0.0-31.0-0.3","SS1618365786262","","","null","","","","","","<p><img src= images/blank.png width =""600"" height = ""600"" style=""position:fixed;top:50%; left:50%; transform: translate(-50%, -50%); border:5px solid black"">","","","","","","","",""
"","3133.3449999801815","sequential-stimulus-presentation-old","139","669681","0.0-31.0-1.3","SS1618365786262","trial","","40","500","3633.3449999801815","images/stimuli/spore_stims/complex_06_A_a.gif","images/stimuli/spore_stims/complex_17_A_b.gif","forced_short","","11","complex_dissimilar","images/stimuli/spore_stims/complex_06_A_a.gif","","","","",""
"[{""page_index"":0,""viewing_time"":5167.220000002999}]","5167.684999993071","instructions","140","674854","0.0-32.0","SS1618365786262","instructions","","","","","","","","","","","","","","","",""
"","9358.05000003893","survey-likert","141","684220","0.0-33.0","SS1618365786262","similarity_question","","","","","","","","","","","","{""Q0"":0}","[0]","","images/stimuli/spore_stims/complex_05_A_b.gif","images/stimuli/spore_stims/complex_04_A_a.gif"
"","6013.789999997243","survey-likert","142","690248","0.0-34.0","SS1618365786262","similarity_question","","","","","","","","","","","","{""Q0"":4}","[0]","","images/stimuli/spore_stims/simple_06_A_b.gif","images/stimuli/spore_stims/simple_20_A_a.gif"
"","8079.3200000189245","survey-likert","143","698342","0.0-35.0","SS1618365786262","similarity_question","","","","","","","","","","","","{""Q0"":0}","[0]","","images/stimuli/spore_stims/complex_20_A_b.gif","images/stimuli/spore_stims/complex_01_A_a.gif"
"","11318.414999986999","survey-likert","144","709675","0.0-36.0","SS1618365786262","similarity_question","","","","","","","","","","","","{""Q0"":1}","[0]","","images/stimuli/spore_stims/complex_11_A_b.gif","images/stimuli/spore_stims/complex_07_A_a.gif"
"","5650.3450000309385","survey-likert","145","715340","0.0-37.0","SS1618365786262","similarity_question","","","","","","","","","","","","{""Q0"":0}","[0]","","images/stimuli/spore_stims/complex_19_A_b.gif","images/stimuli/spore_stims/complex_15_A_a.gif"
"","18405.295000004116","survey-likert","146","733761","0.0-38.0","SS1618365786262","similarity_question","","","","","","","","","","","","{""Q0"":2}","[0]","","images/stimuli/spore_stims/simple_04_A_b.gif","images/stimuli/spore_stims/simple_01_A_a.gif"
"","7007.700000016484","survey-likert","147","740779","0.0-39.0","SS1618365786262","similarity_question","","","","","","","","","","","","{""Q0"":2}","[0]","","images/stimuli/spore_stims/simple_08_A_a.gif","images/stimuli/spore_stims/simple_11_A_b.gif"
"","8135.705000022426","survey-likert","148","748927","0.0-40.0","SS1618365786262","similarity_question","","","","","","","","","","","","{""Q0"":4}","[0]","","images/stimuli/spore_stims/complex_06_A_a.gif","images/stimuli/spore_stims/complex_17_A_b.gif"
"","7783.51500001736","survey-likert","149","756726","0.0-41.0","SS1618365786262","similarity_question","","","","","","","","","","","","{""Q0"":2}","[0]","","images/stimuli/spore_stims/simple_07_A_b.gif","images/stimuli/spore_stims/simple_14_A_a.gif"
"","5641.145000001416","survey-likert","150","762383","0.0-42.0","SS1618365786262","similarity_question","","","","","","","","","","","","{""Q0"":1}","[0]","","images/stimuli/spore_stims/simple_05_A_b.gif","images/stimuli/spore_stims/simple_13_A_a.gif"
"","6969.990000012331","survey-likert","151","769368","0.0-43.0","SS1618365786262","similarity_question","","","","","","","","","","","","{""Q0"":0}","[0]","","images/stimuli/spore_stims/complex_16_A_b.gif","images/stimuli/spore_stims/complex_18_A_a.gif"
"","4292.08500002278","survey-likert","152","773673","0.0-44.0","SS1618365786262","similarity_question","","","","","","","","","","","","{""Q0"":4}","[0]","","images/stimuli/spore_stims/simple_07_A_a.gif","images/stimuli/spore_stims/simple_20_A_b.gif"
"[{""page_index"":0,""viewing_time"":4927.465000015218}]","4927.905000047758","instructions","153","778616","0.0-45.0","SS1618365786262","instructions","","","","","","","","","","","","","","","",""
"","15694.774999981746","survey-likert","154","794317","0.0-46.0","SS1618365786262","","","","","","","","","images/stimuli/spore_stims/complex_04_A_a.gif","","","","{""Q0"":4}","[0]","","",""
"","12329.254999989644","survey-likert","155","806661","0.0-47.0","SS1618365786262","","","","","","","","","images/stimuli/spore_stims/complex_15_A_a.gif","","","","{""Q0"":4}","[0]","","",""
"","8821.480000042357","survey-likert","156","815498","0.0-48.0","SS1618365786262","","","","","","","","","images/stimuli/spore_stims/complex_18_A_a.gif","","","","{""Q0"":5}","[0]","","",""
"","3671.3800000143237","survey-likert","157","819183","0.0-49.0","SS1618365786262","","","","","","","","","images/stimuli/spore_stims/simple_04_A_b.gif","","","","{""Q0"":1}","[0]","","",""
"","5368.900000001304","survey-likert","158","824567","0.0-50.0","SS1618365786262","","","","","","","","","images/stimuli/spore_stims/simple_20_A_b.gif","","","","{""Q0"":2}","[0]","","",""
"","5416.475000034552","survey-likert","159","829997","0.0-51.0","SS1618365786262","","","","","","","","","images/stimuli/spore_stims/complex_06_A_a.gif","","","","{""Q0"":3}","[0]","","",""
"","4498.625000007451","survey-likert","160","834508","0.0-52.0","SS1618365786262","","","","","","","","","images/stimuli/spore_stims/simple_13_A_a.gif","","","","{""Q0"":0}","[0]","","",""
"","8176.8600000068545","survey-likert","161","842700","0.0-53.0","SS1618365786262","","","","","","","","","images/stimuli/spore_stims/complex_01_A_a.gif","","","","{""Q0"":3}","[0]","","",""
"","4276.610000000801","survey-likert","162","846992","0.0-54.0","SS1618365786262","","","","","","","","","images/stimuli/spore_stims/simple_11_A_b.gif","","","","{""Q0"":1}","[0]","","",""
"","4875.155000016093","survey-likert","163","851881","0.0-55.0","SS1618365786262","","","","","","","","","images/stimuli/spore_stims/complex_11_A_b.gif","","","","{""Q0"":4}","[0]","","",""
"","3113.4650000021793","survey-likert","164","855008","0.0-56.0","SS1618365786262","","","","","","","","","images/stimuli/spore_stims/simple_07_A_b.gif","","","","{""Q0"":1}","[0]","","",""
"","3355.799999961164","survey-likert","165","858377","0.0-57.0","SS1618365786262","","","","","","","","","images/stimuli/spore_stims/simple_06_A_b.gif","","","","{""Q0"":1}","[0]","","",""
"[{""page_index"":0,""viewing_time"":2279.6200000448152}]","2279.9700000323355","instructions","166","860667","0.0-58.0","SS1618365786262","instructions","","","","","","","","","","","","","","","",""
"","2410.3699999977835","demog-age","167","863089","0.0-59.0","SS1618365786262","","","","","","","","","","","","","{""age"":""24""}","","","",""
"","4748.059999954421","demog-ethnic-US","168","867848","0.0-60.0","SS1618365786262","","","","","","","","","","","","","{""ethnicity"":[""Hispanic or Latino""]}","[0]","","",""
"","10263.794999977108","demog-gender-and-education","169","878128","0.0-61.0","SS1618365786262","","","","","","","","","","","","","{""gender"":""Male"",""education"":""Bachelor's Degree""}","[0,1]","","",""
"","181734.2700000154","survey-text","170","1059881","0.0-62.0","SS1618365786262","feedback","","","","","","","","","","","","{""Q0"":""All good. Test seems kind of creepy, like if there was a secret code behind. I can also add that all creatures have ressemble in odd way to the male reproductor system.""}","","","",""
"[{""page_index"":0,""viewing_time"":2157.405000005383}]","2157.839999999851","instructions","171","1062045","0.0-63.0","SS1618365786262","instructions","","","","","","","","","","","","","","","",""
