"view_history","rt","trial_type","trial_index","time_elapsed","internal_node_id","subject","stimulus_type","trial_stimulus","key_press","minimum_viewing_duration","trial_looking_time","block_deviant","block_background","exposure_type","stimulus","block_number","block_type","stimulus_displayed","responses","question_order","math_correct_answer","stimulus_left","stimulus_right"
"[{""page_index"":0,""viewing_time"":12002.399999999398}]","12003.969999999754","instructions","0","12007","0.0-0.0","SS1618435714955","","","","","","","","","","","","","","","","",""
"[{""page_index"":0,""viewing_time"":7260.290000000168},{""page_index"":1,""viewing_time"":5550.914999999804}]","12811.934999999721","instructions","1","26824","0.0-1.0","SS1618435714955","instructions","","","","","","","","","","","","","","","",""
"","4504.399999999805","sequential-stimulus-presentation-old","2","31839","0.0-2.0","SS1618435714955","","","40","500","5004.399999999805","null","null","self_paced","","","","","","","","",""
"","3223.7999999997555","sequential-stimulus-presentation-old","3","35572","0.0-3.0","SS1618435714955","","","40","500","3723.7999999997555","null","null","self_paced","","","","","","","","",""
"[{""page_index"":0,""viewing_time"":8626.099999999497}]","8626.589999999851","instructions","4","44201","0.0-4.0","SS1618435714955","instructions","","","","","","","","","","","","","","","",""
"","1287.5599999997503","sequential-stimulus-presentation-old","5","50494","0.0-5.0","SS1618435714955","","","40","500","1787.5599999997503","null","null","forced_long","","","","","","","","",""
"","3503.2950000004203","sequential-stimulus-presentation-old","6","54052","0.0-6.0","SS1618435714955","","","40","50","3553.2950000004203","null","null","forced_long","","","","","","","","",""
"[{""page_index"":0,""viewing_time"":3652.80999999959}]","3653.449999999779","instructions","7","57710","0.0-7.0","SS1618435714955","instructions","","","","","","","","","","","","","","","",""
"[{""page_index"":0,""viewing_time"":4613.330000000133},{""page_index"":1,""viewing_time"":2394.3549999994575},{""page_index"":2,""viewing_time"":2372.1350000005186},{""page_index"":3,""viewing_time"":1584.7899999998772},{""page_index"":4,""viewing_time"":983.3249999992549}]","11948.994999999733","instructions","8","69670","0.0-8.0","SS1618435714955","instructions","","","","","","","","","","","","","","","",""
"","null","html-keyboard-response","9","70573","0.0-9.0-0.0","SS1618435714955","","","null","","","","","","<p><img src= images/blank.png width =""600"" height = ""600"" style=""position:fixed;top:50%; left:50%; transform: translate(-50%, -50%); border:5px solid black"">","","","","","","","",""
"","6498.365000000369","sequential-stimulus-presentation-old","10","77586","0.0-9.0-1.0","SS1618435714955","trial","","40","500","6998.365000000369","images/stimuli/spore_stims/simple_04_A_b.gif","images/stimuli/spore_stims/simple_11_A_a.gif","self_paced","","0","simple_dissimilar","images/stimuli/spore_stims/simple_11_A_a.gif","","","","",""
"","null","html-keyboard-response","11","78846","0.0-9.0-0.1","SS1618435714955","","","null","","","","","","<p><img src= images/blank.png width =""600"" height = ""600"" style=""position:fixed;top:50%; left:50%; transform: translate(-50%, -50%); border:5px solid black"">","","","","","","","",""
"","4489.160000000076","sequential-stimulus-presentation-old","12","83844","0.0-9.0-1.1","SS1618435714955","trial","","40","500","4989.160000000076","images/stimuli/spore_stims/simple_04_A_b.gif","images/stimuli/spore_stims/simple_11_A_a.gif","self_paced","","0","simple_dissimilar","images/stimuli/spore_stims/simple_04_A_b.gif","","","","",""
"","null","html-keyboard-response","13","84964","0.0-9.0-0.2","SS1618435714955","","","null","","","","","","<p><img src= images/blank.png width =""600"" height = ""600"" style=""position:fixed;top:50%; left:50%; transform: translate(-50%, -50%); border:5px solid black"">","","","","","","","",""
"","6171.850000000632","sequential-stimulus-presentation-old","14","91640","0.0-9.0-1.2","SS1618435714955","trial","","40","500","6671.850000000632","images/stimuli/spore_stims/simple_04_A_b.gif","images/stimuli/spore_stims/simple_11_A_a.gif","self_paced","","0","simple_dissimilar","images/stimuli/spore_stims/simple_11_A_a.gif","","","","",""
"","null","html-keyboard-response","15","92626","0.0-9.0-0.3","SS1618435714955","","","null","","","","","","<p><img src= images/blank.png width =""600"" height = ""600"" style=""position:fixed;top:50%; left:50%; transform: translate(-50%, -50%); border:5px solid black"">","","","","","","","",""
"","7015.760000000228","sequential-stimulus-presentation-old","16","100147","0.0-9.0-1.3","SS1618435714955","trial","","40","500","7515.760000000228","images/stimuli/spore_stims/simple_04_A_b.gif","images/stimuli/spore_stims/simple_11_A_a.gif","self_paced","","0","simple_dissimilar","images/stimuli/spore_stims/simple_11_A_a.gif","","","","",""
"","null","html-keyboard-response","17","101029","0.0-9.0-0.4","SS1618435714955","","","null","","","","","","<p><img src= images/blank.png width =""600"" height = ""600"" style=""position:fixed;top:50%; left:50%; transform: translate(-50%, -50%); border:5px solid black"">","","","","","","","",""
"","2879.6199999997043","sequential-stimulus-presentation-old","18","104422","0.0-9.0-1.4","SS1618435714955","trial","","40","500","3379.6199999997043","images/stimuli/spore_stims/simple_04_A_b.gif","images/stimuli/spore_stims/simple_11_A_a.gif","self_paced","","0","simple_dissimilar","images/stimuli/spore_stims/simple_11_A_a.gif","","","","",""
"","null","html-keyboard-response","19","105285","0.0-9.0-0.5","SS1618435714955","","","null","","","","","","<p><img src= images/blank.png width =""600"" height = ""600"" style=""position:fixed;top:50%; left:50%; transform: translate(-50%, -50%); border:5px solid black"">","","","","","","","",""
"","14530.804999999411","sequential-stimulus-presentation-old","20","120337","0.0-9.0-1.5","SS1618435714955","trial","","40","500","15030.804999999411","images/stimuli/spore_stims/simple_04_A_b.gif","images/stimuli/spore_stims/simple_11_A_a.gif","self_paced","","0","simple_dissimilar","images/stimuli/spore_stims/simple_04_A_b.gif","","","","",""
"","3463.7600000005623","survey-multi-choice","21","123808","0.0-10.0","SS1618435714955","math_question","","","","","","","","","","","","{""Q0"":""13""}","[0]","13","",""
"","null","html-keyboard-response","22","124985","0.0-11.0-0.0","SS1618435714955","","","null","","","","","","<p><img src= images/blank.png width =""600"" height = ""600"" style=""position:fixed;top:50%; left:50%; transform: translate(-50%, -50%); border:5px solid black"">","","","","","","","",""
"","12092.109999999608","sequential-stimulus-presentation-old","23","137591","0.0-11.0-1.0","SS1618435714955","trial","","40","500","12592.109999999608","images/stimuli/spore_stims/complex_10_A_a.gif","images/stimuli/spore_stims/complex_19_A_b.gif","self_paced","","1","complex_dissimilar","images/stimuli/spore_stims/complex_19_A_b.gif","","","","",""
"","null","html-keyboard-response","24","138832","0.0-11.0-0.1","SS1618435714955","","","null","","","","","","<p><img src= images/blank.png width =""600"" height = ""600"" style=""position:fixed;top:50%; left:50%; transform: translate(-50%, -50%); border:5px solid black"">","","","","","","","",""
"","6917.544999999343","sequential-stimulus-presentation-old","25","146265","0.0-11.0-1.1","SS1618435714955","trial","","40","500","7417.544999999343","images/stimuli/spore_stims/complex_10_A_a.gif","images/stimuli/spore_stims/complex_19_A_b.gif","self_paced","","1","complex_dissimilar","images/stimuli/spore_stims/complex_19_A_b.gif","","","","",""
"","null","html-keyboard-response","26","147288","0.0-11.0-0.2","SS1618435714955","","","null","","","","","","<p><img src= images/blank.png width =""600"" height = ""600"" style=""position:fixed;top:50%; left:50%; transform: translate(-50%, -50%); border:5px solid black"">","","","","","","","",""
"","5579.380000000121","sequential-stimulus-presentation-old","27","153377","0.0-11.0-1.2","SS1618435714955","trial","","40","500","6079.380000000121","images/stimuli/spore_stims/complex_10_A_a.gif","images/stimuli/spore_stims/complex_19_A_b.gif","self_paced","","1","complex_dissimilar","images/stimuli/spore_stims/complex_10_A_a.gif","","","","",""
"","null","html-keyboard-response","28","154652","0.0-11.0-0.3","SS1618435714955","","","null","","","","","","<p><img src= images/blank.png width =""600"" height = ""600"" style=""position:fixed;top:50%; left:50%; transform: translate(-50%, -50%); border:5px solid black"">","","","","","","","",""
"","3796.4899999997288","sequential-stimulus-presentation-old","29","158959","0.0-11.0-1.3","SS1618435714955","trial","","40","500","4296.489999999729","images/stimuli/spore_stims/complex_10_A_a.gif","images/stimuli/spore_stims/complex_19_A_b.gif","self_paced","","1","complex_dissimilar","images/stimuli/spore_stims/complex_19_A_b.gif","","","","",""
"","null","html-keyboard-response","30","159788","0.0-11.0-0.4","SS1618435714955","","","null","","","","","","<p><img src= images/blank.png width =""600"" height = ""600"" style=""position:fixed;top:50%; left:50%; transform: translate(-50%, -50%); border:5px solid black"">","","","","","","","",""
"","3228.4100000006147","sequential-stimulus-presentation-old","31","163526","0.0-11.0-1.4","SS1618435714955","trial","","40","500","3728.4100000006147","images/stimuli/spore_stims/complex_10_A_a.gif","images/stimuli/spore_stims/complex_19_A_b.gif","self_paced","","1","complex_dissimilar","images/stimuli/spore_stims/complex_10_A_a.gif","","","","",""
"","null","html-keyboard-response","32","164715","0.0-11.0-0.5","SS1618435714955","","","null","","","","","","<p><img src= images/blank.png width =""600"" height = ""600"" style=""position:fixed;top:50%; left:50%; transform: translate(-50%, -50%); border:5px solid black"">","","","","","","","",""
"","3467.3450000000303","sequential-stimulus-presentation-old","33","168693","0.0-11.0-1.5","SS1618435714955","trial","","40","500","3967.3450000000303","images/stimuli/spore_stims/complex_10_A_a.gif","images/stimuli/spore_stims/complex_19_A_b.gif","self_paced","","1","complex_dissimilar","images/stimuli/spore_stims/complex_19_A_b.gif","","","","",""
"","3656.8699999997916","survey-multi-choice","34","172357","0.0-12.0","SS1618435714955","math_question","","","","","","","","","","","","{""Q0"":""12""}","[0]","12","",""
"","null","html-keyboard-response","35","173225","0.0-13.0-0.0","SS1618435714955","","","null","","","","","","<p><img src= images/blank.png width =""600"" height = ""600"" style=""position:fixed;top:50%; left:50%; transform: translate(-50%, -50%); border:5px solid black"">","","","","","","","",""
"","1021.960000000021","sequential-stimulus-presentation-old","36","174317","0.0-13.0-1.0","SS1618435714955","trial","","40","500","1521.960000000021","images/stimuli/spore_stims/complex_19_A_a.gif","images/stimuli/spore_stims/complex_03_A_b.gif","forced_short","","2","complex_dissimilar","images/stimuli/spore_stims/complex_03_A_b.gif","","","","",""
"","null","html-keyboard-response","37","175456","0.0-13.0-0.1","SS1618435714955","","","null","","","","","","<p><img src= images/blank.png width =""600"" height = ""600"" style=""position:fixed;top:50%; left:50%; transform: translate(-50%, -50%); border:5px solid black"">","","","","","","","",""
"","7155.139999999839","sequential-stimulus-presentation-old","38","183124","0.0-13.0-1.1","SS1618435714955","trial","","40","500","7655.139999999839","images/stimuli/spore_stims/complex_19_A_a.gif","images/stimuli/spore_stims/complex_03_A_b.gif","forced_short","","2","complex_dissimilar","images/stimuli/spore_stims/complex_03_A_b.gif","","","","",""
"","null","html-keyboard-response","39","184418","0.0-13.0-0.2","SS1618435714955","","","null","","","","","","<p><img src= images/blank.png width =""600"" height = ""600"" style=""position:fixed;top:50%; left:50%; transform: translate(-50%, -50%); border:5px solid black"">","","","","","","","",""
"","4497.039999999281","sequential-stimulus-presentation-old","40","189432","0.0-13.0-1.2","SS1618435714955","trial","","40","500","4997.039999999281","images/stimuli/spore_stims/complex_19_A_a.gif","images/stimuli/spore_stims/complex_03_A_b.gif","forced_short","","2","complex_dissimilar","images/stimuli/spore_stims/complex_03_A_b.gif","","","","",""
"","null","html-keyboard-response","41","190346","0.0-13.0-0.3","SS1618435714955","","","null","","","","","","<p><img src= images/blank.png width =""600"" height = ""600"" style=""position:fixed;top:50%; left:50%; transform: translate(-50%, -50%); border:5px solid black"">","","","","","","","",""
"","3281.254999999859","sequential-stimulus-presentation-old","42","194149","0.0-13.0-1.3","SS1618435714955","trial","","40","500","3781.254999999859","images/stimuli/spore_stims/complex_19_A_a.gif","images/stimuli/spore_stims/complex_03_A_b.gif","forced_short","","2","complex_dissimilar","images/stimuli/spore_stims/complex_03_A_b.gif","","","","",""
"","2981.914999999397","survey-multi-choice","43","197137","0.0-14.0","SS1618435714955","math_question","","","","","","","","","","","","{""Q0"":""12""}","[0]","12","",""
"","null","html-keyboard-response","44","197952","0.0-15.0-0.0","SS1618435714955","","","null","","","","","","<p><img src= images/blank.png width =""600"" height = ""600"" style=""position:fixed;top:50%; left:50%; transform: translate(-50%, -50%); border:5px solid black"">","","","","","","","",""
"","170.2000000004773","sequential-stimulus-presentation-old","45","203138","0.0-15.0-1.0","SS1618435714955","trial","","40","500","670.2000000004773","images/stimuli/spore_stims/simple_06_A_a.gif","images/stimuli/spore_stims/simple_20_A_b.gif","forced_long","","3","simple_dissimilar","images/stimuli/spore_stims/simple_20_A_b.gif","","","","",""
"","null","html-keyboard-response","46","204220","0.0-15.0-0.1","SS1618435714955","","","null","","","","","","<p><img src= images/blank.png width =""600"" height = ""600"" style=""position:fixed;top:50%; left:50%; transform: translate(-50%, -50%); border:5px solid black"">","","","","","","","",""
"","3407.299999999843","sequential-stimulus-presentation-old","47","208141","0.0-15.0-1.1","SS1618435714955","trial","","40","500","3907.299999999843","images/stimuli/spore_stims/simple_06_A_a.gif","images/stimuli/spore_stims/simple_20_A_b.gif","forced_long","","3","simple_dissimilar","images/stimuli/spore_stims/simple_06_A_a.gif","","","","",""
"","null","html-keyboard-response","48","209130","0.0-15.0-0.2","SS1618435714955","","","null","","","","","","<p><img src= images/blank.png width =""600"" height = ""600"" style=""position:fixed;top:50%; left:50%; transform: translate(-50%, -50%); border:5px solid black"">","","","","","","","",""
"","3176.9450000001525","sequential-stimulus-presentation-old","49","212819","0.0-15.0-1.2","SS1618435714955","trial","","40","500","3676.9450000001525","images/stimuli/spore_stims/simple_06_A_a.gif","images/stimuli/spore_stims/simple_20_A_b.gif","forced_long","","3","simple_dissimilar","images/stimuli/spore_stims/simple_20_A_b.gif","","","","",""
"","null","html-keyboard-response","50","214107","0.0-15.0-0.3","SS1618435714955","","","null","","","","","","<p><img src= images/blank.png width =""600"" height = ""600"" style=""position:fixed;top:50%; left:50%; transform: translate(-50%, -50%); border:5px solid black"">","","","","","","","",""
"","3157.095000000496","sequential-stimulus-presentation-old","51","217778","0.0-15.0-1.3","SS1618435714955","trial","","40","500","3657.095000000496","images/stimuli/spore_stims/simple_06_A_a.gif","images/stimuli/spore_stims/simple_20_A_b.gif","forced_long","","3","simple_dissimilar","images/stimuli/spore_stims/simple_06_A_a.gif","","","","",""
"","4111.7800000001735","survey-multi-choice","52","221895","0.0-16.0","SS1618435714955","math_question","","","","","","","","","","","","{""Q0"":""7""}","[0]","7","",""
"","null","html-keyboard-response","53","222806","0.0-17.0-0.0","SS1618435714955","","","null","","","","","","<p><img src= images/blank.png width =""600"" height = ""600"" style=""position:fixed;top:50%; left:50%; transform: translate(-50%, -50%); border:5px solid black"">","","","","","","","",""
"","701.1400000001304","sequential-stimulus-presentation-old","54","228524","0.0-17.0-1.0","SS1618435714955","trial","","40","500","1201.1400000001304","images/stimuli/spore_stims/complex_11_A_b.gif","images/stimuli/spore_stims/complex_03_A_a.gif","forced_long","","4","complex_dissimilar","images/stimuli/spore_stims/complex_03_A_a.gif","","","","",""
"","null","html-keyboard-response","55","229382","0.0-17.0-0.1","SS1618435714955","","","null","","","","","","<p><img src= images/blank.png width =""600"" height = ""600"" style=""position:fixed;top:50%; left:50%; transform: translate(-50%, -50%); border:5px solid black"">","","","","","","","",""
"","5795.009999999806","sequential-stimulus-presentation-old","56","235689","0.0-17.0-1.1","SS1618435714955","trial","","40","500","6295.009999999806","images/stimuli/spore_stims/complex_11_A_b.gif","images/stimuli/spore_stims/complex_03_A_a.gif","forced_long","","4","complex_dissimilar","images/stimuli/spore_stims/complex_03_A_a.gif","","","","",""
"","null","html-keyboard-response","57","236791","0.0-17.0-0.2","SS1618435714955","","","null","","","","","","<p><img src= images/blank.png width =""600"" height = ""600"" style=""position:fixed;top:50%; left:50%; transform: translate(-50%, -50%); border:5px solid black"">","","","","","","","",""
"","2306.394999999611","sequential-stimulus-presentation-old","58","239611","0.0-17.0-1.2","SS1618435714955","trial","","40","500","2806.394999999611","images/stimuli/spore_stims/complex_11_A_b.gif","images/stimuli/spore_stims/complex_03_A_a.gif","forced_long","","4","complex_dissimilar","images/stimuli/spore_stims/complex_03_A_a.gif","","","","",""
"","null","html-keyboard-response","59","240718","0.0-17.0-0.3","SS1618435714955","","","null","","","","","","<p><img src= images/blank.png width =""600"" height = ""600"" style=""position:fixed;top:50%; left:50%; transform: translate(-50%, -50%); border:5px solid black"">","","","","","","","",""
"","2714.524999999412","sequential-stimulus-presentation-old","60","243950","0.0-17.0-1.3","SS1618435714955","trial","","40","500","3214.524999999412","images/stimuli/spore_stims/complex_11_A_b.gif","images/stimuli/spore_stims/complex_03_A_a.gif","forced_long","","4","complex_dissimilar","images/stimuli/spore_stims/complex_03_A_a.gif","","","","",""
"","null","html-keyboard-response","61","245063","0.0-17.0-0.4","SS1618435714955","","","null","","","","","","<p><img src= images/blank.png width =""600"" height = ""600"" style=""position:fixed;top:50%; left:50%; transform: translate(-50%, -50%); border:5px solid black"">","","","","","","","",""
"","3446.814999999362","sequential-stimulus-presentation-old","62","249026","0.0-17.0-1.4","SS1618435714955","trial","","40","500","3946.814999999362","images/stimuli/spore_stims/complex_11_A_b.gif","images/stimuli/spore_stims/complex_03_A_a.gif","forced_long","","4","complex_dissimilar","images/stimuli/spore_stims/complex_03_A_a.gif","","","","",""
"","4344.73000000068","survey-multi-choice","63","253375","0.0-18.0","SS1618435714955","math_question","","","","","","","","","","","","{""Q0"":""9""}","[0]","9","",""
"","null","html-keyboard-response","64","254267","0.0-19.0-0.0","SS1618435714955","","","null","","","","","","<p><img src= images/blank.png width =""600"" height = ""600"" style=""position:fixed;top:50%; left:50%; transform: translate(-50%, -50%); border:5px solid black"">","","","","","","","",""
"","596.5150000001886","sequential-stimulus-presentation-old","65","259884","0.0-19.0-1.0","SS1618435714955","trial","","40","500","1096.5150000001886","images/stimuli/spore_stims/simple_14_A_a.gif","images/stimuli/spore_stims/simple_09_A_b.gif","forced_long","","5","simple_dissimilar","images/stimuli/spore_stims/simple_09_A_b.gif","","","","",""
"","null","html-keyboard-response","66","261011","0.0-19.0-0.1","SS1618435714955","","","null","","","","","","<p><img src= images/blank.png width =""600"" height = ""600"" style=""position:fixed;top:50%; left:50%; transform: translate(-50%, -50%); border:5px solid black"">","","","","","","","",""
"","4108.659999999858","sequential-stimulus-presentation-old","67","265634","0.0-19.0-1.1","SS1618435714955","trial","","40","500","4608.659999999858","images/stimuli/spore_stims/simple_14_A_a.gif","images/stimuli/spore_stims/simple_09_A_b.gif","forced_long","","5","simple_dissimilar","images/stimuli/spore_stims/simple_14_A_a.gif","","","","",""
"","null","html-keyboard-response","68","266676","0.0-19.0-0.2","SS1618435714955","","","null","","","","","","<p><img src= images/blank.png width =""600"" height = ""600"" style=""position:fixed;top:50%; left:50%; transform: translate(-50%, -50%); border:5px solid black"">","","","","","","","",""
"","2798.394999999786","sequential-stimulus-presentation-old","69","269995","0.0-19.0-1.2","SS1618435714955","trial","","40","500","3298.394999999786","images/stimuli/spore_stims/simple_14_A_a.gif","images/stimuli/spore_stims/simple_09_A_b.gif","forced_long","","5","simple_dissimilar","images/stimuli/spore_stims/simple_14_A_a.gif","","","","",""
"","null","html-keyboard-response","70","270995","0.0-19.0-0.3","SS1618435714955","","","null","","","","","","<p><img src= images/blank.png width =""600"" height = ""600"" style=""position:fixed;top:50%; left:50%; transform: translate(-50%, -50%); border:5px solid black"">","","","","","","","",""
"","4077.765000000014","sequential-stimulus-presentation-old","71","275587","0.0-19.0-1.3","SS1618435714955","trial","","40","500","4577.765000000014","images/stimuli/spore_stims/simple_14_A_a.gif","images/stimuli/spore_stims/simple_09_A_b.gif","forced_long","","5","simple_dissimilar","images/stimuli/spore_stims/simple_09_A_b.gif","","","","",""
"","null","html-keyboard-response","72","276843","0.0-19.0-0.4","SS1618435714955","","","null","","","","","","<p><img src= images/blank.png width =""600"" height = ""600"" style=""position:fixed;top:50%; left:50%; transform: translate(-50%, -50%); border:5px solid black"">","","","","","","","",""
"","3162.429999999411","sequential-stimulus-presentation-old","73","280527","0.0-19.0-1.4","SS1618435714955","trial","","40","500","3662.429999999411","images/stimuli/spore_stims/simple_14_A_a.gif","images/stimuli/spore_stims/simple_09_A_b.gif","forced_long","","5","simple_dissimilar","images/stimuli/spore_stims/simple_09_A_b.gif","","","","",""
"","3349.0050000000047","survey-multi-choice","74","283885","0.0-20.0","SS1618435714955","math_question","","","","","","","","","","","","{""Q0"":""9""}","[0]","9","",""
"","null","html-keyboard-response","75","284775","0.0-21.0-0.0","SS1618435714955","","","null","","","","","","<p><img src= images/blank.png width =""600"" height = ""600"" style=""position:fixed;top:50%; left:50%; transform: translate(-50%, -50%); border:5px solid black"">","","","","","","","",""
"","742.0449999999837","sequential-stimulus-presentation-old","76","285580","0.0-21.0-1.0","SS1618435714955","trial","","40","500","1242.0449999999837","images/stimuli/spore_stims/simple_10_A_a.gif","images/stimuli/spore_stims/simple_05_A_b.gif","forced_short","","6","simple_dissimilar","images/stimuli/spore_stims/simple_05_A_b.gif","","","","",""
"","null","html-keyboard-response","77","286447","0.0-21.0-0.1","SS1618435714955","","","null","","","","","","<p><img src= images/blank.png width =""600"" height = ""600"" style=""position:fixed;top:50%; left:50%; transform: translate(-50%, -50%); border:5px solid black"">","","","","","","","",""
"","3430.20500000054","sequential-stimulus-presentation-old","78","290392","0.0-21.0-1.1","SS1618435714955","trial","","40","500","3930.20500000054","images/stimuli/spore_stims/simple_10_A_a.gif","images/stimuli/spore_stims/simple_05_A_b.gif","forced_short","","6","simple_dissimilar","images/stimuli/spore_stims/simple_05_A_b.gif","","","","",""
"","null","html-keyboard-response","79","291511","0.0-21.0-0.2","SS1618435714955","","","null","","","","","","<p><img src= images/blank.png width =""600"" height = ""600"" style=""position:fixed;top:50%; left:50%; transform: translate(-50%, -50%); border:5px solid black"">","","","","","","","",""
"","3651.7599999997183","sequential-stimulus-presentation-old","80","295679","0.0-21.0-1.2","SS1618435714955","trial","","40","500","4151.759999999718","images/stimuli/spore_stims/simple_10_A_a.gif","images/stimuli/spore_stims/simple_05_A_b.gif","forced_short","","6","simple_dissimilar","images/stimuli/spore_stims/simple_05_A_b.gif","","","","",""
"","null","html-keyboard-response","81","296624","0.0-21.0-0.3","SS1618435714955","","","null","","","","","","<p><img src= images/blank.png width =""600"" height = ""600"" style=""position:fixed;top:50%; left:50%; transform: translate(-50%, -50%); border:5px solid black"">","","","","","","","",""
"","4105.384999999835","sequential-stimulus-presentation-old","82","301241","0.0-21.0-1.3","SS1618435714955","trial","","40","500","4605.384999999835","images/stimuli/spore_stims/simple_10_A_a.gif","images/stimuli/spore_stims/simple_05_A_b.gif","forced_short","","6","simple_dissimilar","images/stimuli/spore_stims/simple_10_A_a.gif","","","","",""
"","null","html-keyboard-response","83","302548","0.0-21.0-0.4","SS1618435714955","","","null","","","","","","<p><img src= images/blank.png width =""600"" height = ""600"" style=""position:fixed;top:50%; left:50%; transform: translate(-50%, -50%); border:5px solid black"">","","","","","","","",""
"","3119.964999999851","sequential-stimulus-presentation-old","84","306182","0.0-21.0-1.4","SS1618435714955","trial","","40","500","3619.964999999851","images/stimuli/spore_stims/simple_10_A_a.gif","images/stimuli/spore_stims/simple_05_A_b.gif","forced_short","","6","simple_dissimilar","images/stimuli/spore_stims/simple_05_A_b.gif","","","","",""
"","2910.0449999996345","survey-multi-choice","85","309100","0.0-22.0","SS1618435714955","math_question","","","","","","","","","","","","{""Q0"":""15""}","[0]","15","",""
"","null","html-keyboard-response","86","310242","0.0-23.0-0.0","SS1618435714955","","","null","","","","","","<p><img src= images/blank.png width =""600"" height = ""600"" style=""position:fixed;top:50%; left:50%; transform: translate(-50%, -50%); border:5px solid black"">","","","","","","","",""
"","512.7499999998836","sequential-stimulus-presentation-old","87","315772","0.0-23.0-1.0","SS1618435714955","trial","","40","500","1012.7499999998836","images/stimuli/spore_stims/complex_16_A_a.gif","images/stimuli/spore_stims/complex_05_A_b.gif","forced_long","","7","complex_dissimilar","images/stimuli/spore_stims/complex_05_A_b.gif","","","","",""
"","null","html-keyboard-response","88","316662","0.0-23.0-0.1","SS1618435714955","","","null","","","","","","<p><img src= images/blank.png width =""600"" height = ""600"" style=""position:fixed;top:50%; left:50%; transform: translate(-50%, -50%); border:5px solid black"">","","","","","","","",""
"","4344.025000000314","sequential-stimulus-presentation-old","89","321519","0.0-23.0-1.1","SS1618435714955","trial","","40","500","4844.025000000314","images/stimuli/spore_stims/complex_16_A_a.gif","images/stimuli/spore_stims/complex_05_A_b.gif","forced_long","","7","complex_dissimilar","images/stimuli/spore_stims/complex_05_A_b.gif","","","","",""
"","null","html-keyboard-response","90","322542","0.0-23.0-0.2","SS1618435714955","","","null","","","","","","<p><img src= images/blank.png width =""600"" height = ""600"" style=""position:fixed;top:50%; left:50%; transform: translate(-50%, -50%); border:5px solid black"">","","","","","","","",""
"","4085.6399999993155","sequential-stimulus-presentation-old","91","327146","0.0-23.0-1.2","SS1618435714955","trial","","40","500","4585.6399999993155","images/stimuli/spore_stims/complex_16_A_a.gif","images/stimuli/spore_stims/complex_05_A_b.gif","forced_long","","7","complex_dissimilar","images/stimuli/spore_stims/complex_16_A_a.gif","","","","",""
"","null","html-keyboard-response","92","328437","0.0-23.0-0.3","SS1618435714955","","","null","","","","","","<p><img src= images/blank.png width =""600"" height = ""600"" style=""position:fixed;top:50%; left:50%; transform: translate(-50%, -50%); border:5px solid black"">","","","","","","","",""
"","3143.1700000002747","sequential-stimulus-presentation-old","93","332095","0.0-23.0-1.3","SS1618435714955","trial","","40","500","3643.1700000002747","images/stimuli/spore_stims/complex_16_A_a.gif","images/stimuli/spore_stims/complex_05_A_b.gif","forced_long","","7","complex_dissimilar","images/stimuli/spore_stims/complex_16_A_a.gif","","","","",""
"","3031.349999999278","survey-multi-choice","94","335133","0.0-24.0","SS1618435714955","math_question","","","","","","","","","","","","{""Q0"":""9""}","[0]","9","",""
"","null","html-keyboard-response","95","335949","0.0-25.0-0.0","SS1618435714955","","","null","","","","","","<p><img src= images/blank.png width =""600"" height = ""600"" style=""position:fixed;top:50%; left:50%; transform: translate(-50%, -50%); border:5px solid black"">","","","","","","","",""
"","1761.2749999998487","sequential-stimulus-presentation-old","96","338229","0.0-25.0-1.0","SS1618435714955","trial","","40","500","2261.2749999998487","images/stimuli/spore_stims/complex_02_A_a.gif","images/stimuli/spore_stims/complex_18_A_b.gif","self_paced","","8","complex_dissimilar","images/stimuli/spore_stims/complex_18_A_b.gif","","","","",""
"","null","html-keyboard-response","97","339255","0.0-25.0-0.1","SS1618435714955","","","null","","","","","","<p><img src= images/blank.png width =""600"" height = ""600"" style=""position:fixed;top:50%; left:50%; transform: translate(-50%, -50%); border:5px solid black"">","","","","","","","",""
"","122.65500000008615","sequential-stimulus-presentation-old","98","339893","0.0-25.0-1.1","SS1618435714955","trial","","40","500","622.6550000000861","images/stimuli/spore_stims/complex_02_A_a.gif","images/stimuli/spore_stims/complex_18_A_b.gif","self_paced","","8","complex_dissimilar","images/stimuli/spore_stims/complex_18_A_b.gif","","","","",""
"","null","html-keyboard-response","99","340712","0.0-25.0-0.2","SS1618435714955","","","null","","","","","","<p><img src= images/blank.png width =""600"" height = ""600"" style=""position:fixed;top:50%; left:50%; transform: translate(-50%, -50%); border:5px solid black"">","","","","","","","",""
"","117.61999999993714","sequential-stimulus-presentation-old","100","341345","0.0-25.0-1.2","SS1618435714955","trial","","40","500","617.6199999999371","images/stimuli/spore_stims/complex_02_A_a.gif","images/stimuli/spore_stims/complex_18_A_b.gif","self_paced","","8","complex_dissimilar","images/stimuli/spore_stims/complex_18_A_b.gif","","","","",""
"","null","html-keyboard-response","101","342481","0.0-25.0-0.3","SS1618435714955","","","null","","","","","","<p><img src= images/blank.png width =""600"" height = ""600"" style=""position:fixed;top:50%; left:50%; transform: translate(-50%, -50%); border:5px solid black"">","","","","","","","",""
"","1874.6549999996205","sequential-stimulus-presentation-old","102","344876","0.0-25.0-1.3","SS1618435714955","trial","","40","500","2374.6549999996205","images/stimuli/spore_stims/complex_02_A_a.gif","images/stimuli/spore_stims/complex_18_A_b.gif","self_paced","","8","complex_dissimilar","images/stimuli/spore_stims/complex_02_A_a.gif","","","","",""
"","null","html-keyboard-response","103","346081","0.0-25.0-0.4","SS1618435714955","","","null","","","","","","<p><img src= images/blank.png width =""600"" height = ""600"" style=""position:fixed;top:50%; left:50%; transform: translate(-50%, -50%); border:5px solid black"">","","","","","","","",""
"","231.52000000030966","sequential-stimulus-presentation-old","104","346830","0.0-25.0-1.4","SS1618435714955","trial","","40","500","731.5200000003097","images/stimuli/spore_stims/complex_02_A_a.gif","images/stimuli/spore_stims/complex_18_A_b.gif","self_paced","","8","complex_dissimilar","images/stimuli/spore_stims/complex_18_A_b.gif","","","","",""
"","null","html-keyboard-response","105","348098","0.0-25.0-0.5","SS1618435714955","","","null","","","","","","<p><img src= images/blank.png width =""600"" height = ""600"" style=""position:fixed;top:50%; left:50%; transform: translate(-50%, -50%); border:5px solid black"">","","","","","","","",""
"","18.404999999853317","sequential-stimulus-presentation-old","106","348635","0.0-25.0-1.5","SS1618435714955","trial","","40","500","518.4049999998533","images/stimuli/spore_stims/complex_02_A_a.gif","images/stimuli/spore_stims/complex_18_A_b.gif","self_paced","","8","complex_dissimilar","images/stimuli/spore_stims/complex_02_A_a.gif","","","","",""
"","2975.6950000001234","survey-multi-choice","107","351625","0.0-26.0","SS1618435714955","math_question","","","","","","","","","","","","{""Q0"":""11""}","[0]","11","",""
"","null","html-keyboard-response","108","352616","0.0-27.0-0.0","SS1618435714955","","","null","","","","","","<p><img src= images/blank.png width =""600"" height = ""600"" style=""position:fixed;top:50%; left:50%; transform: translate(-50%, -50%); border:5px solid black"">","","","","","","","",""
"","3492.050000000745","sequential-stimulus-presentation-old","109","356625","0.0-27.0-1.0","SS1618435714955","trial","","40","500","3992.050000000745","images/stimuli/spore_stims/simple_19_A_a.gif","images/stimuli/spore_stims/simple_03_A_b.gif","self_paced","","9","simple_dissimilar","images/stimuli/spore_stims/simple_03_A_b.gif","","","","",""
"","null","html-keyboard-response","110","357873","0.0-27.0-0.1","SS1618435714955","","","null","","","","","","<p><img src= images/blank.png width =""600"" height = ""600"" style=""position:fixed;top:50%; left:50%; transform: translate(-50%, -50%); border:5px solid black"">","","","","","","","",""
"","2076.8049999996438","sequential-stimulus-presentation-old","111","360469","0.0-27.0-1.1","SS1618435714955","trial","","40","500","2576.8049999996438","images/stimuli/spore_stims/simple_19_A_a.gif","images/stimuli/spore_stims/simple_03_A_b.gif","self_paced","","9","simple_dissimilar","images/stimuli/spore_stims/simple_19_A_a.gif","","","","",""
"","null","html-keyboard-response","112","361445","0.0-27.0-0.2","SS1618435714955","","","null","","","","","","<p><img src= images/blank.png width =""600"" height = ""600"" style=""position:fixed;top:50%; left:50%; transform: translate(-50%, -50%); border:5px solid black"">","","","","","","","",""
"","1984.5299999996787","sequential-stimulus-presentation-old","113","363951","0.0-27.0-1.2","SS1618435714955","trial","","40","500","2484.5299999996787","images/stimuli/spore_stims/simple_19_A_a.gif","images/stimuli/spore_stims/simple_03_A_b.gif","self_paced","","9","simple_dissimilar","images/stimuli/spore_stims/simple_03_A_b.gif","","","","",""
"","null","html-keyboard-response","114","364907","0.0-27.0-0.3","SS1618435714955","","","null","","","","","","<p><img src= images/blank.png width =""600"" height = ""600"" style=""position:fixed;top:50%; left:50%; transform: translate(-50%, -50%); border:5px solid black"">","","","","","","","",""
"","2032.369999999879","sequential-stimulus-presentation-old","115","367464","0.0-27.0-1.3","SS1618435714955","trial","","40","500","2532.369999999879","images/stimuli/spore_stims/simple_19_A_a.gif","images/stimuli/spore_stims/simple_03_A_b.gif","self_paced","","9","simple_dissimilar","images/stimuli/spore_stims/simple_03_A_b.gif","","","","",""
"","null","html-keyboard-response","116","368509","0.0-27.0-0.4","SS1618435714955","","","null","","","","","","<p><img src= images/blank.png width =""600"" height = ""600"" style=""position:fixed;top:50%; left:50%; transform: translate(-50%, -50%); border:5px solid black"">","","","","","","","",""
"","1730.6850000004051","sequential-stimulus-presentation-old","117","370761","0.0-27.0-1.4","SS1618435714955","trial","","40","500","2230.685000000405","images/stimuli/spore_stims/simple_19_A_a.gif","images/stimuli/spore_stims/simple_03_A_b.gif","self_paced","","9","simple_dissimilar","images/stimuli/spore_stims/simple_03_A_b.gif","","","","",""
"","null","html-keyboard-response","118","371804","0.0-27.0-0.5","SS1618435714955","","","null","","","","","","<p><img src= images/blank.png width =""600"" height = ""600"" style=""position:fixed;top:50%; left:50%; transform: translate(-50%, -50%); border:5px solid black"">","","","","","","","",""
"","1561.330000000482","sequential-stimulus-presentation-old","119","373881","0.0-27.0-1.5","SS1618435714955","trial","","40","500","2061.330000000482","images/stimuli/spore_stims/simple_19_A_a.gif","images/stimuli/spore_stims/simple_03_A_b.gif","self_paced","","9","simple_dissimilar","images/stimuli/spore_stims/simple_03_A_b.gif","","","","",""
"","3771.6599999993923","survey-multi-choice","120","377663","0.0-28.0","SS1618435714955","math_question","","","","","","","","","","","","{""Q0"":""3""}","[0]","3","",""
"","null","html-keyboard-response","121","378523","0.0-29.0-0.0","SS1618435714955","","","null","","","","","","<p><img src= images/blank.png width =""600"" height = ""600"" style=""position:fixed;top:50%; left:50%; transform: translate(-50%, -50%); border:5px solid black"">","","","","","","","",""
"","679.1849999999395","sequential-stimulus-presentation-old","122","379272","0.0-29.0-1.0","SS1618435714955","trial","","40","500","1179.1849999999395","images/stimuli/spore_stims/complex_13_A_a.gif","images/stimuli/spore_stims/complex_01_A_b.gif","forced_short","","10","complex_dissimilar","images/stimuli/spore_stims/complex_01_A_b.gif","","","","",""
"","null","html-keyboard-response","123","380160","0.0-29.0-0.1","SS1618435714955","","","null","","","","","","<p><img src= images/blank.png width =""600"" height = ""600"" style=""position:fixed;top:50%; left:50%; transform: translate(-50%, -50%); border:5px solid black"">","","","","","","","",""
"","3711.3100000005797","sequential-stimulus-presentation-old","124","384388","0.0-29.0-1.1","SS1618435714955","trial","","40","500","4211.31000000058","images/stimuli/spore_stims/complex_13_A_a.gif","images/stimuli/spore_stims/complex_01_A_b.gif","forced_short","","10","complex_dissimilar","images/stimuli/spore_stims/complex_01_A_b.gif","","","","",""
"","null","html-keyboard-response","125","385614","0.0-29.0-0.2","SS1618435714955","","","null","","","","","","<p><img src= images/blank.png width =""600"" height = ""600"" style=""position:fixed;top:50%; left:50%; transform: translate(-50%, -50%); border:5px solid black"">","","","","","","","",""
"","1729.0800000000745","sequential-stimulus-presentation-old","126","387869","0.0-29.0-1.2","SS1618435714955","trial","","40","500","2229.0800000000745","images/stimuli/spore_stims/complex_13_A_a.gif","images/stimuli/spore_stims/complex_01_A_b.gif","forced_short","","10","complex_dissimilar","images/stimuli/spore_stims/complex_01_A_b.gif","","","","",""
"","null","html-keyboard-response","127","389035","0.0-29.0-0.3","SS1618435714955","","","null","","","","","","<p><img src= images/blank.png width =""600"" height = ""600"" style=""position:fixed;top:50%; left:50%; transform: translate(-50%, -50%); border:5px solid black"">","","","","","","","",""
"","4299.635000000359","sequential-stimulus-presentation-old","128","393855","0.0-29.0-1.3","SS1618435714955","trial","","40","500","4799.635000000359","images/stimuli/spore_stims/complex_13_A_a.gif","images/stimuli/spore_stims/complex_01_A_b.gif","forced_short","","10","complex_dissimilar","images/stimuli/spore_stims/complex_01_A_b.gif","","","","",""
"","null","html-keyboard-response","129","395072","0.0-29.0-0.4","SS1618435714955","","","null","","","","","","<p><img src= images/blank.png width =""600"" height = ""600"" style=""position:fixed;top:50%; left:50%; transform: translate(-50%, -50%); border:5px solid black"">","","","","","","","",""
"","2790.4699999998556","sequential-stimulus-presentation-old","130","398385","0.0-29.0-1.4","SS1618435714955","trial","","40","500","3290.4699999998556","images/stimuli/spore_stims/complex_13_A_a.gif","images/stimuli/spore_stims/complex_01_A_b.gif","forced_short","","10","complex_dissimilar","images/stimuli/spore_stims/complex_01_A_b.gif","","","","",""
"","2927.8899999999558","survey-multi-choice","131","401320","0.0-30.0","SS1618435714955","math_question","","","","","","","","","","","","{""Q0"":""13""}","[0]","13","",""
"","null","html-keyboard-response","132","402260","0.0-31.0-0.0","SS1618435714955","","","null","","","","","","<p><img src= images/blank.png width =""600"" height = ""600"" style=""position:fixed;top:50%; left:50%; transform: translate(-50%, -50%); border:5px solid black"">","","","","","","","",""
"","660.0300000000279","sequential-stimulus-presentation-old","133","402992","0.0-31.0-1.0","SS1618435714955","trial","","40","500","1160.030000000028","images/stimuli/spore_stims/simple_19_A_b.gif","images/stimuli/spore_stims/simple_03_A_a.gif","forced_short","","11","simple_dissimilar","images/stimuli/spore_stims/simple_03_A_a.gif","","","","",""
"","null","html-keyboard-response","134","404240","0.0-31.0-0.1","SS1618435714955","","","null","","","","","","<p><img src= images/blank.png width =""600"" height = ""600"" style=""position:fixed;top:50%; left:50%; transform: translate(-50%, -50%); border:5px solid black"">","","","","","","","",""
"","945.5149999994319","sequential-stimulus-presentation-old","135","405703","0.0-31.0-1.1","SS1618435714955","trial","","40","500","1445.514999999432","images/stimuli/spore_stims/simple_19_A_b.gif","images/stimuli/spore_stims/simple_03_A_a.gif","forced_short","","11","simple_dissimilar","images/stimuli/spore_stims/simple_19_A_b.gif","","","","",""
"","null","html-keyboard-response","136","406670","0.0-31.0-0.2","SS1618435714955","","","null","","","","","","<p><img src= images/blank.png width =""600"" height = ""600"" style=""position:fixed;top:50%; left:50%; transform: translate(-50%, -50%); border:5px solid black"">","","","","","","","",""
"","501.5300000004936","sequential-stimulus-presentation-old","137","407680","0.0-31.0-1.2","SS1618435714955","trial","","40","500","1001.5300000004936","images/stimuli/spore_stims/simple_19_A_b.gif","images/stimuli/spore_stims/simple_03_A_a.gif","forced_short","","11","simple_dissimilar","images/stimuli/spore_stims/simple_03_A_a.gif","","","","",""
"","null","html-keyboard-response","138","408831","0.0-31.0-0.3","SS1618435714955","","","null","","","","","","<p><img src= images/blank.png width =""600"" height = ""600"" style=""position:fixed;top:50%; left:50%; transform: translate(-50%, -50%); border:5px solid black"">","","","","","","","",""
"","339.0649999991874","sequential-stimulus-presentation-old","139","409687","0.0-31.0-1.3","SS1618435714955","trial","","40","500","839.0649999991874","images/stimuli/spore_stims/simple_19_A_b.gif","images/stimuli/spore_stims/simple_03_A_a.gif","forced_short","","11","simple_dissimilar","images/stimuli/spore_stims/simple_19_A_b.gif","","","","",""
"","null","html-keyboard-response","140","410499","0.0-31.0-0.4","SS1618435714955","","","null","","","","","","<p><img src= images/blank.png width =""600"" height = ""600"" style=""position:fixed;top:50%; left:50%; transform: translate(-50%, -50%); border:5px solid black"">","","","","","","","",""
"","804.2949999999255","sequential-stimulus-presentation-old","141","411818","0.0-31.0-1.4","SS1618435714955","trial","","40","500","1304.2949999999255","images/stimuli/spore_stims/simple_19_A_b.gif","images/stimuli/spore_stims/simple_03_A_a.gif","forced_short","","11","simple_dissimilar","images/stimuli/spore_stims/simple_03_A_a.gif","","","","",""
"[{""page_index"":0,""viewing_time"":3325.4499999993714}]","3326.094999999448","instructions","142","415151","0.0-32.0","SS1618435714955","instructions","","","","","","","","","","","","","","","",""
"","10365.160000000265","survey-likert","143","425548","0.0-33.0","SS1618435714955","similarity_question","","","","","","","","","","","","{""Q0"":1}","[0]","","images/stimuli/spore_stims/complex_03_A_a.gif","images/stimuli/spore_stims/complex_11_A_b.gif"
"","3884.4349999999395","survey-likert","144","429453","0.0-34.0","SS1618435714955","similarity_question","","","","","","","","","","","","{""Q0"":4}","[0]","","images/stimuli/spore_stims/simple_10_A_a.gif","images/stimuli/spore_stims/simple_05_A_b.gif"
"","5911.200000000477","survey-likert","145","435377","0.0-35.0","SS1618435714955","similarity_question","","","","","","","","","","","","{""Q0"":4}","[0]","","images/stimuli/spore_stims/complex_02_A_a.gif","images/stimuli/spore_stims/complex_18_A_b.gif"
"","4300.229999999865","survey-likert","146","439692","0.0-36.0","SS1618435714955","similarity_question","","","","","","","","","","","","{""Q0"":6}","[0]","","images/stimuli/spore_stims/simple_19_A_b.gif","images/stimuli/spore_stims/simple_03_A_a.gif"
"","8935.99499999982","survey-likert","147","448651","0.0-37.0","SS1618435714955","similarity_question","","","","","","","","","","","","{""Q0"":2}","[0]","","images/stimuli/spore_stims/complex_05_A_b.gif","images/stimuli/spore_stims/complex_16_A_a.gif"
"","3443.6199999999953","survey-likert","148","452104","0.0-38.0","SS1618435714955","similarity_question","","","","","","","","","","","","{""Q0"":6}","[0]","","images/stimuli/spore_stims/simple_19_A_a.gif","images/stimuli/spore_stims/simple_03_A_b.gif"
"","3834.1849999997066","survey-likert","149","455959","0.0-39.0","SS1618435714955","similarity_question","","","","","","","","","","","","{""Q0"":5}","[0]","","images/stimuli/spore_stims/complex_19_A_b.gif","images/stimuli/spore_stims/complex_10_A_a.gif"
"","5612.479999999807","survey-likert","150","461591","0.0-40.0","SS1618435714955","similarity_question","","","","","","","","","","","","{""Q0"":4}","[0]","","images/stimuli/spore_stims/complex_19_A_a.gif","images/stimuli/spore_stims/complex_03_A_b.gif"
"","6972.75999999966","survey-likert","151","468575","0.0-41.0","SS1618435714955","similarity_question","","","","","","","","","","","","{""Q0"":3}","[0]","","images/stimuli/spore_stims/complex_01_A_b.gif","images/stimuli/spore_stims/complex_13_A_a.gif"
"","2949.4899999999325","survey-likert","152","471546","0.0-42.0","SS1618435714955","similarity_question","","","","","","","","","","","","{""Q0"":5}","[0]","","images/stimuli/spore_stims/simple_11_A_a.gif","images/stimuli/spore_stims/simple_04_A_b.gif"
"","5068.629999999772","survey-likert","153","476625","0.0-43.0","SS1618435714955","similarity_question","","","","","","","","","","","","{""Q0"":6}","[0]","","images/stimuli/spore_stims/simple_09_A_b.gif","images/stimuli/spore_stims/simple_14_A_a.gif"
"","3682.9450000004726","survey-likert","154","480319","0.0-44.0","SS1618435714955","similarity_question","","","","","","","","","","","","{""Q0"":5}","[0]","","images/stimuli/spore_stims/simple_20_A_b.gif","images/stimuli/spore_stims/simple_06_A_a.gif"
"[{""page_index"":0,""viewing_time"":2628.869999999588}]","2629.8899999992573","instructions","155","482960","0.0-45.0","SS1618435714955","instructions","","","","","","","","","","","","","","","",""
"","4776.955000000307","survey-likert","156","487747","0.0-46.0","SS1618435714955","","","","","","","","","images/stimuli/spore_stims/simple_19_A_a.gif","","","","{""Q0"":1}","[0]","","",""
"","2691.8299999997253","survey-likert","157","490457","0.0-47.0","SS1618435714955","","","","","","","","","images/stimuli/spore_stims/simple_14_A_a.gif","","","","{""Q0"":0}","[0]","","",""
"","3716.1349999997183","survey-likert","158","494186","0.0-48.0","SS1618435714955","","","","","","","","","images/stimuli/spore_stims/complex_10_A_a.gif","","","","{""Q0"":4}","[0]","","",""
"","5948.645000000426","survey-likert","159","500152","0.0-49.0","SS1618435714955","","","","","","","","","images/stimuli/spore_stims/complex_16_A_a.gif","","","","{""Q0"":5}","[0]","","",""
"","3879.3350000004866","survey-likert","160","504056","0.0-50.0","SS1618435714955","","","","","","","","","images/stimuli/spore_stims/complex_02_A_a.gif","","","","{""Q0"":4}","[0]","","",""
"","4438.629999999655","survey-likert","161","508503","0.0-51.0","SS1618435714955","","","","","","","","","images/stimuli/spore_stims/complex_11_A_b.gif","","","","{""Q0"":4}","[0]","","",""
"","3017.3850000000675","survey-likert","162","511531","0.0-52.0","SS1618435714955","","","","","","","","","images/stimuli/spore_stims/simple_06_A_a.gif","","","","{""Q0"":0}","[0]","","",""
"","2995.6949999995995","survey-likert","163","514537","0.0-53.0","SS1618435714955","","","","","","","","","images/stimuli/spore_stims/complex_01_A_b.gif","","","","{""Q0"":4}","[0]","","",""
"","2581.0950000004377","survey-likert","164","517128","0.0-54.0","SS1618435714955","","","","","","","","","images/stimuli/spore_stims/complex_03_A_b.gif","","","","{""Q0"":3}","[0]","","",""
"","3150.43499999959","survey-likert","165","520304","0.0-55.0","SS1618435714955","","","","","","","","","images/stimuli/spore_stims/simple_10_A_a.gif","","","","{""Q0"":0}","[0]","","",""
"","3014.7400000004563","survey-likert","166","523329","0.0-56.0","SS1618435714955","","","","","","","","","images/stimuli/spore_stims/simple_03_A_a.gif","","","","{""Q0"":0}","[0]","","",""
"","2605.439999999362","survey-likert","167","525956","0.0-57.0","SS1618435714955","","","","","","","","","images/stimuli/spore_stims/simple_04_A_b.gif","","","","{""Q0"":0}","[0]","","",""
"[{""page_index"":0,""viewing_time"":1825.2250000004424}]","1827.6599999999162","instructions","168","527802","0.0-58.0","SS1618435714955","instructions","","","","","","","","","","","","","","","",""
"","2427.6850000005215","demog-age","169","530263","0.0-59.0","SS1618435714955","","","","","","","","","","","","","{""age"":""20""}","","","",""
"","3827.709999999497","demog-ethnic-US","170","534114","0.0-60.0","SS1618435714955","","","","","","","","","","","","","{""ethnicity"":[""Black or African American""]}","[0]","","",""
"","14012.579999999609","demog-gender-and-education","171","548150","0.0-61.0","SS1618435714955","","","","","","","","","","","","","{""gender"":""Female"",""education"":""High school diploma""}","[0,1]","","",""
"","5812.950000000419","survey-text","172","553986","0.0-62.0","SS1618435714955","feedback","","","","","","","","","","","","{""Q0"":""Nope, it was all fine ""}","","","",""
"[{""page_index"":0,""viewing_time"":3624.859999999986}]","3625.5000000001164","instructions","173","557633","0.0-63.0","SS1618435714955","instructions","","","","","","","","","","","","","","","",""
