"view_history","rt","trial_type","trial_index","time_elapsed","internal_node_id","subject","stimulus_type","trial_stimulus","key_press","minimum_viewing_duration","trial_looking_time","block_deviant","block_background","exposure_type","stimulus","block_number","block_type","stimulus_displayed","responses","question_order","math_correct_answer","stimulus_left","stimulus_right"
"[{""page_index"":0,""viewing_time"":2538.0500000028405}]","2538.409999993746","instructions","0","2542","0.0-0.0","SS1618364942390","","","","","","","","","","","","","","","","",""
"[{""page_index"":0,""viewing_time"":6263.034999996307},{""page_index"":1,""viewing_time"":8040.215000000899}]","14303.499999994528","instructions","1","18849","0.0-1.0","SS1618364942390","instructions","","","","","","","","","","","","","","","",""
"","9161.65500000352","sequential-stimulus-presentation-old","2","28519","0.0-2.0","SS1618364942390","","","40","500","9661.65500000352","null","null","self_paced","","","","","","","","",""
"","5356.465000004391","sequential-stimulus-presentation-old","3","34388","0.0-3.0","SS1618364942390","","","40","500","5856.465000004391","null","null","self_paced","","","","","","","","",""
"[{""page_index"":0,""viewing_time"":25927.370000004885}]","25927.624999996624","instructions","4","60317","0.0-4.0","SS1618364942390","instructions","","","","","","","","","","","","","","","",""
"","6140.709999992396","sequential-stimulus-presentation-old","5","71477","0.0-5.0","SS1618364942390","","","40","500","6640.709999992396","null","null","forced_long","","","","","","","","",""
"","5279.080000007525","sequential-stimulus-presentation-old","6","76813","0.0-6.0","SS1618364942390","","","40","50","5329.080000007525","null","null","forced_long","","","","","","","","",""
"[{""page_index"":0,""viewing_time"":5270.915000000969}]","5271.2049999972805","instructions","7","82086","0.0-7.0","SS1618364942390","instructions","","","","","","","","","","","","","","","",""
"[{""page_index"":0,""viewing_time"":3102.565000008326},{""page_index"":1,""viewing_time"":13340.069999991101},{""page_index"":2,""viewing_time"":11008.37500000489},{""page_index"":3,""viewing_time"":1703.575000006822},{""page_index"":4,""viewing_time"":1382.0299999933923}]","30536.860000007437","instructions","8","112624","0.0-8.0","SS1618364942390","instructions","","","","","","","","","","","","","","","",""
"","null","html-keyboard-response","9","113611","0.0-9.0-0.0","SS1618364942390","","","null","","","","","","<p><img src= images/blank.png width =""600"" height = ""600"" style=""position:fixed;top:50%; left:50%; transform: translate(-50%, -50%); border:5px solid black"">","","","","","","","",""
"","1359.3350000010105","sequential-stimulus-presentation-old","10","115028","0.0-9.0-1.0","SS1618364942390","trial","","40","500","1859.3350000010105","images/stimuli/spore_stims/complex_12_A_a.gif","images/stimuli/spore_stims/complex_01_A_b.gif","forced_short","","0","complex_dissimilar","images/stimuli/spore_stims/complex_01_A_b.gif","","","","",""
"","null","html-keyboard-response","11","116266","0.0-9.0-0.1","SS1618364942390","","","null","","","","","","<p><img src= images/blank.png width =""600"" height = ""600"" style=""position:fixed;top:50%; left:50%; transform: translate(-50%, -50%); border:5px solid black"">","","","","","","","",""
"","434.12499999976717","sequential-stimulus-presentation-old","12","117220","0.0-9.0-1.1","SS1618364942390","trial","","40","500","934.1249999997672","images/stimuli/spore_stims/complex_12_A_a.gif","images/stimuli/spore_stims/complex_01_A_b.gif","forced_short","","0","complex_dissimilar","images/stimuli/spore_stims/complex_01_A_b.gif","","","","",""
"","null","html-keyboard-response","13","118364","0.0-9.0-0.2","SS1618364942390","","","null","","","","","","<p><img src= images/blank.png width =""600"" height = ""600"" style=""position:fixed;top:50%; left:50%; transform: translate(-50%, -50%); border:5px solid black"">","","","","","","","",""
"","994.2100000043865","sequential-stimulus-presentation-old","14","119876","0.0-9.0-1.2","SS1618364942390","trial","","40","500","1494.2100000043865","images/stimuli/spore_stims/complex_12_A_a.gif","images/stimuli/spore_stims/complex_01_A_b.gif","forced_short","","0","complex_dissimilar","images/stimuli/spore_stims/complex_12_A_a.gif","","","","",""
"","null","html-keyboard-response","15","120987","0.0-9.0-0.3","SS1618364942390","","","null","","","","","","<p><img src= images/blank.png width =""600"" height = ""600"" style=""position:fixed;top:50%; left:50%; transform: translate(-50%, -50%); border:5px solid black"">","","","","","","","",""
"","966.2300000054529","sequential-stimulus-presentation-old","16","122460","0.0-9.0-1.3","SS1618364942390","trial","","40","500","1466.230000005453","images/stimuli/spore_stims/complex_12_A_a.gif","images/stimuli/spore_stims/complex_01_A_b.gif","forced_short","","0","complex_dissimilar","images/stimuli/spore_stims/complex_01_A_b.gif","","","","",""
"","null","html-keyboard-response","17","123293","0.0-9.0-0.4","SS1618364942390","","","null","","","","","","<p><img src= images/blank.png width =""600"" height = ""600"" style=""position:fixed;top:50%; left:50%; transform: translate(-50%, -50%); border:5px solid black"">","","","","","","","",""
"","530.8199999999488","sequential-stimulus-presentation-old","18","124329","0.0-9.0-1.4","SS1618364942390","trial","","40","500","1030.8199999999488","images/stimuli/spore_stims/complex_12_A_a.gif","images/stimuli/spore_stims/complex_01_A_b.gif","forced_short","","0","complex_dissimilar","images/stimuli/spore_stims/complex_12_A_a.gif","","","","",""
"","5695.470000006026","survey-multi-choice","19","130030","0.0-10.0","SS1618364942390","math_question","","","","","","","","","","","","{""Q0"":""10""}","[0]","10","",""
"","null","html-keyboard-response","20","131302","0.0-11.0-0.0","SS1618364942390","","","null","","","","","","<p><img src= images/blank.png width =""600"" height = ""600"" style=""position:fixed;top:50%; left:50%; transform: translate(-50%, -50%); border:5px solid black"">","","","","","","","",""
"","363.9450000046054","sequential-stimulus-presentation-old","21","136677","0.0-11.0-1.0","SS1618364942390","trial","","40","500","863.9450000046054","images/stimuli/spore_stims/complex_20_A_b.gif","images/stimuli/spore_stims/complex_08_A_a.gif","forced_long","","1","complex_dissimilar","images/stimuli/spore_stims/complex_08_A_a.gif","","","","",""
"","null","html-keyboard-response","22","137611","0.0-11.0-0.1","SS1618364942390","","","null","","","","","","<p><img src= images/blank.png width =""600"" height = ""600"" style=""position:fixed;top:50%; left:50%; transform: translate(-50%, -50%); border:5px solid black"">","","","","","","","",""
"","1150.034999998752","sequential-stimulus-presentation-old","23","139276","0.0-11.0-1.1","SS1618364942390","trial","","40","500","1650.034999998752","images/stimuli/spore_stims/complex_20_A_b.gif","images/stimuli/spore_stims/complex_08_A_a.gif","forced_long","","1","complex_dissimilar","images/stimuli/spore_stims/complex_20_A_b.gif","","","","",""
"","null","html-keyboard-response","24","140289","0.0-11.0-0.2","SS1618364942390","","","null","","","","","","<p><img src= images/blank.png width =""600"" height = ""600"" style=""position:fixed;top:50%; left:50%; transform: translate(-50%, -50%); border:5px solid black"">","","","","","","","",""
"","4299.205000002985","sequential-stimulus-presentation-old","25","145093","0.0-11.0-1.2","SS1618364942390","trial","","40","500","4799.205000002985","images/stimuli/spore_stims/complex_20_A_b.gif","images/stimuli/spore_stims/complex_08_A_a.gif","forced_long","","1","complex_dissimilar","images/stimuli/spore_stims/complex_20_A_b.gif","","","","",""
"","null","html-keyboard-response","26","145986","0.0-11.0-0.3","SS1618364942390","","","null","","","","","","<p><img src= images/blank.png width =""600"" height = ""600"" style=""position:fixed;top:50%; left:50%; transform: translate(-50%, -50%); border:5px solid black"">","","","","","","","",""
"","6769.140000003972","sequential-stimulus-presentation-old","27","153263","0.0-11.0-1.3","SS1618364942390","trial","","40","500","7269.140000003972","images/stimuli/spore_stims/complex_20_A_b.gif","images/stimuli/spore_stims/complex_08_A_a.gif","forced_long","","1","complex_dissimilar","images/stimuli/spore_stims/complex_08_A_a.gif","","","","",""
"","3179.9250000040047","survey-multi-choice","28","156445","0.0-12.0","SS1618364942390","math_question","","","","","","","","","","","","{""Q0"":""14""}","[0]","14","",""
"","null","html-keyboard-response","29","157623","0.0-13.0-0.0","SS1618364942390","","","null","","","","","","<p><img src= images/blank.png width =""600"" height = ""600"" style=""position:fixed;top:50%; left:50%; transform: translate(-50%, -50%); border:5px solid black"">","","","","","","","",""
"","778.1000000104541","sequential-stimulus-presentation-old","30","158461","0.0-13.0-1.0","SS1618364942390","trial","","40","500","1278.100000010454","images/stimuli/spore_stims/simple_02_A_a.gif","images/stimuli/spore_stims/simple_10_A_b.gif","forced_short","","2","simple_dissimilar","images/stimuli/spore_stims/simple_10_A_b.gif","","","","",""
"","null","html-keyboard-response","31","159322","0.0-13.0-0.1","SS1618364942390","","","null","","","","","","<p><img src= images/blank.png width =""600"" height = ""600"" style=""position:fixed;top:50%; left:50%; transform: translate(-50%, -50%); border:5px solid black"">","","","","","","","",""
"","1640.3750000026776","sequential-stimulus-presentation-old","32","161468","0.0-13.0-1.1","SS1618364942390","trial","","40","500","2140.3750000026776","images/stimuli/spore_stims/simple_02_A_a.gif","images/stimuli/spore_stims/simple_10_A_b.gif","forced_short","","2","simple_dissimilar","images/stimuli/spore_stims/simple_02_A_a.gif","","","","",""
"","null","html-keyboard-response","33","162329","0.0-13.0-0.2","SS1618364942390","","","null","","","","","","<p><img src= images/blank.png width =""600"" height = ""600"" style=""position:fixed;top:50%; left:50%; transform: translate(-50%, -50%); border:5px solid black"">","","","","","","","",""
"","179.1149999917252","sequential-stimulus-presentation-old","34","163013","0.0-13.0-1.2","SS1618364942390","trial","","40","500","679.1149999917252","images/stimuli/spore_stims/simple_02_A_a.gif","images/stimuli/spore_stims/simple_10_A_b.gif","forced_short","","2","simple_dissimilar","images/stimuli/spore_stims/simple_02_A_a.gif","","","","",""
"","null","html-keyboard-response","35","163995","0.0-13.0-0.3","SS1618364942390","","","null","","","","","","<p><img src= images/blank.png width =""600"" height = ""600"" style=""position:fixed;top:50%; left:50%; transform: translate(-50%, -50%); border:5px solid black"">","","","","","","","",""
"","159.48499999649357","sequential-stimulus-presentation-old","36","164668","0.0-13.0-1.3","SS1618364942390","trial","","40","500","659.4849999964936","images/stimuli/spore_stims/simple_02_A_a.gif","images/stimuli/spore_stims/simple_10_A_b.gif","forced_short","","2","simple_dissimilar","images/stimuli/spore_stims/simple_10_A_b.gif","","","","",""
"","null","html-keyboard-response","37","165955","0.0-13.0-0.4","SS1618364942390","","","null","","","","","","<p><img src= images/blank.png width =""600"" height = ""600"" style=""position:fixed;top:50%; left:50%; transform: translate(-50%, -50%); border:5px solid black"">","","","","","","","",""
"","442.2599999961676","sequential-stimulus-presentation-old","38","166916","0.0-13.0-1.4","SS1618364942390","trial","","40","500","942.2599999961676","images/stimuli/spore_stims/simple_02_A_a.gif","images/stimuli/spore_stims/simple_10_A_b.gif","forced_short","","2","simple_dissimilar","images/stimuli/spore_stims/simple_10_A_b.gif","","","","",""
"","2825.799999991432","survey-multi-choice","39","169746","0.0-14.0","SS1618364942390","math_question","","","","","","","","","","","","{""Q0"":""14""}","[0]","14","",""
"","null","html-keyboard-response","40","170929","0.0-15.0-0.0","SS1618364942390","","","null","","","","","","<p><img src= images/blank.png width =""600"" height = ""600"" style=""position:fixed;top:50%; left:50%; transform: translate(-50%, -50%); border:5px solid black"">","","","","","","","",""
"","271.81500000006054","sequential-stimulus-presentation-old","41","171709","0.0-15.0-1.0","SS1618364942390","trial","","40","500","771.8150000000605","images/stimuli/spore_stims/complex_03_A_b.gif","images/stimuli/spore_stims/complex_02_A_a.gif","self_paced","","3","complex_dissimilar","images/stimuli/spore_stims/complex_02_A_a.gif","","","","",""
"","null","html-keyboard-response","42","172688","0.0-15.0-0.1","SS1618364942390","","","null","","","","","","<p><img src= images/blank.png width =""600"" height = ""600"" style=""position:fixed;top:50%; left:50%; transform: translate(-50%, -50%); border:5px solid black"">","","","","","","","",""
"","147.58999999321532","sequential-stimulus-presentation-old","43","173340","0.0-15.0-1.1","SS1618364942390","trial","","40","500","647.5899999932153","images/stimuli/spore_stims/complex_03_A_b.gif","images/stimuli/spore_stims/complex_02_A_a.gif","self_paced","","3","complex_dissimilar","images/stimuli/spore_stims/complex_02_A_a.gif","","","","",""
"","null","html-keyboard-response","44","174578","0.0-15.0-0.2","SS1618364942390","","","null","","","","","","<p><img src= images/blank.png width =""600"" height = ""600"" style=""position:fixed;top:50%; left:50%; transform: translate(-50%, -50%); border:5px solid black"">","","","","","","","",""
"","137.41500000469387","sequential-stimulus-presentation-old","45","175220","0.0-15.0-1.2","SS1618364942390","trial","","40","500","637.4150000046939","images/stimuli/spore_stims/complex_03_A_b.gif","images/stimuli/spore_stims/complex_02_A_a.gif","self_paced","","3","complex_dissimilar","images/stimuli/spore_stims/complex_02_A_a.gif","","","","",""
"","null","html-keyboard-response","46","176485","0.0-15.0-0.3","SS1618364942390","","","null","","","","","","<p><img src= images/blank.png width =""600"" height = ""600"" style=""position:fixed;top:50%; left:50%; transform: translate(-50%, -50%); border:5px solid black"">","","","","","","","",""
"","189.17000001238193","sequential-stimulus-presentation-old","47","177181","0.0-15.0-1.3","SS1618364942390","trial","","40","500","689.1700000123819","images/stimuli/spore_stims/complex_03_A_b.gif","images/stimuli/spore_stims/complex_02_A_a.gif","self_paced","","3","complex_dissimilar","images/stimuli/spore_stims/complex_03_A_b.gif","","","","",""
"","3108.654999989085","survey-multi-choice","48","180301","0.0-16.0","SS1618364942390","math_question","","","","","","","","","","","","{""Q0"":""10""}","[0]","10","",""
"","null","html-keyboard-response","49","181146","0.0-17.0-0.0","SS1618364942390","","","null","","","","","","<p><img src= images/blank.png width =""600"" height = ""600"" style=""position:fixed;top:50%; left:50%; transform: translate(-50%, -50%); border:5px solid black"">","","","","","","","",""
"","4682.104999999865","sequential-stimulus-presentation-old","50","185885","0.0-17.0-1.0","SS1618364942390","trial","","40","500","5182.104999999865","images/stimuli/spore_stims/simple_14_A_b.gif","images/stimuli/spore_stims/simple_10_A_a.gif","forced_short","","4","simple_dissimilar","images/stimuli/spore_stims/simple_10_A_a.gif","","","","",""
"","null","html-keyboard-response","51","186753","0.0-17.0-0.1","SS1618364942390","","","null","","","","","","<p><img src= images/blank.png width =""600"" height = ""600"" style=""position:fixed;top:50%; left:50%; transform: translate(-50%, -50%); border:5px solid black"">","","","","","","","",""
"","191.59499999659602","sequential-stimulus-presentation-old","52","187461","0.0-17.0-1.1","SS1618364942390","trial","","40","500","691.594999996596","images/stimuli/spore_stims/simple_14_A_b.gif","images/stimuli/spore_stims/simple_10_A_a.gif","forced_short","","4","simple_dissimilar","images/stimuli/spore_stims/simple_10_A_a.gif","","","","",""
"","null","html-keyboard-response","53","188552","0.0-17.0-0.2","SS1618364942390","","","null","","","","","","<p><img src= images/blank.png width =""600"" height = ""600"" style=""position:fixed;top:50%; left:50%; transform: translate(-50%, -50%); border:5px solid black"">","","","","","","","",""
"","289.38999999081716","sequential-stimulus-presentation-old","54","189349","0.0-17.0-1.2","SS1618364942390","trial","","40","500","789.3899999908172","images/stimuli/spore_stims/simple_14_A_b.gif","images/stimuli/spore_stims/simple_10_A_a.gif","forced_short","","4","simple_dissimilar","images/stimuli/spore_stims/simple_10_A_a.gif","","","","",""
"","null","html-keyboard-response","55","190369","0.0-17.0-0.3","SS1618364942390","","","null","","","","","","<p><img src= images/blank.png width =""600"" height = ""600"" style=""position:fixed;top:50%; left:50%; transform: translate(-50%, -50%); border:5px solid black"">","","","","","","","",""
"","832.0799999928568","sequential-stimulus-presentation-old","56","191717","0.0-17.0-1.3","SS1618364942390","trial","","40","500","1332.0799999928568","images/stimuli/spore_stims/simple_14_A_b.gif","images/stimuli/spore_stims/simple_10_A_a.gif","forced_short","","4","simple_dissimilar","images/stimuli/spore_stims/simple_10_A_a.gif","","","","",""
"","null","html-keyboard-response","57","192961","0.0-17.0-0.4","SS1618364942390","","","null","","","","","","<p><img src= images/blank.png width =""600"" height = ""600"" style=""position:fixed;top:50%; left:50%; transform: translate(-50%, -50%); border:5px solid black"">","","","","","","","",""
"","338.26000000408385","sequential-stimulus-presentation-old","58","193804","0.0-17.0-1.4","SS1618364942390","trial","","40","500","838.2600000040838","images/stimuli/spore_stims/simple_14_A_b.gif","images/stimuli/spore_stims/simple_10_A_a.gif","forced_short","","4","simple_dissimilar","images/stimuli/spore_stims/simple_10_A_a.gif","","","","",""
"","null","html-keyboard-response","59","195107","0.0-17.0-0.5","SS1618364942390","","","null","","","","","","<p><img src= images/blank.png width =""600"" height = ""600"" style=""position:fixed;top:50%; left:50%; transform: translate(-50%, -50%); border:5px solid black"">","","","","","","","",""
"","9934.47500000184","sequential-stimulus-presentation-old","60","205547","0.0-17.0-1.5","SS1618364942390","trial","","40","500","10434.47500000184","images/stimuli/spore_stims/simple_14_A_b.gif","images/stimuli/spore_stims/simple_10_A_a.gif","forced_short","","4","simple_dissimilar","images/stimuli/spore_stims/simple_10_A_a.gif","","","","",""
"","2790.3450000012526","survey-multi-choice","61","208339","0.0-18.0","SS1618364942390","math_question","","","","","","","","","","","","{""Q0"":""9""}","[0]","9","",""
"","null","html-keyboard-response","62","209390","0.0-19.0-0.0","SS1618364942390","","","null","","","","","","<p><img src= images/blank.png width =""600"" height = ""600"" style=""position:fixed;top:50%; left:50%; transform: translate(-50%, -50%); border:5px solid black"">","","","","","","","",""
"","571.2400000047637","sequential-stimulus-presentation-old","63","214972","0.0-19.0-1.0","SS1618364942390","trial","","40","500","1071.2400000047637","images/stimuli/spore_stims/simple_11_A_a.gif","images/stimuli/spore_stims/simple_02_A_b.gif","forced_long","","5","simple_dissimilar","images/stimuli/spore_stims/simple_02_A_b.gif","","","","",""
"","null","html-keyboard-response","64","215807","0.0-19.0-0.1","SS1618364942390","","","null","","","","","","<p><img src= images/blank.png width =""600"" height = ""600"" style=""position:fixed;top:50%; left:50%; transform: translate(-50%, -50%); border:5px solid black"">","","","","","","","",""
"","344.15000000444707","sequential-stimulus-presentation-old","65","216661","0.0-19.0-1.1","SS1618364942390","trial","","40","500","844.1500000044471","images/stimuli/spore_stims/simple_11_A_a.gif","images/stimuli/spore_stims/simple_02_A_b.gif","forced_long","","5","simple_dissimilar","images/stimuli/spore_stims/simple_02_A_b.gif","","","","",""
"","null","html-keyboard-response","66","217815","0.0-19.0-0.2","SS1618364942390","","","null","","","","","","<p><img src= images/blank.png width =""600"" height = ""600"" style=""position:fixed;top:50%; left:50%; transform: translate(-50%, -50%); border:5px solid black"">","","","","","","","",""
"","164.2450000072131","sequential-stimulus-presentation-old","67","218484","0.0-19.0-1.2","SS1618364942390","trial","","40","500","664.2450000072131","images/stimuli/spore_stims/simple_11_A_a.gif","images/stimuli/spore_stims/simple_02_A_b.gif","forced_long","","5","simple_dissimilar","images/stimuli/spore_stims/simple_11_A_a.gif","","","","",""
"","null","html-keyboard-response","68","219687","0.0-19.0-0.3","SS1618364942390","","","null","","","","","","<p><img src= images/blank.png width =""600"" height = ""600"" style=""position:fixed;top:50%; left:50%; transform: translate(-50%, -50%); border:5px solid black"">","","","","","","","",""
"","75.54000000527594","sequential-stimulus-presentation-old","69","220268","0.0-19.0-1.3","SS1618364942390","trial","","40","500","575.5400000052759","images/stimuli/spore_stims/simple_11_A_a.gif","images/stimuli/spore_stims/simple_02_A_b.gif","forced_long","","5","simple_dissimilar","images/stimuli/spore_stims/simple_02_A_b.gif","","","","",""
"","2288.8499999971827","survey-multi-choice","70","222562","0.0-20.0","SS1618364942390","math_question","","","","","","","","","","","","{""Q0"":""9""}","[0]","9","",""
"","null","html-keyboard-response","71","223515","0.0-21.0-0.0","SS1618364942390","","","null","","","","","","<p><img src= images/blank.png width =""600"" height = ""600"" style=""position:fixed;top:50%; left:50%; transform: translate(-50%, -50%); border:5px solid black"">","","","","","","","",""
"","194.72500000847504","sequential-stimulus-presentation-old","72","228717","0.0-21.0-1.0","SS1618364942390","trial","","40","500","694.725000008475","images/stimuli/spore_stims/complex_13_A_b.gif","images/stimuli/spore_stims/complex_03_A_a.gif","forced_long","","6","complex_dissimilar","images/stimuli/spore_stims/complex_03_A_a.gif","","","","",""
"","null","html-keyboard-response","73","229535","0.0-21.0-0.1","SS1618364942390","","","null","","","","","","<p><img src= images/blank.png width =""600"" height = ""600"" style=""position:fixed;top:50%; left:50%; transform: translate(-50%, -50%); border:5px solid black"">","","","","","","","",""
"","2314.5599999988917","sequential-stimulus-presentation-old","74","232356","0.0-21.0-1.1","SS1618364942390","trial","","40","500","2814.5599999988917","images/stimuli/spore_stims/complex_13_A_b.gif","images/stimuli/spore_stims/complex_03_A_a.gif","forced_long","","6","complex_dissimilar","images/stimuli/spore_stims/complex_03_A_a.gif","","","","",""
"","null","html-keyboard-response","75","233283","0.0-21.0-0.2","SS1618364942390","","","null","","","","","","<p><img src= images/blank.png width =""600"" height = ""600"" style=""position:fixed;top:50%; left:50%; transform: translate(-50%, -50%); border:5px solid black"">","","","","","","","",""
"","149.40999999816995","sequential-stimulus-presentation-old","76","233940","0.0-21.0-1.2","SS1618364942390","trial","","40","500","649.40999999817","images/stimuli/spore_stims/complex_13_A_b.gif","images/stimuli/spore_stims/complex_03_A_a.gif","forced_long","","6","complex_dissimilar","images/stimuli/spore_stims/complex_13_A_b.gif","","","","",""
"","null","html-keyboard-response","77","235108","0.0-21.0-0.3","SS1618364942390","","","null","","","","","","<p><img src= images/blank.png width =""600"" height = ""600"" style=""position:fixed;top:50%; left:50%; transform: translate(-50%, -50%); border:5px solid black"">","","","","","","","",""
"","77.90499999828171","sequential-stimulus-presentation-old","78","235692","0.0-21.0-1.3","SS1618364942390","trial","","40","500","577.9049999982817","images/stimuli/spore_stims/complex_13_A_b.gif","images/stimuli/spore_stims/complex_03_A_a.gif","forced_long","","6","complex_dissimilar","images/stimuli/spore_stims/complex_13_A_b.gif","","","","",""
"","null","html-keyboard-response","79","236744","0.0-21.0-0.4","SS1618364942390","","","null","","","","","","<p><img src= images/blank.png width =""600"" height = ""600"" style=""position:fixed;top:50%; left:50%; transform: translate(-50%, -50%); border:5px solid black"">","","","","","","","",""
"","0.3549999964889139","sequential-stimulus-presentation-old","80","237254","0.0-21.0-1.4","SS1618364942390","trial","","40","500","500.3549999964889","images/stimuli/spore_stims/complex_13_A_b.gif","images/stimuli/spore_stims/complex_03_A_a.gif","forced_long","","6","complex_dissimilar","images/stimuli/spore_stims/complex_03_A_a.gif","","","","",""
"","2745.839999988675","survey-multi-choice","81","239993","0.0-22.0","SS1618364942390","math_question","","","","","","","","","","","","{""Q0"":""11""}","[0]","11","",""
"","null","html-keyboard-response","82","241247","0.0-23.0-0.0","SS1618364942390","","","null","","","","","","<p><img src= images/blank.png width =""600"" height = ""600"" style=""position:fixed;top:50%; left:50%; transform: translate(-50%, -50%); border:5px solid black"">","","","","","","","",""
"","334.31500000006054","sequential-stimulus-presentation-old","83","241650","0.0-23.0-1.0","SS1618364942390","trial","","40","500","834.3150000000605","images/stimuli/spore_stims/complex_02_A_b.gif","images/stimuli/spore_stims/complex_16_A_a.gif","forced_short","","7","complex_dissimilar","images/stimuli/spore_stims/complex_16_A_a.gif","","","","",""
"","null","html-keyboard-response","84","242659","0.0-23.0-0.1","SS1618364942390","","","null","","","","","","<p><img src= images/blank.png width =""600"" height = ""600"" style=""position:fixed;top:50%; left:50%; transform: translate(-50%, -50%); border:5px solid black"">","","","","","","","",""
"","229.29999999178108","sequential-stimulus-presentation-old","85","243394","0.0-23.0-1.1","SS1618364942390","trial","","40","500","729.2999999917811","images/stimuli/spore_stims/complex_02_A_b.gif","images/stimuli/spore_stims/complex_16_A_a.gif","forced_short","","7","complex_dissimilar","images/stimuli/spore_stims/complex_16_A_a.gif","","","","",""
"","null","html-keyboard-response","86","244357","0.0-23.0-0.2","SS1618364942390","","","null","","","","","","<p><img src= images/blank.png width =""600"" height = ""600"" style=""position:fixed;top:50%; left:50%; transform: translate(-50%, -50%); border:5px solid black"">","","","","","","","",""
"","90.33000000636093","sequential-stimulus-presentation-old","87","244953","0.0-23.0-1.2","SS1618364942390","trial","","40","500","590.3300000063609","images/stimuli/spore_stims/complex_02_A_b.gif","images/stimuli/spore_stims/complex_16_A_a.gif","forced_short","","7","complex_dissimilar","images/stimuli/spore_stims/complex_16_A_a.gif","","","","",""
"","null","html-keyboard-response","88","246132","0.0-23.0-0.3","SS1618364942390","","","null","","","","","","<p><img src= images/blank.png width =""600"" height = ""600"" style=""position:fixed;top:50%; left:50%; transform: translate(-50%, -50%); border:5px solid black"">","","","","","","","",""
"","138.6249999923166","sequential-stimulus-presentation-old","89","246778","0.0-23.0-1.3","SS1618364942390","trial","","40","500","638.6249999923166","images/stimuli/spore_stims/complex_02_A_b.gif","images/stimuli/spore_stims/complex_16_A_a.gif","forced_short","","7","complex_dissimilar","images/stimuli/spore_stims/complex_16_A_a.gif","","","","",""
"","3155.4199999955017","survey-multi-choice","90","249939","0.0-24.0","SS1618364942390","math_question","","","","","","","","","","","","{""Q0"":""13""}","[0]","13","",""
"","null","html-keyboard-response","91","251026","0.0-25.0-0.0","SS1618364942390","","","null","","","","","","<p><img src= images/blank.png width =""600"" height = ""600"" style=""position:fixed;top:50%; left:50%; transform: translate(-50%, -50%); border:5px solid black"">","","","","","","","",""
"","2864.320000007865","sequential-stimulus-presentation-old","92","258897","0.0-25.0-1.0","SS1618364942390","trial","","40","500","3364.320000007865","images/stimuli/spore_stims/simple_08_A_b.gif","images/stimuli/spore_stims/simple_04_A_a.gif","forced_long","","8","simple_dissimilar","images/stimuli/spore_stims/simple_04_A_a.gif","","","","",""
"","null","html-keyboard-response","93","259768","0.0-25.0-0.1","SS1618364942390","","","null","","","","","","<p><img src= images/blank.png width =""600"" height = ""600"" style=""position:fixed;top:50%; left:50%; transform: translate(-50%, -50%); border:5px solid black"">","","","","","","","",""
"","8.440000005066395","sequential-stimulus-presentation-old","94","260282","0.0-25.0-1.1","SS1618364942390","trial","","40","500","508.4400000050664","images/stimuli/spore_stims/simple_08_A_b.gif","images/stimuli/spore_stims/simple_04_A_a.gif","forced_long","","8","simple_dissimilar","images/stimuli/spore_stims/simple_08_A_b.gif","","","","",""
"","null","html-keyboard-response","95","261429","0.0-25.0-0.2","SS1618364942390","","","null","","","","","","<p><img src= images/blank.png width =""600"" height = ""600"" style=""position:fixed;top:50%; left:50%; transform: translate(-50%, -50%); border:5px solid black"">","","","","","","","",""
"","122.58000001020264","sequential-stimulus-presentation-old","96","262058","0.0-25.0-1.2","SS1618364942390","trial","","40","500","622.5800000102026","images/stimuli/spore_stims/simple_08_A_b.gif","images/stimuli/spore_stims/simple_04_A_a.gif","forced_long","","8","simple_dissimilar","images/stimuli/spore_stims/simple_04_A_a.gif","","","","",""
"","null","html-keyboard-response","97","263356","0.0-25.0-0.3","SS1618364942390","","","null","","","","","","<p><img src= images/blank.png width =""600"" height = ""600"" style=""position:fixed;top:50%; left:50%; transform: translate(-50%, -50%); border:5px solid black"">","","","","","","","",""
"","183.32999999984168","sequential-stimulus-presentation-old","98","264058","0.0-25.0-1.3","SS1618364942390","trial","","40","500","683.3299999998417","images/stimuli/spore_stims/simple_08_A_b.gif","images/stimuli/spore_stims/simple_04_A_a.gif","forced_long","","8","simple_dissimilar","images/stimuli/spore_stims/simple_04_A_a.gif","","","","",""
"","null","html-keyboard-response","99","265183","0.0-25.0-0.4","SS1618364942390","","","null","","","","","","<p><img src= images/blank.png width =""600"" height = ""600"" style=""position:fixed;top:50%; left:50%; transform: translate(-50%, -50%); border:5px solid black"">","","","","","","","",""
"","136.72999999835156","sequential-stimulus-presentation-old","100","265827","0.0-25.0-1.4","SS1618364942390","trial","","40","500","636.7299999983516","images/stimuli/spore_stims/simple_08_A_b.gif","images/stimuli/spore_stims/simple_04_A_a.gif","forced_long","","8","simple_dissimilar","images/stimuli/spore_stims/simple_04_A_a.gif","","","","",""
"","null","html-keyboard-response","101","267105","0.0-25.0-0.5","SS1618364942390","","","null","","","","","","<p><img src= images/blank.png width =""600"" height = ""600"" style=""position:fixed;top:50%; left:50%; transform: translate(-50%, -50%); border:5px solid black"">","","","","","","","",""
"","142.83000001159962","sequential-stimulus-presentation-old","102","267754","0.0-25.0-1.5","SS1618364942390","trial","","40","500","642.8300000115996","images/stimuli/spore_stims/simple_08_A_b.gif","images/stimuli/spore_stims/simple_04_A_a.gif","forced_long","","8","simple_dissimilar","images/stimuli/spore_stims/simple_04_A_a.gif","","","","",""
"","2711.4049999945564","survey-multi-choice","103","270472","0.0-26.0","SS1618364942390","math_question","","","","","","","","","","","","{""Q0"":""12""}","[0]","12","",""
"","null","html-keyboard-response","104","271381","0.0-27.0-0.0","SS1618364942390","","","null","","","","","","<p><img src= images/blank.png width =""600"" height = ""600"" style=""position:fixed;top:50%; left:50%; transform: translate(-50%, -50%); border:5px solid black"">","","","","","","","",""
"","129.99000000127126","sequential-stimulus-presentation-old","105","272018","0.0-27.0-1.0","SS1618364942390","trial","","40","500","629.9900000012713","images/stimuli/spore_stims/complex_14_A_b.gif","images/stimuli/spore_stims/complex_01_A_a.gif","self_paced","","9","complex_dissimilar","images/stimuli/spore_stims/complex_01_A_a.gif","","","","",""
"","null","html-keyboard-response","106","272909","0.0-27.0-0.1","SS1618364942390","","","null","","","","","","<p><img src= images/blank.png width =""600"" height = ""600"" style=""position:fixed;top:50%; left:50%; transform: translate(-50%, -50%); border:5px solid black"">","","","","","","","",""
"","47.514999998384155","sequential-stimulus-presentation-old","107","273474","0.0-27.0-1.1","SS1618364942390","trial","","40","500","547.5149999983842","images/stimuli/spore_stims/complex_14_A_b.gif","images/stimuli/spore_stims/complex_01_A_a.gif","self_paced","","9","complex_dissimilar","images/stimuli/spore_stims/complex_01_A_a.gif","","","","",""
"","null","html-keyboard-response","108","274456","0.0-27.0-0.2","SS1618364942390","","","null","","","","","","<p><img src= images/blank.png width =""600"" height = ""600"" style=""position:fixed;top:50%; left:50%; transform: translate(-50%, -50%); border:5px solid black"">","","","","","","","",""
"","73.68000000133179","sequential-stimulus-presentation-old","109","275034","0.0-27.0-1.2","SS1618364942390","trial","","40","500","573.6800000013318","images/stimuli/spore_stims/complex_14_A_b.gif","images/stimuli/spore_stims/complex_01_A_a.gif","self_paced","","9","complex_dissimilar","images/stimuli/spore_stims/complex_14_A_b.gif","","","","",""
"","null","html-keyboard-response","110","275991","0.0-27.0-0.3","SS1618364942390","","","null","","","","","","<p><img src= images/blank.png width =""600"" height = ""600"" style=""position:fixed;top:50%; left:50%; transform: translate(-50%, -50%); border:5px solid black"">","","","","","","","",""
"","131.2550000002375","sequential-stimulus-presentation-old","111","276626","0.0-27.0-1.3","SS1618364942390","trial","","40","500","631.2550000002375","images/stimuli/spore_stims/complex_14_A_b.gif","images/stimuli/spore_stims/complex_01_A_a.gif","self_paced","","9","complex_dissimilar","images/stimuli/spore_stims/complex_01_A_a.gif","","","","",""
"","null","html-keyboard-response","112","277553","0.0-27.0-0.4","SS1618364942390","","","null","","","","","","<p><img src= images/blank.png width =""600"" height = ""600"" style=""position:fixed;top:50%; left:50%; transform: translate(-50%, -50%); border:5px solid black"">","","","","","","","",""
"","86.96000000054482","sequential-stimulus-presentation-old","113","278146","0.0-27.0-1.4","SS1618364942390","trial","","40","500","586.9600000005448","images/stimuli/spore_stims/complex_14_A_b.gif","images/stimuli/spore_stims/complex_01_A_a.gif","self_paced","","9","complex_dissimilar","images/stimuli/spore_stims/complex_01_A_a.gif","","","","",""
"","null","html-keyboard-response","114","279031","0.0-27.0-0.5","SS1618364942390","","","null","","","","","","<p><img src= images/blank.png width =""600"" height = ""600"" style=""position:fixed;top:50%; left:50%; transform: translate(-50%, -50%); border:5px solid black"">","","","","","","","",""
"","150.64500000153203","sequential-stimulus-presentation-old","115","279689","0.0-27.0-1.5","SS1618364942390","trial","","40","500","650.645000001532","images/stimuli/spore_stims/complex_14_A_b.gif","images/stimuli/spore_stims/complex_01_A_a.gif","self_paced","","9","complex_dissimilar","images/stimuli/spore_stims/complex_14_A_b.gif","","","","",""
"","2524.2599999910453","survey-multi-choice","116","282216","0.0-28.0","SS1618364942390","math_question","","","","","","","","","","","","{""Q0"":""11""}","[0]","11","",""
"","null","html-keyboard-response","117","283276","0.0-29.0-0.0","SS1618364942390","","","null","","","","","","<p><img src= images/blank.png width =""600"" height = ""600"" style=""position:fixed;top:50%; left:50%; transform: translate(-50%, -50%); border:5px solid black"">","","","","","","","",""
"","155.53500001260545","sequential-stimulus-presentation-old","118","283938","0.0-29.0-1.0","SS1618364942390","trial","","40","500","655.5350000126055","images/stimuli/spore_stims/simple_20_A_b.gif","images/stimuli/spore_stims/simple_06_A_a.gif","self_paced","","10","simple_dissimilar","images/stimuli/spore_stims/simple_06_A_a.gif","","","","",""
"","null","html-keyboard-response","119","285072","0.0-29.0-0.1","SS1618364942390","","","null","","","","","","<p><img src= images/blank.png width =""600"" height = ""600"" style=""position:fixed;top:50%; left:50%; transform: translate(-50%, -50%); border:5px solid black"">","","","","","","","",""
"","26.555000004009344","sequential-stimulus-presentation-old","120","285603","0.0-29.0-1.1","SS1618364942390","trial","","40","500","526.5550000040093","images/stimuli/spore_stims/simple_20_A_b.gif","images/stimuli/spore_stims/simple_06_A_a.gif","self_paced","","10","simple_dissimilar","images/stimuli/spore_stims/simple_06_A_a.gif","","","","",""
"","null","html-keyboard-response","121","286854","0.0-29.0-0.2","SS1618364942390","","","null","","","","","","<p><img src= images/blank.png width =""600"" height = ""600"" style=""position:fixed;top:50%; left:50%; transform: translate(-50%, -50%); border:5px solid black"">","","","","","","","",""
"","123.35500000335742","sequential-stimulus-presentation-old","122","287498","0.0-29.0-1.2","SS1618364942390","trial","","40","500","623.3550000033574","images/stimuli/spore_stims/simple_20_A_b.gif","images/stimuli/spore_stims/simple_06_A_a.gif","self_paced","","10","simple_dissimilar","images/stimuli/spore_stims/simple_20_A_b.gif","","","","",""
"","null","html-keyboard-response","123","288625","0.0-29.0-0.3","SS1618364942390","","","null","","","","","","<p><img src= images/blank.png width =""600"" height = ""600"" style=""position:fixed;top:50%; left:50%; transform: translate(-50%, -50%); border:5px solid black"">","","","","","","","",""
"","22.720000008121133","sequential-stimulus-presentation-old","124","289154","0.0-29.0-1.3","SS1618364942390","trial","","40","500","522.7200000081211","images/stimuli/spore_stims/simple_20_A_b.gif","images/stimuli/spore_stims/simple_06_A_a.gif","self_paced","","10","simple_dissimilar","images/stimuli/spore_stims/simple_06_A_a.gif","","","","",""
"","null","html-keyboard-response","125","290231","0.0-29.0-0.4","SS1618364942390","","","null","","","","","","<p><img src= images/blank.png width =""600"" height = ""600"" style=""position:fixed;top:50%; left:50%; transform: translate(-50%, -50%); border:5px solid black"">","","","","","","","",""
"","143.98000000801403","sequential-stimulus-presentation-old","126","290881","0.0-29.0-1.4","SS1618364942390","trial","","40","500","643.980000008014","images/stimuli/spore_stims/simple_20_A_b.gif","images/stimuli/spore_stims/simple_06_A_a.gif","self_paced","","10","simple_dissimilar","images/stimuli/spore_stims/simple_06_A_a.gif","","","","",""
"","4996.239999993122","survey-multi-choice","127","295881","0.0-30.0","SS1618364942390","math_question","","","","","","","","","","","","{""Q0"":""7""}","[0]","7","",""
"","null","html-keyboard-response","128","296792","0.0-31.0-0.0","SS1618364942390","","","null","","","","","","<p><img src= images/blank.png width =""600"" height = ""600"" style=""position:fixed;top:50%; left:50%; transform: translate(-50%, -50%); border:5px solid black"">","","","","","","","",""
"","222.5449999968987","sequential-stimulus-presentation-old","129","297533","0.0-31.0-1.0","SS1618364942390","trial","","40","500","722.5449999968987","images/stimuli/spore_stims/simple_20_A_a.gif","images/stimuli/spore_stims/simple_17_A_b.gif","self_paced","","11","simple_dissimilar","images/stimuli/spore_stims/simple_17_A_b.gif","","","","",""
"","null","html-keyboard-response","130","298549","0.0-31.0-0.1","SS1618364942390","","","null","","","","","","<p><img src= images/blank.png width =""600"" height = ""600"" style=""position:fixed;top:50%; left:50%; transform: translate(-50%, -50%); border:5px solid black"">","","","","","","","",""
"","55.84499999531545","sequential-stimulus-presentation-old","131","299116","0.0-31.0-1.1","SS1618364942390","trial","","40","500","555.8449999953154","images/stimuli/spore_stims/simple_20_A_a.gif","images/stimuli/spore_stims/simple_17_A_b.gif","self_paced","","11","simple_dissimilar","images/stimuli/spore_stims/simple_17_A_b.gif","","","","",""
"","null","html-keyboard-response","132","301146","0.0-31.0-0.2","SS1618364942390","","","null","","","","","","<p><img src= images/blank.png width =""600"" height = ""600"" style=""position:fixed;top:50%; left:50%; transform: translate(-50%, -50%); border:5px solid black"">","","","","","","","",""
"","5752.360000013141","sequential-stimulus-presentation-old","133","307894","0.0-31.0-1.2","SS1618364942390","trial","","40","500","6252.360000013141","images/stimuli/spore_stims/simple_20_A_a.gif","images/stimuli/spore_stims/simple_17_A_b.gif","self_paced","","11","simple_dissimilar","images/stimuli/spore_stims/simple_20_A_a.gif","","","","",""
"","null","html-keyboard-response","134","308743","0.0-31.0-0.3","SS1618364942390","","","null","","","","","","<p><img src= images/blank.png width =""600"" height = ""600"" style=""position:fixed;top:50%; left:50%; transform: translate(-50%, -50%); border:5px solid black"">","","","","","","","",""
"","209.7900000080699","sequential-stimulus-presentation-old","135","309461","0.0-31.0-1.3","SS1618364942390","trial","","40","500","709.7900000080699","images/stimuli/spore_stims/simple_20_A_a.gif","images/stimuli/spore_stims/simple_17_A_b.gif","self_paced","","11","simple_dissimilar","images/stimuli/spore_stims/simple_20_A_a.gif","","","","",""
"","null","html-keyboard-response","136","310309","0.0-31.0-0.4","SS1618364942390","","","null","","","","","","<p><img src= images/blank.png width =""600"" height = ""600"" style=""position:fixed;top:50%; left:50%; transform: translate(-50%, -50%); border:5px solid black"">","","","","","","","",""
"","171.90499999560416","sequential-stimulus-presentation-old","137","310989","0.0-31.0-1.4","SS1618364942390","trial","","40","500","671.9049999956042","images/stimuli/spore_stims/simple_20_A_a.gif","images/stimuli/spore_stims/simple_17_A_b.gif","self_paced","","11","simple_dissimilar","images/stimuli/spore_stims/simple_17_A_b.gif","","","","",""
"","null","html-keyboard-response","138","312052","0.0-31.0-0.5","SS1618364942390","","","null","","","","","","<p><img src= images/blank.png width =""600"" height = ""600"" style=""position:fixed;top:50%; left:50%; transform: translate(-50%, -50%); border:5px solid black"">","","","","","","","",""
"","268.4000000008382","sequential-stimulus-presentation-old","139","312829","0.0-31.0-1.5","SS1618364942390","trial","","40","500","768.4000000008382","images/stimuli/spore_stims/simple_20_A_a.gif","images/stimuli/spore_stims/simple_17_A_b.gif","self_paced","","11","simple_dissimilar","images/stimuli/spore_stims/simple_17_A_b.gif","","","","",""
"[{""page_index"":0,""viewing_time"":6611.835000003339}]","6612.115000010817","instructions","140","319448","0.0-32.0","SS1618364942390","instructions","","","","","","","","","","","","","","","",""
"","8019.805000003544","survey-likert","141","327472","0.0-33.0","SS1618364942390","similarity_question","","","","","","","","","","","","{""Q0"":4}","[0]","","images/stimuli/spore_stims/simple_10_A_b.gif","images/stimuli/spore_stims/simple_02_A_a.gif"
"","3300.185000000056","survey-likert","142","330777","0.0-34.0","SS1618364942390","similarity_question","","","","","","","","","","","","{""Q0"":3}","[0]","","images/stimuli/spore_stims/simple_04_A_a.gif","images/stimuli/spore_stims/simple_08_A_b.gif"
"","3972.829999998794","survey-likert","143","334754","0.0-35.0","SS1618364942390","similarity_question","","","","","","","","","","","","{""Q0"":3}","[0]","","images/stimuli/spore_stims/complex_08_A_a.gif","images/stimuli/spore_stims/complex_20_A_b.gif"
"","2888.6550000024727","survey-likert","144","337647","0.0-36.0","SS1618364942390","similarity_question","","","","","","","","","","","","{""Q0"":2}","[0]","","images/stimuli/spore_stims/complex_02_A_a.gif","images/stimuli/spore_stims/complex_03_A_b.gif"
"","69969.27499999583","survey-likert","145","407622","0.0-37.0","SS1618364942390","similarity_question","","","","","","","","","","","","{""Q0"":3}","[0]","","images/stimuli/spore_stims/simple_14_A_b.gif","images/stimuli/spore_stims/simple_10_A_a.gif"
"","3863.5400000057416","survey-likert","146","411498","0.0-38.0","SS1618364942390","similarity_question","","","","","","","","","","","","{""Q0"":2}","[0]","","images/stimuli/spore_stims/complex_03_A_a.gif","images/stimuli/spore_stims/complex_13_A_b.gif"
"","3507.3949999932665","survey-likert","147","415009","0.0-39.0","SS1618364942390","similarity_question","","","","","","","","","","","","{""Q0"":5}","[0]","","images/stimuli/spore_stims/simple_17_A_b.gif","images/stimuli/spore_stims/simple_20_A_a.gif"
"","3837.905000007595","survey-likert","148","418852","0.0-40.0","SS1618364942390","similarity_question","","","","","","","","","","","","{""Q0"":4}","[0]","","images/stimuli/spore_stims/complex_14_A_b.gif","images/stimuli/spore_stims/complex_01_A_a.gif"
"","2376.3400000025285","survey-likert","149","421233","0.0-41.0","SS1618364942390","similarity_question","","","","","","","","","","","","{""Q0"":5}","[0]","","images/stimuli/spore_stims/simple_06_A_a.gif","images/stimuli/spore_stims/simple_20_A_b.gif"
"","2494.6749999944586","survey-likert","150","423732","0.0-42.0","SS1618364942390","similarity_question","","","","","","","","","","","","{""Q0"":2}","[0]","","images/stimuli/spore_stims/complex_01_A_b.gif","images/stimuli/spore_stims/complex_12_A_a.gif"
"","3285.8200000046054","survey-likert","151","427022","0.0-43.0","SS1618364942390","similarity_question","","","","","","","","","","","","{""Q0"":2}","[0]","","images/stimuli/spore_stims/complex_02_A_b.gif","images/stimuli/spore_stims/complex_16_A_a.gif"
"","2885.6349999987287","survey-likert","152","429912","0.0-44.0","SS1618364942390","similarity_question","","","","","","","","","","","","{""Q0"":3}","[0]","","images/stimuli/spore_stims/simple_11_A_a.gif","images/stimuli/spore_stims/simple_02_A_b.gif"
"[{""page_index"":0,""viewing_time"":7643.710000003921}]","7643.960000001243","instructions","153","437559","0.0-45.0","SS1618364942390","instructions","","","","","","","","","","","","","","","",""
"","6360.889999996289","survey-likert","154","443924","0.0-46.0","SS1618364942390","","","","","","","","","images/stimuli/spore_stims/simple_17_A_b.gif","","","","{""Q0"":2}","[0]","","",""
"","3205.5899999977555","survey-likert","155","447135","0.0-47.0","SS1618364942390","","","","","","","","","images/stimuli/spore_stims/complex_16_A_a.gif","","","","{""Q0"":4}","[0]","","",""
"","2346.1349999997765","survey-likert","156","449486","0.0-48.0","SS1618364942390","","","","","","","","","images/stimuli/spore_stims/simple_08_A_b.gif","","","","{""Q0"":1}","[0]","","",""
"","4003.4900000027847","survey-likert","157","453494","0.0-49.0","SS1618364942390","","","","","","","","","images/stimuli/spore_stims/complex_03_A_b.gif","","","","{""Q0"":4}","[0]","","",""
"","4580.199999996694","survey-likert","158","458078","0.0-50.0","SS1618364942390","","","","","","","","","images/stimuli/spore_stims/complex_08_A_a.gif","","","","{""Q0"":4}","[0]","","",""
"","2599.0699999965727","survey-likert","159","460682","0.0-51.0","SS1618364942390","","","","","","","","","images/stimuli/spore_stims/simple_10_A_b.gif","","","","{""Q0"":1}","[0]","","",""
"","2665.8650000026682","survey-likert","160","463352","0.0-52.0","SS1618364942390","","","","","","","","","images/stimuli/spore_stims/simple_14_A_b.gif","","","","{""Q0"":2}","[0]","","",""
"","3227.020000005723","survey-likert","161","466584","0.0-53.0","SS1618364942390","","","","","","","","","images/stimuli/spore_stims/complex_03_A_a.gif","","","","{""Q0"":4}","[0]","","",""
"","3857.385000010254","survey-likert","162","470446","0.0-54.0","SS1618364942390","","","","","","","","","images/stimuli/spore_stims/simple_20_A_b.gif","","","","{""Q0"":3}","[0]","","",""
"","2842.015000001993","survey-likert","163","473293","0.0-55.0","SS1618364942390","","","","","","","","","images/stimuli/spore_stims/complex_01_A_b.gif","","","","{""Q0"":4}","[0]","","",""
"","2177.5199999974575","survey-likert","164","475475","0.0-56.0","SS1618364942390","","","","","","","","","images/stimuli/spore_stims/complex_14_A_b.gif","","","","{""Q0"":4}","[0]","","",""
"","3054.8349999880884","survey-likert","165","478534","0.0-57.0","SS1618364942390","","","","","","","","","images/stimuli/spore_stims/simple_02_A_b.gif","","","","{""Q0"":1}","[0]","","",""
"[{""page_index"":0,""viewing_time"":3690.9599999926286}]","3691.209999989951","instructions","166","482230","0.0-58.0","SS1618364942390","instructions","","","","","","","","","","","","","","","",""
"","2919.175000002724","demog-age","167","485154","0.0-59.0","SS1618364942390","","","","","","","","","","","","","{""age"":""32""}","","","",""
"","4749.485000007553","demog-ethnic-US","168","489911","0.0-60.0","SS1618364942390","","","","","","","","","","","","","{""ethnicity"":[""Asian""]}","[0]","","",""
"","5528.760000001057","demog-gender-and-education","169","495445","0.0-61.0","SS1618364942390","","","","","","","","","","","","","{""gender"":""Female"",""education"":""Master's Degree""}","[0,1]","","",""
"","9863.28499999945","survey-text","170","505314","0.0-62.0","SS1618364942390","feedback","","","","","","","","","","","","{""Q0"":""No thanks""}","","","",""
"[{""page_index"":0,""viewing_time"":2766.140000006999}]","2766.4000000077067","instructions","171","508084","0.0-63.0","SS1618364942390","instructions","","","","","","","","","","","","","","","",""
