"view_history","rt","trial_type","trial_index","time_elapsed","internal_node_id","subject","stimulus_type","trial_stimulus","key_press","minimum_viewing_duration","trial_looking_time","block_deviant","block_background","exposure_type","stimulus","block_number","block_type","stimulus_displayed","responses","question_order","math_correct_answer","stimulus_left","stimulus_right"
"[{""page_index"":0,""viewing_time"":40275.69999999832}]","40277.9700000101","instructions","0","40282","0.0-0.0","SS1618365409237","","","","","","","","","","","","","","","","",""
"[{""page_index"":0,""viewing_time"":23017.86500000162},{""page_index"":1,""viewing_time"":8981.224999995902}]","32000.130000000354","instructions","1","74299","0.0-1.0","SS1618365409237","instructions","","","","","","","","","","","","","","","",""
"","12094.440000000759","sequential-stimulus-presentation-old","2","86916","0.0-2.0","SS1618365409237","","","40","500","12594.440000000759","null","null","self_paced","","","","","","","","",""
"","66315.00499999675","sequential-stimulus-presentation-old","3","153740","0.0-3.0","SS1618365409237","","","40","500","66815.00499999675","null","null","self_paced","","","","","","","","",""
"[{""page_index"":0,""viewing_time"":52449.9450000003}]","52450.68999999785","instructions","4","206200","0.0-4.0","SS1618365409237","instructions","","","","","","","","","","","","","","","",""
"","10494.155000007595","sequential-stimulus-presentation-old","5","221704","0.0-5.0","SS1618365409237","","","40","500","10994.155000007595","null","null","forced_long","","","","","","","","",""
"","11922.52500000177","sequential-stimulus-presentation-old","6","233706","0.0-6.0","SS1618365409237","","","40","50","11972.52500000177","null","null","forced_long","","","","","","","","",""
"[{""page_index"":0,""viewing_time"":4824.1149999958}]","4825.255000003381","instructions","7","238540","0.0-7.0","SS1618365409237","instructions","","","","","","","","","","","","","","","",""
"[{""page_index"":0,""viewing_time"":65874.88499999745},{""page_index"":1,""viewing_time"":21827.805000008084},{""page_index"":2,""viewing_time"":12346.194999990985},{""page_index"":3,""viewing_time"":2442.030000005616},{""page_index"":4,""viewing_time"":1976.874999993015}]","104468.98499999952","instructions","8","343014","0.0-8.0","SS1618365409237","instructions","","","","","","","","","","","","","","","",""
"","null","html-keyboard-response","9","344185","0.0-9.0-0.0","SS1618365409237","","","null","","","","","","<p><img src= images/blank.png width =""600"" height = ""600"" style=""position:fixed;top:50%; left:50%; transform: translate(-50%, -50%); border:5px solid black"">","","","","","","","",""
"","13901.094999993802","sequential-stimulus-presentation-old","10","358611","0.0-9.0-1.0","SS1618365409237","trial","","40","500","14401.094999993802","images/stimuli/spore_stims/complex_10_A_a.gif","images/stimuli/spore_stims/complex_14_A_b.gif","self_paced","","0","complex_dissimilar","images/stimuli/spore_stims/complex_14_A_b.gif","","","","",""
"","null","html-keyboard-response","11","359448","0.0-9.0-0.1","SS1618365409237","","","null","","","","","","<p><img src= images/blank.png width =""600"" height = ""600"" style=""position:fixed;top:50%; left:50%; transform: translate(-50%, -50%); border:5px solid black"">","","","","","","","",""
"","9794.009999997797","sequential-stimulus-presentation-old","12","369767","0.0-9.0-1.1","SS1618365409237","trial","","40","500","10294.009999997797","images/stimuli/spore_stims/complex_10_A_a.gif","images/stimuli/spore_stims/complex_14_A_b.gif","self_paced","","0","complex_dissimilar","images/stimuli/spore_stims/complex_14_A_b.gif","","","","",""
"","null","html-keyboard-response","13","370656","0.0-9.0-0.2","SS1618365409237","","","null","","","","","","<p><img src= images/blank.png width =""600"" height = ""600"" style=""position:fixed;top:50%; left:50%; transform: translate(-50%, -50%); border:5px solid black"">","","","","","","","",""
"","9702.349999992293","sequential-stimulus-presentation-old","14","380889","0.0-9.0-1.2","SS1618365409237","trial","","40","500","10202.349999992293","images/stimuli/spore_stims/complex_10_A_a.gif","images/stimuli/spore_stims/complex_14_A_b.gif","self_paced","","0","complex_dissimilar","images/stimuli/spore_stims/complex_14_A_b.gif","","","","",""
"","null","html-keyboard-response","15","381749","0.0-9.0-0.3","SS1618365409237","","","null","","","","","","<p><img src= images/blank.png width =""600"" height = ""600"" style=""position:fixed;top:50%; left:50%; transform: translate(-50%, -50%); border:5px solid black"">","","","","","","","",""
"","4274.975000007544","sequential-stimulus-presentation-old","16","386556","0.0-9.0-1.3","SS1618365409237","trial","","40","500","4774.975000007544","images/stimuli/spore_stims/complex_10_A_a.gif","images/stimuli/spore_stims/complex_14_A_b.gif","self_paced","","0","complex_dissimilar","images/stimuli/spore_stims/complex_14_A_b.gif","","","","",""
"","4954.595000002882","survey-multi-choice","17","391626","0.0-10.0","SS1618365409237","math_question","","","","","","","","","","","","{""Q0"":""10""}","[0]","10","",""
"","null","html-keyboard-response","18","392455","0.0-11.0-0.0","SS1618365409237","","","null","","","","","","<p><img src= images/blank.png width =""600"" height = ""600"" style=""position:fixed;top:50%; left:50%; transform: translate(-50%, -50%); border:5px solid black"">","","","","","","","",""
"","3196.8899999919813","sequential-stimulus-presentation-old","19","395748","0.0-11.0-1.0","SS1618365409237","trial","","40","500","3696.8899999919813","images/stimuli/spore_stims/simple_12_A_a.gif","images/stimuli/spore_stims/simple_01_A_b.gif","forced_short","","1","simple_dissimilar","images/stimuli/spore_stims/simple_01_A_b.gif","","","","",""
"","null","html-keyboard-response","20","396804","0.0-11.0-0.1","SS1618365409237","","","null","","","","","","<p><img src= images/blank.png width =""600"" height = ""600"" style=""position:fixed;top:50%; left:50%; transform: translate(-50%, -50%); border:5px solid black"">","","","","","","","",""
"","4363.704999996116","sequential-stimulus-presentation-old","21","401705","0.0-11.0-1.1","SS1618365409237","trial","","40","500","4863.704999996116","images/stimuli/spore_stims/simple_12_A_a.gif","images/stimuli/spore_stims/simple_01_A_b.gif","forced_short","","1","simple_dissimilar","images/stimuli/spore_stims/simple_01_A_b.gif","","","","",""
"","null","html-keyboard-response","22","403002","0.0-11.0-0.2","SS1618365409237","","","null","","","","","","<p><img src= images/blank.png width =""600"" height = ""600"" style=""position:fixed;top:50%; left:50%; transform: translate(-50%, -50%); border:5px solid black"">","","","","","","","",""
"","4846.864999999525","sequential-stimulus-presentation-old","23","408378","0.0-11.0-1.2","SS1618365409237","trial","","40","500","5346.864999999525","images/stimuli/spore_stims/simple_12_A_a.gif","images/stimuli/spore_stims/simple_01_A_b.gif","forced_short","","1","simple_dissimilar","images/stimuli/spore_stims/simple_01_A_b.gif","","","","",""
"","null","html-keyboard-response","24","409257","0.0-11.0-0.3","SS1618365409237","","","null","","","","","","<p><img src= images/blank.png width =""600"" height = ""600"" style=""position:fixed;top:50%; left:50%; transform: translate(-50%, -50%); border:5px solid black"">","","","","","","","",""
"","4789.915000001201","sequential-stimulus-presentation-old","25","414584","0.0-11.0-1.3","SS1618365409237","trial","","40","500","5289.915000001201","images/stimuli/spore_stims/simple_12_A_a.gif","images/stimuli/spore_stims/simple_01_A_b.gif","forced_short","","1","simple_dissimilar","images/stimuli/spore_stims/simple_12_A_a.gif","","","","",""
"","null","html-keyboard-response","26","415730","0.0-11.0-0.4","SS1618365409237","","","null","","","","","","<p><img src= images/blank.png width =""600"" height = ""600"" style=""position:fixed;top:50%; left:50%; transform: translate(-50%, -50%); border:5px solid black"">","","","","","","","",""
"","4367.505000001984","sequential-stimulus-presentation-old","27","420633","0.0-11.0-1.4","SS1618365409237","trial","","40","500","4867.505000001984","images/stimuli/spore_stims/simple_12_A_a.gif","images/stimuli/spore_stims/simple_01_A_b.gif","forced_short","","1","simple_dissimilar","images/stimuli/spore_stims/simple_12_A_a.gif","","","","",""
"","4546.635000006063","survey-multi-choice","28","425199","0.0-12.0","SS1618365409237","math_question","","","","","","","","","","","","{""Q0"":""15""}","[0]","15","",""
"","null","html-keyboard-response","29","426287","0.0-13.0-0.0","SS1618365409237","","","null","","","","","","<p><img src= images/blank.png width =""600"" height = ""600"" style=""position:fixed;top:50%; left:50%; transform: translate(-50%, -50%); border:5px solid black"">","","","","","","","",""
"","9075.954999992973","sequential-stimulus-presentation-old","30","435898","0.0-13.0-1.0","SS1618365409237","trial","","40","500","9575.954999992973","images/stimuli/spore_stims/complex_03_A_a.gif","images/stimuli/spore_stims/complex_01_A_b.gif","self_paced","","2","complex_dissimilar","images/stimuli/spore_stims/complex_01_A_b.gif","","","","",""
"","null","html-keyboard-response","31","436915","0.0-13.0-0.1","SS1618365409237","","","null","","","","","","<p><img src= images/blank.png width =""600"" height = ""600"" style=""position:fixed;top:50%; left:50%; transform: translate(-50%, -50%); border:5px solid black"">","","","","","","","",""
"","3503.2800000044517","sequential-stimulus-presentation-old","32","440949","0.0-13.0-1.1","SS1618365409237","trial","","40","500","4003.2800000044517","images/stimuli/spore_stims/complex_03_A_a.gif","images/stimuli/spore_stims/complex_01_A_b.gif","self_paced","","2","complex_dissimilar","images/stimuli/spore_stims/complex_01_A_b.gif","","","","",""
"","null","html-keyboard-response","33","441973","0.0-13.0-0.2","SS1618365409237","","","null","","","","","","<p><img src= images/blank.png width =""600"" height = ""600"" style=""position:fixed;top:50%; left:50%; transform: translate(-50%, -50%); border:5px solid black"">","","","","","","","",""
"","2561.939999999595","sequential-stimulus-presentation-old","34","445066","0.0-13.0-1.2","SS1618365409237","trial","","40","500","3061.939999999595","images/stimuli/spore_stims/complex_03_A_a.gif","images/stimuli/spore_stims/complex_01_A_b.gif","self_paced","","2","complex_dissimilar","images/stimuli/spore_stims/complex_01_A_b.gif","","","","",""
"","null","html-keyboard-response","35","445954","0.0-13.0-0.3","SS1618365409237","","","null","","","","","","<p><img src= images/blank.png width =""600"" height = ""600"" style=""position:fixed;top:50%; left:50%; transform: translate(-50%, -50%); border:5px solid black"">","","","","","","","",""
"","3529.8000000038883","sequential-stimulus-presentation-old","36","450017","0.0-13.0-1.3","SS1618365409237","trial","","40","500","4029.8000000038883","images/stimuli/spore_stims/complex_03_A_a.gif","images/stimuli/spore_stims/complex_01_A_b.gif","self_paced","","2","complex_dissimilar","images/stimuli/spore_stims/complex_01_A_b.gif","","","","",""
"","null","html-keyboard-response","37","451254","0.0-13.0-0.4","SS1618365409237","","","null","","","","","","<p><img src= images/blank.png width =""600"" height = ""600"" style=""position:fixed;top:50%; left:50%; transform: translate(-50%, -50%); border:5px solid black"">","","","","","","","",""
"","2549.5450000016717","sequential-stimulus-presentation-old","38","454356","0.0-13.0-1.4","SS1618365409237","trial","","40","500","3049.5450000016717","images/stimuli/spore_stims/complex_03_A_a.gif","images/stimuli/spore_stims/complex_01_A_b.gif","self_paced","","2","complex_dissimilar","images/stimuli/spore_stims/complex_01_A_b.gif","","","","",""
"","null","html-keyboard-response","39","455180","0.0-13.0-0.5","SS1618365409237","","","null","","","","","","<p><img src= images/blank.png width =""600"" height = ""600"" style=""position:fixed;top:50%; left:50%; transform: translate(-50%, -50%); border:5px solid black"">","","","","","","","",""
"","2784.110000007786","sequential-stimulus-presentation-old","40","458486","0.0-13.0-1.5","SS1618365409237","trial","","40","500","3284.110000007786","images/stimuli/spore_stims/complex_03_A_a.gif","images/stimuli/spore_stims/complex_01_A_b.gif","self_paced","","2","complex_dissimilar","images/stimuli/spore_stims/complex_01_A_b.gif","","","","",""
"","4171.799999996438","survey-multi-choice","41","462667","0.0-14.0","SS1618365409237","math_question","","","","","","","","","","","","{""Q0"":""12""}","[0]","12","",""
"","null","html-keyboard-response","42","463694","0.0-15.0-0.0","SS1618365409237","","","null","","","","","","<p><img src= images/blank.png width =""600"" height = ""600"" style=""position:fixed;top:50%; left:50%; transform: translate(-50%, -50%); border:5px solid black"">","","","","","","","",""
"","2209.3000000022585","sequential-stimulus-presentation-old","43","465980","0.0-15.0-1.0","SS1618365409237","trial","","40","500","2709.3000000022585","images/stimuli/spore_stims/simple_06_A_b.gif","images/stimuli/spore_stims/simple_09_A_a.gif","forced_short","","3","simple_dissimilar","images/stimuli/spore_stims/simple_09_A_a.gif","","","","",""
"","null","html-keyboard-response","44","467081","0.0-15.0-0.1","SS1618365409237","","","null","","","","","","<p><img src= images/blank.png width =""600"" height = ""600"" style=""position:fixed;top:50%; left:50%; transform: translate(-50%, -50%); border:5px solid black"">","","","","","","","",""
"","2870.855000001029","sequential-stimulus-presentation-old","45","470481","0.0-15.0-1.1","SS1618365409237","trial","","40","500","3370.855000001029","images/stimuli/spore_stims/simple_06_A_b.gif","images/stimuli/spore_stims/simple_09_A_a.gif","forced_short","","3","simple_dissimilar","images/stimuli/spore_stims/simple_09_A_a.gif","","","","",""
"","null","html-keyboard-response","46","471489","0.0-15.0-0.2","SS1618365409237","","","null","","","","","","<p><img src= images/blank.png width =""600"" height = ""600"" style=""position:fixed;top:50%; left:50%; transform: translate(-50%, -50%); border:5px solid black"">","","","","","","","",""
"","2062.630000000354","sequential-stimulus-presentation-old","47","474084","0.0-15.0-1.2","SS1618365409237","trial","","40","500","2562.630000000354","images/stimuli/spore_stims/simple_06_A_b.gif","images/stimuli/spore_stims/simple_09_A_a.gif","forced_short","","3","simple_dissimilar","images/stimuli/spore_stims/simple_09_A_a.gif","","","","",""
"","null","html-keyboard-response","48","475309","0.0-15.0-0.3","SS1618365409237","","","null","","","","","","<p><img src= images/blank.png width =""600"" height = ""600"" style=""position:fixed;top:50%; left:50%; transform: translate(-50%, -50%); border:5px solid black"">","","","","","","","",""
"","4001.785000000382","sequential-stimulus-presentation-old","49","479841","0.0-15.0-1.3","SS1618365409237","trial","","40","500","4501.785000000382","images/stimuli/spore_stims/simple_06_A_b.gif","images/stimuli/spore_stims/simple_09_A_a.gif","forced_short","","3","simple_dissimilar","images/stimuli/spore_stims/simple_06_A_b.gif","","","","",""
"","null","html-keyboard-response","50","481147","0.0-15.0-0.4","SS1618365409237","","","null","","","","","","<p><img src= images/blank.png width =""600"" height = ""600"" style=""position:fixed;top:50%; left:50%; transform: translate(-50%, -50%); border:5px solid black"">","","","","","","","",""
"","10529.47999999742","sequential-stimulus-presentation-old","51","492224","0.0-15.0-1.4","SS1618365409237","trial","","40","500","11029.47999999742","images/stimuli/spore_stims/simple_06_A_b.gif","images/stimuli/spore_stims/simple_09_A_a.gif","forced_short","","3","simple_dissimilar","images/stimuli/spore_stims/simple_06_A_b.gif","","","","",""
"","null","html-keyboard-response","52","493288","0.0-15.0-0.5","SS1618365409237","","","null","","","","","","<p><img src= images/blank.png width =""600"" height = ""600"" style=""position:fixed;top:50%; left:50%; transform: translate(-50%, -50%); border:5px solid black"">","","","","","","","",""
"","3462.4599999951897","sequential-stimulus-presentation-old","53","497295","0.0-15.0-1.5","SS1618365409237","trial","","40","500","3962.4599999951897","images/stimuli/spore_stims/simple_06_A_b.gif","images/stimuli/spore_stims/simple_09_A_a.gif","forced_short","","3","simple_dissimilar","images/stimuli/spore_stims/simple_09_A_a.gif","","","","",""
"","3932.904999994207","survey-multi-choice","54","501250","0.0-16.0","SS1618365409237","math_question","","","","","","","","","","","","{""Q0"":""6""}","[0]","6","",""
"","null","html-keyboard-response","55","502202","0.0-17.0-0.0","SS1618365409237","","","null","","","","","","<p><img src= images/blank.png width =""600"" height = ""600"" style=""position:fixed;top:50%; left:50%; transform: translate(-50%, -50%); border:5px solid black"">","","","","","","","",""
"","2135.580000001937","sequential-stimulus-presentation-old","56","509374","0.0-17.0-1.0","SS1618365409237","trial","","40","500","2635.580000001937","images/stimuli/spore_stims/complex_12_A_a.gif","images/stimuli/spore_stims/complex_06_A_b.gif","forced_long","","4","complex_dissimilar","images/stimuli/spore_stims/complex_06_A_b.gif","","","","",""
"","null","html-keyboard-response","57","510559","0.0-17.0-0.1","SS1618365409237","","","null","","","","","","<p><img src= images/blank.png width =""600"" height = ""600"" style=""position:fixed;top:50%; left:50%; transform: translate(-50%, -50%); border:5px solid black"">","","","","","","","",""
"","5566.099999996368","sequential-stimulus-presentation-old","58","516659","0.0-17.0-1.1","SS1618365409237","trial","","40","500","6066.099999996368","images/stimuli/spore_stims/complex_12_A_a.gif","images/stimuli/spore_stims/complex_06_A_b.gif","forced_long","","4","complex_dissimilar","images/stimuli/spore_stims/complex_06_A_b.gif","","","","",""
"","null","html-keyboard-response","59","517603","0.0-17.0-0.2","SS1618365409237","","","null","","","","","","<p><img src= images/blank.png width =""600"" height = ""600"" style=""position:fixed;top:50%; left:50%; transform: translate(-50%, -50%); border:5px solid black"">","","","","","","","",""
"","9398.535000000265","sequential-stimulus-presentation-old","60","527538","0.0-17.0-1.2","SS1618365409237","trial","","40","500","9898.535000000265","images/stimuli/spore_stims/complex_12_A_a.gif","images/stimuli/spore_stims/complex_06_A_b.gif","forced_long","","4","complex_dissimilar","images/stimuli/spore_stims/complex_06_A_b.gif","","","","",""
"","null","html-keyboard-response","61","528676","0.0-17.0-0.3","SS1618365409237","","","null","","","","","","<p><img src= images/blank.png width =""600"" height = ""600"" style=""position:fixed;top:50%; left:50%; transform: translate(-50%, -50%); border:5px solid black"">","","","","","","","",""
"","5186.610000004293","sequential-stimulus-presentation-old","62","534401","0.0-17.0-1.3","SS1618365409237","trial","","40","500","5686.610000004293","images/stimuli/spore_stims/complex_12_A_a.gif","images/stimuli/spore_stims/complex_06_A_b.gif","forced_long","","4","complex_dissimilar","images/stimuli/spore_stims/complex_06_A_b.gif","","","","",""
"","null","html-keyboard-response","63","535640","0.0-17.0-0.4","SS1618365409237","","","null","","","","","","<p><img src= images/blank.png width =""600"" height = ""600"" style=""position:fixed;top:50%; left:50%; transform: translate(-50%, -50%); border:5px solid black"">","","","","","","","",""
"","3352.7350000076694","sequential-stimulus-presentation-old","64","539510","0.0-17.0-1.4","SS1618365409237","trial","","40","500","3852.7350000076694","images/stimuli/spore_stims/complex_12_A_a.gif","images/stimuli/spore_stims/complex_06_A_b.gif","forced_long","","4","complex_dissimilar","images/stimuli/spore_stims/complex_06_A_b.gif","","","","",""
"","null","html-keyboard-response","65","540676","0.0-17.0-0.5","SS1618365409237","","","null","","","","","","<p><img src= images/blank.png width =""600"" height = ""600"" style=""position:fixed;top:50%; left:50%; transform: translate(-50%, -50%); border:5px solid black"">","","","","","","","",""
"","2537.3249999975087","sequential-stimulus-presentation-old","66","543749","0.0-17.0-1.5","SS1618365409237","trial","","40","500","3037.3249999975087","images/stimuli/spore_stims/complex_12_A_a.gif","images/stimuli/spore_stims/complex_06_A_b.gif","forced_long","","4","complex_dissimilar","images/stimuli/spore_stims/complex_06_A_b.gif","","","","",""
"","3722.590000004857","survey-multi-choice","67","547499","0.0-18.0","SS1618365409237","math_question","","","","","","","","","","","","{""Q0"":""13""}","[0]","13","",""
"","null","html-keyboard-response","68","548492","0.0-19.0-0.0","SS1618365409237","","","null","","","","","","<p><img src= images/blank.png width =""600"" height = ""600"" style=""position:fixed;top:50%; left:50%; transform: translate(-50%, -50%); border:5px solid black"">","","","","","","","",""
"","2144.255000006524","sequential-stimulus-presentation-old","69","550734","0.0-19.0-1.0","SS1618365409237","trial","","40","500","2644.255000006524","images/stimuli/spore_stims/complex_11_A_b.gif","images/stimuli/spore_stims/complex_07_A_a.gif","forced_short","","5","complex_dissimilar","images/stimuli/spore_stims/complex_07_A_a.gif","","","","",""
"","null","html-keyboard-response","70","551676","0.0-19.0-0.1","SS1618365409237","","","null","","","","","","<p><img src= images/blank.png width =""600"" height = ""600"" style=""position:fixed;top:50%; left:50%; transform: translate(-50%, -50%); border:5px solid black"">","","","","","","","",""
"","4776.704999996582","sequential-stimulus-presentation-old","71","556985","0.0-19.0-1.1","SS1618365409237","trial","","40","500","5276.704999996582","images/stimuli/spore_stims/complex_11_A_b.gif","images/stimuli/spore_stims/complex_07_A_a.gif","forced_short","","5","complex_dissimilar","images/stimuli/spore_stims/complex_07_A_a.gif","","","","",""
"","null","html-keyboard-response","72","557822","0.0-19.0-0.2","SS1618365409237","","","null","","","","","","<p><img src= images/blank.png width =""600"" height = ""600"" style=""position:fixed;top:50%; left:50%; transform: translate(-50%, -50%); border:5px solid black"">","","","","","","","",""
"","3670.304999992368","sequential-stimulus-presentation-old","73","562035","0.0-19.0-1.2","SS1618365409237","trial","","40","500","4170.304999992368","images/stimuli/spore_stims/complex_11_A_b.gif","images/stimuli/spore_stims/complex_07_A_a.gif","forced_short","","5","complex_dissimilar","images/stimuli/spore_stims/complex_07_A_a.gif","","","","",""
"","null","html-keyboard-response","74","563087","0.0-19.0-0.3","SS1618365409237","","","null","","","","","","<p><img src= images/blank.png width =""600"" height = ""600"" style=""position:fixed;top:50%; left:50%; transform: translate(-50%, -50%); border:5px solid black"">","","","","","","","",""
"","3027.1650000067893","sequential-stimulus-presentation-old","75","566655","0.0-19.0-1.3","SS1618365409237","trial","","40","500","3527.1650000067893","images/stimuli/spore_stims/complex_11_A_b.gif","images/stimuli/spore_stims/complex_07_A_a.gif","forced_short","","5","complex_dissimilar","images/stimuli/spore_stims/complex_11_A_b.gif","","","","",""
"","null","html-keyboard-response","76","567730","0.0-19.0-0.4","SS1618365409237","","","null","","","","","","<p><img src= images/blank.png width =""600"" height = ""600"" style=""position:fixed;top:50%; left:50%; transform: translate(-50%, -50%); border:5px solid black"">","","","","","","","",""
"","4936.839999994845","sequential-stimulus-presentation-old","77","573200","0.0-19.0-1.4","SS1618365409237","trial","","40","500","5436.839999994845","images/stimuli/spore_stims/complex_11_A_b.gif","images/stimuli/spore_stims/complex_07_A_a.gif","forced_short","","5","complex_dissimilar","images/stimuli/spore_stims/complex_07_A_a.gif","","","","",""
"","null","html-keyboard-response","78","574262","0.0-19.0-0.5","SS1618365409237","","","null","","","","","","<p><img src= images/blank.png width =""600"" height = ""600"" style=""position:fixed;top:50%; left:50%; transform: translate(-50%, -50%); border:5px solid black"">","","","","","","","",""
"","1939.6100000012666","sequential-stimulus-presentation-old","79","576755","0.0-19.0-1.5","SS1618365409237","trial","","40","500","2439.6100000012666","images/stimuli/spore_stims/complex_11_A_b.gif","images/stimuli/spore_stims/complex_07_A_a.gif","forced_short","","5","complex_dissimilar","images/stimuli/spore_stims/complex_11_A_b.gif","","","","",""
"","3455.2549999934854","survey-multi-choice","80","580234","0.0-20.0","SS1618365409237","math_question","","","","","","","","","","","","{""Q0"":""7""}","[0]","7","",""
"","null","html-keyboard-response","81","581242","0.0-21.0-0.0","SS1618365409237","","","null","","","","","","<p><img src= images/blank.png width =""600"" height = ""600"" style=""position:fixed;top:50%; left:50%; transform: translate(-50%, -50%); border:5px solid black"">","","","","","","","",""
"","1487.1899999998277","sequential-stimulus-presentation-old","82","587758","0.0-21.0-1.0","SS1618365409237","trial","","40","500","1987.1899999998277","images/stimuli/spore_stims/simple_05_A_a.gif","images/stimuli/spore_stims/simple_15_A_b.gif","forced_long","","6","simple_dissimilar","images/stimuli/spore_stims/simple_15_A_b.gif","","","","",""
"","null","html-keyboard-response","83","589052","0.0-21.0-0.1","SS1618365409237","","","null","","","","","","<p><img src= images/blank.png width =""600"" height = ""600"" style=""position:fixed;top:50%; left:50%; transform: translate(-50%, -50%); border:5px solid black"">","","","","","","","",""
"","8822.625000000698","sequential-stimulus-presentation-old","84","598416","0.0-21.0-1.1","SS1618365409237","trial","","40","500","9322.625000000698","images/stimuli/spore_stims/simple_05_A_a.gif","images/stimuli/spore_stims/simple_15_A_b.gif","forced_long","","6","simple_dissimilar","images/stimuli/spore_stims/simple_15_A_b.gif","","","","",""
"","null","html-keyboard-response","85","599568","0.0-21.0-0.2","SS1618365409237","","","null","","","","","","<p><img src= images/blank.png width =""600"" height = ""600"" style=""position:fixed;top:50%; left:50%; transform: translate(-50%, -50%); border:5px solid black"">","","","","","","","",""
"","2957.105000008596","sequential-stimulus-presentation-old","86","603065","0.0-21.0-1.2","SS1618365409237","trial","","40","500","3457.105000008596","images/stimuli/spore_stims/simple_05_A_a.gif","images/stimuli/spore_stims/simple_15_A_b.gif","forced_long","","6","simple_dissimilar","images/stimuli/spore_stims/simple_15_A_b.gif","","","","",""
"","null","html-keyboard-response","87","604005","0.0-21.0-0.3","SS1618365409237","","","null","","","","","","<p><img src= images/blank.png width =""600"" height = ""600"" style=""position:fixed;top:50%; left:50%; transform: translate(-50%, -50%); border:5px solid black"">","","","","","","","",""
"","3052.139999999781","sequential-stimulus-presentation-old","88","607598","0.0-21.0-1.3","SS1618365409237","trial","","40","500","3552.139999999781","images/stimuli/spore_stims/simple_05_A_a.gif","images/stimuli/spore_stims/simple_15_A_b.gif","forced_long","","6","simple_dissimilar","images/stimuli/spore_stims/simple_15_A_b.gif","","","","",""
"","null","html-keyboard-response","89","608471","0.0-21.0-0.4","SS1618365409237","","","null","","","","","","<p><img src= images/blank.png width =""600"" height = ""600"" style=""position:fixed;top:50%; left:50%; transform: translate(-50%, -50%); border:5px solid black"">","","","","","","","",""
"","2106.469999998808","sequential-stimulus-presentation-old","90","611124","0.0-21.0-1.4","SS1618365409237","trial","","40","500","2606.469999998808","images/stimuli/spore_stims/simple_05_A_a.gif","images/stimuli/spore_stims/simple_15_A_b.gif","forced_long","","6","simple_dissimilar","images/stimuli/spore_stims/simple_15_A_b.gif","","","","",""
"","null","html-keyboard-response","91","612069","0.0-21.0-0.5","SS1618365409237","","","null","","","","","","<p><img src= images/blank.png width =""600"" height = ""600"" style=""position:fixed;top:50%; left:50%; transform: translate(-50%, -50%); border:5px solid black"">","","","","","","","",""
"","4864.385000008042","sequential-stimulus-presentation-old","92","617487","0.0-21.0-1.5","SS1618365409237","trial","","40","500","5364.385000008042","images/stimuli/spore_stims/simple_05_A_a.gif","images/stimuli/spore_stims/simple_15_A_b.gif","forced_long","","6","simple_dissimilar","images/stimuli/spore_stims/simple_15_A_b.gif","","","","",""
"","3970.7199999975273","survey-multi-choice","93","621481","0.0-22.0","SS1618365409237","math_question","","","","","","","","","","","","{""Q0"":""8""}","[0]","8","",""
"","null","html-keyboard-response","94","622605","0.0-23.0-0.0","SS1618365409237","","","null","","","","","","<p><img src= images/blank.png width =""600"" height = ""600"" style=""position:fixed;top:50%; left:50%; transform: translate(-50%, -50%); border:5px solid black"">","","","","","","","",""
"","1882.949999999255","sequential-stimulus-presentation-old","95","629518","0.0-23.0-1.0","SS1618365409237","trial","","40","500","2382.949999999255","images/stimuli/spore_stims/simple_19_A_a.gif","images/stimuli/spore_stims/simple_02_A_b.gif","forced_long","","7","simple_dissimilar","images/stimuli/spore_stims/simple_02_A_b.gif","","","","",""
"","null","html-keyboard-response","96","630397","0.0-23.0-0.1","SS1618365409237","","","null","","","","","","<p><img src= images/blank.png width =""600"" height = ""600"" style=""position:fixed;top:50%; left:50%; transform: translate(-50%, -50%); border:5px solid black"">","","","","","","","",""
"","3240.829999995185","sequential-stimulus-presentation-old","97","634169","0.0-23.0-1.1","SS1618365409237","trial","","40","500","3740.829999995185","images/stimuli/spore_stims/simple_19_A_a.gif","images/stimuli/spore_stims/simple_02_A_b.gif","forced_long","","7","simple_dissimilar","images/stimuli/spore_stims/simple_02_A_b.gif","","","","",""
"","null","html-keyboard-response","98","635184","0.0-23.0-0.2","SS1618365409237","","","null","","","","","","<p><img src= images/blank.png width =""600"" height = ""600"" style=""position:fixed;top:50%; left:50%; transform: translate(-50%, -50%); border:5px solid black"">","","","","","","","",""
"","537.9749999992782","sequential-stimulus-presentation-old","99","636259","0.0-23.0-1.2","SS1618365409237","trial","","40","500","1037.9749999992782","images/stimuli/spore_stims/simple_19_A_a.gif","images/stimuli/spore_stims/simple_02_A_b.gif","forced_long","","7","simple_dissimilar","images/stimuli/spore_stims/simple_02_A_b.gif","","","","",""
"","null","html-keyboard-response","100","637216","0.0-23.0-0.3","SS1618365409237","","","null","","","","","","<p><img src= images/blank.png width =""600"" height = ""600"" style=""position:fixed;top:50%; left:50%; transform: translate(-50%, -50%); border:5px solid black"">","","","","","","","",""
"","1733.1800000101794","sequential-stimulus-presentation-old","101","639491","0.0-23.0-1.3","SS1618365409237","trial","","40","500","2233.1800000101794","images/stimuli/spore_stims/simple_19_A_a.gif","images/stimuli/spore_stims/simple_02_A_b.gif","forced_long","","7","simple_dissimilar","images/stimuli/spore_stims/simple_02_A_b.gif","","","","",""
"","null","html-keyboard-response","102","640546","0.0-23.0-0.4","SS1618365409237","","","null","","","","","","<p><img src= images/blank.png width =""600"" height = ""600"" style=""position:fixed;top:50%; left:50%; transform: translate(-50%, -50%); border:5px solid black"">","","","","","","","",""
"","4865.7749999983935","sequential-stimulus-presentation-old","103","645952","0.0-23.0-1.4","SS1618365409237","trial","","40","500","5365.7749999983935","images/stimuli/spore_stims/simple_19_A_a.gif","images/stimuli/spore_stims/simple_02_A_b.gif","forced_long","","7","simple_dissimilar","images/stimuli/spore_stims/simple_02_A_b.gif","","","","",""
"","null","html-keyboard-response","104","646877","0.0-23.0-0.5","SS1618365409237","","","null","","","","","","<p><img src= images/blank.png width =""600"" height = ""600"" style=""position:fixed;top:50%; left:50%; transform: translate(-50%, -50%); border:5px solid black"">","","","","","","","",""
"","1875.7750000077067","sequential-stimulus-presentation-old","105","649286","0.0-23.0-1.5","SS1618365409237","trial","","40","500","2375.7750000077067","images/stimuli/spore_stims/simple_19_A_a.gif","images/stimuli/spore_stims/simple_02_A_b.gif","forced_long","","7","simple_dissimilar","images/stimuli/spore_stims/simple_02_A_b.gif","","","","",""
"","4379.244999989169","survey-multi-choice","106","653687","0.0-24.0","SS1618365409237","math_question","","","","","","","","","","","","{""Q0"":""8""}","[0]","8","",""
"","null","html-keyboard-response","107","654649","0.0-25.0-0.0","SS1618365409237","","","null","","","","","","<p><img src= images/blank.png width =""600"" height = ""600"" style=""position:fixed;top:50%; left:50%; transform: translate(-50%, -50%); border:5px solid black"">","","","","","","","",""
"","661.1600000032922","sequential-stimulus-presentation-old","108","655854","0.0-25.0-1.0","SS1618365409237","trial","","40","500","1161.1600000032922","images/stimuli/spore_stims/simple_14_A_a.gif","images/stimuli/spore_stims/simple_11_A_b.gif","self_paced","","8","simple_dissimilar","images/stimuli/spore_stims/simple_11_A_b.gif","","","","",""
"","null","html-keyboard-response","109","656793","0.0-25.0-0.1","SS1618365409237","","","null","","","","","","<p><img src= images/blank.png width =""600"" height = ""600"" style=""position:fixed;top:50%; left:50%; transform: translate(-50%, -50%); border:5px solid black"">","","","","","","","",""
"","4587.100000004284","sequential-stimulus-presentation-old","110","661935","0.0-25.0-1.1","SS1618365409237","trial","","40","500","5087.100000004284","images/stimuli/spore_stims/simple_14_A_a.gif","images/stimuli/spore_stims/simple_11_A_b.gif","self_paced","","8","simple_dissimilar","images/stimuli/spore_stims/simple_11_A_b.gif","","","","",""
"","null","html-keyboard-response","111","663237","0.0-25.0-0.2","SS1618365409237","","","null","","","","","","<p><img src= images/blank.png width =""600"" height = ""600"" style=""position:fixed;top:50%; left:50%; transform: translate(-50%, -50%); border:5px solid black"">","","","","","","","",""
"","2789.870000007795","sequential-stimulus-presentation-old","112","666576","0.0-25.0-1.2","SS1618365409237","trial","","40","500","3289.870000007795","images/stimuli/spore_stims/simple_14_A_a.gif","images/stimuli/spore_stims/simple_11_A_b.gif","self_paced","","8","simple_dissimilar","images/stimuli/spore_stims/simple_11_A_b.gif","","","","",""
"","null","html-keyboard-response","113","667781","0.0-25.0-0.3","SS1618365409237","","","null","","","","","","<p><img src= images/blank.png width =""600"" height = ""600"" style=""position:fixed;top:50%; left:50%; transform: translate(-50%, -50%); border:5px solid black"">","","","","","","","",""
"","2188.8100000069244","sequential-stimulus-presentation-old","114","670483","0.0-25.0-1.3","SS1618365409237","trial","","40","500","2688.8100000069244","images/stimuli/spore_stims/simple_14_A_a.gif","images/stimuli/spore_stims/simple_11_A_b.gif","self_paced","","8","simple_dissimilar","images/stimuli/spore_stims/simple_14_A_a.gif","","","","",""
"","null","html-keyboard-response","115","671421","0.0-25.0-0.4","SS1618365409237","","","null","","","","","","<p><img src= images/blank.png width =""600"" height = ""600"" style=""position:fixed;top:50%; left:50%; transform: translate(-50%, -50%); border:5px solid black"">","","","","","","","",""
"","4254.379999998491","sequential-stimulus-presentation-old","116","676214","0.0-25.0-1.4","SS1618365409237","trial","","40","500","4754.379999998491","images/stimuli/spore_stims/simple_14_A_a.gif","images/stimuli/spore_stims/simple_11_A_b.gif","self_paced","","8","simple_dissimilar","images/stimuli/spore_stims/simple_11_A_b.gif","","","","",""
"","null","html-keyboard-response","117","677518","0.0-25.0-0.5","SS1618365409237","","","null","","","","","","<p><img src= images/blank.png width =""600"" height = ""600"" style=""position:fixed;top:50%; left:50%; transform: translate(-50%, -50%); border:5px solid black"">","","","","","","","",""
"","7913.094999996247","sequential-stimulus-presentation-old","118","685965","0.0-25.0-1.5","SS1618365409237","trial","","40","500","8413.094999996247","images/stimuli/spore_stims/simple_14_A_a.gif","images/stimuli/spore_stims/simple_11_A_b.gif","self_paced","","8","simple_dissimilar","images/stimuli/spore_stims/simple_11_A_b.gif","","","","",""
"","4998.494999992545","survey-multi-choice","119","690997","0.0-26.0","SS1618365409237","math_question","","","","","","","","","","","","{""Q0"":""11""}","[0]","11","",""
"","null","html-keyboard-response","120","692275","0.0-27.0-0.0","SS1618365409237","","","null","","","","","","<p><img src= images/blank.png width =""600"" height = ""600"" style=""position:fixed;top:50%; left:50%; transform: translate(-50%, -50%); border:5px solid black"">","","","","","","","",""
"","59.93000000307802","sequential-stimulus-presentation-old","121","697381","0.0-27.0-1.0","SS1618365409237","trial","","40","500","559.930000003078","images/stimuli/spore_stims/complex_12_A_b.gif","images/stimuli/spore_stims/complex_05_A_a.gif","forced_long","","9","complex_dissimilar","images/stimuli/spore_stims/complex_05_A_a.gif","","","","",""
"","null","html-keyboard-response","122","698623","0.0-27.0-0.1","SS1618365409237","","","null","","","","","","<p><img src= images/blank.png width =""600"" height = ""600"" style=""position:fixed;top:50%; left:50%; transform: translate(-50%, -50%); border:5px solid black"">","","","","","","","",""
"","538.3450000081211","sequential-stimulus-presentation-old","123","699682","0.0-27.0-1.1","SS1618365409237","trial","","40","500","1038.3450000081211","images/stimuli/spore_stims/complex_12_A_b.gif","images/stimuli/spore_stims/complex_05_A_a.gif","forced_long","","9","complex_dissimilar","images/stimuli/spore_stims/complex_05_A_a.gif","","","","",""
"","null","html-keyboard-response","124","700651","0.0-27.0-0.2","SS1618365409237","","","null","","","","","","<p><img src= images/blank.png width =""600"" height = ""600"" style=""position:fixed;top:50%; left:50%; transform: translate(-50%, -50%); border:5px solid black"">","","","","","","","",""
"","3050.455000004149","sequential-stimulus-presentation-old","125","704242","0.0-27.0-1.2","SS1618365409237","trial","","40","500","3550.455000004149","images/stimuli/spore_stims/complex_12_A_b.gif","images/stimuli/spore_stims/complex_05_A_a.gif","forced_long","","9","complex_dissimilar","images/stimuli/spore_stims/complex_05_A_a.gif","","","","",""
"","null","html-keyboard-response","126","705117","0.0-27.0-0.3","SS1618365409237","","","null","","","","","","<p><img src= images/blank.png width =""600"" height = ""600"" style=""position:fixed;top:50%; left:50%; transform: translate(-50%, -50%); border:5px solid black"">","","","","","","","",""
"","2391.06000000902","sequential-stimulus-presentation-old","127","708040","0.0-27.0-1.3","SS1618365409237","trial","","40","500","2891.06000000902","images/stimuli/spore_stims/complex_12_A_b.gif","images/stimuli/spore_stims/complex_05_A_a.gif","forced_long","","9","complex_dissimilar","images/stimuli/spore_stims/complex_05_A_a.gif","","","","",""
"","null","html-keyboard-response","128","709199","0.0-27.0-0.4","SS1618365409237","","","null","","","","","","<p><img src= images/blank.png width =""600"" height = ""600"" style=""position:fixed;top:50%; left:50%; transform: translate(-50%, -50%); border:5px solid black"">","","","","","","","",""
"","3272.114999999758","sequential-stimulus-presentation-old","129","712996","0.0-27.0-1.4","SS1618365409237","trial","","40","500","3772.114999999758","images/stimuli/spore_stims/complex_12_A_b.gif","images/stimuli/spore_stims/complex_05_A_a.gif","forced_long","","9","complex_dissimilar","images/stimuli/spore_stims/complex_05_A_a.gif","","","","",""
"","3866.9949999894015","survey-multi-choice","130","716897","0.0-28.0","SS1618365409237","math_question","","","","","","","","","","","","{""Q0"":""11""}","[0]","11","",""
"","null","html-keyboard-response","131","718058","0.0-29.0-0.0","SS1618365409237","","","null","","","","","","<p><img src= images/blank.png width =""600"" height = ""600"" style=""position:fixed;top:50%; left:50%; transform: translate(-50%, -50%); border:5px solid black"">","","","","","","","",""
"","4366.884999995818","sequential-stimulus-presentation-old","132","722954","0.0-29.0-1.0","SS1618365409237","trial","","40","500","4866.884999995818","images/stimuli/spore_stims/simple_04_A_b.gif","images/stimuli/spore_stims/simple_18_A_a.gif","self_paced","","10","simple_dissimilar","images/stimuli/spore_stims/simple_18_A_a.gif","","","","",""
"","null","html-keyboard-response","133","723899","0.0-29.0-0.1","SS1618365409237","","","null","","","","","","<p><img src= images/blank.png width =""600"" height = ""600"" style=""position:fixed;top:50%; left:50%; transform: translate(-50%, -50%); border:5px solid black"">","","","","","","","",""
"","1613.904999991064","sequential-stimulus-presentation-old","134","726053","0.0-29.0-1.1","SS1618365409237","trial","","40","500","2113.904999991064","images/stimuli/spore_stims/simple_04_A_b.gif","images/stimuli/spore_stims/simple_18_A_a.gif","self_paced","","10","simple_dissimilar","images/stimuli/spore_stims/simple_04_A_b.gif","","","","",""
"","null","html-keyboard-response","135","727045","0.0-29.0-0.2","SS1618365409237","","","null","","","","","","<p><img src= images/blank.png width =""600"" height = ""600"" style=""position:fixed;top:50%; left:50%; transform: translate(-50%, -50%); border:5px solid black"">","","","","","","","",""
"","500.37500000325963","sequential-stimulus-presentation-old","136","728089","0.0-29.0-1.2","SS1618365409237","trial","","40","500","1000.3750000032596","images/stimuli/spore_stims/simple_04_A_b.gif","images/stimuli/spore_stims/simple_18_A_a.gif","self_paced","","10","simple_dissimilar","images/stimuli/spore_stims/simple_04_A_b.gif","","","","",""
"","null","html-keyboard-response","137","729182","0.0-29.0-0.3","SS1618365409237","","","null","","","","","","<p><img src= images/blank.png width =""600"" height = ""600"" style=""position:fixed;top:50%; left:50%; transform: translate(-50%, -50%); border:5px solid black"">","","","","","","","",""
"","536.260000008042","sequential-stimulus-presentation-old","138","730261","0.0-29.0-1.3","SS1618365409237","trial","","40","500","1036.260000008042","images/stimuli/spore_stims/simple_04_A_b.gif","images/stimuli/spore_stims/simple_18_A_a.gif","self_paced","","10","simple_dissimilar","images/stimuli/spore_stims/simple_18_A_a.gif","","","","",""
"","null","html-keyboard-response","139","731403","0.0-29.0-0.4","SS1618365409237","","","null","","","","","","<p><img src= images/blank.png width =""600"" height = ""600"" style=""position:fixed;top:50%; left:50%; transform: translate(-50%, -50%); border:5px solid black"">","","","","","","","",""
"","5002.934999996796","sequential-stimulus-presentation-old","140","736943","0.0-29.0-1.4","SS1618365409237","trial","","40","500","5502.934999996796","images/stimuli/spore_stims/simple_04_A_b.gif","images/stimuli/spore_stims/simple_18_A_a.gif","self_paced","","10","simple_dissimilar","images/stimuli/spore_stims/simple_18_A_a.gif","","","","",""
"","null","html-keyboard-response","141","738142","0.0-29.0-0.5","SS1618365409237","","","null","","","","","","<p><img src= images/blank.png width =""600"" height = ""600"" style=""position:fixed;top:50%; left:50%; transform: translate(-50%, -50%); border:5px solid black"">","","","","","","","",""
"","6645.745000001625","sequential-stimulus-presentation-old","142","745329","0.0-29.0-1.5","SS1618365409237","trial","","40","500","7145.745000001625","images/stimuli/spore_stims/simple_04_A_b.gif","images/stimuli/spore_stims/simple_18_A_a.gif","self_paced","","10","simple_dissimilar","images/stimuli/spore_stims/simple_18_A_a.gif","","","","",""
"","4004.315000012866","survey-multi-choice","143","749364","0.0-30.0","SS1618365409237","math_question","","","","","","","","","","","","{""Q0"":""4""}","[0]","4","",""
"","null","html-keyboard-response","144","750276","0.0-31.0-0.0","SS1618365409237","","","null","","","","","","<p><img src= images/blank.png width =""600"" height = ""600"" style=""position:fixed;top:50%; left:50%; transform: translate(-50%, -50%); border:5px solid black"">","","","","","","","",""
"","1339.0649999928428","sequential-stimulus-presentation-old","145","751709","0.0-31.0-1.0","SS1618365409237","trial","","40","500","1839.0649999928428","images/stimuli/spore_stims/complex_08_A_a.gif","images/stimuli/spore_stims/complex_20_A_b.gif","forced_short","","11","complex_dissimilar","images/stimuli/spore_stims/complex_20_A_b.gif","","","","",""
"","null","html-keyboard-response","146","752586","0.0-31.0-0.1","SS1618365409237","","","null","","","","","","<p><img src= images/blank.png width =""600"" height = ""600"" style=""position:fixed;top:50%; left:50%; transform: translate(-50%, -50%); border:5px solid black"">","","","","","","","",""
"","1394.8899999959394","sequential-stimulus-presentation-old","147","754525","0.0-31.0-1.1","SS1618365409237","trial","","40","500","1894.8899999959394","images/stimuli/spore_stims/complex_08_A_a.gif","images/stimuli/spore_stims/complex_20_A_b.gif","forced_short","","11","complex_dissimilar","images/stimuli/spore_stims/complex_20_A_b.gif","","","","",""
"","null","html-keyboard-response","148","755594","0.0-31.0-0.2","SS1618365409237","","","null","","","","","","<p><img src= images/blank.png width =""600"" height = ""600"" style=""position:fixed;top:50%; left:50%; transform: translate(-50%, -50%); border:5px solid black"">","","","","","","","",""
"","1050.1000000076601","sequential-stimulus-presentation-old","149","757181","0.0-31.0-1.2","SS1618365409237","trial","","40","500","1550.1000000076601","images/stimuli/spore_stims/complex_08_A_a.gif","images/stimuli/spore_stims/complex_20_A_b.gif","forced_short","","11","complex_dissimilar","images/stimuli/spore_stims/complex_20_A_b.gif","","","","",""
"","null","html-keyboard-response","150","758118","0.0-31.0-0.3","SS1618365409237","","","null","","","","","","<p><img src= images/blank.png width =""600"" height = ""600"" style=""position:fixed;top:50%; left:50%; transform: translate(-50%, -50%); border:5px solid black"">","","","","","","","",""
"","5414.420000000973","sequential-stimulus-presentation-old","151","764079","0.0-31.0-1.3","SS1618365409237","trial","","40","500","5914.420000000973","images/stimuli/spore_stims/complex_08_A_a.gif","images/stimuli/spore_stims/complex_20_A_b.gif","forced_short","","11","complex_dissimilar","images/stimuli/spore_stims/complex_20_A_b.gif","","","","",""
"","null","html-keyboard-response","152","765221","0.0-31.0-0.4","SS1618365409237","","","null","","","","","","<p><img src= images/blank.png width =""600"" height = ""600"" style=""position:fixed;top:50%; left:50%; transform: translate(-50%, -50%); border:5px solid black"">","","","","","","","",""
"","1536.4400000107707","sequential-stimulus-presentation-old","153","767291","0.0-31.0-1.4","SS1618365409237","trial","","40","500","2036.4400000107707","images/stimuli/spore_stims/complex_08_A_a.gif","images/stimuli/spore_stims/complex_20_A_b.gif","forced_short","","11","complex_dissimilar","images/stimuli/spore_stims/complex_08_A_a.gif","","","","",""
"","null","html-keyboard-response","154","768481","0.0-31.0-0.5","SS1618365409237","","","null","","","","","","<p><img src= images/blank.png width =""600"" height = ""600"" style=""position:fixed;top:50%; left:50%; transform: translate(-50%, -50%); border:5px solid black"">","","","","","","","",""
"","8265.984999990906","sequential-stimulus-presentation-old","155","777299","0.0-31.0-1.5","SS1618365409237","trial","","40","500","8765.984999990906","images/stimuli/spore_stims/complex_08_A_a.gif","images/stimuli/spore_stims/complex_20_A_b.gif","forced_short","","11","complex_dissimilar","images/stimuli/spore_stims/complex_08_A_a.gif","","","","",""
"[{""page_index"":0,""viewing_time"":7516.465000007884}]","7517.595000012079","instructions","156","784832","0.0-32.0","SS1618365409237","instructions","","","","","","","","","","","","","","","",""
"","14852.610000001732","survey-likert","157","799703","0.0-33.0","SS1618365409237","similarity_question","","","","","","","","","","","","{""Q0"":4}","[0]","","images/stimuli/spore_stims/complex_08_A_a.gif","images/stimuli/spore_stims/complex_20_A_b.gif"
"","8816.88500000746","survey-likert","158","808540","0.0-34.0","SS1618365409237","similarity_question","","","","","","","","","","","","{""Q0"":0}","[0]","","images/stimuli/spore_stims/complex_05_A_a.gif","images/stimuli/spore_stims/complex_12_A_b.gif"
"","6798.369999989518","survey-likert","159","815357","0.0-35.0","SS1618365409237","similarity_question","","","","","","","","","","","","{""Q0"":1}","[0]","","images/stimuli/spore_stims/simple_11_A_b.gif","images/stimuli/spore_stims/simple_14_A_a.gif"
"","6537.3600000020815","survey-likert","160","821911","0.0-36.0","SS1618365409237","similarity_question","","","","","","","","","","","","{""Q0"":1}","[0]","","images/stimuli/spore_stims/simple_19_A_a.gif","images/stimuli/spore_stims/simple_02_A_b.gif"
"","7840.889999992214","survey-likert","161","829771","0.0-37.0","SS1618365409237","similarity_question","","","","","","","","","","","","{""Q0"":1}","[0]","","images/stimuli/spore_stims/simple_06_A_b.gif","images/stimuli/spore_stims/simple_09_A_a.gif"
"","8391.019999995478","survey-likert","162","838185","0.0-38.0","SS1618365409237","similarity_question","","","","","","","","","","","","{""Q0"":0}","[0]","","images/stimuli/spore_stims/complex_10_A_a.gif","images/stimuli/spore_stims/complex_14_A_b.gif"
"","8161.439999996219","survey-likert","163","846364","0.0-39.0","SS1618365409237","similarity_question","","","","","","","","","","","","{""Q0"":1}","[0]","","images/stimuli/spore_stims/simple_12_A_a.gif","images/stimuli/spore_stims/simple_01_A_b.gif"
"","6143.704999994952","survey-likert","164","852526","0.0-40.0","SS1618365409237","similarity_question","","","","","","","","","","","","{""Q0"":0}","[0]","","images/stimuli/spore_stims/complex_06_A_b.gif","images/stimuli/spore_stims/complex_12_A_a.gif"
"","5874.934999999823","survey-likert","165","858417","0.0-41.0","SS1618365409237","similarity_question","","","","","","","","","","","","{""Q0"":2}","[0]","","images/stimuli/spore_stims/simple_15_A_b.gif","images/stimuli/spore_stims/simple_05_A_a.gif"
"","5293.740000008256","survey-likert","166","863728","0.0-42.0","SS1618365409237","similarity_question","","","","","","","","","","","","{""Q0"":4}","[0]","","images/stimuli/spore_stims/simple_04_A_b.gif","images/stimuli/spore_stims/simple_18_A_a.gif"
"","6881.164999998873","survey-likert","167","870628","0.0-43.0","SS1618365409237","similarity_question","","","","","","","","","","","","{""Q0"":3}","[0]","","images/stimuli/spore_stims/complex_01_A_b.gif","images/stimuli/spore_stims/complex_03_A_a.gif"
"","10031.105000001844","survey-likert","168","880675","0.0-44.0","SS1618365409237","similarity_question","","","","","","","","","","","","{""Q0"":1}","[0]","","images/stimuli/spore_stims/complex_07_A_a.gif","images/stimuli/spore_stims/complex_11_A_b.gif"
"[{""page_index"":0,""viewing_time"":9610.630000010133}]","9611.875000002328","instructions","169","890300","0.0-45.0","SS1618365409237","instructions","","","","","","","","","","","","","","","",""
"","8122.885000004317","survey-likert","170","898438","0.0-46.0","SS1618365409237","","","","","","","","","images/stimuli/spore_stims/simple_09_A_a.gif","","","","{""Q0"":2}","[0]","","",""
"","6274.450000011711","survey-likert","171","904730","0.0-47.0","SS1618365409237","","","","","","","","","images/stimuli/spore_stims/complex_12_A_b.gif","","","","{""Q0"":6}","[0]","","",""
"","2968.880000000354","survey-likert","172","907717","0.0-48.0","SS1618365409237","","","","","","","","","images/stimuli/spore_stims/complex_01_A_b.gif","","","","{""Q0"":4}","[0]","","",""
"","6825.664999996661","survey-likert","173","914561","0.0-49.0","SS1618365409237","","","","","","","","","images/stimuli/spore_stims/simple_12_A_a.gif","","","","{""Q0"":1}","[0]","","",""
"","5518.14000000013","survey-likert","174","920097","0.0-50.0","SS1618365409237","","","","","","","","","images/stimuli/spore_stims/simple_11_A_b.gif","","","","{""Q0"":1}","[0]","","",""
"","5567.430000010063","survey-likert","175","925683","0.0-51.0","SS1618365409237","","","","","","","","","images/stimuli/spore_stims/simple_18_A_a.gif","","","","{""Q0"":2}","[0]","","",""
"","4741.365000008955","survey-likert","176","930443","0.0-52.0","SS1618365409237","","","","","","","","","images/stimuli/spore_stims/complex_06_A_b.gif","","","","{""Q0"":5}","[0]","","",""
"","4329.920000003767","survey-likert","177","934789","0.0-53.0","SS1618365409237","","","","","","","","","images/stimuli/spore_stims/complex_11_A_b.gif","","","","{""Q0"":4}","[0]","","",""
"","6038.9349999895785","survey-likert","178","940842","0.0-54.0","SS1618365409237","","","","","","","","","images/stimuli/spore_stims/complex_10_A_a.gif","","","","{""Q0"":4}","[0]","","",""
"","7211.334999999963","survey-likert","179","948071","0.0-55.0","SS1618365409237","","","","","","","","","images/stimuli/spore_stims/simple_15_A_b.gif","","","","{""Q0"":1}","[0]","","",""
"","3506.1100000020815","survey-likert","180","951598","0.0-56.0","SS1618365409237","","","","","","","","","images/stimuli/spore_stims/simple_19_A_a.gif","","","","{""Q0"":2}","[0]","","",""
"","3885.199999989709","survey-likert","181","955502","0.0-57.0","SS1618365409237","","","","","","","","","images/stimuli/spore_stims/complex_20_A_b.gif","","","","{""Q0"":5}","[0]","","",""
"[{""page_index"":0,""viewing_time"":4189.295000003767}]","4190.459999997984","instructions","182","959706","0.0-58.0","SS1618365409237","instructions","","","","","","","","","","","","","","","",""
"","3265.7949999993434","demog-age","183","962997","0.0-59.0","SS1618365409237","","","","","","","","","","","","","{""age"":""18""}","","","",""
"","8334.520000003977","demog-ethnic-US","184","971362","0.0-60.0","SS1618365409237","","","","","","","","","","","","","{""ethnicity"":[""Hispanic or Latino""]}","[0]","","",""
"","12505.609999992885","demog-gender-and-education","185","983909","0.0-61.0","SS1618365409237","","","","","","","","","","","","","{""gender"":""Female"",""education"":""Bachelor's Degree""}","[0,1]","","",""
"","26256.849999990663","survey-text","186","1010196","0.0-62.0","SS1618365409237","feedback","","","","","","","","","","","","{""Q0"":""A bit laggy""}","","","",""
"[{""page_index"":0,""viewing_time"":6187.56000000576}]","6188.5199999960605","instructions","187","1016397","0.0-63.0","SS1618365409237","instructions","","","","","","","","","","","","","","","",""
