"view_history","rt","trial_type","trial_index","time_elapsed","internal_node_id","subject","stimulus_type","trial_stimulus","key_press","minimum_viewing_duration","trial_looking_time","block_deviant","block_background","exposure_type","stimulus","block_number","block_type","stimulus_displayed","responses","question_order","math_correct_answer","stimulus_left","stimulus_right"
"[{""page_index"":0,""viewing_time"":22892.845000023954}]","22894.420000026003","instructions","0","22898","0.0-0.0","SS1618365067501","","","","","","","","","","","","","","","","",""
"[{""page_index"":0,""viewing_time"":47326.6200000071},{""page_index"":1,""viewing_time"":7591.48499998264}]","54918.76500000944","instructions","1","79832","0.0-1.0","SS1618365067501","instructions","","","","","","","","","","","","","","","",""
"","16260.729999979958","sequential-stimulus-presentation-old","2","96600","0.0-2.0","SS1618365067501","","","40","500","16760.729999979958","null","null","self_paced","","","","","","","","",""
"","6259.974999993574","sequential-stimulus-presentation-old","3","103374","0.0-3.0","SS1618365067501","","","40","500","6759.974999993574","null","null","self_paced","","","","","","","","",""
"[{""page_index"":0,""viewing_time"":34278.539999970235}]","34279.255000001285","instructions","4","137656","0.0-4.0","SS1618365067501","instructions","","","","","","","","","","","","","","","",""
"","11417.075000004843","sequential-stimulus-presentation-old","5","154082","0.0-5.0","SS1618365067501","","","40","500","11917.075000004843","null","null","forced_long","","","","","","","","",""
"","8608.3000000217","sequential-stimulus-presentation-old","6","162748","0.0-6.0","SS1618365067501","","","40","50","8658.3000000217","null","null","forced_long","","","","","","","","",""
"[{""page_index"":0,""viewing_time"":5819.825000013225}]","5820.539999986067","instructions","7","168573","0.0-7.0","SS1618365067501","instructions","","","","","","","","","","","","","","","",""
"[{""page_index"":0,""viewing_time"":12769.915000011679},{""page_index"":1,""viewing_time"":26482.819999975618},{""page_index"":2,""viewing_time"":9359.105000039563},{""page_index"":3,""viewing_time"":2879.5999999856576},{""page_index"":4,""viewing_time"":1649.3350000237115}]","53141.470000031404","instructions","8","221718","0.0-8.0","SS1618365067501","instructions","","","","","","","","","","","","","","","",""
"","null","html-keyboard-response","9","222678","0.0-9.0-0.0","SS1618365067501","","","null","","","","","","<p><img src= images/blank.png width =""600"" height = ""600"" style=""position:fixed;top:50%; left:50%; transform: translate(-50%, -50%); border:5px solid black"">","","","","","","","",""
"","1978.0899999896064","sequential-stimulus-presentation-old","10","229668","0.0-9.0-1.0","SS1618365067501","trial","","40","500","2478.0899999896064","images/stimuli/spore_stims/simple_07_A_b.gif","images/stimuli/spore_stims/simple_09_A_a.gif","forced_long","","0","simple_dissimilar","images/stimuli/spore_stims/simple_09_A_a.gif","","","","",""
"","null","html-keyboard-response","11","230956","0.0-9.0-0.1","SS1618365067501","","","null","","","","","","<p><img src= images/blank.png width =""600"" height = ""600"" style=""position:fixed;top:50%; left:50%; transform: translate(-50%, -50%); border:5px solid black"">","","","","","","","",""
"","10782.00000000652","sequential-stimulus-presentation-old","12","242249","0.0-9.0-1.1","SS1618365067501","trial","","40","500","11282.00000000652","images/stimuli/spore_stims/simple_07_A_b.gif","images/stimuli/spore_stims/simple_09_A_a.gif","forced_long","","0","simple_dissimilar","images/stimuli/spore_stims/simple_09_A_a.gif","","","","",""
"","null","html-keyboard-response","13","243163","0.0-9.0-0.2","SS1618365067501","","","null","","","","","","<p><img src= images/blank.png width =""600"" height = ""600"" style=""position:fixed;top:50%; left:50%; transform: translate(-50%, -50%); border:5px solid black"">","","","","","","","",""
"","11728.724999993574","sequential-stimulus-presentation-old","14","255408","0.0-9.0-1.2","SS1618365067501","trial","","40","500","12228.724999993574","images/stimuli/spore_stims/simple_07_A_b.gif","images/stimuli/spore_stims/simple_09_A_a.gif","forced_long","","0","simple_dissimilar","images/stimuli/spore_stims/simple_09_A_a.gif","","","","",""
"","null","html-keyboard-response","15","256376","0.0-9.0-0.3","SS1618365067501","","","null","","","","","","<p><img src= images/blank.png width =""600"" height = ""600"" style=""position:fixed;top:50%; left:50%; transform: translate(-50%, -50%); border:5px solid black"">","","","","","","","",""
"","10266.059999994468","sequential-stimulus-presentation-old","16","267158","0.0-9.0-1.3","SS1618365067501","trial","","40","500","10766.059999994468","images/stimuli/spore_stims/simple_07_A_b.gif","images/stimuli/spore_stims/simple_09_A_a.gif","forced_long","","0","simple_dissimilar","images/stimuli/spore_stims/simple_09_A_a.gif","","","","",""
"","4426.770000020042","survey-multi-choice","17","271599","0.0-10.0","SS1618365067501","math_question","","","","","","","","","","","","{""Q0"":""14""}","[0]","14","",""
"","null","html-keyboard-response","18","272805","0.0-11.0-0.0","SS1618365067501","","","null","","","","","","<p><img src= images/blank.png width =""600"" height = ""600"" style=""position:fixed;top:50%; left:50%; transform: translate(-50%, -50%); border:5px solid black"">","","","","","","","",""
"","12502.379999961704","sequential-stimulus-presentation-old","19","285829","0.0-11.0-1.0","SS1618365067501","trial","","40","500","13002.379999961704","images/stimuli/spore_stims/simple_07_A_a.gif","images/stimuli/spore_stims/simple_01_A_b.gif","self_paced","","1","simple_dissimilar","images/stimuli/spore_stims/simple_01_A_b.gif","","","","",""
"","null","html-keyboard-response","20","286648","0.0-11.0-0.1","SS1618365067501","","","null","","","","","","<p><img src= images/blank.png width =""600"" height = ""600"" style=""position:fixed;top:50%; left:50%; transform: translate(-50%, -50%); border:5px solid black"">","","","","","","","",""
"","10068.18000000203","sequential-stimulus-presentation-old","21","297231","0.0-11.0-1.1","SS1618365067501","trial","","40","500","10568.18000000203","images/stimuli/spore_stims/simple_07_A_a.gif","images/stimuli/spore_stims/simple_01_A_b.gif","self_paced","","1","simple_dissimilar","images/stimuli/spore_stims/simple_01_A_b.gif","","","","",""
"","null","html-keyboard-response","22","298302","0.0-11.0-0.2","SS1618365067501","","","null","","","","","","<p><img src= images/blank.png width =""600"" height = ""600"" style=""position:fixed;top:50%; left:50%; transform: translate(-50%, -50%); border:5px solid black"">","","","","","","","",""
"","16662.675000028685","sequential-stimulus-presentation-old","23","315483","0.0-11.0-1.2","SS1618365067501","trial","","40","500","17162.675000028685","images/stimuli/spore_stims/simple_07_A_a.gif","images/stimuli/spore_stims/simple_01_A_b.gif","self_paced","","1","simple_dissimilar","images/stimuli/spore_stims/simple_07_A_a.gif","","","","",""
"","null","html-keyboard-response","24","316677","0.0-11.0-0.3","SS1618365067501","","","null","","","","","","<p><img src= images/blank.png width =""600"" height = ""600"" style=""position:fixed;top:50%; left:50%; transform: translate(-50%, -50%); border:5px solid black"">","","","","","","","",""
"","8850.210000004154","sequential-stimulus-presentation-old","25","326047","0.0-11.0-1.3","SS1618365067501","trial","","40","500","9350.210000004154","images/stimuli/spore_stims/simple_07_A_a.gif","images/stimuli/spore_stims/simple_01_A_b.gif","self_paced","","1","simple_dissimilar","images/stimuli/spore_stims/simple_01_A_b.gif","","","","",""
"","null","html-keyboard-response","26","326875","0.0-11.0-0.4","SS1618365067501","","","null","","","","","","<p><img src= images/blank.png width =""600"" height = ""600"" style=""position:fixed;top:50%; left:50%; transform: translate(-50%, -50%); border:5px solid black"">","","","","","","","",""
"","6942.65500002075","sequential-stimulus-presentation-old","27","334326","0.0-11.0-1.4","SS1618365067501","trial","","40","500","7442.65500002075","images/stimuli/spore_stims/simple_07_A_a.gif","images/stimuli/spore_stims/simple_01_A_b.gif","self_paced","","1","simple_dissimilar","images/stimuli/spore_stims/simple_01_A_b.gif","","","","",""
"","4358.449999999721","survey-multi-choice","28","338693","0.0-12.0","SS1618365067501","math_question","","","","","","","","","","","","{""Q0"":""5""}","[0]","5","",""
"","null","html-keyboard-response","29","339549","0.0-13.0-0.0","SS1618365067501","","","null","","","","","","<p><img src= images/blank.png width =""600"" height = ""600"" style=""position:fixed;top:50%; left:50%; transform: translate(-50%, -50%); border:5px solid black"">","","","","","","","",""
"","2292.879999964498","sequential-stimulus-presentation-old","30","346854","0.0-13.0-1.0","SS1618365067501","trial","","40","500","2792.879999964498","images/stimuli/spore_stims/complex_01_A_b.gif","images/stimuli/spore_stims/complex_14_A_a.gif","forced_long","","2","complex_dissimilar","images/stimuli/spore_stims/complex_14_A_a.gif","","","","",""
"","null","html-keyboard-response","31","347875","0.0-13.0-0.1","SS1618365067501","","","null","","","","","","<p><img src= images/blank.png width =""600"" height = ""600"" style=""position:fixed;top:50%; left:50%; transform: translate(-50%, -50%); border:5px solid black"">","","","","","","","",""
"","4989.3949999823235","sequential-stimulus-presentation-old","32","353381","0.0-13.0-1.1","SS1618365067501","trial","","40","500","5489.3949999823235","images/stimuli/spore_stims/complex_01_A_b.gif","images/stimuli/spore_stims/complex_14_A_a.gif","forced_long","","2","complex_dissimilar","images/stimuli/spore_stims/complex_14_A_a.gif","","","","",""
"","null","html-keyboard-response","33","354522","0.0-13.0-0.2","SS1618365067501","","","null","","","","","","<p><img src= images/blank.png width =""600"" height = ""600"" style=""position:fixed;top:50%; left:50%; transform: translate(-50%, -50%); border:5px solid black"">","","","","","","","",""
"","3758.2049999618903","sequential-stimulus-presentation-old","34","358787","0.0-13.0-1.2","SS1618365067501","trial","","40","500","4258.20499996189","images/stimuli/spore_stims/complex_01_A_b.gif","images/stimuli/spore_stims/complex_14_A_a.gif","forced_long","","2","complex_dissimilar","images/stimuli/spore_stims/complex_14_A_a.gif","","","","",""
"","null","html-keyboard-response","35","360098","0.0-13.0-0.3","SS1618365067501","","","null","","","","","","<p><img src= images/blank.png width =""600"" height = ""600"" style=""position:fixed;top:50%; left:50%; transform: translate(-50%, -50%); border:5px solid black"">","","","","","","","",""
"","4650.9250000235625","sequential-stimulus-presentation-old","36","365264","0.0-13.0-1.3","SS1618365067501","trial","","40","500","5150.9250000235625","images/stimuli/spore_stims/complex_01_A_b.gif","images/stimuli/spore_stims/complex_14_A_a.gif","forced_long","","2","complex_dissimilar","images/stimuli/spore_stims/complex_14_A_a.gif","","","","",""
"","null","html-keyboard-response","37","366360","0.0-13.0-0.4","SS1618365067501","","","null","","","","","","<p><img src= images/blank.png width =""600"" height = ""600"" style=""position:fixed;top:50%; left:50%; transform: translate(-50%, -50%); border:5px solid black"">","","","","","","","",""
"","2604.3700000154786","sequential-stimulus-presentation-old","38","369483","0.0-13.0-1.4","SS1618365067501","trial","","40","500","3104.3700000154786","images/stimuli/spore_stims/complex_01_A_b.gif","images/stimuli/spore_stims/complex_14_A_a.gif","forced_long","","2","complex_dissimilar","images/stimuli/spore_stims/complex_14_A_a.gif","","","","",""
"","2853.655000042636","survey-multi-choice","39","372344","0.0-14.0","SS1618365067501","math_question","","","","","","","","","","","","{""Q0"":""7""}","[0]","7","",""
"","null","html-keyboard-response","40","373438","0.0-15.0-0.0","SS1618365067501","","","null","","","","","","<p><img src= images/blank.png width =""600"" height = ""600"" style=""position:fixed;top:50%; left:50%; transform: translate(-50%, -50%); border:5px solid black"">","","","","","","","",""
"","4826.805000018794","sequential-stimulus-presentation-old","41","383273","0.0-15.0-1.0","SS1618365067501","trial","","40","500","5326.805000018794","images/stimuli/spore_stims/complex_13_A_a.gif","images/stimuli/spore_stims/complex_17_A_b.gif","forced_long","","3","complex_dissimilar","images/stimuli/spore_stims/complex_17_A_b.gif","","","","",""
"","null","html-keyboard-response","42","384183","0.0-15.0-0.1","SS1618365067501","","","null","","","","","","<p><img src= images/blank.png width =""600"" height = ""600"" style=""position:fixed;top:50%; left:50%; transform: translate(-50%, -50%); border:5px solid black"">","","","","","","","",""
"","5739.78000000352","sequential-stimulus-presentation-old","43","390443","0.0-15.0-1.1","SS1618365067501","trial","","40","500","6239.78000000352","images/stimuli/spore_stims/complex_13_A_a.gif","images/stimuli/spore_stims/complex_17_A_b.gif","forced_long","","3","complex_dissimilar","images/stimuli/spore_stims/complex_17_A_b.gif","","","","",""
"","null","html-keyboard-response","44","391627","0.0-15.0-0.2","SS1618365067501","","","null","","","","","","<p><img src= images/blank.png width =""600"" height = ""600"" style=""position:fixed;top:50%; left:50%; transform: translate(-50%, -50%); border:5px solid black"">","","","","","","","",""
"","2723.5799999907613","sequential-stimulus-presentation-old","45","394867","0.0-15.0-1.2","SS1618365067501","trial","","40","500","3223.5799999907613","images/stimuli/spore_stims/complex_13_A_a.gif","images/stimuli/spore_stims/complex_17_A_b.gif","forced_long","","3","complex_dissimilar","images/stimuli/spore_stims/complex_17_A_b.gif","","","","",""
"","null","html-keyboard-response","46","396155","0.0-15.0-0.3","SS1618365067501","","","null","","","","","","<p><img src= images/blank.png width =""600"" height = ""600"" style=""position:fixed;top:50%; left:50%; transform: translate(-50%, -50%); border:5px solid black"">","","","","","","","",""
"","1903.2650000299327","sequential-stimulus-presentation-old","47","398565","0.0-15.0-1.3","SS1618365067501","trial","","40","500","2403.2650000299327","images/stimuli/spore_stims/complex_13_A_a.gif","images/stimuli/spore_stims/complex_17_A_b.gif","forced_long","","3","complex_dissimilar","images/stimuli/spore_stims/complex_17_A_b.gif","","","","",""
"","3048.0099999695085","survey-multi-choice","48","401621","0.0-16.0","SS1618365067501","math_question","","","","","","","","","","","","{""Q0"":""18""}","[0]","18","",""
"","null","html-keyboard-response","49","402742","0.0-17.0-0.0","SS1618365067501","","","null","","","","","","<p><img src= images/blank.png width =""600"" height = ""600"" style=""position:fixed;top:50%; left:50%; transform: translate(-50%, -50%); border:5px solid black"">","","","","","","","",""
"","7858.500000031199","sequential-stimulus-presentation-old","50","411143","0.0-17.0-1.0","SS1618365067501","trial","","40","500","8358.5000000312","images/stimuli/spore_stims/simple_20_A_b.gif","images/stimuli/spore_stims/simple_06_A_a.gif","self_paced","","4","simple_dissimilar","images/stimuli/spore_stims/simple_06_A_a.gif","","","","",""
"","null","html-keyboard-response","51","412386","0.0-17.0-0.1","SS1618365067501","","","null","","","","","","<p><img src= images/blank.png width =""600"" height = ""600"" style=""position:fixed;top:50%; left:50%; transform: translate(-50%, -50%); border:5px solid black"">","","","","","","","",""
"","2808.5749999736436","sequential-stimulus-presentation-old","52","415714","0.0-17.0-1.1","SS1618365067501","trial","","40","500","3308.5749999736436","images/stimuli/spore_stims/simple_20_A_b.gif","images/stimuli/spore_stims/simple_06_A_a.gif","self_paced","","4","simple_dissimilar","images/stimuli/spore_stims/simple_06_A_a.gif","","","","",""
"","null","html-keyboard-response","53","416973","0.0-17.0-0.2","SS1618365067501","","","null","","","","","","<p><img src= images/blank.png width =""600"" height = ""600"" style=""position:fixed;top:50%; left:50%; transform: translate(-50%, -50%); border:5px solid black"">","","","","","","","",""
"","3520.195000048261","sequential-stimulus-presentation-old","54","421005","0.0-17.0-1.2","SS1618365067501","trial","","40","500","4020.195000048261","images/stimuli/spore_stims/simple_20_A_b.gif","images/stimuli/spore_stims/simple_06_A_a.gif","self_paced","","4","simple_dissimilar","images/stimuli/spore_stims/simple_06_A_a.gif","","","","",""
"","null","html-keyboard-response","55","422041","0.0-17.0-0.3","SS1618365067501","","","null","","","","","","<p><img src= images/blank.png width =""600"" height = ""600"" style=""position:fixed;top:50%; left:50%; transform: translate(-50%, -50%); border:5px solid black"">","","","","","","","",""
"","3914.534999988973","sequential-stimulus-presentation-old","56","426484","0.0-17.0-1.3","SS1618365067501","trial","","40","500","4414.534999988973","images/stimuli/spore_stims/simple_20_A_b.gif","images/stimuli/spore_stims/simple_06_A_a.gif","self_paced","","4","simple_dissimilar","images/stimuli/spore_stims/simple_06_A_a.gif","","","","",""
"","4063.5999999940395","survey-multi-choice","57","430552","0.0-18.0","SS1618365067501","math_question","","","","","","","","","","","","{""Q0"":""16""}","[0]","16","",""
"","null","html-keyboard-response","58","431577","0.0-19.0-0.0","SS1618365067501","","","null","","","","","","<p><img src= images/blank.png width =""600"" height = ""600"" style=""position:fixed;top:50%; left:50%; transform: translate(-50%, -50%); border:5px solid black"">","","","","","","","",""
"","3765.7949999556877","sequential-stimulus-presentation-old","59","435852","0.0-19.0-1.0","SS1618365067501","trial","","40","500","4265.794999955688","images/stimuli/spore_stims/complex_17_A_a.gif","images/stimuli/spore_stims/complex_20_A_b.gif","self_paced","","5","complex_dissimilar","images/stimuli/spore_stims/complex_20_A_b.gif","","","","",""
"","null","html-keyboard-response","60","436964","0.0-19.0-0.1","SS1618365067501","","","null","","","","","","<p><img src= images/blank.png width =""600"" height = ""600"" style=""position:fixed;top:50%; left:50%; transform: translate(-50%, -50%); border:5px solid black"">","","","","","","","",""
"","4656.7550000036135","sequential-stimulus-presentation-old","61","442142","0.0-19.0-1.1","SS1618365067501","trial","","40","500","5156.7550000036135","images/stimuli/spore_stims/complex_17_A_a.gif","images/stimuli/spore_stims/complex_20_A_b.gif","self_paced","","5","complex_dissimilar","images/stimuli/spore_stims/complex_17_A_a.gif","","","","",""
"","null","html-keyboard-response","62","443330","0.0-19.0-0.2","SS1618365067501","","","null","","","","","","<p><img src= images/blank.png width =""600"" height = ""600"" style=""position:fixed;top:50%; left:50%; transform: translate(-50%, -50%); border:5px solid black"">","","","","","","","",""
"","6965.090000012424","sequential-stimulus-presentation-old","63","450809","0.0-19.0-1.2","SS1618365067501","trial","","40","500","7465.090000012424","images/stimuli/spore_stims/complex_17_A_a.gif","images/stimuli/spore_stims/complex_20_A_b.gif","self_paced","","5","complex_dissimilar","images/stimuli/spore_stims/complex_17_A_a.gif","","","","",""
"","null","html-keyboard-response","64","451770","0.0-19.0-0.3","SS1618365067501","","","null","","","","","","<p><img src= images/blank.png width =""600"" height = ""600"" style=""position:fixed;top:50%; left:50%; transform: translate(-50%, -50%); border:5px solid black"">","","","","","","","",""
"","5385.599999979604","sequential-stimulus-presentation-old","65","457671","0.0-19.0-1.3","SS1618365067501","trial","","40","500","5885.599999979604","images/stimuli/spore_stims/complex_17_A_a.gif","images/stimuli/spore_stims/complex_20_A_b.gif","self_paced","","5","complex_dissimilar","images/stimuli/spore_stims/complex_20_A_b.gif","","","","",""
"","null","html-keyboard-response","66","458974","0.0-19.0-0.4","SS1618365067501","","","null","","","","","","<p><img src= images/blank.png width =""600"" height = ""600"" style=""position:fixed;top:50%; left:50%; transform: translate(-50%, -50%); border:5px solid black"">","","","","","","","",""
"","9559.405000007246","sequential-stimulus-presentation-old","67","469067","0.0-19.0-1.4","SS1618365067501","trial","","40","500","10059.405000007246","images/stimuli/spore_stims/complex_17_A_a.gif","images/stimuli/spore_stims/complex_20_A_b.gif","self_paced","","5","complex_dissimilar","images/stimuli/spore_stims/complex_20_A_b.gif","","","","",""
"","4307.874999998603","survey-multi-choice","68","473381","0.0-20.0","SS1618365067501","math_question","","","","","","","","","","","","{""Q0"":""12""}","[0]","12","",""
"","null","html-keyboard-response","69","474445","0.0-21.0-0.0","SS1618365067501","","","null","","","","","","<p><img src= images/blank.png width =""600"" height = ""600"" style=""position:fixed;top:50%; left:50%; transform: translate(-50%, -50%); border:5px solid black"">","","","","","","","",""
"","2818.6749999877065","sequential-stimulus-presentation-old","70","477329","0.0-21.0-1.0","SS1618365067501","trial","","40","500","3318.6749999877065","images/stimuli/spore_stims/simple_15_A_a.gif","images/stimuli/spore_stims/simple_14_A_b.gif","forced_short","","6","simple_dissimilar","images/stimuli/spore_stims/simple_14_A_b.gif","","","","",""
"","null","html-keyboard-response","71","478482","0.0-21.0-0.1","SS1618365067501","","","null","","","","","","<p><img src= images/blank.png width =""600"" height = ""600"" style=""position:fixed;top:50%; left:50%; transform: translate(-50%, -50%); border:5px solid black"">","","","","","","","",""
"","14036.21499997098","sequential-stimulus-presentation-old","72","493035","0.0-21.0-1.1","SS1618365067501","trial","","40","500","14536.21499997098","images/stimuli/spore_stims/simple_15_A_a.gif","images/stimuli/spore_stims/simple_14_A_b.gif","forced_short","","6","simple_dissimilar","images/stimuli/spore_stims/simple_14_A_b.gif","","","","",""
"","null","html-keyboard-response","73","493957","0.0-21.0-0.2","SS1618365067501","","","null","","","","","","<p><img src= images/blank.png width =""600"" height = ""600"" style=""position:fixed;top:50%; left:50%; transform: translate(-50%, -50%); border:5px solid black"">","","","","","","","",""
"","5476.685000001453","sequential-stimulus-presentation-old","74","499953","0.0-21.0-1.2","SS1618365067501","trial","","40","500","5976.685000001453","images/stimuli/spore_stims/simple_15_A_a.gif","images/stimuli/spore_stims/simple_14_A_b.gif","forced_short","","6","simple_dissimilar","images/stimuli/spore_stims/simple_14_A_b.gif","","","","",""
"","null","html-keyboard-response","75","501258","0.0-21.0-0.3","SS1618365067501","","","null","","","","","","<p><img src= images/blank.png width =""600"" height = ""600"" style=""position:fixed;top:50%; left:50%; transform: translate(-50%, -50%); border:5px solid black"">","","","","","","","",""
"","1748.8400000147521","sequential-stimulus-presentation-old","76","503514","0.0-21.0-1.3","SS1618365067501","trial","","40","500","2248.840000014752","images/stimuli/spore_stims/simple_15_A_a.gif","images/stimuli/spore_stims/simple_14_A_b.gif","forced_short","","6","simple_dissimilar","images/stimuli/spore_stims/simple_14_A_b.gif","","","","",""
"","null","html-keyboard-response","77","504767","0.0-21.0-0.4","SS1618365067501","","","null","","","","","","<p><img src= images/blank.png width =""600"" height = ""600"" style=""position:fixed;top:50%; left:50%; transform: translate(-50%, -50%); border:5px solid black"">","","","","","","","",""
"","3221.7599999858066","sequential-stimulus-presentation-old","78","508514","0.0-21.0-1.4","SS1618365067501","trial","","40","500","3721.7599999858066","images/stimuli/spore_stims/simple_15_A_a.gif","images/stimuli/spore_stims/simple_14_A_b.gif","forced_short","","6","simple_dissimilar","images/stimuli/spore_stims/simple_14_A_b.gif","","","","",""
"","null","html-keyboard-response","79","509642","0.0-21.0-0.5","SS1618365067501","","","null","","","","","","<p><img src= images/blank.png width =""600"" height = ""600"" style=""position:fixed;top:50%; left:50%; transform: translate(-50%, -50%); border:5px solid black"">","","","","","","","",""
"","4386.529999959748","sequential-stimulus-presentation-old","80","514546","0.0-21.0-1.5","SS1618365067501","trial","","40","500","4886.529999959748","images/stimuli/spore_stims/simple_15_A_a.gif","images/stimuli/spore_stims/simple_14_A_b.gif","forced_short","","6","simple_dissimilar","images/stimuli/spore_stims/simple_14_A_b.gif","","","","",""
"","8248.435000015888","survey-multi-choice","81","522804","0.0-22.0","SS1618365067501","math_question","","","","","","","","","","","","{""Q0"":""13""}","[0]","13","",""
"","null","html-keyboard-response","82","523703","0.0-23.0-0.0","SS1618365067501","","","null","","","","","","<p><img src= images/blank.png width =""600"" height = ""600"" style=""position:fixed;top:50%; left:50%; transform: translate(-50%, -50%); border:5px solid black"">","","","","","","","",""
"","4654.284999996889","sequential-stimulus-presentation-old","83","528426","0.0-23.0-1.0","SS1618365067501","trial","","40","500","5154.284999996889","images/stimuli/spore_stims/complex_18_A_a.gif","images/stimuli/spore_stims/complex_19_A_b.gif","forced_short","","7","complex_dissimilar","images/stimuli/spore_stims/complex_19_A_b.gif","","","","",""
"","null","html-keyboard-response","84","529695","0.0-23.0-0.1","SS1618365067501","","","null","","","","","","<p><img src= images/blank.png width =""600"" height = ""600"" style=""position:fixed;top:50%; left:50%; transform: translate(-50%, -50%); border:5px solid black"">","","","","","","","",""
"","4770.105000003241","sequential-stimulus-presentation-old","85","535022","0.0-23.0-1.1","SS1618365067501","trial","","40","500","5270.105000003241","images/stimuli/spore_stims/complex_18_A_a.gif","images/stimuli/spore_stims/complex_19_A_b.gif","forced_short","","7","complex_dissimilar","images/stimuli/spore_stims/complex_19_A_b.gif","","","","",""
"","null","html-keyboard-response","86","536175","0.0-23.0-0.2","SS1618365067501","","","null","","","","","","<p><img src= images/blank.png width =""600"" height = ""600"" style=""position:fixed;top:50%; left:50%; transform: translate(-50%, -50%); border:5px solid black"">","","","","","","","",""
"","7517.844999965746","sequential-stimulus-presentation-old","87","544227","0.0-23.0-1.2","SS1618365067501","trial","","40","500","8017.844999965746","images/stimuli/spore_stims/complex_18_A_a.gif","images/stimuli/spore_stims/complex_19_A_b.gif","forced_short","","7","complex_dissimilar","images/stimuli/spore_stims/complex_19_A_b.gif","","","","",""
"","null","html-keyboard-response","88","545391","0.0-23.0-0.3","SS1618365067501","","","null","","","","","","<p><img src= images/blank.png width =""600"" height = ""600"" style=""position:fixed;top:50%; left:50%; transform: translate(-50%, -50%); border:5px solid black"">","","","","","","","",""
"","1629.7299999860115","sequential-stimulus-presentation-old","89","547541","0.0-23.0-1.3","SS1618365067501","trial","","40","500","2129.7299999860115","images/stimuli/spore_stims/complex_18_A_a.gif","images/stimuli/spore_stims/complex_19_A_b.gif","forced_short","","7","complex_dissimilar","images/stimuli/spore_stims/complex_19_A_b.gif","","","","",""
"","null","html-keyboard-response","90","548834","0.0-23.0-0.4","SS1618365067501","","","null","","","","","","<p><img src= images/blank.png width =""600"" height = ""600"" style=""position:fixed;top:50%; left:50%; transform: translate(-50%, -50%); border:5px solid black"">","","","","","","","",""
"","5400.374999968335","sequential-stimulus-presentation-old","91","554747","0.0-23.0-1.4","SS1618365067501","trial","","40","500","5900.374999968335","images/stimuli/spore_stims/complex_18_A_a.gif","images/stimuli/spore_stims/complex_19_A_b.gif","forced_short","","7","complex_dissimilar","images/stimuli/spore_stims/complex_18_A_a.gif","","","","",""
"","5966.369999980088","survey-multi-choice","92","560719","0.0-24.0","SS1618365067501","math_question","","","","","","","","","","","","{""Q0"":""3""}","[0]","3","",""
"","null","html-keyboard-response","93","561683","0.0-25.0-0.0","SS1618365067501","","","null","","","","","","<p><img src= images/blank.png width =""600"" height = ""600"" style=""position:fixed;top:50%; left:50%; transform: translate(-50%, -50%); border:5px solid black"">","","","","","","","",""
"","3064.0150000108406","sequential-stimulus-presentation-old","94","564816","0.0-25.0-1.0","SS1618365067501","trial","","40","500","3564.0150000108406","images/stimuli/spore_stims/simple_17_A_a.gif","images/stimuli/spore_stims/simple_02_A_b.gif","forced_short","","8","simple_dissimilar","images/stimuli/spore_stims/simple_02_A_b.gif","","","","",""
"","null","html-keyboard-response","95","565971","0.0-25.0-0.1","SS1618365067501","","","null","","","","","","<p><img src= images/blank.png width =""600"" height = ""600"" style=""position:fixed;top:50%; left:50%; transform: translate(-50%, -50%); border:5px solid black"">","","","","","","","",""
"","5512.3899999889545","sequential-stimulus-presentation-old","96","572010","0.0-25.0-1.1","SS1618365067501","trial","","40","500","6012.3899999889545","images/stimuli/spore_stims/simple_17_A_a.gif","images/stimuli/spore_stims/simple_02_A_b.gif","forced_short","","8","simple_dissimilar","images/stimuli/spore_stims/simple_02_A_b.gif","","","","",""
"","null","html-keyboard-response","97","573122","0.0-25.0-0.2","SS1618365067501","","","null","","","","","","<p><img src= images/blank.png width =""600"" height = ""600"" style=""position:fixed;top:50%; left:50%; transform: translate(-50%, -50%); border:5px solid black"">","","","","","","","",""
"","3195.579999999609","sequential-stimulus-presentation-old","98","576837","0.0-25.0-1.2","SS1618365067501","trial","","40","500","3695.579999999609","images/stimuli/spore_stims/simple_17_A_a.gif","images/stimuli/spore_stims/simple_02_A_b.gif","forced_short","","8","simple_dissimilar","images/stimuli/spore_stims/simple_17_A_a.gif","","","","",""
"","null","html-keyboard-response","99","578026","0.0-25.0-0.3","SS1618365067501","","","null","","","","","","<p><img src= images/blank.png width =""600"" height = ""600"" style=""position:fixed;top:50%; left:50%; transform: translate(-50%, -50%); border:5px solid black"">","","","","","","","",""
"","767.0650000218302","sequential-stimulus-presentation-old","100","579316","0.0-25.0-1.3","SS1618365067501","trial","","40","500","1267.0650000218302","images/stimuli/spore_stims/simple_17_A_a.gif","images/stimuli/spore_stims/simple_02_A_b.gif","forced_short","","8","simple_dissimilar","images/stimuli/spore_stims/simple_02_A_b.gif","","","","",""
"","null","html-keyboard-response","101","580294","0.0-25.0-0.4","SS1618365067501","","","null","","","","","","<p><img src= images/blank.png width =""600"" height = ""600"" style=""position:fixed;top:50%; left:50%; transform: translate(-50%, -50%); border:5px solid black"">","","","","","","","",""
"","1223.329999949783","sequential-stimulus-presentation-old","102","582039","0.0-25.0-1.4","SS1618365067501","trial","","40","500","1723.329999949783","images/stimuli/spore_stims/simple_17_A_a.gif","images/stimuli/spore_stims/simple_02_A_b.gif","forced_short","","8","simple_dissimilar","images/stimuli/spore_stims/simple_02_A_b.gif","","","","",""
"","null","html-keyboard-response","103","583246","0.0-25.0-0.5","SS1618365067501","","","null","","","","","","<p><img src= images/blank.png width =""600"" height = ""600"" style=""position:fixed;top:50%; left:50%; transform: translate(-50%, -50%); border:5px solid black"">","","","","","","","",""
"","1228.3499999903142","sequential-stimulus-presentation-old","104","584992","0.0-25.0-1.5","SS1618365067501","trial","","40","500","1728.3499999903142","images/stimuli/spore_stims/simple_17_A_a.gif","images/stimuli/spore_stims/simple_02_A_b.gif","forced_short","","8","simple_dissimilar","images/stimuli/spore_stims/simple_17_A_a.gif","","","","",""
"","2861.139999993611","survey-multi-choice","105","587862","0.0-26.0","SS1618365067501","math_question","","","","","","","","","","","","{""Q0"":""11""}","[0]","11","",""
"","null","html-keyboard-response","106","589115","0.0-27.0-0.0","SS1618365067501","","","null","","","","","","<p><img src= images/blank.png width =""600"" height = ""600"" style=""position:fixed;top:50%; left:50%; transform: translate(-50%, -50%); border:5px solid black"">","","","","","","","",""
"","3550.485000014305","sequential-stimulus-presentation-old","107","592748","0.0-27.0-1.0","SS1618365067501","trial","","40","500","4050.485000014305","images/stimuli/spore_stims/complex_06_A_a.gif","images/stimuli/spore_stims/complex_03_A_b.gif","forced_short","","9","complex_dissimilar","images/stimuli/spore_stims/complex_03_A_b.gif","","","","",""
"","null","html-keyboard-response","108","593984","0.0-27.0-0.1","SS1618365067501","","","null","","","","","","<p><img src= images/blank.png width =""600"" height = ""600"" style=""position:fixed;top:50%; left:50%; transform: translate(-50%, -50%); border:5px solid black"">","","","","","","","",""
"","5696.790000016335","sequential-stimulus-presentation-old","109","600204","0.0-27.0-1.1","SS1618365067501","trial","","40","500","6196.790000016335","images/stimuli/spore_stims/complex_06_A_a.gif","images/stimuli/spore_stims/complex_03_A_b.gif","forced_short","","9","complex_dissimilar","images/stimuli/spore_stims/complex_06_A_a.gif","","","","",""
"","null","html-keyboard-response","110","601237","0.0-27.0-0.2","SS1618365067501","","","null","","","","","","<p><img src= images/blank.png width =""600"" height = ""600"" style=""position:fixed;top:50%; left:50%; transform: translate(-50%, -50%); border:5px solid black"">","","","","","","","",""
"","3273.1149999890476","sequential-stimulus-presentation-old","111","605032","0.0-27.0-1.2","SS1618365067501","trial","","40","500","3773.1149999890476","images/stimuli/spore_stims/complex_06_A_a.gif","images/stimuli/spore_stims/complex_03_A_b.gif","forced_short","","9","complex_dissimilar","images/stimuli/spore_stims/complex_03_A_b.gif","","","","",""
"","null","html-keyboard-response","112","605987","0.0-27.0-0.3","SS1618365067501","","","null","","","","","","<p><img src= images/blank.png width =""600"" height = ""600"" style=""position:fixed;top:50%; left:50%; transform: translate(-50%, -50%); border:5px solid black"">","","","","","","","",""
"","13847.574999963399","sequential-stimulus-presentation-old","113","620343","0.0-27.0-1.3","SS1618365067501","trial","","40","500","14347.574999963399","images/stimuli/spore_stims/complex_06_A_a.gif","images/stimuli/spore_stims/complex_03_A_b.gif","forced_short","","9","complex_dissimilar","images/stimuli/spore_stims/complex_03_A_b.gif","","","","",""
"","null","html-keyboard-response","114","621278","0.0-27.0-0.4","SS1618365067501","","","null","","","","","","<p><img src= images/blank.png width =""600"" height = ""600"" style=""position:fixed;top:50%; left:50%; transform: translate(-50%, -50%); border:5px solid black"">","","","","","","","",""
"","1429.4949999894015","sequential-stimulus-presentation-old","115","623225","0.0-27.0-1.4","SS1618365067501","trial","","40","500","1929.4949999894015","images/stimuli/spore_stims/complex_06_A_a.gif","images/stimuli/spore_stims/complex_03_A_b.gif","forced_short","","9","complex_dissimilar","images/stimuli/spore_stims/complex_03_A_b.gif","","","","",""
"","2942.570000013802","survey-multi-choice","116","626182","0.0-28.0","SS1618365067501","math_question","","","","","","","","","","","","{""Q0"":""7""}","[0]","7","",""
"","null","html-keyboard-response","117","627064","0.0-29.0-0.0","SS1618365067501","","","null","","","","","","<p><img src= images/blank.png width =""600"" height = ""600"" style=""position:fixed;top:50%; left:50%; transform: translate(-50%, -50%); border:5px solid black"">","","","","","","","",""
"","5275.699999998324","sequential-stimulus-presentation-old","118","632858","0.0-29.0-1.0","SS1618365067501","trial","","40","500","5775.699999998324","images/stimuli/spore_stims/complex_07_A_a.gif","images/stimuli/spore_stims/complex_18_A_b.gif","self_paced","","10","complex_dissimilar","images/stimuli/spore_stims/complex_18_A_b.gif","","","","",""
"","null","html-keyboard-response","119","634001","0.0-29.0-0.1","SS1618365067501","","","null","","","","","","<p><img src= images/blank.png width =""600"" height = ""600"" style=""position:fixed;top:50%; left:50%; transform: translate(-50%, -50%); border:5px solid black"">","","","","","","","",""
"","1439.94000001112","sequential-stimulus-presentation-old","120","635958","0.0-29.0-1.1","SS1618365067501","trial","","40","500","1939.94000001112","images/stimuli/spore_stims/complex_07_A_a.gif","images/stimuli/spore_stims/complex_18_A_b.gif","self_paced","","10","complex_dissimilar","images/stimuli/spore_stims/complex_18_A_b.gif","","","","",""
"","null","html-keyboard-response","121","636967","0.0-29.0-0.2","SS1618365067501","","","null","","","","","","<p><img src= images/blank.png width =""600"" height = ""600"" style=""position:fixed;top:50%; left:50%; transform: translate(-50%, -50%); border:5px solid black"">","","","","","","","",""
"","4082.2400000179186","sequential-stimulus-presentation-old","122","641570","0.0-29.0-1.2","SS1618365067501","trial","","40","500","4582.240000017919","images/stimuli/spore_stims/complex_07_A_a.gif","images/stimuli/spore_stims/complex_18_A_b.gif","self_paced","","10","complex_dissimilar","images/stimuli/spore_stims/complex_18_A_b.gif","","","","",""
"","null","html-keyboard-response","123","642437","0.0-29.0-0.3","SS1618365067501","","","null","","","","","","<p><img src= images/blank.png width =""600"" height = ""600"" style=""position:fixed;top:50%; left:50%; transform: translate(-50%, -50%); border:5px solid black"">","","","","","","","",""
"","1812.0199999539182","sequential-stimulus-presentation-old","124","644756","0.0-29.0-1.3","SS1618365067501","trial","","40","500","2312.019999953918","images/stimuli/spore_stims/complex_07_A_a.gif","images/stimuli/spore_stims/complex_18_A_b.gif","self_paced","","10","complex_dissimilar","images/stimuli/spore_stims/complex_18_A_b.gif","","","","",""
"","3170.5150000052527","survey-multi-choice","125","647940","0.0-30.0","SS1618365067501","math_question","","","","","","","","","","","","{""Q0"":""10""}","[0]","10","",""
"","null","html-keyboard-response","126","649123","0.0-31.0-0.0","SS1618365067501","","","null","","","","","","<p><img src= images/blank.png width =""600"" height = ""600"" style=""position:fixed;top:50%; left:50%; transform: translate(-50%, -50%); border:5px solid black"">","","","","","","","",""
"","1997.8799999807961","sequential-stimulus-presentation-old","127","656130","0.0-31.0-1.0","SS1618365067501","trial","","40","500","2497.879999980796","images/stimuli/spore_stims/simple_02_A_a.gif","images/stimuli/spore_stims/simple_09_A_b.gif","forced_long","","11","simple_dissimilar","images/stimuli/spore_stims/simple_09_A_b.gif","","","","",""
"","null","html-keyboard-response","128","657012","0.0-31.0-0.1","SS1618365067501","","","null","","","","","","<p><img src= images/blank.png width =""600"" height = ""600"" style=""position:fixed;top:50%; left:50%; transform: translate(-50%, -50%); border:5px solid black"">","","","","","","","",""
"","1025.2200000104494","sequential-stimulus-presentation-old","129","658572","0.0-31.0-1.1","SS1618365067501","trial","","40","500","1525.2200000104494","images/stimuli/spore_stims/simple_02_A_a.gif","images/stimuli/spore_stims/simple_09_A_b.gif","forced_long","","11","simple_dissimilar","images/stimuli/spore_stims/simple_09_A_b.gif","","","","",""
"","null","html-keyboard-response","130","659756","0.0-31.0-0.2","SS1618365067501","","","null","","","","","","<p><img src= images/blank.png width =""600"" height = ""600"" style=""position:fixed;top:50%; left:50%; transform: translate(-50%, -50%); border:5px solid black"">","","","","","","","",""
"","4124.55999996746","sequential-stimulus-presentation-old","131","664400","0.0-31.0-1.2","SS1618365067501","trial","","40","500","4624.55999996746","images/stimuli/spore_stims/simple_02_A_a.gif","images/stimuli/spore_stims/simple_09_A_b.gif","forced_long","","11","simple_dissimilar","images/stimuli/spore_stims/simple_09_A_b.gif","","","","",""
"","null","html-keyboard-response","132","665265","0.0-31.0-0.3","SS1618365067501","","","null","","","","","","<p><img src= images/blank.png width =""600"" height = ""600"" style=""position:fixed;top:50%; left:50%; transform: translate(-50%, -50%); border:5px solid black"">","","","","","","","",""
"","1383.3299999823794","sequential-stimulus-presentation-old","133","667182","0.0-31.0-1.3","SS1618365067501","trial","","40","500","1883.3299999823794","images/stimuli/spore_stims/simple_02_A_a.gif","images/stimuli/spore_stims/simple_09_A_b.gif","forced_long","","11","simple_dissimilar","images/stimuli/spore_stims/simple_09_A_b.gif","","","","",""
"","null","html-keyboard-response","134","668224","0.0-31.0-0.4","SS1618365067501","","","null","","","","","","<p><img src= images/blank.png width =""600"" height = ""600"" style=""position:fixed;top:50%; left:50%; transform: translate(-50%, -50%); border:5px solid black"">","","","","","","","",""
"","523.6700000241399","sequential-stimulus-presentation-old","135","669268","0.0-31.0-1.4","SS1618365067501","trial","","40","500","1023.6700000241399","images/stimuli/spore_stims/simple_02_A_a.gif","images/stimuli/spore_stims/simple_09_A_b.gif","forced_long","","11","simple_dissimilar","images/stimuli/spore_stims/simple_09_A_b.gif","","","","",""
"","null","html-keyboard-response","136","670134","0.0-31.0-0.5","SS1618365067501","","","null","","","","","","<p><img src= images/blank.png width =""600"" height = ""600"" style=""position:fixed;top:50%; left:50%; transform: translate(-50%, -50%); border:5px solid black"">","","","","","","","",""
"","520.310000050813","sequential-stimulus-presentation-old","137","671169","0.0-31.0-1.5","SS1618365067501","trial","","40","500","1020.310000050813","images/stimuli/spore_stims/simple_02_A_a.gif","images/stimuli/spore_stims/simple_09_A_b.gif","forced_long","","11","simple_dissimilar","images/stimuli/spore_stims/simple_09_A_b.gif","","","","",""
"[{""page_index"":0,""viewing_time"":9303.315000026487}]","9303.980000026058","instructions","138","680479","0.0-32.0","SS1618365067501","instructions","","","","","","","","","","","","","","","",""
"","14676.135000016075","survey-likert","139","695165","0.0-33.0","SS1618365067501","similarity_question","","","","","","","","","","","","{""Q0"":1}","[0]","","images/stimuli/spore_stims/complex_03_A_b.gif","images/stimuli/spore_stims/complex_06_A_a.gif"
"","28184.780000010505","survey-likert","140","723361","0.0-34.0","SS1618365067501","similarity_question","","","","","","","","","","","","{""Q0"":5}","[0]","","images/stimuli/spore_stims/simple_20_A_b.gif","images/stimuli/spore_stims/simple_06_A_a.gif"
"","82065.40500000119","survey-likert","141","805438","0.0-35.0","SS1618365067501","similarity_question","","","","","","","","","","","","{""Q0"":5}","[0]","","images/stimuli/spore_stims/simple_15_A_a.gif","images/stimuli/spore_stims/simple_14_A_b.gif"
"","10547.305000014603","survey-likert","142","815999","0.0-36.0","SS1618365067501","similarity_question","","","","","","","","","","","","{""Q0"":0}","[0]","","images/stimuli/spore_stims/complex_18_A_a.gif","images/stimuli/spore_stims/complex_19_A_b.gif"
"","8578.504999983124","survey-likert","143","824587","0.0-37.0","SS1618365067501","similarity_question","","","","","","","","","","","","{""Q0"":2}","[0]","","images/stimuli/spore_stims/simple_07_A_b.gif","images/stimuli/spore_stims/simple_09_A_a.gif"
"","6569.630000041798","survey-likert","144","831172","0.0-38.0","SS1618365067501","similarity_question","","","","","","","","","","","","{""Q0"":4}","[0]","","images/stimuli/spore_stims/simple_02_A_a.gif","images/stimuli/spore_stims/simple_09_A_b.gif"
"","7971.975000051316","survey-likert","145","839156","0.0-39.0","SS1618365067501","similarity_question","","","","","","","","","","","","{""Q0"":4}","[0]","","images/stimuli/spore_stims/complex_17_A_a.gif","images/stimuli/spore_stims/complex_20_A_b.gif"
"","12080.904999980703","survey-likert","146","851248","0.0-40.0","SS1618365067501","similarity_question","","","","","","","","","","","","{""Q0"":4}","[0]","","images/stimuli/spore_stims/complex_13_A_a.gif","images/stimuli/spore_stims/complex_17_A_b.gif"
"","9580.910000018775","survey-likert","147","860838","0.0-41.0","SS1618365067501","similarity_question","","","","","","","","","","","","{""Q0"":2}","[0]","","images/stimuli/spore_stims/simple_02_A_b.gif","images/stimuli/spore_stims/simple_17_A_a.gif"
"","13195.124999969266","survey-likert","148","874044","0.0-42.0","SS1618365067501","similarity_question","","","","","","","","","","","","{""Q0"":4}","[0]","","images/stimuli/spore_stims/simple_01_A_b.gif","images/stimuli/spore_stims/simple_07_A_a.gif"
"","28722.81499998644","survey-likert","149","902777","0.0-43.0","SS1618365067501","similarity_question","","","","","","","","","","","","{""Q0"":0}","[0]","","images/stimuli/spore_stims/complex_07_A_a.gif","images/stimuli/spore_stims/complex_18_A_b.gif"
"","12771.699999982957","survey-likert","150","915559","0.0-44.0","SS1618365067501","similarity_question","","","","","","","","","","","","{""Q0"":0}","[0]","","images/stimuli/spore_stims/complex_14_A_a.gif","images/stimuli/spore_stims/complex_01_A_b.gif"
"[{""page_index"":0,""viewing_time"":5703.540000016801}]","5704.245000029914","instructions","151","921270","0.0-45.0","SS1618365067501","instructions","","","","","","","","","","","","","","","",""
"","8228.080000029877","survey-likert","152","929509","0.0-46.0","SS1618365067501","","","","","","","","","images/stimuli/spore_stims/simple_09_A_a.gif","","","","{""Q0"":2}","[0]","","",""
"","4787.794999952894","survey-likert","153","934308","0.0-47.0","SS1618365067501","","","","","","","","","images/stimuli/spore_stims/simple_02_A_b.gif","","","","{""Q0"":2}","[0]","","",""
"","4367.15499998536","survey-likert","154","938685","0.0-48.0","SS1618365067501","","","","","","","","","images/stimuli/spore_stims/simple_20_A_b.gif","","","","{""Q0"":2}","[0]","","",""
"","4243.949999974575","survey-likert","155","942938","0.0-49.0","SS1618365067501","","","","","","","","","images/stimuli/spore_stims/complex_03_A_b.gif","","","","{""Q0"":4}","[0]","","",""
"","2469.450000033248","survey-likert","156","945418","0.0-50.0","SS1618365067501","","","","","","","","","images/stimuli/spore_stims/complex_18_A_b.gif","","","","{""Q0"":6}","[0]","","",""
"","3510.939999949187","survey-likert","157","948938","0.0-51.0","SS1618365067501","","","","","","","","","images/stimuli/spore_stims/simple_15_A_a.gif","","","","{""Q0"":1}","[0]","","",""
"","13950.155000027735","survey-likert","158","962899","0.0-52.0","SS1618365067501","","","","","","","","","images/stimuli/spore_stims/complex_13_A_a.gif","","","","{""Q0"":6}","[0]","","",""
"","6870.664999994915","survey-likert","159","969784","0.0-53.0","SS1618365067501","","","","","","","","","images/stimuli/spore_stims/complex_20_A_b.gif","","","","{""Q0"":6}","[0]","","",""
"","2196.239999961108","survey-likert","160","971990","0.0-54.0","SS1618365067501","","","","","","","","","images/stimuli/spore_stims/complex_14_A_a.gif","","","","{""Q0"":6}","[0]","","",""
"","2827.835000003688","survey-likert","161","974831","0.0-55.0","SS1618365067501","","","","","","","","","images/stimuli/spore_stims/simple_07_A_a.gif","","","","{""Q0"":2}","[0]","","",""
"","2428.544999973383","survey-likert","162","977270","0.0-56.0","SS1618365067501","","","","","","","","","images/stimuli/spore_stims/simple_09_A_b.gif","","","","{""Q0"":1}","[0]","","",""
"","2841.6599999764003","survey-likert","163","980126","0.0-57.0","SS1618365067501","","","","","","","","","images/stimuli/spore_stims/complex_19_A_b.gif","","","","{""Q0"":6}","[0]","","",""
"[{""page_index"":0,""viewing_time"":2892.1799999661744}]","2892.87499996135","instructions","164","983028","0.0-58.0","SS1618365067501","instructions","","","","","","","","","","","","","","","",""
"","86055.24000001606","demog-age","165","1069097","0.0-59.0","SS1618365067501","","","","","","","","","","","","","{""age"":""40""}","","","",""
"","5917.4350000103","demog-ethnic-US","166","1075033","0.0-60.0","SS1618365067501","","","","","","","","","","","","","{""ethnicity"":[""White""]}","[0]","","",""
"","6643.145000038203","demog-gender-and-education","167","1081689","0.0-61.0","SS1618365067501","","","","","","","","","","","","","{""gender"":""Female"",""education"":""Doctorate/Professional degree""}","[0,1]","","",""
"","7750.714999972843","survey-text","168","1089454","0.0-62.0","SS1618365067501","feedback","","","","","","","","","","","","{""Q0"":""None""}","","","",""
"[{""page_index"":0,""viewing_time"":2711.699999985285}]","2712.3599999467842","instructions","169","1092173","0.0-63.0","SS1618365067501","instructions","","","","","","","","","","","","","","","",""
