"view_history","rt","trial_type","trial_index","time_elapsed","internal_node_id","subject","stimulus_type","trial_stimulus","key_press","minimum_viewing_duration","trial_looking_time","block_deviant","block_background","exposure_type","stimulus","block_number","block_type","stimulus_displayed","responses","question_order","math_correct_answer","stimulus_left","stimulus_right"
"[{""page_index"":0,""viewing_time"":29666.240000049584}]","29666.949999984354","instructions","0","29671","0.0-0.0","SS1618365665503","","","","","","","","","","","","","","","","",""
"[{""page_index"":0,""viewing_time"":43794.7250000434},{""page_index"":1,""viewing_time"":7519.889999995939}]","51314.795000012964","instructions","1","82997","0.0-1.0","SS1618365665503","instructions","","","","","","","","","","","","","","","",""
"","14373.285000096075","sequential-stimulus-presentation-old","2","97875","0.0-2.0","SS1618365665503","","","40","500","14873.285000096075","null","null","self_paced","","","","","","","","",""
"","9790.715000010096","sequential-stimulus-presentation-old","3","108176","0.0-3.0","SS1618365665503","","","40","500","10290.715000010096","null","null","self_paced","","","","","","","","",""
"[{""page_index"":0,""viewing_time"":24427.03000002075}]","24427.284999983385","instructions","4","132605","0.0-4.0","SS1618365665503","instructions","","","","","","","","","","","","","","","",""
"","15231.755000073463","sequential-stimulus-presentation-old","5","152840","0.0-5.0","SS1618365665503","","","40","500","15731.755000073463","null","null","forced_long","","","","","","","","",""
"","6541.770000010729","sequential-stimulus-presentation-old","6","159439","0.0-6.0","SS1618365665503","","","40","50","6591.770000010729","null","null","forced_long","","","","","","","","",""
"[{""page_index"":0,""viewing_time"":16084.039999986999}]","16084.29500006605","instructions","7","175525","0.0-7.0","SS1618365665503","instructions","","","","","","","","","","","","","","","",""
"[{""page_index"":0,""viewing_time"":12198.164999950677},{""page_index"":1,""viewing_time"":16551.95500003174},{""page_index"":2,""viewing_time"":9047.999999951571},{""page_index"":3,""viewing_time"":1871.9700000947341},{""page_index"":4,""viewing_time"":1415.9900000086054}]","41086.32999996189","instructions","8","216613","0.0-8.0","SS1618365665503","instructions","","","","","","","","","","","","","","","",""
"","null","html-keyboard-response","9","217448","0.0-9.0-0.0","SS1618365665503","","","null","","","","","","<p><img src= images/blank.png width =""600"" height = ""600"" style=""position:fixed;top:50%; left:50%; transform: translate(-50%, -50%); border:5px solid black"">","","","","","","","",""
"","2009.6350000239909","sequential-stimulus-presentation-old","10","224462","0.0-9.0-1.0","SS1618365665503","trial","","40","500","2509.635000023991","images/stimuli/spore_stims/complex_18_A_b.gif","images/stimuli/spore_stims/complex_19_A_a.gif","forced_long","","0","complex_dissimilar","images/stimuli/spore_stims/complex_19_A_a.gif","","","","",""
"","null","html-keyboard-response","11","225758","0.0-9.0-0.1","SS1618365665503","","","null","","","","","","<p><img src= images/blank.png width =""600"" height = ""600"" style=""position:fixed;top:50%; left:50%; transform: translate(-50%, -50%); border:5px solid black"">","","","","","","","",""
"","40975.97999998834","sequential-stimulus-presentation-old","12","267247","0.0-9.0-1.1","SS1618365665503","trial","","40","500","41475.97999998834","images/stimuli/spore_stims/complex_18_A_b.gif","images/stimuli/spore_stims/complex_19_A_a.gif","forced_long","","0","complex_dissimilar","images/stimuli/spore_stims/complex_19_A_a.gif","","","","",""
"","null","html-keyboard-response","13","268268","0.0-9.0-0.2","SS1618365665503","","","null","","","","","","<p><img src= images/blank.png width =""600"" height = ""600"" style=""position:fixed;top:50%; left:50%; transform: translate(-50%, -50%); border:5px solid black"">","","","","","","","",""
"","23735.40000000503","sequential-stimulus-presentation-old","14","292511","0.0-9.0-1.2","SS1618365665503","trial","","40","500","24235.40000000503","images/stimuli/spore_stims/complex_18_A_b.gif","images/stimuli/spore_stims/complex_19_A_a.gif","forced_long","","0","complex_dissimilar","images/stimuli/spore_stims/complex_19_A_a.gif","","","","",""
"","null","html-keyboard-response","15","293817","0.0-9.0-0.3","SS1618365665503","","","null","","","","","","<p><img src= images/blank.png width =""600"" height = ""600"" style=""position:fixed;top:50%; left:50%; transform: translate(-50%, -50%); border:5px solid black"">","","","","","","","",""
"","31309.57500007935","sequential-stimulus-presentation-old","16","325639","0.0-9.0-1.3","SS1618365665503","trial","","40","500","31809.57500007935","images/stimuli/spore_stims/complex_18_A_b.gif","images/stimuli/spore_stims/complex_19_A_a.gif","forced_long","","0","complex_dissimilar","images/stimuli/spore_stims/complex_19_A_a.gif","","","","",""
"","null","html-keyboard-response","17","326536","0.0-9.0-0.4","SS1618365665503","","","null","","","","","","<p><img src= images/blank.png width =""600"" height = ""600"" style=""position:fixed;top:50%; left:50%; transform: translate(-50%, -50%); border:5px solid black"">","","","","","","","",""
"","24402.464999933727","sequential-stimulus-presentation-old","18","351455","0.0-9.0-1.4","SS1618365665503","trial","","40","500","24902.464999933727","images/stimuli/spore_stims/complex_18_A_b.gif","images/stimuli/spore_stims/complex_19_A_a.gif","forced_long","","0","complex_dissimilar","images/stimuli/spore_stims/complex_18_A_b.gif","","","","",""
"","null","html-keyboard-response","19","352538","0.0-9.0-0.5","SS1618365665503","","","null","","","","","","<p><img src= images/blank.png width =""600"" height = ""600"" style=""position:fixed;top:50%; left:50%; transform: translate(-50%, -50%); border:5px solid black"">","","","","","","","",""
"","9705.03000007011","sequential-stimulus-presentation-old","20","362767","0.0-9.0-1.5","SS1618365665503","trial","","40","500","10205.03000007011","images/stimuli/spore_stims/complex_18_A_b.gif","images/stimuli/spore_stims/complex_19_A_a.gif","forced_long","","0","complex_dissimilar","images/stimuli/spore_stims/complex_18_A_b.gif","","","","",""
"","5205.145000014454","survey-multi-choice","21","367981","0.0-10.0","SS1618365665503","math_question","","","","","","","","","","","","{""Q0"":""8""}","[0]","8","",""
"","null","html-keyboard-response","22","368855","0.0-11.0-0.0","SS1618365665503","","","null","","","","","","<p><img src= images/blank.png width =""600"" height = ""600"" style=""position:fixed;top:50%; left:50%; transform: translate(-50%, -50%); border:5px solid black"">","","","","","","","",""
"","2907.7650000108406","sequential-stimulus-presentation-old","23","376791","0.0-11.0-1.0","SS1618365665503","trial","","40","500","3407.7650000108406","images/stimuli/spore_stims/simple_04_A_a.gif","images/stimuli/spore_stims/simple_13_A_b.gif","forced_long","","1","simple_dissimilar","images/stimuli/spore_stims/simple_13_A_b.gif","","","","",""
"","null","html-keyboard-response","24","378029","0.0-11.0-0.1","SS1618365665503","","","null","","","","","","<p><img src= images/blank.png width =""600"" height = ""600"" style=""position:fixed;top:50%; left:50%; transform: translate(-50%, -50%); border:5px solid black"">","","","","","","","",""
"","20102.190000005066","sequential-stimulus-presentation-old","25","398639","0.0-11.0-1.1","SS1618365665503","trial","","40","500","20602.190000005066","images/stimuli/spore_stims/simple_04_A_a.gif","images/stimuli/spore_stims/simple_13_A_b.gif","forced_long","","1","simple_dissimilar","images/stimuli/spore_stims/simple_13_A_b.gif","","","","",""
"","null","html-keyboard-response","26","399632","0.0-11.0-0.2","SS1618365665503","","","null","","","","","","<p><img src= images/blank.png width =""600"" height = ""600"" style=""position:fixed;top:50%; left:50%; transform: translate(-50%, -50%); border:5px solid black"">","","","","","","","",""
"","9210.294999997132","sequential-stimulus-presentation-old","27","409366","0.0-11.0-1.2","SS1618365665503","trial","","40","500","9710.294999997132","images/stimuli/spore_stims/simple_04_A_a.gif","images/stimuli/spore_stims/simple_13_A_b.gif","forced_long","","1","simple_dissimilar","images/stimuli/spore_stims/simple_13_A_b.gif","","","","",""
"","null","html-keyboard-response","28","410279","0.0-11.0-0.3","SS1618365665503","","","null","","","","","","<p><img src= images/blank.png width =""600"" height = ""600"" style=""position:fixed;top:50%; left:50%; transform: translate(-50%, -50%); border:5px solid black"">","","","","","","","",""
"","7461.344999959692","sequential-stimulus-presentation-old","29","418254","0.0-11.0-1.3","SS1618365665503","trial","","40","500","7961.344999959692","images/stimuli/spore_stims/simple_04_A_a.gif","images/stimuli/spore_stims/simple_13_A_b.gif","forced_long","","1","simple_dissimilar","images/stimuli/spore_stims/simple_13_A_b.gif","","","","",""
"","null","html-keyboard-response","30","419331","0.0-11.0-0.4","SS1618365665503","","","null","","","","","","<p><img src= images/blank.png width =""600"" height = ""600"" style=""position:fixed;top:50%; left:50%; transform: translate(-50%, -50%); border:5px solid black"">","","","","","","","",""
"","10567.534999921918","sequential-stimulus-presentation-old","31","430423","0.0-11.0-1.4","SS1618365665503","trial","","40","500","11067.534999921918","images/stimuli/spore_stims/simple_04_A_a.gif","images/stimuli/spore_stims/simple_13_A_b.gif","forced_long","","1","simple_dissimilar","images/stimuli/spore_stims/simple_13_A_b.gif","","","","",""
"","3744.9349999660626","survey-multi-choice","32","434172","0.0-12.0","SS1618365665503","math_question","","","","","","","","","","","","{""Q0"":""8""}","[0]","8","",""
"","null","html-keyboard-response","33","435060","0.0-13.0-0.0","SS1618365665503","","","null","","","","","","<p><img src= images/blank.png width =""600"" height = ""600"" style=""position:fixed;top:50%; left:50%; transform: translate(-50%, -50%); border:5px solid black"">","","","","","","","",""
"","11310.210000025108","sequential-stimulus-presentation-old","34","446878","0.0-13.0-1.0","SS1618365665503","trial","","40","500","11810.210000025108","images/stimuli/spore_stims/complex_08_A_a.gif","images/stimuli/spore_stims/complex_20_A_b.gif","self_paced","","2","complex_dissimilar","images/stimuli/spore_stims/complex_20_A_b.gif","","","","",""
"","null","html-keyboard-response","35","447882","0.0-13.0-0.1","SS1618365665503","","","null","","","","","","<p><img src= images/blank.png width =""600"" height = ""600"" style=""position:fixed;top:50%; left:50%; transform: translate(-50%, -50%); border:5px solid black"">","","","","","","","",""
"","6238.475000020117","sequential-stimulus-presentation-old","36","454629","0.0-13.0-1.1","SS1618365665503","trial","","40","500","6738.475000020117","images/stimuli/spore_stims/complex_08_A_a.gif","images/stimuli/spore_stims/complex_20_A_b.gif","self_paced","","2","complex_dissimilar","images/stimuli/spore_stims/complex_20_A_b.gif","","","","",""
"","null","html-keyboard-response","37","455750","0.0-13.0-0.2","SS1618365665503","","","null","","","","","","<p><img src= images/blank.png width =""600"" height = ""600"" style=""position:fixed;top:50%; left:50%; transform: translate(-50%, -50%); border:5px solid black"">","","","","","","","",""
"","11482.845000107773","sequential-stimulus-presentation-old","38","467743","0.0-13.0-1.2","SS1618365665503","trial","","40","500","11982.845000107773","images/stimuli/spore_stims/complex_08_A_a.gif","images/stimuli/spore_stims/complex_20_A_b.gif","self_paced","","2","complex_dissimilar","images/stimuli/spore_stims/complex_20_A_b.gif","","","","",""
"","null","html-keyboard-response","39","468767","0.0-13.0-0.3","SS1618365665503","","","null","","","","","","<p><img src= images/blank.png width =""600"" height = ""600"" style=""position:fixed;top:50%; left:50%; transform: translate(-50%, -50%); border:5px solid black"">","","","","","","","",""
"","6571.089999983087","sequential-stimulus-presentation-old","40","475846","0.0-13.0-1.3","SS1618365665503","trial","","40","500","7071.089999983087","images/stimuli/spore_stims/complex_08_A_a.gif","images/stimuli/spore_stims/complex_20_A_b.gif","self_paced","","2","complex_dissimilar","images/stimuli/spore_stims/complex_08_A_a.gif","","","","",""
"","3887.559999944642","survey-multi-choice","41","479741","0.0-14.0","SS1618365665503","math_question","","","","","","","","","","","","{""Q0"":""14""}","[0]","14","",""
"","null","html-keyboard-response","42","480800","0.0-15.0-0.0","SS1618365665503","","","null","","","","","","<p><img src= images/blank.png width =""600"" height = ""600"" style=""position:fixed;top:50%; left:50%; transform: translate(-50%, -50%); border:5px solid black"">","","","","","","","",""
"","11968.845000024885","sequential-stimulus-presentation-old","43","493286","0.0-15.0-1.0","SS1618365665503","trial","","40","500","12468.845000024885","images/stimuli/spore_stims/complex_13_A_b.gif","images/stimuli/spore_stims/complex_16_A_a.gif","self_paced","","3","complex_dissimilar","images/stimuli/spore_stims/complex_16_A_a.gif","","","","",""
"","null","html-keyboard-response","44","494333","0.0-15.0-0.1","SS1618365665503","","","null","","","","","","<p><img src= images/blank.png width =""600"" height = ""600"" style=""position:fixed;top:50%; left:50%; transform: translate(-50%, -50%); border:5px solid black"">","","","","","","","",""
"","4492.575000040233","sequential-stimulus-presentation-old","45","499334","0.0-15.0-1.1","SS1618365665503","trial","","40","500","4992.575000040233","images/stimuli/spore_stims/complex_13_A_b.gif","images/stimuli/spore_stims/complex_16_A_a.gif","self_paced","","3","complex_dissimilar","images/stimuli/spore_stims/complex_16_A_a.gif","","","","",""
"","null","html-keyboard-response","46","500154","0.0-15.0-0.2","SS1618365665503","","","null","","","","","","<p><img src= images/blank.png width =""600"" height = ""600"" style=""position:fixed;top:50%; left:50%; transform: translate(-50%, -50%); border:5px solid black"">","","","","","","","",""
"","5497.3949999548495","sequential-stimulus-presentation-old","47","506166","0.0-15.0-1.2","SS1618365665503","trial","","40","500","5997.3949999548495","images/stimuli/spore_stims/complex_13_A_b.gif","images/stimuli/spore_stims/complex_16_A_a.gif","self_paced","","3","complex_dissimilar","images/stimuli/spore_stims/complex_16_A_a.gif","","","","",""
"","null","html-keyboard-response","48","507059","0.0-15.0-0.3","SS1618365665503","","","null","","","","","","<p><img src= images/blank.png width =""600"" height = ""600"" style=""position:fixed;top:50%; left:50%; transform: translate(-50%, -50%); border:5px solid black"">","","","","","","","",""
"","7828.645000001416","sequential-stimulus-presentation-old","49","515406","0.0-15.0-1.3","SS1618365665503","trial","","40","500","8328.645000001416","images/stimuli/spore_stims/complex_13_A_b.gif","images/stimuli/spore_stims/complex_16_A_a.gif","self_paced","","3","complex_dissimilar","images/stimuli/spore_stims/complex_16_A_a.gif","","","","",""
"","4018.6700000194833","survey-multi-choice","50","519429","0.0-16.0","SS1618365665503","math_question","","","","","","","","","","","","{""Q0"":""9""}","[0]","9","",""
"","null","html-keyboard-response","51","520461","0.0-17.0-0.0","SS1618365665503","","","null","","","","","","<p><img src= images/blank.png width =""600"" height = ""600"" style=""position:fixed;top:50%; left:50%; transform: translate(-50%, -50%); border:5px solid black"">","","","","","","","",""
"","2549.9600000912324","sequential-stimulus-presentation-old","52","523084","0.0-17.0-1.0","SS1618365665503","trial","","40","500","3049.9600000912324","images/stimuli/spore_stims/simple_03_A_b.gif","images/stimuli/spore_stims/simple_19_A_a.gif","forced_short","","4","simple_dissimilar","images/stimuli/spore_stims/simple_19_A_a.gif","","","","",""
"","null","html-keyboard-response","53","524270","0.0-17.0-0.1","SS1618365665503","","","null","","","","","","<p><img src= images/blank.png width =""600"" height = ""600"" style=""position:fixed;top:50%; left:50%; transform: translate(-50%, -50%); border:5px solid black"">","","","","","","","",""
"","11427.595000015572","sequential-stimulus-presentation-old","54","536207","0.0-17.0-1.1","SS1618365665503","trial","","40","500","11927.595000015572","images/stimuli/spore_stims/simple_03_A_b.gif","images/stimuli/spore_stims/simple_19_A_a.gif","forced_short","","4","simple_dissimilar","images/stimuli/spore_stims/simple_19_A_a.gif","","","","",""
"","null","html-keyboard-response","55","537195","0.0-17.0-0.2","SS1618365665503","","","null","","","","","","<p><img src= images/blank.png width =""600"" height = ""600"" style=""position:fixed;top:50%; left:50%; transform: translate(-50%, -50%); border:5px solid black"">","","","","","","","",""
"","5333.74500006903","sequential-stimulus-presentation-old","56","543038","0.0-17.0-1.2","SS1618365665503","trial","","40","500","5833.74500006903","images/stimuli/spore_stims/simple_03_A_b.gif","images/stimuli/spore_stims/simple_19_A_a.gif","forced_short","","4","simple_dissimilar","images/stimuli/spore_stims/simple_19_A_a.gif","","","","",""
"","null","html-keyboard-response","57","544350","0.0-17.0-0.3","SS1618365665503","","","null","","","","","","<p><img src= images/blank.png width =""600"" height = ""600"" style=""position:fixed;top:50%; left:50%; transform: translate(-50%, -50%); border:5px solid black"">","","","","","","","",""
"","7218.0300001055","sequential-stimulus-presentation-old","58","552078","0.0-17.0-1.3","SS1618365665503","trial","","40","500","7718.0300001055","images/stimuli/spore_stims/simple_03_A_b.gif","images/stimuli/spore_stims/simple_19_A_a.gif","forced_short","","4","simple_dissimilar","images/stimuli/spore_stims/simple_19_A_a.gif","","","","",""
"","3905.4999999934807","survey-multi-choice","59","555989","0.0-18.0","SS1618365665503","math_question","","","","","","","","","","","","{""Q0"":""10""}","[0]","10","",""
"","null","html-keyboard-response","60","556919","0.0-19.0-0.0","SS1618365665503","","","null","","","","","","<p><img src= images/blank.png width =""600"" height = ""600"" style=""position:fixed;top:50%; left:50%; transform: translate(-50%, -50%); border:5px solid black"">","","","","","","","",""
"","8771.940000005998","sequential-stimulus-presentation-old","61","565751","0.0-19.0-1.0","SS1618365665503","trial","","40","500","9271.940000005998","images/stimuli/spore_stims/complex_12_A_b.gif","images/stimuli/spore_stims/complex_09_A_a.gif","forced_short","","5","complex_dissimilar","images/stimuli/spore_stims/complex_09_A_a.gif","","","","",""
"","null","html-keyboard-response","62","566870","0.0-19.0-0.1","SS1618365665503","","","null","","","","","","<p><img src= images/blank.png width =""600"" height = ""600"" style=""position:fixed;top:50%; left:50%; transform: translate(-50%, -50%); border:5px solid black"">","","","","","","","",""
"","5749.249999993481","sequential-stimulus-presentation-old","63","573134","0.0-19.0-1.1","SS1618365665503","trial","","40","500","6249.249999993481","images/stimuli/spore_stims/complex_12_A_b.gif","images/stimuli/spore_stims/complex_09_A_a.gif","forced_short","","5","complex_dissimilar","images/stimuli/spore_stims/complex_09_A_a.gif","","","","",""
"","null","html-keyboard-response","64","574030","0.0-19.0-0.2","SS1618365665503","","","null","","","","","","<p><img src= images/blank.png width =""600"" height = ""600"" style=""position:fixed;top:50%; left:50%; transform: translate(-50%, -50%); border:5px solid black"">","","","","","","","",""
"","5433.844999992289","sequential-stimulus-presentation-old","65","579975","0.0-19.0-1.2","SS1618365665503","trial","","40","500","5933.844999992289","images/stimuli/spore_stims/complex_12_A_b.gif","images/stimuli/spore_stims/complex_09_A_a.gif","forced_short","","5","complex_dissimilar","images/stimuli/spore_stims/complex_12_A_b.gif","","","","",""
"","null","html-keyboard-response","66","581239","0.0-19.0-0.3","SS1618365665503","","","null","","","","","","<p><img src= images/blank.png width =""600"" height = ""600"" style=""position:fixed;top:50%; left:50%; transform: translate(-50%, -50%); border:5px solid black"">","","","","","","","",""
"","3276.960000046529","sequential-stimulus-presentation-old","67","585030","0.0-19.0-1.3","SS1618365665503","trial","","40","500","3776.960000046529","images/stimuli/spore_stims/complex_12_A_b.gif","images/stimuli/spore_stims/complex_09_A_a.gif","forced_short","","5","complex_dissimilar","images/stimuli/spore_stims/complex_09_A_a.gif","","","","",""
"","null","html-keyboard-response","68","586297","0.0-19.0-0.4","SS1618365665503","","","null","","","","","","<p><img src= images/blank.png width =""600"" height = ""600"" style=""position:fixed;top:50%; left:50%; transform: translate(-50%, -50%); border:5px solid black"">","","","","","","","",""
"","4543.530000024475","sequential-stimulus-presentation-old","69","591350","0.0-19.0-1.4","SS1618365665503","trial","","40","500","5043.530000024475","images/stimuli/spore_stims/complex_12_A_b.gif","images/stimuli/spore_stims/complex_09_A_a.gif","forced_short","","5","complex_dissimilar","images/stimuli/spore_stims/complex_09_A_a.gif","","","","",""
"","null","html-keyboard-response","70","592170","0.0-19.0-0.5","SS1618365665503","","","null","","","","","","<p><img src= images/blank.png width =""600"" height = ""600"" style=""position:fixed;top:50%; left:50%; transform: translate(-50%, -50%); border:5px solid black"">","","","","","","","",""
"","9215.57500003837","sequential-stimulus-presentation-old","71","601894","0.0-19.0-1.5","SS1618365665503","trial","","40","500","9715.57500003837","images/stimuli/spore_stims/complex_12_A_b.gif","images/stimuli/spore_stims/complex_09_A_a.gif","forced_short","","5","complex_dissimilar","images/stimuli/spore_stims/complex_12_A_b.gif","","","","",""
"","4275.304999900982","survey-multi-choice","72","606180","0.0-20.0","SS1618365665503","math_question","","","","","","","","","","","","{""Q0"":""10""}","[0]","10","",""
"","null","html-keyboard-response","73","607072","0.0-21.0-0.0","SS1618365665503","","","null","","","","","","<p><img src= images/blank.png width =""600"" height = ""600"" style=""position:fixed;top:50%; left:50%; transform: translate(-50%, -50%); border:5px solid black"">","","","","","","","",""
"","2014.2899999627843","sequential-stimulus-presentation-old","74","609150","0.0-21.0-1.0","SS1618365665503","trial","","40","500","2514.2899999627843","images/stimuli/spore_stims/complex_03_A_b.gif","images/stimuli/spore_stims/complex_04_A_a.gif","forced_short","","6","complex_dissimilar","images/stimuli/spore_stims/complex_04_A_a.gif","","","","",""
"","null","html-keyboard-response","75","610406","0.0-21.0-0.1","SS1618365665503","","","null","","","","","","<p><img src= images/blank.png width =""600"" height = ""600"" style=""position:fixed;top:50%; left:50%; transform: translate(-50%, -50%); border:5px solid black"">","","","","","","","",""
"","5555.579999927431","sequential-stimulus-presentation-old","76","616470","0.0-21.0-1.1","SS1618365665503","trial","","40","500","6055.579999927431","images/stimuli/spore_stims/complex_03_A_b.gif","images/stimuli/spore_stims/complex_04_A_a.gif","forced_short","","6","complex_dissimilar","images/stimuli/spore_stims/complex_04_A_a.gif","","","","",""
"","null","html-keyboard-response","77","617615","0.0-21.0-0.2","SS1618365665503","","","null","","","","","","<p><img src= images/blank.png width =""600"" height = ""600"" style=""position:fixed;top:50%; left:50%; transform: translate(-50%, -50%); border:5px solid black"">","","","","","","","",""
"","5769.010000047274","sequential-stimulus-presentation-old","78","623894","0.0-21.0-1.2","SS1618365665503","trial","","40","500","6269.010000047274","images/stimuli/spore_stims/complex_03_A_b.gif","images/stimuli/spore_stims/complex_04_A_a.gif","forced_short","","6","complex_dissimilar","images/stimuli/spore_stims/complex_04_A_a.gif","","","","",""
"","null","html-keyboard-response","79","624985","0.0-21.0-0.3","SS1618365665503","","","null","","","","","","<p><img src= images/blank.png width =""600"" height = ""600"" style=""position:fixed;top:50%; left:50%; transform: translate(-50%, -50%); border:5px solid black"">","","","","","","","",""
"","4148.210000013933","sequential-stimulus-presentation-old","80","629654","0.0-21.0-1.3","SS1618365665503","trial","","40","500","4648.210000013933","images/stimuli/spore_stims/complex_03_A_b.gif","images/stimuli/spore_stims/complex_04_A_a.gif","forced_short","","6","complex_dissimilar","images/stimuli/spore_stims/complex_04_A_a.gif","","","","",""
"","null","html-keyboard-response","81","630912","0.0-21.0-0.4","SS1618365665503","","","null","","","","","","<p><img src= images/blank.png width =""600"" height = ""600"" style=""position:fixed;top:50%; left:50%; transform: translate(-50%, -50%); border:5px solid black"">","","","","","","","",""
"","5151.244999957271","sequential-stimulus-presentation-old","82","636573","0.0-21.0-1.4","SS1618365665503","trial","","40","500","5651.244999957271","images/stimuli/spore_stims/complex_03_A_b.gif","images/stimuli/spore_stims/complex_04_A_a.gif","forced_short","","6","complex_dissimilar","images/stimuli/spore_stims/complex_04_A_a.gif","","","","",""
"","null","html-keyboard-response","83","637467","0.0-21.0-0.5","SS1618365665503","","","null","","","","","","<p><img src= images/blank.png width =""600"" height = ""600"" style=""position:fixed;top:50%; left:50%; transform: translate(-50%, -50%); border:5px solid black"">","","","","","","","",""
"","5954.965000040829","sequential-stimulus-presentation-old","84","643934","0.0-21.0-1.5","SS1618365665503","trial","","40","500","6454.965000040829","images/stimuli/spore_stims/complex_03_A_b.gif","images/stimuli/spore_stims/complex_04_A_a.gif","forced_short","","6","complex_dissimilar","images/stimuli/spore_stims/complex_04_A_a.gif","","","","",""
"","4903.419999987818","survey-multi-choice","85","648844","0.0-22.0","SS1618365665503","math_question","","","","","","","","","","","","{""Q0"":""14""}","[0]","14","",""
"","null","html-keyboard-response","86","649941","0.0-23.0-0.0","SS1618365665503","","","null","","","","","","<p><img src= images/blank.png width =""600"" height = ""600"" style=""position:fixed;top:50%; left:50%; transform: translate(-50%, -50%); border:5px solid black"">","","","","","","","",""
"","4563.235000008717","sequential-stimulus-presentation-old","87","655014","0.0-23.0-1.0","SS1618365665503","trial","","40","500","5063.235000008717","images/stimuli/spore_stims/simple_08_A_a.gif","images/stimuli/spore_stims/simple_09_A_b.gif","self_paced","","7","simple_dissimilar","images/stimuli/spore_stims/simple_09_A_b.gif","","","","",""
"","null","html-keyboard-response","88","655908","0.0-23.0-0.1","SS1618365665503","","","null","","","","","","<p><img src= images/blank.png width =""600"" height = ""600"" style=""position:fixed;top:50%; left:50%; transform: translate(-50%, -50%); border:5px solid black"">","","","","","","","",""
"","8370.7000000868","sequential-stimulus-presentation-old","89","664790","0.0-23.0-1.1","SS1618365665503","trial","","40","500","8870.7000000868","images/stimuli/spore_stims/simple_08_A_a.gif","images/stimuli/spore_stims/simple_09_A_b.gif","self_paced","","7","simple_dissimilar","images/stimuli/spore_stims/simple_09_A_b.gif","","","","",""
"","null","html-keyboard-response","90","665815","0.0-23.0-0.2","SS1618365665503","","","null","","","","","","<p><img src= images/blank.png width =""600"" height = ""600"" style=""position:fixed;top:50%; left:50%; transform: translate(-50%, -50%); border:5px solid black"">","","","","","","","",""
"","4021.2049999972805","sequential-stimulus-presentation-old","91","670374","0.0-23.0-1.2","SS1618365665503","trial","","40","500","4521.2049999972805","images/stimuli/spore_stims/simple_08_A_a.gif","images/stimuli/spore_stims/simple_09_A_b.gif","self_paced","","7","simple_dissimilar","images/stimuli/spore_stims/simple_09_A_b.gif","","","","",""
"","null","html-keyboard-response","92","671620","0.0-23.0-0.3","SS1618365665503","","","null","","","","","","<p><img src= images/blank.png width =""600"" height = ""600"" style=""position:fixed;top:50%; left:50%; transform: translate(-50%, -50%); border:5px solid black"">","","","","","","","",""
"","158.53999997489154","sequential-stimulus-presentation-old","93","672301","0.0-23.0-1.3","SS1618365665503","trial","","40","500","658.5399999748915","images/stimuli/spore_stims/simple_08_A_a.gif","images/stimuli/spore_stims/simple_09_A_b.gif","self_paced","","7","simple_dissimilar","images/stimuli/spore_stims/simple_09_A_b.gif","","","","",""
"","null","html-keyboard-response","94","673293","0.0-23.0-0.4","SS1618365665503","","","null","","","","","","<p><img src= images/blank.png width =""600"" height = ""600"" style=""position:fixed;top:50%; left:50%; transform: translate(-50%, -50%); border:5px solid black"">","","","","","","","",""
"","2355.7700000237674","sequential-stimulus-presentation-old","95","676157","0.0-23.0-1.4","SS1618365665503","trial","","40","500","2855.7700000237674","images/stimuli/spore_stims/simple_08_A_a.gif","images/stimuli/spore_stims/simple_09_A_b.gif","self_paced","","7","simple_dissimilar","images/stimuli/spore_stims/simple_09_A_b.gif","","","","",""
"","4593.154999893159","survey-multi-choice","96","680756","0.0-24.0","SS1618365665503","math_question","","","","","","","","","","","","{""Q0"":""8""}","[0]","8","",""
"","null","html-keyboard-response","97","681577","0.0-25.0-0.0","SS1618365665503","","","null","","","","","","<p><img src= images/blank.png width =""600"" height = ""600"" style=""position:fixed;top:50%; left:50%; transform: translate(-50%, -50%); border:5px solid black"">","","","","","","","",""
"","2379.094999982044","sequential-stimulus-presentation-old","98","688966","0.0-25.0-1.0","SS1618365665503","trial","","40","500","2879.094999982044","images/stimuli/spore_stims/complex_12_A_a.gif","images/stimuli/spore_stims/complex_16_A_b.gif","forced_long","","8","complex_dissimilar","images/stimuli/spore_stims/complex_16_A_b.gif","","","","",""
"","null","html-keyboard-response","99","689804","0.0-25.0-0.1","SS1618365665503","","","null","","","","","","<p><img src= images/blank.png width =""600"" height = ""600"" style=""position:fixed;top:50%; left:50%; transform: translate(-50%, -50%); border:5px solid black"">","","","","","","","",""
"","8554.349999991246","sequential-stimulus-presentation-old","100","698871","0.0-25.0-1.1","SS1618365665503","trial","","40","500","9054.349999991246","images/stimuli/spore_stims/complex_12_A_a.gif","images/stimuli/spore_stims/complex_16_A_b.gif","forced_long","","8","complex_dissimilar","images/stimuli/spore_stims/complex_16_A_b.gif","","","","",""
"","null","html-keyboard-response","101","700029","0.0-25.0-0.2","SS1618365665503","","","null","","","","","","<p><img src= images/blank.png width =""600"" height = ""600"" style=""position:fixed;top:50%; left:50%; transform: translate(-50%, -50%); border:5px solid black"">","","","","","","","",""
"","7147.325000027195","sequential-stimulus-presentation-old","102","707701","0.0-25.0-1.2","SS1618365665503","trial","","40","500","7647.325000027195","images/stimuli/spore_stims/complex_12_A_a.gif","images/stimuli/spore_stims/complex_16_A_b.gif","forced_long","","8","complex_dissimilar","images/stimuli/spore_stims/complex_16_A_b.gif","","","","",""
"","null","html-keyboard-response","103","708984","0.0-25.0-0.3","SS1618365665503","","","null","","","","","","<p><img src= images/blank.png width =""600"" height = ""600"" style=""position:fixed;top:50%; left:50%; transform: translate(-50%, -50%); border:5px solid black"">","","","","","","","",""
"","8079.7350000357255","sequential-stimulus-presentation-old","104","717576","0.0-25.0-1.3","SS1618365665503","trial","","40","500","8579.735000035726","images/stimuli/spore_stims/complex_12_A_a.gif","images/stimuli/spore_stims/complex_16_A_b.gif","forced_long","","8","complex_dissimilar","images/stimuli/spore_stims/complex_16_A_b.gif","","","","",""
"","null","html-keyboard-response","105","718653","0.0-25.0-0.4","SS1618365665503","","","null","","","","","","<p><img src= images/blank.png width =""600"" height = ""600"" style=""position:fixed;top:50%; left:50%; transform: translate(-50%, -50%); border:5px solid black"">","","","","","","","",""
"","4089.4150000531226","sequential-stimulus-presentation-old","106","723253","0.0-25.0-1.4","SS1618365665503","trial","","40","500","4589.415000053123","images/stimuli/spore_stims/complex_12_A_a.gif","images/stimuli/spore_stims/complex_16_A_b.gif","forced_long","","8","complex_dissimilar","images/stimuli/spore_stims/complex_12_A_a.gif","","","","",""
"","null","html-keyboard-response","107","724262","0.0-25.0-0.5","SS1618365665503","","","null","","","","","","<p><img src= images/blank.png width =""600"" height = ""600"" style=""position:fixed;top:50%; left:50%; transform: translate(-50%, -50%); border:5px solid black"">","","","","","","","",""
"","4265.389999956824","sequential-stimulus-presentation-old","108","729038","0.0-25.0-1.5","SS1618365665503","trial","","40","500","4765.389999956824","images/stimuli/spore_stims/complex_12_A_a.gif","images/stimuli/spore_stims/complex_16_A_b.gif","forced_long","","8","complex_dissimilar","images/stimuli/spore_stims/complex_16_A_b.gif","","","","",""
"","5896.025000023656","survey-multi-choice","109","734940","0.0-26.0","SS1618365665503","math_question","","","","","","","","","","","","{""Q0"":""17""}","[0]","17","",""
"","null","html-keyboard-response","110","736127","0.0-27.0-0.0","SS1618365665503","","","null","","","","","","<p><img src= images/blank.png width =""600"" height = ""600"" style=""position:fixed;top:50%; left:50%; transform: translate(-50%, -50%); border:5px solid black"">","","","","","","","",""
"","1706.9600000977516","sequential-stimulus-presentation-old","111","742846","0.0-27.0-1.0","SS1618365665503","trial","","40","500","2206.9600000977516","images/stimuli/spore_stims/simple_05_A_b.gif","images/stimuli/spore_stims/simple_01_A_a.gif","forced_long","","9","simple_dissimilar","images/stimuli/spore_stims/simple_01_A_a.gif","","","","",""
"","null","html-keyboard-response","112","744156","0.0-27.0-0.1","SS1618365665503","","","null","","","","","","<p><img src= images/blank.png width =""600"" height = ""600"" style=""position:fixed;top:50%; left:50%; transform: translate(-50%, -50%); border:5px solid black"">","","","","","","","",""
"","18667.830000049435","sequential-stimulus-presentation-old","113","763334","0.0-27.0-1.1","SS1618365665503","trial","","40","500","19167.830000049435","images/stimuli/spore_stims/simple_05_A_b.gif","images/stimuli/spore_stims/simple_01_A_a.gif","forced_long","","9","simple_dissimilar","images/stimuli/spore_stims/simple_01_A_a.gif","","","","",""
"","null","html-keyboard-response","114","764606","0.0-27.0-0.2","SS1618365665503","","","null","","","","","","<p><img src= images/blank.png width =""600"" height = ""600"" style=""position:fixed;top:50%; left:50%; transform: translate(-50%, -50%); border:5px solid black"">","","","","","","","",""
"","4770.804999978282","sequential-stimulus-presentation-old","115","769901","0.0-27.0-1.2","SS1618365665503","trial","","40","500","5270.804999978282","images/stimuli/spore_stims/simple_05_A_b.gif","images/stimuli/spore_stims/simple_01_A_a.gif","forced_long","","9","simple_dissimilar","images/stimuli/spore_stims/simple_05_A_b.gif","","","","",""
"","null","html-keyboard-response","116","770786","0.0-27.0-0.3","SS1618365665503","","","null","","","","","","<p><img src= images/blank.png width =""600"" height = ""600"" style=""position:fixed;top:50%; left:50%; transform: translate(-50%, -50%); border:5px solid black"">","","","","","","","",""
"","1128.8550000172108","sequential-stimulus-presentation-old","117","772421","0.0-27.0-1.3","SS1618365665503","trial","","40","500","1628.8550000172108","images/stimuli/spore_stims/simple_05_A_b.gif","images/stimuli/spore_stims/simple_01_A_a.gif","forced_long","","9","simple_dissimilar","images/stimuli/spore_stims/simple_01_A_a.gif","","","","",""
"","null","html-keyboard-response","118","773289","0.0-27.0-0.4","SS1618365665503","","","null","","","","","","<p><img src= images/blank.png width =""600"" height = ""600"" style=""position:fixed;top:50%; left:50%; transform: translate(-50%, -50%); border:5px solid black"">","","","","","","","",""
"","5092.7600000286475","sequential-stimulus-presentation-old","119","778893","0.0-27.0-1.4","SS1618365665503","trial","","40","500","5592.7600000286475","images/stimuli/spore_stims/simple_05_A_b.gif","images/stimuli/spore_stims/simple_01_A_a.gif","forced_long","","9","simple_dissimilar","images/stimuli/spore_stims/simple_05_A_b.gif","","","","",""
"","null","html-keyboard-response","120","779854","0.0-27.0-0.5","SS1618365665503","","","null","","","","","","<p><img src= images/blank.png width =""600"" height = ""600"" style=""position:fixed;top:50%; left:50%; transform: translate(-50%, -50%); border:5px solid black"">","","","","","","","",""
"","4582.460000063293","sequential-stimulus-presentation-old","121","784949","0.0-27.0-1.5","SS1618365665503","trial","","40","500","5082.460000063293","images/stimuli/spore_stims/simple_05_A_b.gif","images/stimuli/spore_stims/simple_01_A_a.gif","forced_long","","9","simple_dissimilar","images/stimuli/spore_stims/simple_01_A_a.gif","","","","",""
"","4654.660000000149","survey-multi-choice","122","789612","0.0-28.0","SS1618365665503","math_question","","","","","","","","","","","","{""Q0"":""11""}","[0]","11","",""
"","null","html-keyboard-response","123","790642","0.0-29.0-0.0","SS1618365665503","","","null","","","","","","<p><img src= images/blank.png width =""600"" height = ""600"" style=""position:fixed;top:50%; left:50%; transform: translate(-50%, -50%); border:5px solid black"">","","","","","","","",""
"","3452.7699999744073","sequential-stimulus-presentation-old","124","794157","0.0-29.0-1.0","SS1618365665503","trial","","40","500","3952.7699999744073","images/stimuli/spore_stims/simple_12_A_b.gif","images/stimuli/spore_stims/simple_15_A_a.gif","forced_short","","10","simple_dissimilar","images/stimuli/spore_stims/simple_15_A_a.gif","","","","",""
"","null","html-keyboard-response","125","795016","0.0-29.0-0.1","SS1618365665503","","","null","","","","","","<p><img src= images/blank.png width =""600"" height = ""600"" style=""position:fixed;top:50%; left:50%; transform: translate(-50%, -50%); border:5px solid black"">","","","","","","","",""
"","3736.434999969788","sequential-stimulus-presentation-old","126","799277","0.0-29.0-1.1","SS1618365665503","trial","","40","500","4236.434999969788","images/stimuli/spore_stims/simple_12_A_b.gif","images/stimuli/spore_stims/simple_15_A_a.gif","forced_short","","10","simple_dissimilar","images/stimuli/spore_stims/simple_15_A_a.gif","","","","",""
"","null","html-keyboard-response","127","800248","0.0-29.0-0.2","SS1618365665503","","","null","","","","","","<p><img src= images/blank.png width =""600"" height = ""600"" style=""position:fixed;top:50%; left:50%; transform: translate(-50%, -50%); border:5px solid black"">","","","","","","","",""
"","2093.6999999685213","sequential-stimulus-presentation-old","128","802853","0.0-29.0-1.2","SS1618365665503","trial","","40","500","2593.6999999685213","images/stimuli/spore_stims/simple_12_A_b.gif","images/stimuli/spore_stims/simple_15_A_a.gif","forced_short","","10","simple_dissimilar","images/stimuli/spore_stims/simple_15_A_a.gif","","","","",""
"","null","html-keyboard-response","129","803698","0.0-29.0-0.3","SS1618365665503","","","null","","","","","","<p><img src= images/blank.png width =""600"" height = ""600"" style=""position:fixed;top:50%; left:50%; transform: translate(-50%, -50%); border:5px solid black"">","","","","","","","",""
"","2394.785000011325","sequential-stimulus-presentation-old","130","806605","0.0-29.0-1.3","SS1618365665503","trial","","40","500","2894.785000011325","images/stimuli/spore_stims/simple_12_A_b.gif","images/stimuli/spore_stims/simple_15_A_a.gif","forced_short","","10","simple_dissimilar","images/stimuli/spore_stims/simple_12_A_b.gif","","","","",""
"","null","html-keyboard-response","131","807516","0.0-29.0-0.4","SS1618365665503","","","null","","","","","","<p><img src= images/blank.png width =""600"" height = ""600"" style=""position:fixed;top:50%; left:50%; transform: translate(-50%, -50%); border:5px solid black"">","","","","","","","",""
"","2344.8799999896437","sequential-stimulus-presentation-old","132","810373","0.0-29.0-1.4","SS1618365665503","trial","","40","500","2844.8799999896437","images/stimuli/spore_stims/simple_12_A_b.gif","images/stimuli/spore_stims/simple_15_A_a.gif","forced_short","","10","simple_dissimilar","images/stimuli/spore_stims/simple_15_A_a.gif","","","","",""
"","null","html-keyboard-response","133","811405","0.0-29.0-0.5","SS1618365665503","","","null","","","","","","<p><img src= images/blank.png width =""600"" height = ""600"" style=""position:fixed;top:50%; left:50%; transform: translate(-50%, -50%); border:5px solid black"">","","","","","","","",""
"","2619.7699999902397","sequential-stimulus-presentation-old","134","814550","0.0-29.0-1.5","SS1618365665503","trial","","40","500","3119.7699999902397","images/stimuli/spore_stims/simple_12_A_b.gif","images/stimuli/spore_stims/simple_15_A_a.gif","forced_short","","10","simple_dissimilar","images/stimuli/spore_stims/simple_15_A_a.gif","","","","",""
"","3575.31999994535","survey-multi-choice","135","818132","0.0-30.0","SS1618365665503","math_question","","","","","","","","","","","","{""Q0"":""10""}","[0]","10","",""
"","null","html-keyboard-response","136","819196","0.0-31.0-0.0","SS1618365665503","","","null","","","","","","<p><img src= images/blank.png width =""600"" height = ""600"" style=""position:fixed;top:50%; left:50%; transform: translate(-50%, -50%); border:5px solid black"">","","","","","","","",""
"","8178.105000057258","sequential-stimulus-presentation-old","137","827886","0.0-31.0-1.0","SS1618365665503","trial","","40","500","8678.105000057258","images/stimuli/spore_stims/simple_10_A_a.gif","images/stimuli/spore_stims/simple_14_A_b.gif","self_paced","","11","simple_dissimilar","images/stimuli/spore_stims/simple_14_A_b.gif","","","","",""
"","null","html-keyboard-response","138","828811","0.0-31.0-0.1","SS1618365665503","","","null","","","","","","<p><img src= images/blank.png width =""600"" height = ""600"" style=""position:fixed;top:50%; left:50%; transform: translate(-50%, -50%); border:5px solid black"">","","","","","","","",""
"","3816.8649999424815","sequential-stimulus-presentation-old","139","833149","0.0-31.0-1.1","SS1618365665503","trial","","40","500","4316.8649999424815","images/stimuli/spore_stims/simple_10_A_a.gif","images/stimuli/spore_stims/simple_14_A_b.gif","self_paced","","11","simple_dissimilar","images/stimuli/spore_stims/simple_14_A_b.gif","","","","",""
"","null","html-keyboard-response","140","834269","0.0-31.0-0.2","SS1618365665503","","","null","","","","","","<p><img src= images/blank.png width =""600"" height = ""600"" style=""position:fixed;top:50%; left:50%; transform: translate(-50%, -50%); border:5px solid black"">","","","","","","","",""
"","656.2350000021979","sequential-stimulus-presentation-old","141","835437","0.0-31.0-1.2","SS1618365665503","trial","","40","500","1156.235000002198","images/stimuli/spore_stims/simple_10_A_a.gif","images/stimuli/spore_stims/simple_14_A_b.gif","self_paced","","11","simple_dissimilar","images/stimuli/spore_stims/simple_14_A_b.gif","","","","",""
"","null","html-keyboard-response","142","836438","0.0-31.0-0.3","SS1618365665503","","","null","","","","","","<p><img src= images/blank.png width =""600"" height = ""600"" style=""position:fixed;top:50%; left:50%; transform: translate(-50%, -50%); border:5px solid black"">","","","","","","","",""
"","1312.4250000109896","sequential-stimulus-presentation-old","143","838261","0.0-31.0-1.3","SS1618365665503","trial","","40","500","1812.4250000109896","images/stimuli/spore_stims/simple_10_A_a.gif","images/stimuli/spore_stims/simple_14_A_b.gif","self_paced","","11","simple_dissimilar","images/stimuli/spore_stims/simple_14_A_b.gif","","","","",""
"[{""page_index"":0,""viewing_time"":7303.569999989122}]","7303.814999992028","instructions","144","845571","0.0-32.0","SS1618365665503","instructions","","","","","","","","","","","","","","","",""
"","12892.495000036433","survey-likert","145","858468","0.0-33.0","SS1618365665503","similarity_question","","","","","","","","","","","","{""Q0"":2}","[0]","","images/stimuli/spore_stims/simple_13_A_b.gif","images/stimuli/spore_stims/simple_04_A_a.gif"
"","10227.925000013784","survey-likert","146","868700","0.0-34.0","SS1618365665503","similarity_question","","","","","","","","","","","","{""Q0"":1}","[0]","","images/stimuli/spore_stims/complex_16_A_b.gif","images/stimuli/spore_stims/complex_12_A_a.gif"
"","8004.274999955669","survey-likert","147","876708","0.0-35.0","SS1618365665503","similarity_question","","","","","","","","","","","","{""Q0"":4}","[0]","","images/stimuli/spore_stims/complex_08_A_a.gif","images/stimuli/spore_stims/complex_20_A_b.gif"
"","4060.1550000719726","survey-likert","148","880772","0.0-36.0","SS1618365665503","similarity_question","","","","","","","","","","","","{""Q0"":2}","[0]","","images/stimuli/spore_stims/simple_05_A_b.gif","images/stimuli/spore_stims/simple_01_A_a.gif"
"","6636.115000001155","survey-likert","149","887411","0.0-37.0","SS1618365665503","similarity_question","","","","","","","","","","","","{""Q0"":0}","[0]","","images/stimuli/spore_stims/complex_16_A_a.gif","images/stimuli/spore_stims/complex_13_A_b.gif"
"","6908.305000048131","survey-likert","150","894323","0.0-38.0","SS1618365665503","similarity_question","","","","","","","","","","","","{""Q0"":5}","[0]","","images/stimuli/spore_stims/simple_09_A_b.gif","images/stimuli/spore_stims/simple_08_A_a.gif"
"","2668.3950000442564","survey-likert","151","896996","0.0-39.0","SS1618365665503","similarity_question","","","","","","","","","","","","{""Q0"":6}","[0]","","images/stimuli/spore_stims/simple_15_A_a.gif","images/stimuli/spore_stims/simple_12_A_b.gif"
"","3885.3799999924377","survey-likert","152","900885","0.0-40.0","SS1618365665503","similarity_question","","","","","","","","","","","","{""Q0"":5}","[0]","","images/stimuli/spore_stims/simple_10_A_a.gif","images/stimuli/spore_stims/simple_14_A_b.gif"
"","6858.2900000037625","survey-likert","153","907748","0.0-41.0","SS1618365665503","similarity_question","","","","","","","","","","","","{""Q0"":6}","[0]","","images/stimuli/spore_stims/simple_03_A_b.gif","images/stimuli/spore_stims/simple_19_A_a.gif"
"","6586.874999920838","survey-likert","154","914339","0.0-42.0","SS1618365665503","similarity_question","","","","","","","","","","","","{""Q0"":1}","[0]","","images/stimuli/spore_stims/complex_12_A_b.gif","images/stimuli/spore_stims/complex_09_A_a.gif"
"","6484.389999997802","survey-likert","155","920827","0.0-43.0","SS1618365665503","similarity_question","","","","","","","","","","","","{""Q0"":0}","[0]","","images/stimuli/spore_stims/complex_19_A_a.gif","images/stimuli/spore_stims/complex_18_A_b.gif"
"","11868.039999972098","survey-likert","156","932699","0.0-44.0","SS1618365665503","similarity_question","","","","","","","","","","","","{""Q0"":0}","[0]","","images/stimuli/spore_stims/complex_04_A_a.gif","images/stimuli/spore_stims/complex_03_A_b.gif"
"[{""page_index"":0,""viewing_time"":7276.715000043623}]","7277.02500007581","instructions","157","939979","0.0-45.0","SS1618365665503","instructions","","","","","","","","","","","","","","","",""
"","6948.6650000326335","survey-likert","158","946931","0.0-46.0","SS1618365665503","","","","","","","","","images/stimuli/spore_stims/simple_10_A_a.gif","","","","{""Q0"":0}","[0]","","",""
"","2884.4099999405444","survey-likert","159","949819","0.0-47.0","SS1618365665503","","","","","","","","","images/stimuli/spore_stims/simple_01_A_a.gif","","","","{""Q0"":1}","[0]","","",""
"","2876.0699999984354","survey-likert","160","952699","0.0-48.0","SS1618365665503","","","","","","","","","images/stimuli/spore_stims/simple_19_A_a.gif","","","","{""Q0"":1}","[0]","","",""
"","3412.055000080727","survey-likert","161","956115","0.0-49.0","SS1618365665503","","","","","","","","","images/stimuli/spore_stims/simple_04_A_a.gif","","","","{""Q0"":0}","[0]","","",""
"","4612.345000030473","survey-likert","162","960731","0.0-50.0","SS1618365665503","","","","","","","","","images/stimuli/spore_stims/complex_04_A_a.gif","","","","{""Q0"":4}","[0]","","",""
"","3100.3700000001118","survey-likert","163","963835","0.0-51.0","SS1618365665503","","","","","","","","","images/stimuli/spore_stims/complex_08_A_a.gif","","","","{""Q0"":5}","[0]","","",""
"","3987.7949999645352","survey-likert","164","967827","0.0-52.0","SS1618365665503","","","","","","","","","images/stimuli/spore_stims/simple_09_A_b.gif","","","","{""Q0"":0}","[0]","","",""
"","6780.655000009574","survey-likert","165","974611","0.0-53.0","SS1618365665503","","","","","","","","","images/stimuli/spore_stims/simple_15_A_a.gif","","","","{""Q0"":0}","[0]","","",""
"","3892.479999922216","survey-likert","166","978507","0.0-54.0","SS1618365665503","","","","","","","","","images/stimuli/spore_stims/complex_16_A_a.gif","","","","{""Q0"":5}","[0]","","",""
"","4683.43500001356","survey-likert","167","983195","0.0-55.0","SS1618365665503","","","","","","","","","images/stimuli/spore_stims/complex_18_A_b.gif","","","","{""Q0"":6}","[0]","","",""
"","5563.804999925196","survey-likert","168","988763","0.0-56.0","SS1618365665503","","","","","","","","","images/stimuli/spore_stims/complex_12_A_b.gif","","","","{""Q0"":4}","[0]","","",""
"","4764.0299999620765","survey-likert","169","993531","0.0-57.0","SS1618365665503","","","","","","","","","images/stimuli/spore_stims/complex_12_A_a.gif","","","","{""Q0"":4}","[0]","","",""
"[{""page_index"":0,""viewing_time"":4204.0550000965595}]","4204.310000059195","instructions","170","997739","0.0-58.0","SS1618365665503","instructions","","","","","","","","","","","","","","","",""
"","3491.5649999165908","demog-age","171","1001235","0.0-59.0","SS1618365665503","","","","","","","","","","","","","{""age"":""21""}","","","",""
"","8003.23999999091","demog-ethnic-US","172","1009243","0.0-60.0","SS1618365665503","","","","","","","","","","","","","{""ethnicity"":[""Hispanic or Latino""]}","[0]","","",""
"","30139.77500004694","demog-gender-and-education","173","1039387","0.0-61.0","SS1618365665503","","","","","","","","","","","","","{""gender"":""Male"",""education"":""Associate Degree/Technical certification""}","[0,1]","","",""
"","15963.249999913387","survey-text","174","1055355","0.0-62.0","SS1618365665503","feedback","","","","","","","","","","","","{""Q0"":""no coments""}","","","",""
"[{""page_index"":0,""viewing_time"":3180.27000001166}]","3180.515000014566","instructions","175","1058539","0.0-63.0","SS1618365665503","instructions","","","","","","","","","","","","","","","",""
