"view_history","rt","trial_type","trial_index","time_elapsed","internal_node_id","subject","stimulus_type","trial_stimulus","key_press","minimum_viewing_duration","trial_looking_time","block_deviant","block_background","exposure_type","stimulus","block_number","block_type","stimulus_displayed","responses","question_order","math_correct_answer","stimulus_left","stimulus_right"
"[{""page_index"":0,""viewing_time"":4570.555000012973}]","4571.0350000008475","instructions","0","4572","0.0-0.0","SS1618365916341","","","","","","","","","","","","","","","","",""
"[{""page_index"":0,""viewing_time"":8902.515000023413},{""page_index"":1,""viewing_time"":3681.144999980461}]","12583.865000022342","instructions","1","19157","0.0-1.0","SS1618365916341","instructions","","","","","","","","","","","","","","","",""
"","3421.5499999991152","sequential-stimulus-presentation-old","2","23089","0.0-2.0","SS1618365916341","","","40","500","3921.5499999991152","null","null","self_paced","","","","","","","","",""
"","3746.3149999966845","sequential-stimulus-presentation-old","3","27342","0.0-3.0","SS1618365916341","","","40","500","4246.3149999966845","null","null","self_paced","","","","","","","","",""
"[{""page_index"":0,""viewing_time"":3068.1550000153948}]","3068.3700000226963","instructions","4","30411","0.0-4.0","SS1618365916341","instructions","","","","","","","","","","","","","","","",""
"","3347.489999985555","sequential-stimulus-presentation-old","5","38761","0.0-5.0","SS1618365916341","","","40","500","3847.489999985555","null","null","forced_long","","","","","","","","",""
"","5077.220000006491","sequential-stimulus-presentation-old","6","43890","0.0-6.0","SS1618365916341","","","40","50","5127.220000006491","null","null","forced_long","","","","","","","","",""
"[{""page_index"":0,""viewing_time"":7331.535000004806}]","7331.780000007711","instructions","7","51223","0.0-7.0","SS1618365916341","instructions","","","","","","","","","","","","","","","",""
"[{""page_index"":0,""viewing_time"":11120.04499998875},{""page_index"":1,""viewing_time"":4609.4950000115205},{""page_index"":2,""viewing_time"":5990.77999999281},{""page_index"":3,""viewing_time"":1068.1150000018533},{""page_index"":4,""viewing_time"":753.0899999837857}]","23541.734999977052","instructions","8","74765","0.0-8.0","SS1618365916341","instructions","","","","","","","","","","","","","","","",""
"","null","html-keyboard-response","9","75942","0.0-9.0-0.0","SS1618365916341","","","null","","","","","","<p><img src= images/blank.png width =""600"" height = ""600"" style=""position:fixed;top:50%; left:50%; transform: translate(-50%, -50%); border:5px solid black"">","","","","","","","",""
"","139.68000002205372","sequential-stimulus-presentation-old","10","76134","0.0-9.0-1.0","SS1618365916341","trial","","40","500","639.6800000220537","images/stimuli/spore_stims/simple_18_A_a.gif","images/stimuli/spore_stims/simple_17_A_b.gif","forced_short","","0","simple_dissimilar","images/stimuli/spore_stims/simple_17_A_b.gif","","","","",""
"","null","html-keyboard-response","11","77336","0.0-9.0-0.1","SS1618365916341","","","null","","","","","","<p><img src= images/blank.png width =""600"" height = ""600"" style=""position:fixed;top:50%; left:50%; transform: translate(-50%, -50%); border:5px solid black"">","","","","","","","",""
"","1225.3600000112783","sequential-stimulus-presentation-old","12","79063","0.0-9.0-1.1","SS1618365916341","trial","","40","500","1725.3600000112783","images/stimuli/spore_stims/simple_18_A_a.gif","images/stimuli/spore_stims/simple_17_A_b.gif","forced_short","","0","simple_dissimilar","images/stimuli/spore_stims/simple_17_A_b.gif","","","","",""
"","null","html-keyboard-response","13","80234","0.0-9.0-0.2","SS1618365916341","","","null","","","","","","<p><img src= images/blank.png width =""600"" height = ""600"" style=""position:fixed;top:50%; left:50%; transform: translate(-50%, -50%); border:5px solid black"">","","","","","","","",""
"","2673.799999989569","sequential-stimulus-presentation-old","14","83409","0.0-9.0-1.2","SS1618365916341","trial","","40","500","3173.799999989569","images/stimuli/spore_stims/simple_18_A_a.gif","images/stimuli/spore_stims/simple_17_A_b.gif","forced_short","","0","simple_dissimilar","images/stimuli/spore_stims/simple_17_A_b.gif","","","","",""
"","null","html-keyboard-response","15","84218","0.0-9.0-0.3","SS1618365916341","","","null","","","","","","<p><img src= images/blank.png width =""600"" height = ""600"" style=""position:fixed;top:50%; left:50%; transform: translate(-50%, -50%); border:5px solid black"">","","","","","","","",""
"","4079.139999987092","sequential-stimulus-presentation-old","16","88798","0.0-9.0-1.3","SS1618365916341","trial","","40","500","4579.139999987092","images/stimuli/spore_stims/simple_18_A_a.gif","images/stimuli/spore_stims/simple_17_A_b.gif","forced_short","","0","simple_dissimilar","images/stimuli/spore_stims/simple_17_A_b.gif","","","","",""
"","null","html-keyboard-response","17","89940","0.0-9.0-0.4","SS1618365916341","","","null","","","","","","<p><img src= images/blank.png width =""600"" height = ""600"" style=""position:fixed;top:50%; left:50%; transform: translate(-50%, -50%); border:5px solid black"">","","","","","","","",""
"","188.26999998418614","sequential-stimulus-presentation-old","18","90630","0.0-9.0-1.4","SS1618365916341","trial","","40","500","688.2699999841861","images/stimuli/spore_stims/simple_18_A_a.gif","images/stimuli/spore_stims/simple_17_A_b.gif","forced_short","","0","simple_dissimilar","images/stimuli/spore_stims/simple_17_A_b.gif","","","","",""
"","null","html-keyboard-response","19","91931","0.0-9.0-0.5","SS1618365916341","","","null","","","","","","<p><img src= images/blank.png width =""600"" height = ""600"" style=""position:fixed;top:50%; left:50%; transform: translate(-50%, -50%); border:5px solid black"">","","","","","","","",""
"","1763.425000011921","sequential-stimulus-presentation-old","20","94196","0.0-9.0-1.5","SS1618365916341","trial","","40","500","2263.425000011921","images/stimuli/spore_stims/simple_18_A_a.gif","images/stimuli/spore_stims/simple_17_A_b.gif","forced_short","","0","simple_dissimilar","images/stimuli/spore_stims/simple_17_A_b.gif","","","","",""
"","2542.365000001155","survey-multi-choice","21","96741","0.0-10.0","SS1618365916341","math_question","","","","","","","","","","","","{""Q0"":""10""}","[0]","10","",""
"","null","html-keyboard-response","22","97936","0.0-11.0-0.0","SS1618365916341","","","null","","","","","","<p><img src= images/blank.png width =""600"" height = ""600"" style=""position:fixed;top:50%; left:50%; transform: translate(-50%, -50%); border:5px solid black"">","","","","","","","",""
"","92.33000001404434","sequential-stimulus-presentation-old","23","98080","0.0-11.0-1.0","SS1618365916341","trial","","40","500","592.3300000140443","images/stimuli/spore_stims/simple_09_A_b.gif","images/stimuli/spore_stims/simple_14_A_a.gif","forced_short","","1","simple_dissimilar","images/stimuli/spore_stims/simple_14_A_a.gif","","","","",""
"","null","html-keyboard-response","24","99075","0.0-11.0-0.1","SS1618365916341","","","null","","","","","","<p><img src= images/blank.png width =""600"" height = ""600"" style=""position:fixed;top:50%; left:50%; transform: translate(-50%, -50%); border:5px solid black"">","","","","","","","",""
"","264.78499997756444","sequential-stimulus-presentation-old","25","99842","0.0-11.0-1.1","SS1618365916341","trial","","40","500","764.7849999775644","images/stimuli/spore_stims/simple_09_A_b.gif","images/stimuli/spore_stims/simple_14_A_a.gif","forced_short","","1","simple_dissimilar","images/stimuli/spore_stims/simple_14_A_a.gif","","","","",""
"","null","html-keyboard-response","26","100983","0.0-11.0-0.2","SS1618365916341","","","null","","","","","","<p><img src= images/blank.png width =""600"" height = ""600"" style=""position:fixed;top:50%; left:50%; transform: translate(-50%, -50%); border:5px solid black"">","","","","","","","",""
"","184.58499998087063","sequential-stimulus-presentation-old","27","101669","0.0-11.0-1.2","SS1618365916341","trial","","40","500","684.5849999808706","images/stimuli/spore_stims/simple_09_A_b.gif","images/stimuli/spore_stims/simple_14_A_a.gif","forced_short","","1","simple_dissimilar","images/stimuli/spore_stims/simple_09_A_b.gif","","","","",""
"","null","html-keyboard-response","28","102820","0.0-11.0-0.3","SS1618365916341","","","null","","","","","","<p><img src= images/blank.png width =""600"" height = ""600"" style=""position:fixed;top:50%; left:50%; transform: translate(-50%, -50%); border:5px solid black"">","","","","","","","",""
"","3216.90500000841","sequential-stimulus-presentation-old","29","106538","0.0-11.0-1.3","SS1618365916341","trial","","40","500","3716.90500000841","images/stimuli/spore_stims/simple_09_A_b.gif","images/stimuli/spore_stims/simple_14_A_a.gif","forced_short","","1","simple_dissimilar","images/stimuli/spore_stims/simple_14_A_a.gif","","","","",""
"","null","html-keyboard-response","30","107691","0.0-11.0-0.4","SS1618365916341","","","null","","","","","","<p><img src= images/blank.png width =""600"" height = ""600"" style=""position:fixed;top:50%; left:50%; transform: translate(-50%, -50%); border:5px solid black"">","","","","","","","",""
"","5150.0750000122935","sequential-stimulus-presentation-old","31","113343","0.0-11.0-1.4","SS1618365916341","trial","","40","500","5650.0750000122935","images/stimuli/spore_stims/simple_09_A_b.gif","images/stimuli/spore_stims/simple_14_A_a.gif","forced_short","","1","simple_dissimilar","images/stimuli/spore_stims/simple_14_A_a.gif","","","","",""
"","null","html-keyboard-response","32","114268","0.0-11.0-0.5","SS1618365916341","","","null","","","","","","<p><img src= images/blank.png width =""600"" height = ""600"" style=""position:fixed;top:50%; left:50%; transform: translate(-50%, -50%); border:5px solid black"">","","","","","","","",""
"","209.09499999834225","sequential-stimulus-presentation-old","33","114979","0.0-11.0-1.5","SS1618365916341","trial","","40","500","709.0949999983422","images/stimuli/spore_stims/simple_09_A_b.gif","images/stimuli/spore_stims/simple_14_A_a.gif","forced_short","","1","simple_dissimilar","images/stimuli/spore_stims/simple_09_A_b.gif","","","","",""
"","2341.6999999899417","survey-multi-choice","34","117322","0.0-12.0","SS1618365916341","math_question","","","","","","","","","","","","{""Q0"":""7""}","[0]","7","",""
"","null","html-keyboard-response","35","118417","0.0-13.0-0.0","SS1618365916341","","","null","","","","","","<p><img src= images/blank.png width =""600"" height = ""600"" style=""position:fixed;top:50%; left:50%; transform: translate(-50%, -50%); border:5px solid black"">","","","","","","","",""
"","7770.134999998845","sequential-stimulus-presentation-old","36","126690","0.0-13.0-1.0","SS1618365916341","trial","","40","500","8270.134999998845","images/stimuli/spore_stims/complex_20_A_b.gif","images/stimuli/spore_stims/complex_09_A_a.gif","self_paced","","2","complex_dissimilar","images/stimuli/spore_stims/complex_09_A_a.gif","","","","",""
"","null","html-keyboard-response","37","127714","0.0-13.0-0.1","SS1618365916341","","","null","","","","","","<p><img src= images/blank.png width =""600"" height = ""600"" style=""position:fixed;top:50%; left:50%; transform: translate(-50%, -50%); border:5px solid black"">","","","","","","","",""
"","752.6849999849219","sequential-stimulus-presentation-old","38","128969","0.0-13.0-1.1","SS1618365916341","trial","","40","500","1252.684999984922","images/stimuli/spore_stims/complex_20_A_b.gif","images/stimuli/spore_stims/complex_09_A_a.gif","self_paced","","2","complex_dissimilar","images/stimuli/spore_stims/complex_09_A_a.gif","","","","",""
"","null","html-keyboard-response","39","130142","0.0-13.0-0.2","SS1618365916341","","","null","","","","","","<p><img src= images/blank.png width =""600"" height = ""600"" style=""position:fixed;top:50%; left:50%; transform: translate(-50%, -50%); border:5px solid black"">","","","","","","","",""
"","861.3699999987148","sequential-stimulus-presentation-old","40","131506","0.0-13.0-1.2","SS1618365916341","trial","","40","500","1361.3699999987148","images/stimuli/spore_stims/complex_20_A_b.gif","images/stimuli/spore_stims/complex_09_A_a.gif","self_paced","","2","complex_dissimilar","images/stimuli/spore_stims/complex_09_A_a.gif","","","","",""
"","null","html-keyboard-response","41","132760","0.0-13.0-0.3","SS1618365916341","","","null","","","","","","<p><img src= images/blank.png width =""600"" height = ""600"" style=""position:fixed;top:50%; left:50%; transform: translate(-50%, -50%); border:5px solid black"">","","","","","","","",""
"","2015.160000009928","sequential-stimulus-presentation-old","42","135277","0.0-13.0-1.3","SS1618365916341","trial","","40","500","2515.160000009928","images/stimuli/spore_stims/complex_20_A_b.gif","images/stimuli/spore_stims/complex_09_A_a.gif","self_paced","","2","complex_dissimilar","images/stimuli/spore_stims/complex_09_A_a.gif","","","","",""
"","null","html-keyboard-response","43","136244","0.0-13.0-0.4","SS1618365916341","","","null","","","","","","<p><img src= images/blank.png width =""600"" height = ""600"" style=""position:fixed;top:50%; left:50%; transform: translate(-50%, -50%); border:5px solid black"">","","","","","","","",""
"","1047.565000015311","sequential-stimulus-presentation-old","44","137794","0.0-13.0-1.4","SS1618365916341","trial","","40","500","1547.565000015311","images/stimuli/spore_stims/complex_20_A_b.gif","images/stimuli/spore_stims/complex_09_A_a.gif","self_paced","","2","complex_dissimilar","images/stimuli/spore_stims/complex_09_A_a.gif","","","","",""
"","null","html-keyboard-response","45","138979","0.0-13.0-0.5","SS1618365916341","","","null","","","","","","<p><img src= images/blank.png width =""600"" height = ""600"" style=""position:fixed;top:50%; left:50%; transform: translate(-50%, -50%); border:5px solid black"">","","","","","","","",""
"","684.9199999996927","sequential-stimulus-presentation-old","46","140166","0.0-13.0-1.5","SS1618365916341","trial","","40","500","1184.9199999996927","images/stimuli/spore_stims/complex_20_A_b.gif","images/stimuli/spore_stims/complex_09_A_a.gif","self_paced","","2","complex_dissimilar","images/stimuli/spore_stims/complex_09_A_a.gif","","","","",""
"","2832.9000000085216","survey-multi-choice","47","143000","0.0-14.0","SS1618365916341","math_question","","","","","","","","","","","","{""Q0"":""13""}","[0]","13","",""
"","null","html-keyboard-response","48","144015","0.0-15.0-0.0","SS1618365916341","","","null","","","","","","<p><img src= images/blank.png width =""600"" height = ""600"" style=""position:fixed;top:50%; left:50%; transform: translate(-50%, -50%); border:5px solid black"">","","","","","","","",""
"","1323.6800000013318","sequential-stimulus-presentation-old","49","145391","0.0-15.0-1.0","SS1618365916341","trial","","40","500","1823.6800000013318","images/stimuli/spore_stims/complex_10_A_a.gif","images/stimuli/spore_stims/complex_09_A_b.gif","forced_short","","3","complex_dissimilar","images/stimuli/spore_stims/complex_09_A_b.gif","","","","",""
"","null","html-keyboard-response","50","146374","0.0-15.0-0.1","SS1618365916341","","","null","","","","","","<p><img src= images/blank.png width =""600"" height = ""600"" style=""position:fixed;top:50%; left:50%; transform: translate(-50%, -50%); border:5px solid black"">","","","","","","","",""
"","2933.61000000732","sequential-stimulus-presentation-old","51","149810","0.0-15.0-1.1","SS1618365916341","trial","","40","500","3433.61000000732","images/stimuli/spore_stims/complex_10_A_a.gif","images/stimuli/spore_stims/complex_09_A_b.gif","forced_short","","3","complex_dissimilar","images/stimuli/spore_stims/complex_10_A_a.gif","","","","",""
"","null","html-keyboard-response","52","150760","0.0-15.0-0.2","SS1618365916341","","","null","","","","","","<p><img src= images/blank.png width =""600"" height = ""600"" style=""position:fixed;top:50%; left:50%; transform: translate(-50%, -50%); border:5px solid black"">","","","","","","","",""
"","426.65999999735504","sequential-stimulus-presentation-old","53","151689","0.0-15.0-1.2","SS1618365916341","trial","","40","500","926.659999997355","images/stimuli/spore_stims/complex_10_A_a.gif","images/stimuli/spore_stims/complex_09_A_b.gif","forced_short","","3","complex_dissimilar","images/stimuli/spore_stims/complex_09_A_b.gif","","","","",""
"","null","html-keyboard-response","54","152906","0.0-15.0-0.3","SS1618365916341","","","null","","","","","","<p><img src= images/blank.png width =""600"" height = ""600"" style=""position:fixed;top:50%; left:50%; transform: translate(-50%, -50%); border:5px solid black"">","","","","","","","",""
"","206.81999999214895","sequential-stimulus-presentation-old","55","153614","0.0-15.0-1.3","SS1618365916341","trial","","40","500","706.819999992149","images/stimuli/spore_stims/complex_10_A_a.gif","images/stimuli/spore_stims/complex_09_A_b.gif","forced_short","","3","complex_dissimilar","images/stimuli/spore_stims/complex_09_A_b.gif","","","","",""
"","null","html-keyboard-response","56","154422","0.0-15.0-0.4","SS1618365916341","","","null","","","","","","<p><img src= images/blank.png width =""600"" height = ""600"" style=""position:fixed;top:50%; left:50%; transform: translate(-50%, -50%); border:5px solid black"">","","","","","","","",""
"","226.4300000097137","sequential-stimulus-presentation-old","57","155150","0.0-15.0-1.4","SS1618365916341","trial","","40","500","726.4300000097137","images/stimuli/spore_stims/complex_10_A_a.gif","images/stimuli/spore_stims/complex_09_A_b.gif","forced_short","","3","complex_dissimilar","images/stimuli/spore_stims/complex_10_A_a.gif","","","","",""
"","2531.2299999932293","survey-multi-choice","58","157683","0.0-16.0","SS1618365916341","math_question","","","","","","","","","","","","{""Q0"":""10""}","[0]","10","",""
"","null","html-keyboard-response","59","158798","0.0-17.0-0.0","SS1618365916341","","","null","","","","","","<p><img src= images/blank.png width =""600"" height = ""600"" style=""position:fixed;top:50%; left:50%; transform: translate(-50%, -50%); border:5px solid black"">","","","","","","","",""
"","1658.9099999982864","sequential-stimulus-presentation-old","60","165459","0.0-17.0-1.0","SS1618365916341","trial","","40","500","2158.9099999982864","images/stimuli/spore_stims/simple_01_A_a.gif","images/stimuli/spore_stims/simple_11_A_b.gif","forced_long","","4","simple_dissimilar","images/stimuli/spore_stims/simple_11_A_b.gif","","","","",""
"","null","html-keyboard-response","61","166426","0.0-17.0-0.1","SS1618365916341","","","null","","","","","","<p><img src= images/blank.png width =""600"" height = ""600"" style=""position:fixed;top:50%; left:50%; transform: translate(-50%, -50%); border:5px solid black"">","","","","","","","",""
"","2992.0550000097137","sequential-stimulus-presentation-old","62","169920","0.0-17.0-1.1","SS1618365916341","trial","","40","500","3492.0550000097137","images/stimuli/spore_stims/simple_01_A_a.gif","images/stimuli/spore_stims/simple_11_A_b.gif","forced_long","","4","simple_dissimilar","images/stimuli/spore_stims/simple_01_A_a.gif","","","","",""
"","null","html-keyboard-response","63","171007","0.0-17.0-0.2","SS1618365916341","","","null","","","","","","<p><img src= images/blank.png width =""600"" height = ""600"" style=""position:fixed;top:50%; left:50%; transform: translate(-50%, -50%); border:5px solid black"">","","","","","","","",""
"","631.2699999834877","sequential-stimulus-presentation-old","64","172141","0.0-17.0-1.2","SS1618365916341","trial","","40","500","1131.2699999834877","images/stimuli/spore_stims/simple_01_A_a.gif","images/stimuli/spore_stims/simple_11_A_b.gif","forced_long","","4","simple_dissimilar","images/stimuli/spore_stims/simple_11_A_b.gif","","","","",""
"","null","html-keyboard-response","65","173135","0.0-17.0-0.3","SS1618365916341","","","null","","","","","","<p><img src= images/blank.png width =""600"" height = ""600"" style=""position:fixed;top:50%; left:50%; transform: translate(-50%, -50%); border:5px solid black"">","","","","","","","",""
"","699.8199999798089","sequential-stimulus-presentation-old","66","174336","0.0-17.0-1.3","SS1618365916341","trial","","40","500","1199.819999979809","images/stimuli/spore_stims/simple_01_A_a.gif","images/stimuli/spore_stims/simple_11_A_b.gif","forced_long","","4","simple_dissimilar","images/stimuli/spore_stims/simple_11_A_b.gif","","","","",""
"","null","html-keyboard-response","67","175551","0.0-17.0-0.4","SS1618365916341","","","null","","","","","","<p><img src= images/blank.png width =""600"" height = ""600"" style=""position:fixed;top:50%; left:50%; transform: translate(-50%, -50%); border:5px solid black"">","","","","","","","",""
"","635.2900000056252","sequential-stimulus-presentation-old","68","176688","0.0-17.0-1.4","SS1618365916341","trial","","40","500","1135.2900000056252","images/stimuli/spore_stims/simple_01_A_a.gif","images/stimuli/spore_stims/simple_11_A_b.gif","forced_long","","4","simple_dissimilar","images/stimuli/spore_stims/simple_11_A_b.gif","","","","",""
"","null","html-keyboard-response","69","177933","0.0-17.0-0.5","SS1618365916341","","","null","","","","","","<p><img src= images/blank.png width =""600"" height = ""600"" style=""position:fixed;top:50%; left:50%; transform: translate(-50%, -50%); border:5px solid black"">","","","","","","","",""
"","878.9700000197627","sequential-stimulus-presentation-old","70","179313","0.0-17.0-1.5","SS1618365916341","trial","","40","500","1378.9700000197627","images/stimuli/spore_stims/simple_01_A_a.gif","images/stimuli/spore_stims/simple_11_A_b.gif","forced_long","","4","simple_dissimilar","images/stimuli/spore_stims/simple_11_A_b.gif","","","","",""
"","2380.105000018375","survey-multi-choice","71","181695","0.0-18.0","SS1618365916341","math_question","","","","","","","","","","","","{""Q0"":""11""}","[0]","11","",""
"","null","html-keyboard-response","72","182857","0.0-19.0-0.0","SS1618365916341","","","null","","","","","","<p><img src= images/blank.png width =""600"" height = ""600"" style=""position:fixed;top:50%; left:50%; transform: translate(-50%, -50%); border:5px solid black"">","","","","","","","",""
"","161.99000002234243","sequential-stimulus-presentation-old","73","188022","0.0-19.0-1.0","SS1618365916341","trial","","40","500","661.9900000223424","images/stimuli/spore_stims/simple_18_A_b.gif","images/stimuli/spore_stims/simple_03_A_a.gif","forced_long","","5","simple_dissimilar","images/stimuli/spore_stims/simple_03_A_a.gif","","","","",""
"","null","html-keyboard-response","74","189004","0.0-19.0-0.1","SS1618365916341","","","null","","","","","","<p><img src= images/blank.png width =""600"" height = ""600"" style=""position:fixed;top:50%; left:50%; transform: translate(-50%, -50%); border:5px solid black"">","","","","","","","",""
"","740.4650000098627","sequential-stimulus-presentation-old","75","190247","0.0-19.0-1.1","SS1618365916341","trial","","40","500","1240.4650000098627","images/stimuli/spore_stims/simple_18_A_b.gif","images/stimuli/spore_stims/simple_03_A_a.gif","forced_long","","5","simple_dissimilar","images/stimuli/spore_stims/simple_03_A_a.gif","","","","",""
"","null","html-keyboard-response","76","191385","0.0-19.0-0.2","SS1618365916341","","","null","","","","","","<p><img src= images/blank.png width =""600"" height = ""600"" style=""position:fixed;top:50%; left:50%; transform: translate(-50%, -50%); border:5px solid black"">","","","","","","","",""
"","512.2150000242982","sequential-stimulus-presentation-old","77","192399","0.0-19.0-1.2","SS1618365916341","trial","","40","500","1012.2150000242982","images/stimuli/spore_stims/simple_18_A_b.gif","images/stimuli/spore_stims/simple_03_A_a.gif","forced_long","","5","simple_dissimilar","images/stimuli/spore_stims/simple_03_A_a.gif","","","","",""
"","null","html-keyboard-response","78","193400","0.0-19.0-0.3","SS1618365916341","","","null","","","","","","<p><img src= images/blank.png width =""600"" height = ""600"" style=""position:fixed;top:50%; left:50%; transform: translate(-50%, -50%); border:5px solid black"">","","","","","","","",""
"","434.6500000101514","sequential-stimulus-presentation-old","79","194338","0.0-19.0-1.3","SS1618365916341","trial","","40","500","934.6500000101514","images/stimuli/spore_stims/simple_18_A_b.gif","images/stimuli/spore_stims/simple_03_A_a.gif","forced_long","","5","simple_dissimilar","images/stimuli/spore_stims/simple_03_A_a.gif","","","","",""
"","null","html-keyboard-response","80","195539","0.0-19.0-0.4","SS1618365916341","","","null","","","","","","<p><img src= images/blank.png width =""600"" height = ""600"" style=""position:fixed;top:50%; left:50%; transform: translate(-50%, -50%); border:5px solid black"">","","","","","","","",""
"","6218.495000008261","sequential-stimulus-presentation-old","81","202260","0.0-19.0-1.4","SS1618365916341","trial","","40","500","6718.495000008261","images/stimuli/spore_stims/simple_18_A_b.gif","images/stimuli/spore_stims/simple_03_A_a.gif","forced_long","","5","simple_dissimilar","images/stimuli/spore_stims/simple_18_A_b.gif","","","","",""
"","null","html-keyboard-response","82","203466","0.0-19.0-0.5","SS1618365916341","","","null","","","","","","<p><img src= images/blank.png width =""600"" height = ""600"" style=""position:fixed;top:50%; left:50%; transform: translate(-50%, -50%); border:5px solid black"">","","","","","","","",""
"","263.78499998827465","sequential-stimulus-presentation-old","83","204232","0.0-19.0-1.5","SS1618365916341","trial","","40","500","763.7849999882746","images/stimuli/spore_stims/simple_18_A_b.gif","images/stimuli/spore_stims/simple_03_A_a.gif","forced_long","","5","simple_dissimilar","images/stimuli/spore_stims/simple_18_A_b.gif","","","","",""
"","2597.1600000048056","survey-multi-choice","84","206831","0.0-20.0","SS1618365916341","math_question","","","","","","","","","","","","{""Q0"":""13""}","[0]","13","",""
"","null","html-keyboard-response","85","207954","0.0-21.0-0.0","SS1618365916341","","","null","","","","","","<p><img src= images/blank.png width =""600"" height = ""600"" style=""position:fixed;top:50%; left:50%; transform: translate(-50%, -50%); border:5px solid black"">","","","","","","","",""
"","4249.760000006063","sequential-stimulus-presentation-old","86","212706","0.0-21.0-1.0","SS1618365916341","trial","","40","500","4749.760000006063","images/stimuli/spore_stims/simple_12_A_b.gif","images/stimuli/spore_stims/simple_09_A_a.gif","self_paced","","6","simple_dissimilar","images/stimuli/spore_stims/simple_09_A_a.gif","","","","",""
"","null","html-keyboard-response","87","213866","0.0-21.0-0.1","SS1618365916341","","","null","","","","","","<p><img src= images/blank.png width =""600"" height = ""600"" style=""position:fixed;top:50%; left:50%; transform: translate(-50%, -50%); border:5px solid black"">","","","","","","","",""
"","5540.29500001343","sequential-stimulus-presentation-old","88","219909","0.0-21.0-1.1","SS1618365916341","trial","","40","500","6040.29500001343","images/stimuli/spore_stims/simple_12_A_b.gif","images/stimuli/spore_stims/simple_09_A_a.gif","self_paced","","6","simple_dissimilar","images/stimuli/spore_stims/simple_09_A_a.gif","","","","",""
"","null","html-keyboard-response","89","220976","0.0-21.0-0.2","SS1618365916341","","","null","","","","","","<p><img src= images/blank.png width =""600"" height = ""600"" style=""position:fixed;top:50%; left:50%; transform: translate(-50%, -50%); border:5px solid black"">","","","","","","","",""
"","338.31999998074025","sequential-stimulus-presentation-old","90","221817","0.0-21.0-1.2","SS1618365916341","trial","","40","500","838.3199999807402","images/stimuli/spore_stims/simple_12_A_b.gif","images/stimuli/spore_stims/simple_09_A_a.gif","self_paced","","6","simple_dissimilar","images/stimuli/spore_stims/simple_09_A_a.gif","","","","",""
"","null","html-keyboard-response","91","222649","0.0-21.0-0.3","SS1618365916341","","","null","","","","","","<p><img src= images/blank.png width =""600"" height = ""600"" style=""position:fixed;top:50%; left:50%; transform: translate(-50%, -50%); border:5px solid black"">","","","","","","","",""
"","2901.8550000037067","sequential-stimulus-presentation-old","92","226053","0.0-21.0-1.3","SS1618365916341","trial","","40","500","3401.8550000037067","images/stimuli/spore_stims/simple_12_A_b.gif","images/stimuli/spore_stims/simple_09_A_a.gif","self_paced","","6","simple_dissimilar","images/stimuli/spore_stims/simple_12_A_b.gif","","","","",""
"","null","html-keyboard-response","93","227122","0.0-21.0-0.4","SS1618365916341","","","null","","","","","","<p><img src= images/blank.png width =""600"" height = ""600"" style=""position:fixed;top:50%; left:50%; transform: translate(-50%, -50%); border:5px solid black"">","","","","","","","",""
"","10.23499999428168","sequential-stimulus-presentation-old","94","227635","0.0-21.0-1.4","SS1618365916341","trial","","40","500","510.2349999942817","images/stimuli/spore_stims/simple_12_A_b.gif","images/stimuli/spore_stims/simple_09_A_a.gif","self_paced","","6","simple_dissimilar","images/stimuli/spore_stims/simple_09_A_a.gif","","","","",""
"","4299.930000008317","survey-multi-choice","95","231936","0.0-22.0","SS1618365916341","math_question","","","","","","","","","","","","{""Q0"":""15""}","[0]","15","",""
"","null","html-keyboard-response","96","232941","0.0-23.0-0.0","SS1618365916341","","","null","","","","","","<p><img src= images/blank.png width =""600"" height = ""600"" style=""position:fixed;top:50%; left:50%; transform: translate(-50%, -50%); border:5px solid black"">","","","","","","","",""
"","3881.740000011632","sequential-stimulus-presentation-old","97","241824","0.0-23.0-1.0","SS1618365916341","trial","","40","500","4381.740000011632","images/stimuli/spore_stims/complex_05_A_b.gif","images/stimuli/spore_stims/complex_18_A_a.gif","forced_long","","7","complex_dissimilar","images/stimuli/spore_stims/complex_18_A_a.gif","","","","",""
"","null","html-keyboard-response","98","242699","0.0-23.0-0.1","SS1618365916341","","","null","","","","","","<p><img src= images/blank.png width =""600"" height = ""600"" style=""position:fixed;top:50%; left:50%; transform: translate(-50%, -50%); border:5px solid black"">","","","","","","","",""
"","2007.5500000093598","sequential-stimulus-presentation-old","99","245209","0.0-23.0-1.1","SS1618365916341","trial","","40","500","2507.55000000936","images/stimuli/spore_stims/complex_05_A_b.gif","images/stimuli/spore_stims/complex_18_A_a.gif","forced_long","","7","complex_dissimilar","images/stimuli/spore_stims/complex_18_A_a.gif","","","","",""
"","null","html-keyboard-response","100","246332","0.0-23.0-0.2","SS1618365916341","","","null","","","","","","<p><img src= images/blank.png width =""600"" height = ""600"" style=""position:fixed;top:50%; left:50%; transform: translate(-50%, -50%); border:5px solid black"">","","","","","","","",""
"","2003.2649999775458","sequential-stimulus-presentation-old","101","248838","0.0-23.0-1.2","SS1618365916341","trial","","40","500","2503.264999977546","images/stimuli/spore_stims/complex_05_A_b.gif","images/stimuli/spore_stims/complex_18_A_a.gif","forced_long","","7","complex_dissimilar","images/stimuli/spore_stims/complex_05_A_b.gif","","","","",""
"","null","html-keyboard-response","102","249761","0.0-23.0-0.3","SS1618365916341","","","null","","","","","","<p><img src= images/blank.png width =""600"" height = ""600"" style=""position:fixed;top:50%; left:50%; transform: translate(-50%, -50%); border:5px solid black"">","","","","","","","",""
"","1462.7000000036787","sequential-stimulus-presentation-old","103","251726","0.0-23.0-1.3","SS1618365916341","trial","","40","500","1962.7000000036787","images/stimuli/spore_stims/complex_05_A_b.gif","images/stimuli/spore_stims/complex_18_A_a.gif","forced_long","","7","complex_dissimilar","images/stimuli/spore_stims/complex_18_A_a.gif","","","","",""
"","null","html-keyboard-response","104","252567","0.0-23.0-0.4","SS1618365916341","","","null","","","","","","<p><img src= images/blank.png width =""600"" height = ""600"" style=""position:fixed;top:50%; left:50%; transform: translate(-50%, -50%); border:5px solid black"">","","","","","","","",""
"","939.4299999985378","sequential-stimulus-presentation-old","105","254009","0.0-23.0-1.4","SS1618365916341","trial","","40","500","1439.4299999985378","images/stimuli/spore_stims/complex_05_A_b.gif","images/stimuli/spore_stims/complex_18_A_a.gif","forced_long","","7","complex_dissimilar","images/stimuli/spore_stims/complex_18_A_a.gif","","","","",""
"","null","html-keyboard-response","106","255051","0.0-23.0-0.5","SS1618365916341","","","null","","","","","","<p><img src= images/blank.png width =""600"" height = ""600"" style=""position:fixed;top:50%; left:50%; transform: translate(-50%, -50%); border:5px solid black"">","","","","","","","",""
"","686.0250000027008","sequential-stimulus-presentation-old","107","256239","0.0-23.0-1.5","SS1618365916341","trial","","40","500","1186.0250000027008","images/stimuli/spore_stims/complex_05_A_b.gif","images/stimuli/spore_stims/complex_18_A_a.gif","forced_long","","7","complex_dissimilar","images/stimuli/spore_stims/complex_05_A_b.gif","","","","",""
"","2577.994999999646","survey-multi-choice","108","258819","0.0-24.0","SS1618365916341","math_question","","","","","","","","","","","","{""Q0"":""11""}","[0]","11","",""
"","null","html-keyboard-response","109","259636","0.0-25.0-0.0","SS1618365916341","","","null","","","","","","<p><img src= images/blank.png width =""600"" height = ""600"" style=""position:fixed;top:50%; left:50%; transform: translate(-50%, -50%); border:5px solid black"">","","","","","","","",""
"","693.4699999983422","sequential-stimulus-presentation-old","110","260832","0.0-25.0-1.0","SS1618365916341","trial","","40","500","1193.4699999983422","images/stimuli/spore_stims/complex_04_A_a.gif","images/stimuli/spore_stims/complex_01_A_b.gif","self_paced","","8","complex_dissimilar","images/stimuli/spore_stims/complex_01_A_b.gif","","","","",""
"","null","html-keyboard-response","111","261799","0.0-25.0-0.1","SS1618365916341","","","null","","","","","","<p><img src= images/blank.png width =""600"" height = ""600"" style=""position:fixed;top:50%; left:50%; transform: translate(-50%, -50%); border:5px solid black"">","","","","","","","",""
"","387.45499998913147","sequential-stimulus-presentation-old","112","262689","0.0-25.0-1.1","SS1618365916341","trial","","40","500","887.4549999891315","images/stimuli/spore_stims/complex_04_A_a.gif","images/stimuli/spore_stims/complex_01_A_b.gif","self_paced","","8","complex_dissimilar","images/stimuli/spore_stims/complex_01_A_b.gif","","","","",""
"","null","html-keyboard-response","113","263560","0.0-25.0-0.2","SS1618365916341","","","null","","","","","","<p><img src= images/blank.png width =""600"" height = ""600"" style=""position:fixed;top:50%; left:50%; transform: translate(-50%, -50%); border:5px solid black"">","","","","","","","",""
"","272.8950000018813","sequential-stimulus-presentation-old","114","264335","0.0-25.0-1.2","SS1618365916341","trial","","40","500","772.8950000018813","images/stimuli/spore_stims/complex_04_A_a.gif","images/stimuli/spore_stims/complex_01_A_b.gif","self_paced","","8","complex_dissimilar","images/stimuli/spore_stims/complex_04_A_a.gif","","","","",""
"","null","html-keyboard-response","115","265149","0.0-25.0-0.3","SS1618365916341","","","null","","","","","","<p><img src= images/blank.png width =""600"" height = ""600"" style=""position:fixed;top:50%; left:50%; transform: translate(-50%, -50%); border:5px solid black"">","","","","","","","",""
"","141.4000000222586","sequential-stimulus-presentation-old","116","265793","0.0-25.0-1.3","SS1618365916341","trial","","40","500","641.4000000222586","images/stimuli/spore_stims/complex_04_A_a.gif","images/stimuli/spore_stims/complex_01_A_b.gif","self_paced","","8","complex_dissimilar","images/stimuli/spore_stims/complex_01_A_b.gif","","","","",""
"","null","html-keyboard-response","117","267028","0.0-25.0-0.4","SS1618365916341","","","null","","","","","","<p><img src= images/blank.png width =""600"" height = ""600"" style=""position:fixed;top:50%; left:50%; transform: translate(-50%, -50%); border:5px solid black"">","","","","","","","",""
"","112.17500001657754","sequential-stimulus-presentation-old","118","267643","0.0-25.0-1.4","SS1618365916341","trial","","40","500","612.1750000165775","images/stimuli/spore_stims/complex_04_A_a.gif","images/stimuli/spore_stims/complex_01_A_b.gif","self_paced","","8","complex_dissimilar","images/stimuli/spore_stims/complex_04_A_a.gif","","","","",""
"","2173.3750000130385","survey-multi-choice","119","269818","0.0-26.0","SS1618365916341","math_question","","","","","","","","","","","","{""Q0"":""4""}","[0]","4","",""
"","null","html-keyboard-response","120","271082","0.0-27.0-0.0","SS1618365916341","","","null","","","","","","<p><img src= images/blank.png width =""600"" height = ""600"" style=""position:fixed;top:50%; left:50%; transform: translate(-50%, -50%); border:5px solid black"">","","","","","","","",""
"","731.0200000065379","sequential-stimulus-presentation-old","121","271866","0.0-27.0-1.0","SS1618365916341","trial","","40","500","1231.0200000065379","images/stimuli/spore_stims/complex_19_A_b.gif","images/stimuli/spore_stims/complex_17_A_a.gif","forced_short","","9","complex_dissimilar","images/stimuli/spore_stims/complex_17_A_a.gif","","","","",""
"","null","html-keyboard-response","122","272899","0.0-27.0-0.1","SS1618365916341","","","null","","","","","","<p><img src= images/blank.png width =""600"" height = ""600"" style=""position:fixed;top:50%; left:50%; transform: translate(-50%, -50%); border:5px solid black"">","","","","","","","",""
"","4557.934999989811","sequential-stimulus-presentation-old","123","277959","0.0-27.0-1.1","SS1618365916341","trial","","40","500","5057.934999989811","images/stimuli/spore_stims/complex_19_A_b.gif","images/stimuli/spore_stims/complex_17_A_a.gif","forced_short","","9","complex_dissimilar","images/stimuli/spore_stims/complex_17_A_a.gif","","","","",""
"","null","html-keyboard-response","124","278926","0.0-27.0-0.2","SS1618365916341","","","null","","","","","","<p><img src= images/blank.png width =""600"" height = ""600"" style=""position:fixed;top:50%; left:50%; transform: translate(-50%, -50%); border:5px solid black"">","","","","","","","",""
"","5391.844999976456","sequential-stimulus-presentation-old","125","284820","0.0-27.0-1.2","SS1618365916341","trial","","40","500","5891.844999976456","images/stimuli/spore_stims/complex_19_A_b.gif","images/stimuli/spore_stims/complex_17_A_a.gif","forced_short","","9","complex_dissimilar","images/stimuli/spore_stims/complex_19_A_b.gif","","","","",""
"","null","html-keyboard-response","126","285699","0.0-27.0-0.3","SS1618365916341","","","null","","","","","","<p><img src= images/blank.png width =""600"" height = ""600"" style=""position:fixed;top:50%; left:50%; transform: translate(-50%, -50%); border:5px solid black"">","","","","","","","",""
"","1118.94499999471","sequential-stimulus-presentation-old","127","287320","0.0-27.0-1.3","SS1618365916341","trial","","40","500","1618.94499999471","images/stimuli/spore_stims/complex_19_A_b.gif","images/stimuli/spore_stims/complex_17_A_a.gif","forced_short","","9","complex_dissimilar","images/stimuli/spore_stims/complex_17_A_a.gif","","","","",""
"","1912.6250000263099","survey-multi-choice","128","289235","0.0-28.0","SS1618365916341","math_question","","","","","","","","","","","","{""Q0"":""12""}","[0]","12","",""
"","null","html-keyboard-response","129","290457","0.0-29.0-0.0","SS1618365916341","","","null","","","","","","<p><img src= images/blank.png width =""600"" height = ""600"" style=""position:fixed;top:50%; left:50%; transform: translate(-50%, -50%); border:5px solid black"">","","","","","","","",""
"","889.2000000050757","sequential-stimulus-presentation-old","130","296526","0.0-29.0-1.0","SS1618365916341","trial","","40","500","1389.2000000050757","images/stimuli/spore_stims/complex_17_A_b.gif","images/stimuli/spore_stims/complex_20_A_a.gif","forced_long","","10","complex_dissimilar","images/stimuli/spore_stims/complex_20_A_a.gif","","","","",""
"","null","html-keyboard-response","131","297555","0.0-29.0-0.1","SS1618365916341","","","null","","","","","","<p><img src= images/blank.png width =""600"" height = ""600"" style=""position:fixed;top:50%; left:50%; transform: translate(-50%, -50%); border:5px solid black"">","","","","","","","",""
"","1224.6400000003632","sequential-stimulus-presentation-old","132","299282","0.0-29.0-1.1","SS1618365916341","trial","","40","500","1724.6400000003632","images/stimuli/spore_stims/complex_17_A_b.gif","images/stimuli/spore_stims/complex_20_A_a.gif","forced_long","","10","complex_dissimilar","images/stimuli/spore_stims/complex_20_A_a.gif","","","","",""
"","null","html-keyboard-response","133","300125","0.0-29.0-0.2","SS1618365916341","","","null","","","","","","<p><img src= images/blank.png width =""600"" height = ""600"" style=""position:fixed;top:50%; left:50%; transform: translate(-50%, -50%); border:5px solid black"">","","","","","","","",""
"","995.7550000108313","sequential-stimulus-presentation-old","134","301623","0.0-29.0-1.2","SS1618365916341","trial","","40","500","1495.7550000108313","images/stimuli/spore_stims/complex_17_A_b.gif","images/stimuli/spore_stims/complex_20_A_a.gif","forced_long","","10","complex_dissimilar","images/stimuli/spore_stims/complex_20_A_a.gif","","","","",""
"","null","html-keyboard-response","135","302663","0.0-29.0-0.3","SS1618365916341","","","null","","","","","","<p><img src= images/blank.png width =""600"" height = ""600"" style=""position:fixed;top:50%; left:50%; transform: translate(-50%, -50%); border:5px solid black"">","","","","","","","",""
"","1870.3050000185613","sequential-stimulus-presentation-old","136","305036","0.0-29.0-1.3","SS1618365916341","trial","","40","500","2370.3050000185613","images/stimuli/spore_stims/complex_17_A_b.gif","images/stimuli/spore_stims/complex_20_A_a.gif","forced_long","","10","complex_dissimilar","images/stimuli/spore_stims/complex_20_A_a.gif","","","","",""
"","null","html-keyboard-response","137","305889","0.0-29.0-0.4","SS1618365916341","","","null","","","","","","<p><img src= images/blank.png width =""600"" height = ""600"" style=""position:fixed;top:50%; left:50%; transform: translate(-50%, -50%); border:5px solid black"">","","","","","","","",""
"","1402.2249999979977","sequential-stimulus-presentation-old","138","307793","0.0-29.0-1.4","SS1618365916341","trial","","40","500","1902.2249999979977","images/stimuli/spore_stims/complex_17_A_b.gif","images/stimuli/spore_stims/complex_20_A_a.gif","forced_long","","10","complex_dissimilar","images/stimuli/spore_stims/complex_17_A_b.gif","","","","",""
"","null","html-keyboard-response","139","308940","0.0-29.0-0.5","SS1618365916341","","","null","","","","","","<p><img src= images/blank.png width =""600"" height = ""600"" style=""position:fixed;top:50%; left:50%; transform: translate(-50%, -50%); border:5px solid black"">","","","","","","","",""
"","850.9100000082981","sequential-stimulus-presentation-old","140","310294","0.0-29.0-1.5","SS1618365916341","trial","","40","500","1350.910000008298","images/stimuli/spore_stims/complex_17_A_b.gif","images/stimuli/spore_stims/complex_20_A_a.gif","forced_long","","10","complex_dissimilar","images/stimuli/spore_stims/complex_20_A_a.gif","","","","",""
"","2311.4800000039395","survey-multi-choice","141","312607","0.0-30.0","SS1618365916341","math_question","","","","","","","","","","","","{""Q0"":""9""}","[0]","9","",""
"","null","html-keyboard-response","142","313572","0.0-31.0-0.0","SS1618365916341","","","null","","","","","","<p><img src= images/blank.png width =""600"" height = ""600"" style=""position:fixed;top:50%; left:50%; transform: translate(-50%, -50%); border:5px solid black"">","","","","","","","",""
"","2943.685000005644","sequential-stimulus-presentation-old","143","317018","0.0-31.0-1.0","SS1618365916341","trial","","40","500","3443.685000005644","images/stimuli/spore_stims/simple_06_A_a.gif","images/stimuli/spore_stims/simple_19_A_b.gif","self_paced","","11","simple_dissimilar","images/stimuli/spore_stims/simple_19_A_b.gif","","","","",""
"","null","html-keyboard-response","144","318085","0.0-31.0-0.1","SS1618365916341","","","null","","","","","","<p><img src= images/blank.png width =""600"" height = ""600"" style=""position:fixed;top:50%; left:50%; transform: translate(-50%, -50%); border:5px solid black"">","","","","","","","",""
"","306.0000000114087","sequential-stimulus-presentation-old","145","318894","0.0-31.0-1.1","SS1618365916341","trial","","40","500","806.0000000114087","images/stimuli/spore_stims/simple_06_A_a.gif","images/stimuli/spore_stims/simple_19_A_b.gif","self_paced","","11","simple_dissimilar","images/stimuli/spore_stims/simple_19_A_b.gif","","","","",""
"","null","html-keyboard-response","146","320000","0.0-31.0-0.2","SS1618365916341","","","null","","","","","","<p><img src= images/blank.png width =""600"" height = ""600"" style=""position:fixed;top:50%; left:50%; transform: translate(-50%, -50%); border:5px solid black"">","","","","","","","",""
"","156.1799999908544","sequential-stimulus-presentation-old","147","320658","0.0-31.0-1.2","SS1618365916341","trial","","40","500","656.1799999908544","images/stimuli/spore_stims/simple_06_A_a.gif","images/stimuli/spore_stims/simple_19_A_b.gif","self_paced","","11","simple_dissimilar","images/stimuli/spore_stims/simple_19_A_b.gif","","","","",""
"","null","html-keyboard-response","148","321646","0.0-31.0-0.3","SS1618365916341","","","null","","","","","","<p><img src= images/blank.png width =""600"" height = ""600"" style=""position:fixed;top:50%; left:50%; transform: translate(-50%, -50%); border:5px solid black"">","","","","","","","",""
"","33873.61500001862","sequential-stimulus-presentation-old","149","356022","0.0-31.0-1.3","SS1618365916341","trial","","40","500","34373.61500001862","images/stimuli/spore_stims/simple_06_A_a.gif","images/stimuli/spore_stims/simple_19_A_b.gif","self_paced","","11","simple_dissimilar","images/stimuli/spore_stims/simple_19_A_b.gif","","","","",""
"","null","html-keyboard-response","150","356929","0.0-31.0-0.4","SS1618365916341","","","null","","","","","","<p><img src= images/blank.png width =""600"" height = ""600"" style=""position:fixed;top:50%; left:50%; transform: translate(-50%, -50%); border:5px solid black"">","","","","","","","",""
"","23725.500000000466","sequential-stimulus-presentation-old","151","381158","0.0-31.0-1.4","SS1618365916341","trial","","40","500","24225.500000000466","images/stimuli/spore_stims/simple_06_A_a.gif","images/stimuli/spore_stims/simple_19_A_b.gif","self_paced","","11","simple_dissimilar","images/stimuli/spore_stims/simple_06_A_a.gif","","","","",""
"","null","html-keyboard-response","152","382335","0.0-31.0-0.5","SS1618365916341","","","null","","","","","","<p><img src= images/blank.png width =""600"" height = ""600"" style=""position:fixed;top:50%; left:50%; transform: translate(-50%, -50%); border:5px solid black"">","","","","","","","",""
"","26175.619999994524","sequential-stimulus-presentation-old","153","409014","0.0-31.0-1.5","SS1618365916341","trial","","40","500","26675.619999994524","images/stimuli/spore_stims/simple_06_A_a.gif","images/stimuli/spore_stims/simple_19_A_b.gif","self_paced","","11","simple_dissimilar","images/stimuli/spore_stims/simple_19_A_b.gif","","","","",""
"[{""page_index"":0,""viewing_time"":94359.94500000379}]","94360.16500002006","instructions","154","503375","0.0-32.0","SS1618365916341","instructions","","","","","","","","","","","","","","","",""
"","7181.595000001835","survey-likert","155","510560","0.0-33.0","SS1618365916341","similarity_question","","","","","","","","","","","","{""Q0"":6}","[0]","","images/stimuli/spore_stims/complex_20_A_b.gif","images/stimuli/spore_stims/complex_09_A_a.gif"
"","5873.210000019753","survey-likert","156","516436","0.0-34.0","SS1618365916341","similarity_question","","","","","","","","","","","","{""Q0"":6}","[0]","","images/stimuli/spore_stims/simple_09_A_a.gif","images/stimuli/spore_stims/simple_12_A_b.gif"
"","10814.954999979818","survey-likert","157","527254","0.0-35.0","SS1618365916341","similarity_question","","","","","","","","","","","","{""Q0"":5}","[0]","","images/stimuli/spore_stims/simple_03_A_a.gif","images/stimuli/spore_stims/simple_18_A_b.gif"
"","3684.8949999839533","survey-likert","158","530941","0.0-36.0","SS1618365916341","similarity_question","","","","","","","","","","","","{""Q0"":0}","[0]","","images/stimuli/spore_stims/simple_11_A_b.gif","images/stimuli/spore_stims/simple_01_A_a.gif"
"","5617.129999998724","survey-likert","159","536560","0.0-37.0","SS1618365916341","similarity_question","","","","","","","","","","","","{""Q0"":4}","[0]","","images/stimuli/spore_stims/simple_17_A_b.gif","images/stimuli/spore_stims/simple_18_A_a.gif"
"","22382.114999985788","survey-likert","160","558945","0.0-38.0","SS1618365916341","similarity_question","","","","","","","","","","","","{""Q0"":2}","[0]","","images/stimuli/spore_stims/complex_19_A_b.gif","images/stimuli/spore_stims/complex_17_A_a.gif"
"","1752.905000001192","survey-likert","161","560700","0.0-39.0","SS1618365916341","similarity_question","","","","","","","","","","","","{""Q0"":4}","[0]","","images/stimuli/spore_stims/simple_19_A_b.gif","images/stimuli/spore_stims/simple_06_A_a.gif"
"","34996.48000000161","survey-likert","162","595699","0.0-40.0","SS1618365916341","similarity_question","","","","","","","","","","","","{""Q0"":0}","[0]","","images/stimuli/spore_stims/complex_05_A_b.gif","images/stimuli/spore_stims/complex_18_A_a.gif"
"","2106.1099999933504","survey-likert","163","597808","0.0-41.0","SS1618365916341","similarity_question","","","","","","","","","","","","{""Q0"":0}","[0]","","images/stimuli/spore_stims/complex_01_A_b.gif","images/stimuli/spore_stims/complex_04_A_a.gif"
"","4137.664999987464","survey-likert","164","601948","0.0-42.0","SS1618365916341","similarity_question","","","","","","","","","","","","{""Q0"":4}","[0]","","images/stimuli/spore_stims/simple_14_A_a.gif","images/stimuli/spore_stims/simple_09_A_b.gif"
"","16932.215000008","survey-likert","165","618884","0.0-43.0","SS1618365916341","similarity_question","","","","","","","","","","","","{""Q0"":1}","[0]","","images/stimuli/spore_stims/complex_10_A_a.gif","images/stimuli/spore_stims/complex_09_A_b.gif"
"","12569.974999991246","survey-likert","166","631457","0.0-44.0","SS1618365916341","similarity_question","","","","","","","","","","","","{""Q0"":6}","[0]","","images/stimuli/spore_stims/complex_17_A_b.gif","images/stimuli/spore_stims/complex_20_A_a.gif"
"[{""page_index"":0,""viewing_time"":23989.61000001873}]","23989.845000003697","instructions","167","655449","0.0-45.0","SS1618365916341","instructions","","","","","","","","","","","","","","","",""
"","3460.959999996703","survey-likert","168","658912","0.0-46.0","SS1618365916341","","","","","","","","","images/stimuli/spore_stims/complex_17_A_a.gif","","","","{""Q0"":6}","[0]","","",""
"","3007.805000001099","survey-likert","169","661923","0.0-47.0","SS1618365916341","","","","","","","","","images/stimuli/spore_stims/complex_05_A_b.gif","","","","{""Q0"":4}","[0]","","",""
"","2034.5800000068266","survey-likert","170","663960","0.0-48.0","SS1618365916341","","","","","","","","","images/stimuli/spore_stims/complex_10_A_a.gif","","","","{""Q0"":4}","[0]","","",""
"","1376.4950000040699","survey-likert","171","665339","0.0-49.0","SS1618365916341","","","","","","","","","images/stimuli/spore_stims/complex_17_A_b.gif","","","","{""Q0"":6}","[0]","","",""
"","16180.605000001378","survey-likert","172","681522","0.0-50.0","SS1618365916341","","","","","","","","","images/stimuli/spore_stims/simple_19_A_b.gif","","","","{""Q0"":1}","[0]","","",""
"","4331.980000017211","survey-likert","173","685857","0.0-51.0","SS1618365916341","","","","","","","","","images/stimuli/spore_stims/simple_01_A_a.gif","","","","{""Q0"":3}","[0]","","",""
"","3680.6550000037532","survey-likert","174","689540","0.0-52.0","SS1618365916341","","","","","","","","","images/stimuli/spore_stims/simple_09_A_a.gif","","","","{""Q0"":0}","[0]","","",""
"","3310.575000010431","survey-likert","175","692854","0.0-53.0","SS1618365916341","","","","","","","","","images/stimuli/spore_stims/complex_01_A_b.gif","","","","{""Q0"":6}","[0]","","",""
"","3901.960000017425","survey-likert","176","696758","0.0-54.0","SS1618365916341","","","","","","","","","images/stimuli/spore_stims/simple_09_A_b.gif","","","","{""Q0"":0}","[0]","","",""
"","6712.715000001481","survey-likert","177","703474","0.0-55.0","SS1618365916341","","","","","","","","","images/stimuli/spore_stims/complex_09_A_a.gif","","","","{""Q0"":2}","[0]","","",""
"","5024.915000016335","survey-likert","178","708502","0.0-56.0","SS1618365916341","","","","","","","","","images/stimuli/spore_stims/simple_18_A_b.gif","","","","{""Q0"":1}","[0]","","",""
"","5216.714999987744","survey-likert","179","713721","0.0-57.0","SS1618365916341","","","","","","","","","images/stimuli/spore_stims/simple_18_A_a.gif","","","","{""Q0"":6}","[0]","","",""
"[{""page_index"":0,""viewing_time"":943.8350000127684}]","944.1600000136532","instructions","180","714667","0.0-58.0","SS1618365916341","instructions","","","","","","","","","","","","","","","",""
"","2836.2099999794737","demog-age","181","717508","0.0-59.0","SS1618365916341","","","","","","","","","","","","","{""age"":""27""}","","","",""
"","5994.490000011865","demog-ethnic-US","182","723506","0.0-60.0","SS1618365916341","","","","","","","","","","","","","{""ethnicity"":[""Other""]}","[0]","","",""
"","11216.595000005327","demog-gender-and-education","183","734725","0.0-61.0","SS1618365916341","","","","","","","","","","","","","{""gender"":""Male"",""education"":""Bachelor's Degree""}","[0,1]","","",""
"","38999.374999984866","survey-text","184","773728","0.0-62.0","SS1618365916341","feedback","","","","","","","","","","","","{""Q0"":""the animationds were a little laggy""}","","","",""
"[{""page_index"":0,""viewing_time"":1074.7149999951944}]","1074.9500000092667","instructions","185","774805","0.0-63.0","SS1618365916341","instructions","","","","","","","","","","","","","","","",""
