"view_history","rt","trial_type","trial_index","time_elapsed","internal_node_id","subject","stimulus_type","trial_stimulus","key_press","minimum_viewing_duration","trial_looking_time","block_deviant","block_background","exposure_type","stimulus","block_number","block_type","stimulus_displayed","responses","question_order","math_correct_answer","stimulus_left","stimulus_right"
"[{""page_index"":0,""viewing_time"":1461}]","1462","instructions","0","1467","0.0-0.0","SS1618365352220","","","","","","","","","","","","","","","","",""
"[{""page_index"":0,""viewing_time"":7082},{""page_index"":1,""viewing_time"":4007}]","11090","instructions","1","14561","0.0-1.0","SS1618365352220","instructions","","","","","","","","","","","","","","","",""
"","9779","sequential-stimulus-presentation-old","2","24851","0.0-2.0","SS1618365352220","","","40","500","10279","null","null","self_paced","","","","","","","","",""
"","2308","sequential-stimulus-presentation-old","3","27675","0.0-3.0","SS1618365352220","","","40","500","2808","null","null","self_paced","","","","","","","","",""
"[{""page_index"":0,""viewing_time"":20055}]","20056","instructions","4","47731","0.0-4.0","SS1618365352220","instructions","","","","","","","","","","","","","","","",""
"","1270","sequential-stimulus-presentation-old","5","54003","0.0-5.0","SS1618365352220","","","40","500","1770","null","null","forced_long","","","","","","","","",""
"","2147","sequential-stimulus-presentation-old","6","56211","0.0-6.0","SS1618365352220","","","40","50","2197","null","null","forced_long","","","","","","","","",""
"[{""page_index"":0,""viewing_time"":2083}]","2083","instructions","7","58293","0.0-7.0","SS1618365352220","instructions","","","","","","","","","","","","","","","",""
"[{""page_index"":0,""viewing_time"":3476},{""page_index"":1,""viewing_time"":4919},{""page_index"":2,""viewing_time"":1778},{""page_index"":3,""viewing_time"":1352},{""page_index"":4,""viewing_time"":1230}]","12755","instructions","8","71050","0.0-8.0","SS1618365352220","instructions","","","","","","","","","","","","","","","",""
"","null","html-keyboard-response","9","72135","0.0-9.0-0.0","SS1618365352220","","","null","","","","","","<p><img src= images/blank.png width =""600"" height = ""600"" style=""position:fixed;top:50%; left:50%; transform: translate(-50%, -50%); border:5px solid black"">","","","","","","","",""
"","7564","sequential-stimulus-presentation-old","10","80210","0.0-9.0-1.0","SS1618365352220","trial","","40","500","8064","images/stimuli/spore_stims/simple_09_A_b.gif","images/stimuli/spore_stims/simple_04_A_a.gif","self_paced","","0","simple_dissimilar","images/stimuli/spore_stims/simple_04_A_a.gif","","","","",""
"","null","html-keyboard-response","11","81351","0.0-9.0-0.1","SS1618365352220","","","null","","","","","","<p><img src= images/blank.png width =""600"" height = ""600"" style=""position:fixed;top:50%; left:50%; transform: translate(-50%, -50%); border:5px solid black"">","","","","","","","",""
"","1501","sequential-stimulus-presentation-old","12","83364","0.0-9.0-1.1","SS1618365352220","trial","","40","500","2001","images/stimuli/spore_stims/simple_09_A_b.gif","images/stimuli/spore_stims/simple_04_A_a.gif","self_paced","","0","simple_dissimilar","images/stimuli/spore_stims/simple_04_A_a.gif","","","","",""
"","null","html-keyboard-response","13","84651","0.0-9.0-0.2","SS1618365352220","","","null","","","","","","<p><img src= images/blank.png width =""600"" height = ""600"" style=""position:fixed;top:50%; left:50%; transform: translate(-50%, -50%); border:5px solid black"">","","","","","","","",""
"","4881","sequential-stimulus-presentation-old","14","90035","0.0-9.0-1.2","SS1618365352220","trial","","40","500","5381","images/stimuli/spore_stims/simple_09_A_b.gif","images/stimuli/spore_stims/simple_04_A_a.gif","self_paced","","0","simple_dissimilar","images/stimuli/spore_stims/simple_04_A_a.gif","","","","",""
"","null","html-keyboard-response","15","91055","0.0-9.0-0.3","SS1618365352220","","","null","","","","","","<p><img src= images/blank.png width =""600"" height = ""600"" style=""position:fixed;top:50%; left:50%; transform: translate(-50%, -50%); border:5px solid black"">","","","","","","","",""
"","13444","sequential-stimulus-presentation-old","16","105011","0.0-9.0-1.3","SS1618365352220","trial","","40","500","13944","images/stimuli/spore_stims/simple_09_A_b.gif","images/stimuli/spore_stims/simple_04_A_a.gif","self_paced","","0","simple_dissimilar","images/stimuli/spore_stims/simple_04_A_a.gif","","","","",""
"","null","html-keyboard-response","17","106089","0.0-9.0-0.4","SS1618365352220","","","null","","","","","","<p><img src= images/blank.png width =""600"" height = ""600"" style=""position:fixed;top:50%; left:50%; transform: translate(-50%, -50%); border:5px solid black"">","","","","","","","",""
"","37781","sequential-stimulus-presentation-old","18","144379","0.0-9.0-1.4","SS1618365352220","trial","","40","500","38281","images/stimuli/spore_stims/simple_09_A_b.gif","images/stimuli/spore_stims/simple_04_A_a.gif","self_paced","","0","simple_dissimilar","images/stimuli/spore_stims/simple_04_A_a.gif","","","","",""
"","null","html-keyboard-response","19","145650","0.0-9.0-0.5","SS1618365352220","","","null","","","","","","<p><img src= images/blank.png width =""600"" height = ""600"" style=""position:fixed;top:50%; left:50%; transform: translate(-50%, -50%); border:5px solid black"">","","","","","","","",""
"","2577","sequential-stimulus-presentation-old","20","148740","0.0-9.0-1.5","SS1618365352220","trial","","40","500","3077","images/stimuli/spore_stims/simple_09_A_b.gif","images/stimuli/spore_stims/simple_04_A_a.gif","self_paced","","0","simple_dissimilar","images/stimuli/spore_stims/simple_04_A_a.gif","","","","",""
"","4567","survey-multi-choice","21","153310","0.0-10.0","SS1618365352220","math_question","","","","","","","","","","","","{""Q0"":""14""}","[0]","14","",""
"","null","html-keyboard-response","22","154212","0.0-11.0-0.0","SS1618365352220","","","null","","","","","","<p><img src= images/blank.png width =""600"" height = ""600"" style=""position:fixed;top:50%; left:50%; transform: translate(-50%, -50%); border:5px solid black"">","","","","","","","",""
"","3414","sequential-stimulus-presentation-old","23","158131","0.0-11.0-1.0","SS1618365352220","trial","","40","500","3914","images/stimuli/spore_stims/complex_11_A_b.gif","images/stimuli/spore_stims/complex_05_A_a.gif","self_paced","","1","complex_dissimilar","images/stimuli/spore_stims/complex_05_A_a.gif","","","","",""
"","null","html-keyboard-response","24","159291","0.0-11.0-0.1","SS1618365352220","","","null","","","","","","<p><img src= images/blank.png width =""600"" height = ""600"" style=""position:fixed;top:50%; left:50%; transform: translate(-50%, -50%); border:5px solid black"">","","","","","","","",""
"","2514","sequential-stimulus-presentation-old","25","162315","0.0-11.0-1.1","SS1618365352220","trial","","40","500","3014","images/stimuli/spore_stims/complex_11_A_b.gif","images/stimuli/spore_stims/complex_05_A_a.gif","self_paced","","1","complex_dissimilar","images/stimuli/spore_stims/complex_11_A_b.gif","","","","",""
"","null","html-keyboard-response","26","163240","0.0-11.0-0.2","SS1618365352220","","","null","","","","","","<p><img src= images/blank.png width =""600"" height = ""600"" style=""position:fixed;top:50%; left:50%; transform: translate(-50%, -50%); border:5px solid black"">","","","","","","","",""
"","1276","sequential-stimulus-presentation-old","27","165026","0.0-11.0-1.2","SS1618365352220","trial","","40","500","1776","images/stimuli/spore_stims/complex_11_A_b.gif","images/stimuli/spore_stims/complex_05_A_a.gif","self_paced","","1","complex_dissimilar","images/stimuli/spore_stims/complex_05_A_a.gif","","","","",""
"","null","html-keyboard-response","28","165959","0.0-11.0-0.3","SS1618365352220","","","null","","","","","","<p><img src= images/blank.png width =""600"" height = ""600"" style=""position:fixed;top:50%; left:50%; transform: translate(-50%, -50%); border:5px solid black"">","","","","","","","",""
"","1532","sequential-stimulus-presentation-old","29","168002","0.0-11.0-1.3","SS1618365352220","trial","","40","500","2032","images/stimuli/spore_stims/complex_11_A_b.gif","images/stimuli/spore_stims/complex_05_A_a.gif","self_paced","","1","complex_dissimilar","images/stimuli/spore_stims/complex_05_A_a.gif","","","","",""
"","null","html-keyboard-response","30","169010","0.0-11.0-0.4","SS1618365352220","","","null","","","","","","<p><img src= images/blank.png width =""600"" height = ""600"" style=""position:fixed;top:50%; left:50%; transform: translate(-50%, -50%); border:5px solid black"">","","","","","","","",""
"","846","sequential-stimulus-presentation-old","31","170371","0.0-11.0-1.4","SS1618365352220","trial","","40","500","1346","images/stimuli/spore_stims/complex_11_A_b.gif","images/stimuli/spore_stims/complex_05_A_a.gif","self_paced","","1","complex_dissimilar","images/stimuli/spore_stims/complex_05_A_a.gif","","","","",""
"","null","html-keyboard-response","32","171380","0.0-11.0-0.5","SS1618365352220","","","null","","","","","","<p><img src= images/blank.png width =""600"" height = ""600"" style=""position:fixed;top:50%; left:50%; transform: translate(-50%, -50%); border:5px solid black"">","","","","","","","",""
"","1141","sequential-stimulus-presentation-old","33","173034","0.0-11.0-1.5","SS1618365352220","trial","","40","500","1641","images/stimuli/spore_stims/complex_11_A_b.gif","images/stimuli/spore_stims/complex_05_A_a.gif","self_paced","","1","complex_dissimilar","images/stimuli/spore_stims/complex_11_A_b.gif","","","","",""
"","3378","survey-multi-choice","34","176413","0.0-12.0","SS1618365352220","math_question","","","","","","","","","","","","{""Q0"":""9""}","[0]","9","",""
"","null","html-keyboard-response","35","177448","0.0-13.0-0.0","SS1618365352220","","","null","","","","","","<p><img src= images/blank.png width =""600"" height = ""600"" style=""position:fixed;top:50%; left:50%; transform: translate(-50%, -50%); border:5px solid black"">","","","","","","","",""
"","4246","sequential-stimulus-presentation-old","36","181746","0.0-13.0-1.0","SS1618365352220","trial","","40","500","4746","images/stimuli/spore_stims/complex_19_A_a.gif","images/stimuli/spore_stims/complex_15_A_b.gif","forced_short","","2","complex_dissimilar","images/stimuli/spore_stims/complex_15_A_b.gif","","","","",""
"","null","html-keyboard-response","37","182658","0.0-13.0-0.1","SS1618365352220","","","null","","","","","","<p><img src= images/blank.png width =""600"" height = ""600"" style=""position:fixed;top:50%; left:50%; transform: translate(-50%, -50%); border:5px solid black"">","","","","","","","",""
"","5010","sequential-stimulus-presentation-old","38","188178","0.0-13.0-1.1","SS1618365352220","trial","","40","500","5510","images/stimuli/spore_stims/complex_19_A_a.gif","images/stimuli/spore_stims/complex_15_A_b.gif","forced_short","","2","complex_dissimilar","images/stimuli/spore_stims/complex_19_A_a.gif","","","","",""
"","null","html-keyboard-response","39","189093","0.0-13.0-0.2","SS1618365352220","","","null","","","","","","<p><img src= images/blank.png width =""600"" height = ""600"" style=""position:fixed;top:50%; left:50%; transform: translate(-50%, -50%); border:5px solid black"">","","","","","","","",""
"","4128","sequential-stimulus-presentation-old","40","193730","0.0-13.0-1.2","SS1618365352220","trial","","40","500","4628","images/stimuli/spore_stims/complex_19_A_a.gif","images/stimuli/spore_stims/complex_15_A_b.gif","forced_short","","2","complex_dissimilar","images/stimuli/spore_stims/complex_15_A_b.gif","","","","",""
"","null","html-keyboard-response","41","194581","0.0-13.0-0.3","SS1618365352220","","","null","","","","","","<p><img src= images/blank.png width =""600"" height = ""600"" style=""position:fixed;top:50%; left:50%; transform: translate(-50%, -50%); border:5px solid black"">","","","","","","","",""
"","305","sequential-stimulus-presentation-old","42","195394","0.0-13.0-1.3","SS1618365352220","trial","","40","500","805","images/stimuli/spore_stims/complex_19_A_a.gif","images/stimuli/spore_stims/complex_15_A_b.gif","forced_short","","2","complex_dissimilar","images/stimuli/spore_stims/complex_15_A_b.gif","","","","",""
"","9692","survey-multi-choice","43","205088","0.0-14.0","SS1618365352220","math_question","","","","","","","","","","","","{""Q0"":""14""}","[0]","14","",""
"","null","html-keyboard-response","44","206398","0.0-15.0-0.0","SS1618365352220","","","null","","","","","","<p><img src= images/blank.png width =""600"" height = ""600"" style=""position:fixed;top:50%; left:50%; transform: translate(-50%, -50%); border:5px solid black"">","","","","","","","",""
"","3294","sequential-stimulus-presentation-old","45","209755","0.0-15.0-1.0","SS1618365352220","trial","","40","500","3794","images/stimuli/spore_stims/complex_08_A_a.gif","images/stimuli/spore_stims/complex_06_A_b.gif","forced_short","","3","complex_dissimilar","images/stimuli/spore_stims/complex_06_A_b.gif","","","","",""
"","null","html-keyboard-response","46","210841","0.0-15.0-0.1","SS1618365352220","","","null","","","","","","<p><img src= images/blank.png width =""600"" height = ""600"" style=""position:fixed;top:50%; left:50%; transform: translate(-50%, -50%); border:5px solid black"">","","","","","","","",""
"","1694","sequential-stimulus-presentation-old","47","213042","0.0-15.0-1.1","SS1618365352220","trial","","40","500","2194","images/stimuli/spore_stims/complex_08_A_a.gif","images/stimuli/spore_stims/complex_06_A_b.gif","forced_short","","3","complex_dissimilar","images/stimuli/spore_stims/complex_08_A_a.gif","","","","",""
"","null","html-keyboard-response","48","214043","0.0-15.0-0.2","SS1618365352220","","","null","","","","","","<p><img src= images/blank.png width =""600"" height = ""600"" style=""position:fixed;top:50%; left:50%; transform: translate(-50%, -50%); border:5px solid black"">","","","","","","","",""
"","2169","sequential-stimulus-presentation-old","49","216722","0.0-15.0-1.2","SS1618365352220","trial","","40","500","2669","images/stimuli/spore_stims/complex_08_A_a.gif","images/stimuli/spore_stims/complex_06_A_b.gif","forced_short","","3","complex_dissimilar","images/stimuli/spore_stims/complex_06_A_b.gif","","","","",""
"","null","html-keyboard-response","50","217964","0.0-15.0-0.3","SS1618365352220","","","null","","","","","","<p><img src= images/blank.png width =""600"" height = ""600"" style=""position:fixed;top:50%; left:50%; transform: translate(-50%, -50%); border:5px solid black"">","","","","","","","",""
"","879","sequential-stimulus-presentation-old","51","219354","0.0-15.0-1.3","SS1618365352220","trial","","40","500","1379","images/stimuli/spore_stims/complex_08_A_a.gif","images/stimuli/spore_stims/complex_06_A_b.gif","forced_short","","3","complex_dissimilar","images/stimuli/spore_stims/complex_06_A_b.gif","","","","",""
"","4846","survey-multi-choice","52","224203","0.0-16.0","SS1618365352220","math_question","","","","","","","","","","","","{""Q0"":""13""}","[0]","13","",""
"","null","html-keyboard-response","53","225184","0.0-17.0-0.0","SS1618365352220","","","null","","","","","","<p><img src= images/blank.png width =""600"" height = ""600"" style=""position:fixed;top:50%; left:50%; transform: translate(-50%, -50%); border:5px solid black"">","","","","","","","",""
"","1292","sequential-stimulus-presentation-old","54","231483","0.0-17.0-1.0","SS1618365352220","trial","","40","500","1792","images/stimuli/spore_stims/simple_02_A_a.gif","images/stimuli/spore_stims/simple_20_A_b.gif","forced_long","","4","simple_dissimilar","images/stimuli/spore_stims/simple_20_A_b.gif","","","","",""
"","null","html-keyboard-response","55","232391","0.0-17.0-0.1","SS1618365352220","","","null","","","","","","<p><img src= images/blank.png width =""600"" height = ""600"" style=""position:fixed;top:50%; left:50%; transform: translate(-50%, -50%); border:5px solid black"">","","","","","","","",""
"","1657","sequential-stimulus-presentation-old","56","234562","0.0-17.0-1.1","SS1618365352220","trial","","40","500","2157","images/stimuli/spore_stims/simple_02_A_a.gif","images/stimuli/spore_stims/simple_20_A_b.gif","forced_long","","4","simple_dissimilar","images/stimuli/spore_stims/simple_02_A_a.gif","","","","",""
"","null","html-keyboard-response","57","235811","0.0-17.0-0.2","SS1618365352220","","","null","","","","","","<p><img src= images/blank.png width =""600"" height = ""600"" style=""position:fixed;top:50%; left:50%; transform: translate(-50%, -50%); border:5px solid black"">","","","","","","","",""
"","735","sequential-stimulus-presentation-old","58","237050","0.0-17.0-1.2","SS1618365352220","trial","","40","500","1235","images/stimuli/spore_stims/simple_02_A_a.gif","images/stimuli/spore_stims/simple_20_A_b.gif","forced_long","","4","simple_dissimilar","images/stimuli/spore_stims/simple_20_A_b.gif","","","","",""
"","null","html-keyboard-response","59","238247","0.0-17.0-0.3","SS1618365352220","","","null","","","","","","<p><img src= images/blank.png width =""600"" height = ""600"" style=""position:fixed;top:50%; left:50%; transform: translate(-50%, -50%); border:5px solid black"">","","","","","","","",""
"","419","sequential-stimulus-presentation-old","60","239178","0.0-17.0-1.3","SS1618365352220","trial","","40","500","919","images/stimuli/spore_stims/simple_02_A_a.gif","images/stimuli/spore_stims/simple_20_A_b.gif","forced_long","","4","simple_dissimilar","images/stimuli/spore_stims/simple_20_A_b.gif","","","","",""
"","null","html-keyboard-response","61","240156","0.0-17.0-0.4","SS1618365352220","","","null","","","","","","<p><img src= images/blank.png width =""600"" height = ""600"" style=""position:fixed;top:50%; left:50%; transform: translate(-50%, -50%); border:5px solid black"">","","","","","","","",""
"","1295","sequential-stimulus-presentation-old","62","241963","0.0-17.0-1.4","SS1618365352220","trial","","40","500","1795","images/stimuli/spore_stims/simple_02_A_a.gif","images/stimuli/spore_stims/simple_20_A_b.gif","forced_long","","4","simple_dissimilar","images/stimuli/spore_stims/simple_20_A_b.gif","","","","",""
"","null","html-keyboard-response","63","243210","0.0-17.0-0.5","SS1618365352220","","","null","","","","","","<p><img src= images/blank.png width =""600"" height = ""600"" style=""position:fixed;top:50%; left:50%; transform: translate(-50%, -50%); border:5px solid black"">","","","","","","","",""
"","11","sequential-stimulus-presentation-old","64","243730","0.0-17.0-1.5","SS1618365352220","trial","","40","500","511","images/stimuli/spore_stims/simple_02_A_a.gif","images/stimuli/spore_stims/simple_20_A_b.gif","forced_long","","4","simple_dissimilar","images/stimuli/spore_stims/simple_02_A_a.gif","","","","",""
"","2745","survey-multi-choice","65","246477","0.0-18.0","SS1618365352220","math_question","","","","","","","","","","","","{""Q0"":""12""}","[0]","12","",""
"","null","html-keyboard-response","66","247378","0.0-19.0-0.0","SS1618365352220","","","null","","","","","","<p><img src= images/blank.png width =""600"" height = ""600"" style=""position:fixed;top:50%; left:50%; transform: translate(-50%, -50%); border:5px solid black"">","","","","","","","",""
"","1614","sequential-stimulus-presentation-old","67","249498","0.0-19.0-1.0","SS1618365352220","trial","","40","500","2114","images/stimuli/spore_stims/complex_01_A_a.gif","images/stimuli/spore_stims/complex_17_A_b.gif","self_paced","","5","complex_dissimilar","images/stimuli/spore_stims/complex_17_A_b.gif","","","","",""
"","null","html-keyboard-response","68","250714","0.0-19.0-0.1","SS1618365352220","","","null","","","","","","<p><img src= images/blank.png width =""600"" height = ""600"" style=""position:fixed;top:50%; left:50%; transform: translate(-50%, -50%); border:5px solid black"">","","","","","","","",""
"","815","sequential-stimulus-presentation-old","69","252042","0.0-19.0-1.1","SS1618365352220","trial","","40","500","1315","images/stimuli/spore_stims/complex_01_A_a.gif","images/stimuli/spore_stims/complex_17_A_b.gif","self_paced","","5","complex_dissimilar","images/stimuli/spore_stims/complex_17_A_b.gif","","","","",""
"","null","html-keyboard-response","70","253240","0.0-19.0-0.2","SS1618365352220","","","null","","","","","","<p><img src= images/blank.png width =""600"" height = ""600"" style=""position:fixed;top:50%; left:50%; transform: translate(-50%, -50%); border:5px solid black"">","","","","","","","",""
"","1596","sequential-stimulus-presentation-old","71","255347","0.0-19.0-1.2","SS1618365352220","trial","","40","500","2096","images/stimuli/spore_stims/complex_01_A_a.gif","images/stimuli/spore_stims/complex_17_A_b.gif","self_paced","","5","complex_dissimilar","images/stimuli/spore_stims/complex_01_A_a.gif","","","","",""
"","null","html-keyboard-response","72","256276","0.0-19.0-0.3","SS1618365352220","","","null","","","","","","<p><img src= images/blank.png width =""600"" height = ""600"" style=""position:fixed;top:50%; left:50%; transform: translate(-50%, -50%); border:5px solid black"">","","","","","","","",""
"","180","sequential-stimulus-presentation-old","73","256970","0.0-19.0-1.3","SS1618365352220","trial","","40","500","680","images/stimuli/spore_stims/complex_01_A_a.gif","images/stimuli/spore_stims/complex_17_A_b.gif","self_paced","","5","complex_dissimilar","images/stimuli/spore_stims/complex_01_A_a.gif","","","","",""
"","2731","survey-multi-choice","74","259704","0.0-20.0","SS1618365352220","math_question","","","","","","","","","","","","{""Q0"":""9""}","[0]","9","",""
"","null","html-keyboard-response","75","260953","0.0-21.0-0.0","SS1618365352220","","","null","","","","","","<p><img src= images/blank.png width =""600"" height = ""600"" style=""position:fixed;top:50%; left:50%; transform: translate(-50%, -50%); border:5px solid black"">","","","","","","","",""
"","1173","sequential-stimulus-presentation-old","76","262634","0.0-21.0-1.0","SS1618365352220","trial","","40","500","1673","images/stimuli/spore_stims/simple_17_A_b.gif","images/stimuli/spore_stims/simple_11_A_a.gif","self_paced","","6","simple_dissimilar","images/stimuli/spore_stims/simple_11_A_a.gif","","","","",""
"","null","html-keyboard-response","77","263717","0.0-21.0-0.1","SS1618365352220","","","null","","","","","","<p><img src= images/blank.png width =""600"" height = ""600"" style=""position:fixed;top:50%; left:50%; transform: translate(-50%, -50%); border:5px solid black"">","","","","","","","",""
"","780","sequential-stimulus-presentation-old","78","265010","0.0-21.0-1.1","SS1618365352220","trial","","40","500","1280","images/stimuli/spore_stims/simple_17_A_b.gif","images/stimuli/spore_stims/simple_11_A_a.gif","self_paced","","6","simple_dissimilar","images/stimuli/spore_stims/simple_11_A_a.gif","","","","",""
"","null","html-keyboard-response","79","266198","0.0-21.0-0.2","SS1618365352220","","","null","","","","","","<p><img src= images/blank.png width =""600"" height = ""600"" style=""position:fixed;top:50%; left:50%; transform: translate(-50%, -50%); border:5px solid black"">","","","","","","","",""
"","275","sequential-stimulus-presentation-old","80","266986","0.0-21.0-1.2","SS1618365352220","trial","","40","500","775","images/stimuli/spore_stims/simple_17_A_b.gif","images/stimuli/spore_stims/simple_11_A_a.gif","self_paced","","6","simple_dissimilar","images/stimuli/spore_stims/simple_11_A_a.gif","","","","",""
"","null","html-keyboard-response","81","268139","0.0-21.0-0.3","SS1618365352220","","","null","","","","","","<p><img src= images/blank.png width =""600"" height = ""600"" style=""position:fixed;top:50%; left:50%; transform: translate(-50%, -50%); border:5px solid black"">","","","","","","","",""
"","390","sequential-stimulus-presentation-old","82","269042","0.0-21.0-1.3","SS1618365352220","trial","","40","500","890","images/stimuli/spore_stims/simple_17_A_b.gif","images/stimuli/spore_stims/simple_11_A_a.gif","self_paced","","6","simple_dissimilar","images/stimuli/spore_stims/simple_11_A_a.gif","","","","",""
"","null","html-keyboard-response","83","270217","0.0-21.0-0.4","SS1618365352220","","","null","","","","","","<p><img src= images/blank.png width =""600"" height = ""600"" style=""position:fixed;top:50%; left:50%; transform: translate(-50%, -50%); border:5px solid black"">","","","","","","","",""
"","32","sequential-stimulus-presentation-old","84","270763","0.0-21.0-1.4","SS1618365352220","trial","","40","500","532","images/stimuli/spore_stims/simple_17_A_b.gif","images/stimuli/spore_stims/simple_11_A_a.gif","self_paced","","6","simple_dissimilar","images/stimuli/spore_stims/simple_11_A_a.gif","","","","",""
"","6260","survey-multi-choice","85","277025","0.0-22.0","SS1618365352220","math_question","","","","","","","","","","","","{""Q0"":""12""}","[0]","12","",""
"","null","html-keyboard-response","86","278285","0.0-23.0-0.0","SS1618365352220","","","null","","","","","","<p><img src= images/blank.png width =""600"" height = ""600"" style=""position:fixed;top:50%; left:50%; transform: translate(-50%, -50%); border:5px solid black"">","","","","","","","",""
"","1105","sequential-stimulus-presentation-old","87","284402","0.0-23.0-1.0","SS1618365352220","trial","","40","500","1605","images/stimuli/spore_stims/complex_20_A_b.gif","images/stimuli/spore_stims/complex_09_A_a.gif","forced_long","","7","complex_dissimilar","images/stimuli/spore_stims/complex_09_A_a.gif","","","","",""
"","null","html-keyboard-response","88","285532","0.0-23.0-0.1","SS1618365352220","","","null","","","","","","<p><img src= images/blank.png width =""600"" height = ""600"" style=""position:fixed;top:50%; left:50%; transform: translate(-50%, -50%); border:5px solid black"">","","","","","","","",""
"","390","sequential-stimulus-presentation-old","89","286434","0.0-23.0-1.1","SS1618365352220","trial","","40","500","890","images/stimuli/spore_stims/complex_20_A_b.gif","images/stimuli/spore_stims/complex_09_A_a.gif","forced_long","","7","complex_dissimilar","images/stimuli/spore_stims/complex_09_A_a.gif","","","","",""
"","null","html-keyboard-response","90","287414","0.0-23.0-0.2","SS1618365352220","","","null","","","","","","<p><img src= images/blank.png width =""600"" height = ""600"" style=""position:fixed;top:50%; left:50%; transform: translate(-50%, -50%); border:5px solid black"">","","","","","","","",""
"","2869","sequential-stimulus-presentation-old","91","290794","0.0-23.0-1.2","SS1618365352220","trial","","40","500","3369","images/stimuli/spore_stims/complex_20_A_b.gif","images/stimuli/spore_stims/complex_09_A_a.gif","forced_long","","7","complex_dissimilar","images/stimuli/spore_stims/complex_20_A_b.gif","","","","",""
"","null","html-keyboard-response","92","292067","0.0-23.0-0.3","SS1618365352220","","","null","","","","","","<p><img src= images/blank.png width =""600"" height = ""600"" style=""position:fixed;top:50%; left:50%; transform: translate(-50%, -50%); border:5px solid black"">","","","","","","","",""
"","1515","sequential-stimulus-presentation-old","93","294091","0.0-23.0-1.3","SS1618365352220","trial","","40","500","2015","images/stimuli/spore_stims/complex_20_A_b.gif","images/stimuli/spore_stims/complex_09_A_a.gif","forced_long","","7","complex_dissimilar","images/stimuli/spore_stims/complex_09_A_a.gif","","","","",""
"","null","html-keyboard-response","94","294917","0.0-23.0-0.4","SS1618365352220","","","null","","","","","","<p><img src= images/blank.png width =""600"" height = ""600"" style=""position:fixed;top:50%; left:50%; transform: translate(-50%, -50%); border:5px solid black"">","","","","","","","",""
"","1037","sequential-stimulus-presentation-old","95","296466","0.0-23.0-1.4","SS1618365352220","trial","","40","500","1537","images/stimuli/spore_stims/complex_20_A_b.gif","images/stimuli/spore_stims/complex_09_A_a.gif","forced_long","","7","complex_dissimilar","images/stimuli/spore_stims/complex_09_A_a.gif","","","","",""
"","null","html-keyboard-response","96","297305","0.0-23.0-0.5","SS1618365352220","","","null","","","","","","<p><img src= images/blank.png width =""600"" height = ""600"" style=""position:fixed;top:50%; left:50%; transform: translate(-50%, -50%); border:5px solid black"">","","","","","","","",""
"","1330","sequential-stimulus-presentation-old","97","299146","0.0-23.0-1.5","SS1618365352220","trial","","40","500","1830","images/stimuli/spore_stims/complex_20_A_b.gif","images/stimuli/spore_stims/complex_09_A_a.gif","forced_long","","7","complex_dissimilar","images/stimuli/spore_stims/complex_20_A_b.gif","","","","",""
"","2464","survey-multi-choice","98","301612","0.0-24.0","SS1618365352220","math_question","","","","","","","","","","","","{""Q0"":""14""}","[0]","14","",""
"","null","html-keyboard-response","99","302616","0.0-25.0-0.0","SS1618365352220","","","null","","","","","","<p><img src= images/blank.png width =""600"" height = ""600"" style=""position:fixed;top:50%; left:50%; transform: translate(-50%, -50%); border:5px solid black"">","","","","","","","",""
"","142","sequential-stimulus-presentation-old","100","307762","0.0-25.0-1.0","SS1618365352220","trial","","40","500","642","images/stimuli/spore_stims/simple_15_A_a.gif","images/stimuli/spore_stims/simple_14_A_b.gif","forced_long","","8","simple_dissimilar","images/stimuli/spore_stims/simple_14_A_b.gif","","","","",""
"","null","html-keyboard-response","101","308923","0.0-25.0-0.1","SS1618365352220","","","null","","","","","","<p><img src= images/blank.png width =""600"" height = ""600"" style=""position:fixed;top:50%; left:50%; transform: translate(-50%, -50%); border:5px solid black"">","","","","","","","",""
"","192","sequential-stimulus-presentation-old","102","309626","0.0-25.0-1.1","SS1618365352220","trial","","40","500","692","images/stimuli/spore_stims/simple_15_A_a.gif","images/stimuli/spore_stims/simple_14_A_b.gif","forced_long","","8","simple_dissimilar","images/stimuli/spore_stims/simple_14_A_b.gif","","","","",""
"","null","html-keyboard-response","103","310935","0.0-25.0-0.2","SS1618365352220","","","null","","","","","","<p><img src= images/blank.png width =""600"" height = ""600"" style=""position:fixed;top:50%; left:50%; transform: translate(-50%, -50%); border:5px solid black"">","","","","","","","",""
"","593","sequential-stimulus-presentation-old","104","312033","0.0-25.0-1.2","SS1618365352220","trial","","40","500","1093","images/stimuli/spore_stims/simple_15_A_a.gif","images/stimuli/spore_stims/simple_14_A_b.gif","forced_long","","8","simple_dissimilar","images/stimuli/spore_stims/simple_14_A_b.gif","","","","",""
"","null","html-keyboard-response","105","313132","0.0-25.0-0.3","SS1618365352220","","","null","","","","","","<p><img src= images/blank.png width =""600"" height = ""600"" style=""position:fixed;top:50%; left:50%; transform: translate(-50%, -50%); border:5px solid black"">","","","","","","","",""
"","240","sequential-stimulus-presentation-old","106","313882","0.0-25.0-1.3","SS1618365352220","trial","","40","500","740","images/stimuli/spore_stims/simple_15_A_a.gif","images/stimuli/spore_stims/simple_14_A_b.gif","forced_long","","8","simple_dissimilar","images/stimuli/spore_stims/simple_14_A_b.gif","","","","",""
"","null","html-keyboard-response","107","314895","0.0-25.0-0.4","SS1618365352220","","","null","","","","","","<p><img src= images/blank.png width =""600"" height = ""600"" style=""position:fixed;top:50%; left:50%; transform: translate(-50%, -50%); border:5px solid black"">","","","","","","","",""
"","3046","sequential-stimulus-presentation-old","108","318450","0.0-25.0-1.4","SS1618365352220","trial","","40","500","3546","images/stimuli/spore_stims/simple_15_A_a.gif","images/stimuli/spore_stims/simple_14_A_b.gif","forced_long","","8","simple_dissimilar","images/stimuli/spore_stims/simple_14_A_b.gif","","","","",""
"","5870","survey-multi-choice","109","324324","0.0-26.0","SS1618365352220","math_question","","","","","","","","","","","","{""Q0"":""12""}","[0]","12","",""
"","null","html-keyboard-response","110","325330","0.0-27.0-0.0","SS1618365352220","","","null","","","","","","<p><img src= images/blank.png width =""600"" height = ""600"" style=""position:fixed;top:50%; left:50%; transform: translate(-50%, -50%); border:5px solid black"">","","","","","","","",""
"","11945","sequential-stimulus-presentation-old","111","342283","0.0-27.0-1.0","SS1618365352220","trial","","40","500","12445","images/stimuli/spore_stims/complex_03_A_a.gif","images/stimuli/spore_stims/complex_02_A_b.gif","forced_long","","9","complex_dissimilar","images/stimuli/spore_stims/complex_02_A_b.gif","","","","",""
"","null","html-keyboard-response","112","343578","0.0-27.0-0.1","SS1618365352220","","","null","","","","","","<p><img src= images/blank.png width =""600"" height = ""600"" style=""position:fixed;top:50%; left:50%; transform: translate(-50%, -50%); border:5px solid black"">","","","","","","","",""
"","1934","sequential-stimulus-presentation-old","113","346026","0.0-27.0-1.1","SS1618365352220","trial","","40","500","2434","images/stimuli/spore_stims/complex_03_A_a.gif","images/stimuli/spore_stims/complex_02_A_b.gif","forced_long","","9","complex_dissimilar","images/stimuli/spore_stims/complex_03_A_a.gif","","","","",""
"","null","html-keyboard-response","114","346878","0.0-27.0-0.2","SS1618365352220","","","null","","","","","","<p><img src= images/blank.png width =""600"" height = ""600"" style=""position:fixed;top:50%; left:50%; transform: translate(-50%, -50%); border:5px solid black"">","","","","","","","",""
"","1363","sequential-stimulus-presentation-old","115","348755","0.0-27.0-1.2","SS1618365352220","trial","","40","500","1863","images/stimuli/spore_stims/complex_03_A_a.gif","images/stimuli/spore_stims/complex_02_A_b.gif","forced_long","","9","complex_dissimilar","images/stimuli/spore_stims/complex_02_A_b.gif","","","","",""
"","null","html-keyboard-response","116","349824","0.0-27.0-0.3","SS1618365352220","","","null","","","","","","<p><img src= images/blank.png width =""600"" height = ""600"" style=""position:fixed;top:50%; left:50%; transform: translate(-50%, -50%); border:5px solid black"">","","","","","","","",""
"","143","sequential-stimulus-presentation-old","117","350483","0.0-27.0-1.3","SS1618365352220","trial","","40","500","643","images/stimuli/spore_stims/complex_03_A_a.gif","images/stimuli/spore_stims/complex_02_A_b.gif","forced_long","","9","complex_dissimilar","images/stimuli/spore_stims/complex_02_A_b.gif","","","","",""
"","null","html-keyboard-response","118","351318","0.0-27.0-0.4","SS1618365352220","","","null","","","","","","<p><img src= images/blank.png width =""600"" height = ""600"" style=""position:fixed;top:50%; left:50%; transform: translate(-50%, -50%); border:5px solid black"">","","","","","","","",""
"","332","sequential-stimulus-presentation-old","119","352162","0.0-27.0-1.4","SS1618365352220","trial","","40","500","832","images/stimuli/spore_stims/complex_03_A_a.gif","images/stimuli/spore_stims/complex_02_A_b.gif","forced_long","","9","complex_dissimilar","images/stimuli/spore_stims/complex_03_A_a.gif","","","","",""
"","3252","survey-multi-choice","120","355416","0.0-28.0","SS1618365352220","math_question","","","","","","","","","","","","{""Q0"":""10""}","[0]","10","",""
"","null","html-keyboard-response","121","356712","0.0-29.0-0.0","SS1618365352220","","","null","","","","","","<p><img src= images/blank.png width =""600"" height = ""600"" style=""position:fixed;top:50%; left:50%; transform: translate(-50%, -50%); border:5px solid black"">","","","","","","","",""
"","1217","sequential-stimulus-presentation-old","122","357986","0.0-29.0-1.0","SS1618365352220","trial","","40","500","1717","images/stimuli/spore_stims/simple_09_A_a.gif","images/stimuli/spore_stims/simple_13_A_b.gif","forced_short","","10","simple_dissimilar","images/stimuli/spore_stims/simple_13_A_b.gif","","","","",""
"","null","html-keyboard-response","123","358959","0.0-29.0-0.1","SS1618365352220","","","null","","","","","","<p><img src= images/blank.png width =""600"" height = ""600"" style=""position:fixed;top:50%; left:50%; transform: translate(-50%, -50%); border:5px solid black"">","","","","","","","",""
"","189","sequential-stimulus-presentation-old","124","359658","0.0-29.0-1.1","SS1618365352220","trial","","40","500","689","images/stimuli/spore_stims/simple_09_A_a.gif","images/stimuli/spore_stims/simple_13_A_b.gif","forced_short","","10","simple_dissimilar","images/stimuli/spore_stims/simple_13_A_b.gif","","","","",""
"","null","html-keyboard-response","125","360661","0.0-29.0-0.2","SS1618365352220","","","null","","","","","","<p><img src= images/blank.png width =""600"" height = ""600"" style=""position:fixed;top:50%; left:50%; transform: translate(-50%, -50%); border:5px solid black"">","","","","","","","",""
"","582","sequential-stimulus-presentation-old","126","361754","0.0-29.0-1.2","SS1618365352220","trial","","40","500","1082","images/stimuli/spore_stims/simple_09_A_a.gif","images/stimuli/spore_stims/simple_13_A_b.gif","forced_short","","10","simple_dissimilar","images/stimuli/spore_stims/simple_09_A_a.gif","","","","",""
"","null","html-keyboard-response","127","362789","0.0-29.0-0.3","SS1618365352220","","","null","","","","","","<p><img src= images/blank.png width =""600"" height = ""600"" style=""position:fixed;top:50%; left:50%; transform: translate(-50%, -50%); border:5px solid black"">","","","","","","","",""
"","1533","sequential-stimulus-presentation-old","128","364834","0.0-29.0-1.3","SS1618365352220","trial","","40","500","2033","images/stimuli/spore_stims/simple_09_A_a.gif","images/stimuli/spore_stims/simple_13_A_b.gif","forced_short","","10","simple_dissimilar","images/stimuli/spore_stims/simple_13_A_b.gif","","","","",""
"","null","html-keyboard-response","129","365813","0.0-29.0-0.4","SS1618365352220","","","null","","","","","","<p><img src= images/blank.png width =""600"" height = ""600"" style=""position:fixed;top:50%; left:50%; transform: translate(-50%, -50%); border:5px solid black"">","","","","","","","",""
"","42","sequential-stimulus-presentation-old","130","366370","0.0-29.0-1.4","SS1618365352220","trial","","40","500","542","images/stimuli/spore_stims/simple_09_A_a.gif","images/stimuli/spore_stims/simple_13_A_b.gif","forced_short","","10","simple_dissimilar","images/stimuli/spore_stims/simple_13_A_b.gif","","","","",""
"","null","html-keyboard-response","131","367506","0.0-29.0-0.5","SS1618365352220","","","null","","","","","","<p><img src= images/blank.png width =""600"" height = ""600"" style=""position:fixed;top:50%; left:50%; transform: translate(-50%, -50%); border:5px solid black"">","","","","","","","",""
"","225","sequential-stimulus-presentation-old","132","368242","0.0-29.0-1.5","SS1618365352220","trial","","40","500","725","images/stimuli/spore_stims/simple_09_A_a.gif","images/stimuli/spore_stims/simple_13_A_b.gif","forced_short","","10","simple_dissimilar","images/stimuli/spore_stims/simple_13_A_b.gif","","","","",""
"","5239","survey-multi-choice","133","373484","0.0-30.0","SS1618365352220","math_question","","","","","","","","","","","","{""Q0"":""11""}","[0]","11","",""
"","null","html-keyboard-response","134","374488","0.0-31.0-0.0","SS1618365352220","","","null","","","","","","<p><img src= images/blank.png width =""600"" height = ""600"" style=""position:fixed;top:50%; left:50%; transform: translate(-50%, -50%); border:5px solid black"">","","","","","","","",""
"","1927","sequential-stimulus-presentation-old","135","376475","0.0-31.0-1.0","SS1618365352220","trial","","40","500","2427","images/stimuli/spore_stims/simple_02_A_b.gif","images/stimuli/spore_stims/simple_08_A_a.gif","forced_short","","11","simple_dissimilar","images/stimuli/spore_stims/simple_08_A_a.gif","","","","",""
"","null","html-keyboard-response","136","377449","0.0-31.0-0.1","SS1618365352220","","","null","","","","","","<p><img src= images/blank.png width =""600"" height = ""600"" style=""position:fixed;top:50%; left:50%; transform: translate(-50%, -50%); border:5px solid black"">","","","","","","","",""
"","1262","sequential-stimulus-presentation-old","137","379218","0.0-31.0-1.1","SS1618365352220","trial","","40","500","1762","images/stimuli/spore_stims/simple_02_A_b.gif","images/stimuli/spore_stims/simple_08_A_a.gif","forced_short","","11","simple_dissimilar","images/stimuli/spore_stims/simple_08_A_a.gif","","","","",""
"","null","html-keyboard-response","138","380303","0.0-31.0-0.2","SS1618365352220","","","null","","","","","","<p><img src= images/blank.png width =""600"" height = ""600"" style=""position:fixed;top:50%; left:50%; transform: translate(-50%, -50%); border:5px solid black"">","","","","","","","",""
"","1484","sequential-stimulus-presentation-old","139","382298","0.0-31.0-1.2","SS1618365352220","trial","","40","500","1984","images/stimuli/spore_stims/simple_02_A_b.gif","images/stimuli/spore_stims/simple_08_A_a.gif","forced_short","","11","simple_dissimilar","images/stimuli/spore_stims/simple_08_A_a.gif","","","","",""
"","null","html-keyboard-response","140","383597","0.0-31.0-0.3","SS1618365352220","","","null","","","","","","<p><img src= images/blank.png width =""600"" height = ""600"" style=""position:fixed;top:50%; left:50%; transform: translate(-50%, -50%); border:5px solid black"">","","","","","","","",""
"","935","sequential-stimulus-presentation-old","141","385042","0.0-31.0-1.3","SS1618365352220","trial","","40","500","1435","images/stimuli/spore_stims/simple_02_A_b.gif","images/stimuli/spore_stims/simple_08_A_a.gif","forced_short","","11","simple_dissimilar","images/stimuli/spore_stims/simple_02_A_b.gif","","","","",""
"","null","html-keyboard-response","142","385968","0.0-31.0-0.4","SS1618365352220","","","null","","","","","","<p><img src= images/blank.png width =""600"" height = ""600"" style=""position:fixed;top:50%; left:50%; transform: translate(-50%, -50%); border:5px solid black"">","","","","","","","",""
"","227","sequential-stimulus-presentation-old","143","386706","0.0-31.0-1.4","SS1618365352220","trial","","40","500","727","images/stimuli/spore_stims/simple_02_A_b.gif","images/stimuli/spore_stims/simple_08_A_a.gif","forced_short","","11","simple_dissimilar","images/stimuli/spore_stims/simple_02_A_b.gif","","","","",""
"[{""page_index"":0,""viewing_time"":2954}]","2954","instructions","144","389663","0.0-32.0","SS1618365352220","instructions","","","","","","","","","","","","","","","",""
"","9140","survey-likert","145","398805","0.0-33.0","SS1618365352220","similarity_question","","","","","","","","","","","","{""Q0"":2}","[0]","","images/stimuli/spore_stims/complex_20_A_b.gif","images/stimuli/spore_stims/complex_09_A_a.gif"
"","6304","survey-likert","146","405113","0.0-34.0","SS1618365352220","similarity_question","","","","","","","","","","","","{""Q0"":0}","[0]","","images/stimuli/spore_stims/complex_01_A_a.gif","images/stimuli/spore_stims/complex_17_A_b.gif"
"","3914","survey-likert","147","409034","0.0-35.0","SS1618365352220","similarity_question","","","","","","","","","","","","{""Q0"":5}","[0]","","images/stimuli/spore_stims/simple_09_A_b.gif","images/stimuli/spore_stims/simple_04_A_a.gif"
"","2681","survey-likert","148","411718","0.0-36.0","SS1618365352220","similarity_question","","","","","","","","","","","","{""Q0"":6}","[0]","","images/stimuli/spore_stims/simple_17_A_b.gif","images/stimuli/spore_stims/simple_11_A_a.gif"
"","2416","survey-likert","149","414138","0.0-37.0","SS1618365352220","similarity_question","","","","","","","","","","","","{""Q0"":6}","[0]","","images/stimuli/spore_stims/simple_13_A_b.gif","images/stimuli/spore_stims/simple_09_A_a.gif"
"","4135","survey-likert","150","418277","0.0-38.0","SS1618365352220","similarity_question","","","","","","","","","","","","{""Q0"":0}","[0]","","images/stimuli/spore_stims/complex_15_A_b.gif","images/stimuli/spore_stims/complex_19_A_a.gif"
"","6819","survey-likert","151","425099","0.0-39.0","SS1618365352220","similarity_question","","","","","","","","","","","","{""Q0"":4}","[0]","","images/stimuli/spore_stims/complex_11_A_b.gif","images/stimuli/spore_stims/complex_05_A_a.gif"
"","2615","survey-likert","152","427720","0.0-40.0","SS1618365352220","similarity_question","","","","","","","","","","","","{""Q0"":0}","[0]","","images/stimuli/spore_stims/complex_03_A_a.gif","images/stimuli/spore_stims/complex_02_A_b.gif"
"","2422","survey-likert","153","430145","0.0-41.0","SS1618365352220","similarity_question","","","","","","","","","","","","{""Q0"":6}","[0]","","images/stimuli/spore_stims/simple_08_A_a.gif","images/stimuli/spore_stims/simple_02_A_b.gif"
"","2430","survey-likert","154","432578","0.0-42.0","SS1618365352220","similarity_question","","","","","","","","","","","","{""Q0"":0}","[0]","","images/stimuli/spore_stims/complex_06_A_b.gif","images/stimuli/spore_stims/complex_08_A_a.gif"
"","3023","survey-likert","155","435604","0.0-43.0","SS1618365352220","similarity_question","","","","","","","","","","","","{""Q0"":6}","[0]","","images/stimuli/spore_stims/simple_02_A_a.gif","images/stimuli/spore_stims/simple_20_A_b.gif"
"","2062","survey-likert","156","437668","0.0-44.0","SS1618365352220","similarity_question","","","","","","","","","","","","{""Q0"":6}","[0]","","images/stimuli/spore_stims/simple_15_A_a.gif","images/stimuli/spore_stims/simple_14_A_b.gif"
"[{""page_index"":0,""viewing_time"":1584}]","1584","instructions","157","439254","0.0-45.0","SS1618365352220","instructions","","","","","","","","","","","","","","","",""
"","4573","survey-likert","158","443829","0.0-46.0","SS1618365352220","","","","","","","","","images/stimuli/spore_stims/simple_14_A_b.gif","","","","{""Q0"":0}","[0]","","",""
"","3204","survey-likert","159","447036","0.0-47.0","SS1618365352220","","","","","","","","","images/stimuli/spore_stims/complex_02_A_b.gif","","","","{""Q0"":4}","[0]","","",""
"","3026","survey-likert","160","450066","0.0-48.0","SS1618365352220","","","","","","","","","images/stimuli/spore_stims/simple_09_A_b.gif","","","","{""Q0"":0}","[0]","","",""
"","3389","survey-likert","161","453458","0.0-49.0","SS1618365352220","","","","","","","","","images/stimuli/spore_stims/complex_06_A_b.gif","","","","{""Q0"":4}","[0]","","",""
"","2634","survey-likert","162","456096","0.0-50.0","SS1618365352220","","","","","","","","","images/stimuli/spore_stims/complex_19_A_a.gif","","","","{""Q0"":5}","[0]","","",""
"","3551","survey-likert","163","459649","0.0-51.0","SS1618365352220","","","","","","","","","images/stimuli/spore_stims/complex_11_A_b.gif","","","","{""Q0"":2}","[0]","","",""
"","2116","survey-likert","164","461769","0.0-52.0","SS1618365352220","","","","","","","","","images/stimuli/spore_stims/complex_01_A_a.gif","","","","{""Q0"":2}","[0]","","",""
"","2333","survey-likert","165","464104","0.0-53.0","SS1618365352220","","","","","","","","","images/stimuli/spore_stims/simple_09_A_a.gif","","","","{""Q0"":0}","[0]","","",""
"","2156","survey-likert","166","466265","0.0-54.0","SS1618365352220","","","","","","","","","images/stimuli/spore_stims/simple_17_A_b.gif","","","","{""Q0"":0}","[0]","","",""
"","1509","survey-likert","167","467781","0.0-55.0","SS1618365352220","","","","","","","","","images/stimuli/spore_stims/simple_02_A_a.gif","","","","{""Q0"":0}","[0]","","",""
"","2900","survey-likert","168","470686","0.0-56.0","SS1618365352220","","","","","","","","","images/stimuli/spore_stims/complex_20_A_b.gif","","","","{""Q0"":4}","[0]","","",""
"","1944","survey-likert","169","472637","0.0-57.0","SS1618365352220","","","","","","","","","images/stimuli/spore_stims/simple_08_A_a.gif","","","","{""Q0"":0}","[0]","","",""
"[{""page_index"":0,""viewing_time"":1538}]","1538","instructions","170","474180","0.0-58.0","SS1618365352220","instructions","","","","","","","","","","","","","","","",""
"","3364","demog-age","171","477554","0.0-59.0","SS1618365352220","","","","","","","","","","","","","{""age"":""20""}","","","",""
"","2970","demog-ethnic-US","172","480529","0.0-60.0","SS1618365352220","","","","","","","","","","","","","{""ethnicity"":[""Hispanic or Latino""]}","[0]","","",""
"","7477","demog-gender-and-education","173","488010","0.0-61.0","SS1618365352220","","","","","","","","","","","","","{""gender"":""Male"",""education"":""High school diploma""}","[0,1]","","",""
"","6279","survey-text","174","494295","0.0-62.0","SS1618365352220","feedback","","","","","","","","","","","","{""Q0"":""blurry""}","","","",""
"[{""page_index"":0,""viewing_time"":964}]","964","instructions","175","495262","0.0-63.0","SS1618365352220","instructions","","","","","","","","","","","","","","","",""
