"view_history","rt","trial_type","trial_index","time_elapsed","internal_node_id","subject","stimulus_type","trial_stimulus","key_press","minimum_viewing_duration","trial_looking_time","block_deviant","block_background","exposure_type","stimulus","block_number","block_type","stimulus_displayed","responses","question_order","math_correct_answer","stimulus_left","stimulus_right"
"[{""page_index"":0,""viewing_time"":21446.13500009291}]","21448.23500001803","instructions","0","21453","0.0-0.0","SS1618365651517","","","","","","","","","","","","","","","","",""
"[{""page_index"":0,""viewing_time"":30513.180000009015},{""page_index"":1,""viewing_time"":9789.914999855682}]","40303.73500008136","instructions","1","63769","0.0-1.0","SS1618365651517","instructions","","","","","","","","","","","","","","","",""
"","10962.120000040159","sequential-stimulus-presentation-old","2","75242","0.0-2.0","SS1618365651517","","","40","500","11462.120000040159","null","null","self_paced","","","","","","","","",""
"","9818.38500010781","sequential-stimulus-presentation-old","3","85565","0.0-3.0","SS1618365651517","","","40","500","10318.38500010781","null","null","self_paced","","","","","","","","",""
"[{""page_index"":0,""viewing_time"":52101.234999950975}]","52101.909999968484","instructions","4","137670","0.0-4.0","SS1618365651517","instructions","","","","","","","","","","","","","","","",""
"","2743.269999977201","sequential-stimulus-presentation-old","5","145423","0.0-5.0","SS1618365651517","","","40","500","3243.269999977201","null","null","forced_long","","","","","","","","",""
"","9592.295000096783","sequential-stimulus-presentation-old","6","155074","0.0-6.0","SS1618365651517","","","40","50","9642.295000096783","null","null","forced_long","","","","","","","","",""
"[{""page_index"":0,""viewing_time"":5663.584999972954}]","5664.620000170544","instructions","7","160742","0.0-7.0","SS1618365651517","instructions","","","","","","","","","","","","","","","",""
"[{""page_index"":0,""viewing_time"":16636.309999972582},{""page_index"":1,""viewing_time"":25488.880000077188},{""page_index"":2,""viewing_time"":5682.264999952167},{""page_index"":3,""viewing_time"":1855.1250000018626},{""page_index"":4,""viewing_time"":1874.430000083521}]","51537.969999946654","instructions","8","212284","0.0-8.0","SS1618365651517","instructions","","","","","","","","","","","","","","","",""
"","null","html-keyboard-response","9","213137","0.0-9.0-0.0","SS1618365651517","","","null","","","","","","<p><img src= images/blank.png width =""600"" height = ""600"" style=""position:fixed;top:50%; left:50%; transform: translate(-50%, -50%); border:5px solid black"">","","","","","","","",""
"","2128.505000146106","sequential-stimulus-presentation-old","10","220276","0.0-9.0-1.0","SS1618365651517","trial","","40","500","2628.505000146106","images/stimuli/spore_stims/simple_11_A_a.gif","images/stimuli/spore_stims/simple_12_A_b.gif","forced_long","","0","simple_dissimilar","images/stimuli/spore_stims/simple_12_A_b.gif","","","","",""
"","null","html-keyboard-response","11","221517","0.0-9.0-0.1","SS1618365651517","","","null","","","","","","<p><img src= images/blank.png width =""600"" height = ""600"" style=""position:fixed;top:50%; left:50%; transform: translate(-50%, -50%); border:5px solid black"">","","","","","","","",""
"","13637.545000063255","sequential-stimulus-presentation-old","12","235665","0.0-9.0-1.1","SS1618365651517","trial","","40","500","14137.545000063255","images/stimuli/spore_stims/simple_11_A_a.gif","images/stimuli/spore_stims/simple_12_A_b.gif","forced_long","","0","simple_dissimilar","images/stimuli/spore_stims/simple_11_A_a.gif","","","","",""
"","null","html-keyboard-response","13","236617","0.0-9.0-0.2","SS1618365651517","","","null","","","","","","<p><img src= images/blank.png width =""600"" height = ""600"" style=""position:fixed;top:50%; left:50%; transform: translate(-50%, -50%); border:5px solid black"">","","","","","","","",""
"","7953.539999900386","sequential-stimulus-presentation-old","14","245083","0.0-9.0-1.2","SS1618365651517","trial","","40","500","8453.539999900386","images/stimuli/spore_stims/simple_11_A_a.gif","images/stimuli/spore_stims/simple_12_A_b.gif","forced_long","","0","simple_dissimilar","images/stimuli/spore_stims/simple_11_A_a.gif","","","","",""
"","null","html-keyboard-response","15","246256","0.0-9.0-0.3","SS1618365651517","","","null","","","","","","<p><img src= images/blank.png width =""600"" height = ""600"" style=""position:fixed;top:50%; left:50%; transform: translate(-50%, -50%); border:5px solid black"">","","","","","","","",""
"","14903.424999909475","sequential-stimulus-presentation-old","16","261673","0.0-9.0-1.3","SS1618365651517","trial","","40","500","15403.424999909475","images/stimuli/spore_stims/simple_11_A_a.gif","images/stimuli/spore_stims/simple_12_A_b.gif","forced_long","","0","simple_dissimilar","images/stimuli/spore_stims/simple_12_A_b.gif","","","","",""
"","null","html-keyboard-response","17","262636","0.0-9.0-0.4","SS1618365651517","","","null","","","","","","<p><img src= images/blank.png width =""600"" height = ""600"" style=""position:fixed;top:50%; left:50%; transform: translate(-50%, -50%); border:5px solid black"">","","","","","","","",""
"","14451.32500003092","sequential-stimulus-presentation-old","18","277601","0.0-9.0-1.4","SS1618365651517","trial","","40","500","14951.32500003092","images/stimuli/spore_stims/simple_11_A_a.gif","images/stimuli/spore_stims/simple_12_A_b.gif","forced_long","","0","simple_dissimilar","images/stimuli/spore_stims/simple_12_A_b.gif","","","","",""
"","null","html-keyboard-response","19","278688","0.0-9.0-0.5","SS1618365651517","","","null","","","","","","<p><img src= images/blank.png width =""600"" height = ""600"" style=""position:fixed;top:50%; left:50%; transform: translate(-50%, -50%); border:5px solid black"">","","","","","","","",""
"","8746.494999853894","sequential-stimulus-presentation-old","20","287949","0.0-9.0-1.5","SS1618365651517","trial","","40","500","9246.494999853894","images/stimuli/spore_stims/simple_11_A_a.gif","images/stimuli/spore_stims/simple_12_A_b.gif","forced_long","","0","simple_dissimilar","images/stimuli/spore_stims/simple_12_A_b.gif","","","","",""
"","5111.795000033453","survey-multi-choice","21","293076","0.0-10.0","SS1618365651517","math_question","","","","","","","","","","","","{""Q0"":""7""}","[0]","7","",""
"","null","html-keyboard-response","22","294076","0.0-11.0-0.0","SS1618365651517","","","null","","","","","","<p><img src= images/blank.png width =""600"" height = ""600"" style=""position:fixed;top:50%; left:50%; transform: translate(-50%, -50%); border:5px solid black"">","","","","","","","",""
"","4585.454999934882","sequential-stimulus-presentation-old","23","298725","0.0-11.0-1.0","SS1618365651517","trial","","40","500","5085.454999934882","images/stimuli/spore_stims/simple_06_A_a.gif","images/stimuli/spore_stims/simple_07_A_b.gif","forced_short","","1","simple_dissimilar","images/stimuli/spore_stims/simple_07_A_b.gif","","","","",""
"","null","html-keyboard-response","24","299691","0.0-11.0-0.1","SS1618365651517","","","null","","","","","","<p><img src= images/blank.png width =""600"" height = ""600"" style=""position:fixed;top:50%; left:50%; transform: translate(-50%, -50%); border:5px solid black"">","","","","","","","",""
"","8195.20499999635","sequential-stimulus-presentation-old","25","308400","0.0-11.0-1.1","SS1618365651517","trial","","40","500","8695.20499999635","images/stimuli/spore_stims/simple_06_A_a.gif","images/stimuli/spore_stims/simple_07_A_b.gif","forced_short","","1","simple_dissimilar","images/stimuli/spore_stims/simple_07_A_b.gif","","","","",""
"","null","html-keyboard-response","26","309594","0.0-11.0-0.2","SS1618365651517","","","null","","","","","","<p><img src= images/blank.png width =""600"" height = ""600"" style=""position:fixed;top:50%; left:50%; transform: translate(-50%, -50%); border:5px solid black"">","","","","","","","",""
"","5690.324999857694","sequential-stimulus-presentation-old","27","315798","0.0-11.0-1.2","SS1618365651517","trial","","40","500","6190.324999857694","images/stimuli/spore_stims/simple_06_A_a.gif","images/stimuli/spore_stims/simple_07_A_b.gif","forced_short","","1","simple_dissimilar","images/stimuli/spore_stims/simple_07_A_b.gif","","","","",""
"","null","html-keyboard-response","28","317032","0.0-11.0-0.3","SS1618365651517","","","null","","","","","","<p><img src= images/blank.png width =""600"" height = ""600"" style=""position:fixed;top:50%; left:50%; transform: translate(-50%, -50%); border:5px solid black"">","","","","","","","",""
"","8833.985000150278","sequential-stimulus-presentation-old","29","326381","0.0-11.0-1.3","SS1618365651517","trial","","40","500","9333.985000150278","images/stimuli/spore_stims/simple_06_A_a.gif","images/stimuli/spore_stims/simple_07_A_b.gif","forced_short","","1","simple_dissimilar","images/stimuli/spore_stims/simple_07_A_b.gif","","","","",""
"","null","html-keyboard-response","30","327420","0.0-11.0-0.4","SS1618365651517","","","null","","","","","","<p><img src= images/blank.png width =""600"" height = ""600"" style=""position:fixed;top:50%; left:50%; transform: translate(-50%, -50%); border:5px solid black"">","","","","","","","",""
"","13986.530000111088","sequential-stimulus-presentation-old","31","341923","0.0-11.0-1.4","SS1618365651517","trial","","40","500","14486.530000111088","images/stimuli/spore_stims/simple_06_A_a.gif","images/stimuli/spore_stims/simple_07_A_b.gif","forced_short","","1","simple_dissimilar","images/stimuli/spore_stims/simple_07_A_b.gif","","","","",""
"","null","html-keyboard-response","32","343115","0.0-11.0-0.5","SS1618365651517","","","null","","","","","","<p><img src= images/blank.png width =""600"" height = ""600"" style=""position:fixed;top:50%; left:50%; transform: translate(-50%, -50%); border:5px solid black"">","","","","","","","",""
"","5487.565000075847","sequential-stimulus-presentation-old","33","349118","0.0-11.0-1.5","SS1618365651517","trial","","40","500","5987.565000075847","images/stimuli/spore_stims/simple_06_A_a.gif","images/stimuli/spore_stims/simple_07_A_b.gif","forced_short","","1","simple_dissimilar","images/stimuli/spore_stims/simple_06_A_a.gif","","","","",""
"","3948.1500000692904","survey-multi-choice","34","353075","0.0-12.0","SS1618365651517","math_question","","","","","","","","","","","","{""Q0"":""16""}","[0]","16","",""
"","null","html-keyboard-response","35","354389","0.0-13.0-0.0","SS1618365651517","","","null","","","","","","<p><img src= images/blank.png width =""600"" height = ""600"" style=""position:fixed;top:50%; left:50%; transform: translate(-50%, -50%); border:5px solid black"">","","","","","","","",""
"","8518.114999867976","sequential-stimulus-presentation-old","36","363425","0.0-13.0-1.0","SS1618365651517","trial","","40","500","9018.114999867976","images/stimuli/spore_stims/complex_18_A_a.gif","images/stimuli/spore_stims/complex_08_A_b.gif","self_paced","","2","complex_dissimilar","images/stimuli/spore_stims/complex_08_A_b.gif","","","","",""
"","null","html-keyboard-response","37","364636","0.0-13.0-0.1","SS1618365651517","","","null","","","","","","<p><img src= images/blank.png width =""600"" height = ""600"" style=""position:fixed;top:50%; left:50%; transform: translate(-50%, -50%); border:5px solid black"">","","","","","","","",""
"","5102.350000059232","sequential-stimulus-presentation-old","38","370254","0.0-13.0-1.1","SS1618365651517","trial","","40","500","5602.350000059232","images/stimuli/spore_stims/complex_18_A_a.gif","images/stimuli/spore_stims/complex_08_A_b.gif","self_paced","","2","complex_dissimilar","images/stimuli/spore_stims/complex_08_A_b.gif","","","","",""
"","null","html-keyboard-response","39","371107","0.0-13.0-0.2","SS1618365651517","","","null","","","","","","<p><img src= images/blank.png width =""600"" height = ""600"" style=""position:fixed;top:50%; left:50%; transform: translate(-50%, -50%); border:5px solid black"">","","","","","","","",""
"","8627.665000036359","sequential-stimulus-presentation-old","40","380251","0.0-13.0-1.2","SS1618365651517","trial","","40","500","9127.665000036359","images/stimuli/spore_stims/complex_18_A_a.gif","images/stimuli/spore_stims/complex_08_A_b.gif","self_paced","","2","complex_dissimilar","images/stimuli/spore_stims/complex_08_A_b.gif","","","","",""
"","null","html-keyboard-response","41","381155","0.0-13.0-0.3","SS1618365651517","","","null","","","","","","<p><img src= images/blank.png width =""600"" height = ""600"" style=""position:fixed;top:50%; left:50%; transform: translate(-50%, -50%); border:5px solid black"">","","","","","","","",""
"","5936.325000133365","sequential-stimulus-presentation-old","42","387606","0.0-13.0-1.3","SS1618365651517","trial","","40","500","6436.325000133365","images/stimuli/spore_stims/complex_18_A_a.gif","images/stimuli/spore_stims/complex_08_A_b.gif","self_paced","","2","complex_dissimilar","images/stimuli/spore_stims/complex_08_A_b.gif","","","","",""
"","null","html-keyboard-response","43","388750","0.0-13.0-0.4","SS1618365651517","","","null","","","","","","<p><img src= images/blank.png width =""600"" height = ""600"" style=""position:fixed;top:50%; left:50%; transform: translate(-50%, -50%); border:5px solid black"">","","","","","","","",""
"","3614.384999964386","sequential-stimulus-presentation-old","44","392882","0.0-13.0-1.4","SS1618365651517","trial","","40","500","4114.384999964386","images/stimuli/spore_stims/complex_18_A_a.gif","images/stimuli/spore_stims/complex_08_A_b.gif","self_paced","","2","complex_dissimilar","images/stimuli/spore_stims/complex_08_A_b.gif","","","","",""
"","17183.17999993451","survey-multi-choice","45","410075","0.0-14.0","SS1618365651517","math_question","","","","","","","","","","","","{""Q0"":""4""}","[0]","4","",""
"","null","html-keyboard-response","46","411273","0.0-15.0-0.0","SS1618365651517","","","null","","","","","","<p><img src= images/blank.png width =""600"" height = ""600"" style=""position:fixed;top:50%; left:50%; transform: translate(-50%, -50%); border:5px solid black"">","","","","","","","",""
"","6860.140000004321","sequential-stimulus-presentation-old","47","418651","0.0-15.0-1.0","SS1618365651517","trial","","40","500","7360.140000004321","images/stimuli/spore_stims/simple_06_A_b.gif","images/stimuli/spore_stims/simple_19_A_a.gif","self_paced","","3","simple_dissimilar","images/stimuli/spore_stims/simple_19_A_a.gif","","","","",""
"","null","html-keyboard-response","48","419605","0.0-15.0-0.1","SS1618365651517","","","null","","","","","","<p><img src= images/blank.png width =""600"" height = ""600"" style=""position:fixed;top:50%; left:50%; transform: translate(-50%, -50%); border:5px solid black"">","","","","","","","",""
"","6130.339999916032","sequential-stimulus-presentation-old","49","426255","0.0-15.0-1.1","SS1618365651517","trial","","40","500","6630.339999916032","images/stimuli/spore_stims/simple_06_A_b.gif","images/stimuli/spore_stims/simple_19_A_a.gif","self_paced","","3","simple_dissimilar","images/stimuli/spore_stims/simple_19_A_a.gif","","","","",""
"","null","html-keyboard-response","50","427243","0.0-15.0-0.2","SS1618365651517","","","null","","","","","","<p><img src= images/blank.png width =""600"" height = ""600"" style=""position:fixed;top:50%; left:50%; transform: translate(-50%, -50%); border:5px solid black"">","","","","","","","",""
"","4273.210000013933","sequential-stimulus-presentation-old","51","432034","0.0-15.0-1.2","SS1618365651517","trial","","40","500","4773.210000013933","images/stimuli/spore_stims/simple_06_A_b.gif","images/stimuli/spore_stims/simple_19_A_a.gif","self_paced","","3","simple_dissimilar","images/stimuli/spore_stims/simple_19_A_a.gif","","","","",""
"","null","html-keyboard-response","52","433198","0.0-15.0-0.3","SS1618365651517","","","null","","","","","","<p><img src= images/blank.png width =""600"" height = ""600"" style=""position:fixed;top:50%; left:50%; transform: translate(-50%, -50%); border:5px solid black"">","","","","","","","",""
"","4558.96499985829","sequential-stimulus-presentation-old","53","438277","0.0-15.0-1.3","SS1618365651517","trial","","40","500","5058.96499985829","images/stimuli/spore_stims/simple_06_A_b.gif","images/stimuli/spore_stims/simple_19_A_a.gif","self_paced","","3","simple_dissimilar","images/stimuli/spore_stims/simple_19_A_a.gif","","","","",""
"","null","html-keyboard-response","54","439461","0.0-15.0-0.4","SS1618365651517","","","null","","","","","","<p><img src= images/blank.png width =""600"" height = ""600"" style=""position:fixed;top:50%; left:50%; transform: translate(-50%, -50%); border:5px solid black"">","","","","","","","",""
"","5167.53500001505","sequential-stimulus-presentation-old","55","445148","0.0-15.0-1.4","SS1618365651517","trial","","40","500","5667.53500001505","images/stimuli/spore_stims/simple_06_A_b.gif","images/stimuli/spore_stims/simple_19_A_a.gif","self_paced","","3","simple_dissimilar","images/stimuli/spore_stims/simple_19_A_a.gif","","","","",""
"","4442.865000106394","survey-multi-choice","56","449604","0.0-16.0","SS1618365651517","math_question","","","","","","","","","","","","{""Q0"":""7""}","[0]","7","",""
"","null","html-keyboard-response","57","450766","0.0-17.0-0.0","SS1618365651517","","","null","","","","","","<p><img src= images/blank.png width =""600"" height = ""600"" style=""position:fixed;top:50%; left:50%; transform: translate(-50%, -50%); border:5px solid black"">","","","","","","","",""
"","2278.9600000251085","sequential-stimulus-presentation-old","58","453115","0.0-17.0-1.0","SS1618365651517","trial","","40","500","2778.9600000251085","images/stimuli/spore_stims/complex_13_A_a.gif","images/stimuli/spore_stims/complex_02_A_b.gif","forced_short","","4","complex_dissimilar","images/stimuli/spore_stims/complex_02_A_b.gif","","","","",""
"","null","html-keyboard-response","59","454023","0.0-17.0-0.1","SS1618365651517","","","null","","","","","","<p><img src= images/blank.png width =""600"" height = ""600"" style=""position:fixed;top:50%; left:50%; transform: translate(-50%, -50%); border:5px solid black"">","","","","","","","",""
"","6358.239999972284","sequential-stimulus-presentation-old","60","460901","0.0-17.0-1.1","SS1618365651517","trial","","40","500","6858.239999972284","images/stimuli/spore_stims/complex_13_A_a.gif","images/stimuli/spore_stims/complex_02_A_b.gif","forced_short","","4","complex_dissimilar","images/stimuli/spore_stims/complex_02_A_b.gif","","","","",""
"","null","html-keyboard-response","61","462132","0.0-17.0-0.2","SS1618365651517","","","null","","","","","","<p><img src= images/blank.png width =""600"" height = ""600"" style=""position:fixed;top:50%; left:50%; transform: translate(-50%, -50%); border:5px solid black"">","","","","","","","",""
"","7555.885000154376","sequential-stimulus-presentation-old","62","470208","0.0-17.0-1.2","SS1618365651517","trial","","40","500","8055.885000154376","images/stimuli/spore_stims/complex_13_A_a.gif","images/stimuli/spore_stims/complex_02_A_b.gif","forced_short","","4","complex_dissimilar","images/stimuli/spore_stims/complex_02_A_b.gif","","","","",""
"","null","html-keyboard-response","63","471199","0.0-17.0-0.3","SS1618365651517","","","null","","","","","","<p><img src= images/blank.png width =""600"" height = ""600"" style=""position:fixed;top:50%; left:50%; transform: translate(-50%, -50%); border:5px solid black"">","","","","","","","",""
"","3769.6749998722225","sequential-stimulus-presentation-old","64","475489","0.0-17.0-1.3","SS1618365651517","trial","","40","500","4269.6749998722225","images/stimuli/spore_stims/complex_13_A_a.gif","images/stimuli/spore_stims/complex_02_A_b.gif","forced_short","","4","complex_dissimilar","images/stimuli/spore_stims/complex_02_A_b.gif","","","","",""
"","null","html-keyboard-response","65","476755","0.0-17.0-0.4","SS1618365651517","","","null","","","","","","<p><img src= images/blank.png width =""600"" height = ""600"" style=""position:fixed;top:50%; left:50%; transform: translate(-50%, -50%); border:5px solid black"">","","","","","","","",""
"","4076.9299999810755","sequential-stimulus-presentation-old","66","481356","0.0-17.0-1.4","SS1618365651517","trial","","40","500","4576.9299999810755","images/stimuli/spore_stims/complex_13_A_a.gif","images/stimuli/spore_stims/complex_02_A_b.gif","forced_short","","4","complex_dissimilar","images/stimuli/spore_stims/complex_13_A_a.gif","","","","",""
"","null","html-keyboard-response","67","482445","0.0-17.0-0.5","SS1618365651517","","","null","","","","","","<p><img src= images/blank.png width =""600"" height = ""600"" style=""position:fixed;top:50%; left:50%; transform: translate(-50%, -50%); border:5px solid black"">","","","","","","","",""
"","4824.619999853894","sequential-stimulus-presentation-old","68","487791","0.0-17.0-1.5","SS1618365651517","trial","","40","500","5324.619999853894","images/stimuli/spore_stims/complex_13_A_a.gif","images/stimuli/spore_stims/complex_02_A_b.gif","forced_short","","4","complex_dissimilar","images/stimuli/spore_stims/complex_13_A_a.gif","","","","",""
"","3370.219999924302","survey-multi-choice","69","491180","0.0-18.0","SS1618365651517","math_question","","","","","","","","","","","","{""Q0"":""10""}","[0]","10","",""
"","null","html-keyboard-response","70","492160","0.0-19.0-0.0","SS1618365651517","","","null","","","","","","<p><img src= images/blank.png width =""600"" height = ""600"" style=""position:fixed;top:50%; left:50%; transform: translate(-50%, -50%); border:5px solid black"">","","","","","","","",""
"","6652.785000158474","sequential-stimulus-presentation-old","71","499334","0.0-19.0-1.0","SS1618365651517","trial","","40","500","7152.785000158474","images/stimuli/spore_stims/simple_16_A_b.gif","images/stimuli/spore_stims/simple_18_A_a.gif","self_paced","","5","simple_dissimilar","images/stimuli/spore_stims/simple_18_A_a.gif","","","","",""
"","null","html-keyboard-response","72","500258","0.0-19.0-0.1","SS1618365651517","","","null","","","","","","<p><img src= images/blank.png width =""600"" height = ""600"" style=""position:fixed;top:50%; left:50%; transform: translate(-50%, -50%); border:5px solid black"">","","","","","","","",""
"","3316.9899999629706","sequential-stimulus-presentation-old","73","504098","0.0-19.0-1.1","SS1618365651517","trial","","40","500","3816.9899999629706","images/stimuli/spore_stims/simple_16_A_b.gif","images/stimuli/spore_stims/simple_18_A_a.gif","self_paced","","5","simple_dissimilar","images/stimuli/spore_stims/simple_18_A_a.gif","","","","",""
"","null","html-keyboard-response","74","505172","0.0-19.0-0.2","SS1618365651517","","","null","","","","","","<p><img src= images/blank.png width =""600"" height = ""600"" style=""position:fixed;top:50%; left:50%; transform: translate(-50%, -50%); border:5px solid black"">","","","","","","","",""
"","4818.499999819323","sequential-stimulus-presentation-old","75","510513","0.0-19.0-1.2","SS1618365651517","trial","","40","500","5318.499999819323","images/stimuli/spore_stims/simple_16_A_b.gif","images/stimuli/spore_stims/simple_18_A_a.gif","self_paced","","5","simple_dissimilar","images/stimuli/spore_stims/simple_18_A_a.gif","","","","",""
"","null","html-keyboard-response","76","511465","0.0-19.0-0.3","SS1618365651517","","","null","","","","","","<p><img src= images/blank.png width =""600"" height = ""600"" style=""position:fixed;top:50%; left:50%; transform: translate(-50%, -50%); border:5px solid black"">","","","","","","","",""
"","5279.554999899119","sequential-stimulus-presentation-old","77","517267","0.0-19.0-1.3","SS1618365651517","trial","","40","500","5779.554999899119","images/stimuli/spore_stims/simple_16_A_b.gif","images/stimuli/spore_stims/simple_18_A_a.gif","self_paced","","5","simple_dissimilar","images/stimuli/spore_stims/simple_16_A_b.gif","","","","",""
"","null","html-keyboard-response","78","518332","0.0-19.0-0.4","SS1618365651517","","","null","","","","","","<p><img src= images/blank.png width =""600"" height = ""600"" style=""position:fixed;top:50%; left:50%; transform: translate(-50%, -50%); border:5px solid black"">","","","","","","","",""
"","4212.939999997616","sequential-stimulus-presentation-old","79","523070","0.0-19.0-1.4","SS1618365651517","trial","","40","500","4712.939999997616","images/stimuli/spore_stims/simple_16_A_b.gif","images/stimuli/spore_stims/simple_18_A_a.gif","self_paced","","5","simple_dissimilar","images/stimuli/spore_stims/simple_16_A_b.gif","","","","",""
"","3996.864999877289","survey-multi-choice","80","527083","0.0-20.0","SS1618365651517","math_question","","","","","","","","","","","","{""Q0"":""7""}","[0]","7","",""
"","null","html-keyboard-response","81","528225","0.0-21.0-0.0","SS1618365651517","","","null","","","","","","<p><img src= images/blank.png width =""600"" height = ""600"" style=""position:fixed;top:50%; left:50%; transform: translate(-50%, -50%); border:5px solid black"">","","","","","","","",""
"","1013.9699999708682","sequential-stimulus-presentation-old","82","534264","0.0-21.0-1.0","SS1618365651517","trial","","40","500","1513.9699999708682","images/stimuli/spore_stims/complex_07_A_a.gif","images/stimuli/spore_stims/complex_20_A_b.gif","forced_long","","6","complex_dissimilar","images/stimuli/spore_stims/complex_20_A_b.gif","","","","",""
"","null","html-keyboard-response","83","535449","0.0-21.0-0.1","SS1618365651517","","","null","","","","","","<p><img src= images/blank.png width =""600"" height = ""600"" style=""position:fixed;top:50%; left:50%; transform: translate(-50%, -50%); border:5px solid black"">","","","","","","","",""
"","3565.4100000392646","sequential-stimulus-presentation-old","84","539537","0.0-21.0-1.1","SS1618365651517","trial","","40","500","4065.4100000392646","images/stimuli/spore_stims/complex_07_A_a.gif","images/stimuli/spore_stims/complex_20_A_b.gif","forced_long","","6","complex_dissimilar","images/stimuli/spore_stims/complex_20_A_b.gif","","","","",""
"","null","html-keyboard-response","85","540606","0.0-21.0-0.2","SS1618365651517","","","null","","","","","","<p><img src= images/blank.png width =""600"" height = ""600"" style=""position:fixed;top:50%; left:50%; transform: translate(-50%, -50%); border:5px solid black"">","","","","","","","",""
"","5841.804999858141","sequential-stimulus-presentation-old","86","546972","0.0-21.0-1.2","SS1618365651517","trial","","40","500","6341.804999858141","images/stimuli/spore_stims/complex_07_A_a.gif","images/stimuli/spore_stims/complex_20_A_b.gif","forced_long","","6","complex_dissimilar","images/stimuli/spore_stims/complex_20_A_b.gif","","","","",""
"","null","html-keyboard-response","87","548196","0.0-21.0-0.3","SS1618365651517","","","null","","","","","","<p><img src= images/blank.png width =""600"" height = ""600"" style=""position:fixed;top:50%; left:50%; transform: translate(-50%, -50%); border:5px solid black"">","","","","","","","",""
"","3381.760000018403","sequential-stimulus-presentation-old","88","552114","0.0-21.0-1.3","SS1618365651517","trial","","40","500","3881.760000018403","images/stimuli/spore_stims/complex_07_A_a.gif","images/stimuli/spore_stims/complex_20_A_b.gif","forced_long","","6","complex_dissimilar","images/stimuli/spore_stims/complex_20_A_b.gif","","","","",""
"","null","html-keyboard-response","89","553278","0.0-21.0-0.4","SS1618365651517","","","null","","","","","","<p><img src= images/blank.png width =""600"" height = ""600"" style=""position:fixed;top:50%; left:50%; transform: translate(-50%, -50%); border:5px solid black"">","","","","","","","",""
"","3031.700000166893","sequential-stimulus-presentation-old","90","556837","0.0-21.0-1.4","SS1618365651517","trial","","40","500","3531.700000166893","images/stimuli/spore_stims/complex_07_A_a.gif","images/stimuli/spore_stims/complex_20_A_b.gif","forced_long","","6","complex_dissimilar","images/stimuli/spore_stims/complex_20_A_b.gif","","","","",""
"","4298.2050001155585","survey-multi-choice","91","561156","0.0-22.0","SS1618365651517","math_question","","","","","","","","","","","","{""Q0"":""11""}","[0]","11","",""
"","null","html-keyboard-response","92","562433","0.0-23.0-0.0","SS1618365651517","","","null","","","","","","<p><img src= images/blank.png width =""600"" height = ""600"" style=""position:fixed;top:50%; left:50%; transform: translate(-50%, -50%); border:5px solid black"">","","","","","","","",""
"","1748.4599999152124","sequential-stimulus-presentation-old","93","564257","0.0-23.0-1.0","SS1618365651517","trial","","40","500","2248.4599999152124","images/stimuli/spore_stims/simple_17_A_a.gif","images/stimuli/spore_stims/simple_19_A_b.gif","forced_short","","7","simple_dissimilar","images/stimuli/spore_stims/simple_19_A_b.gif","","","","",""
"","null","html-keyboard-response","94","565236","0.0-23.0-0.1","SS1618365651517","","","null","","","","","","<p><img src= images/blank.png width =""600"" height = ""600"" style=""position:fixed;top:50%; left:50%; transform: translate(-50%, -50%); border:5px solid black"">","","","","","","","",""
"","3936.679999809712","sequential-stimulus-presentation-old","95","569700","0.0-23.0-1.1","SS1618365651517","trial","","40","500","4436.679999809712","images/stimuli/spore_stims/simple_17_A_a.gif","images/stimuli/spore_stims/simple_19_A_b.gif","forced_short","","7","simple_dissimilar","images/stimuli/spore_stims/simple_17_A_a.gif","","","","",""
"","null","html-keyboard-response","96","570587","0.0-23.0-0.2","SS1618365651517","","","null","","","","","","<p><img src= images/blank.png width =""600"" height = ""600"" style=""position:fixed;top:50%; left:50%; transform: translate(-50%, -50%); border:5px solid black"">","","","","","","","",""
"","3931.794999865815","sequential-stimulus-presentation-old","97","575045","0.0-23.0-1.2","SS1618365651517","trial","","40","500","4431.794999865815","images/stimuli/spore_stims/simple_17_A_a.gif","images/stimuli/spore_stims/simple_19_A_b.gif","forced_short","","7","simple_dissimilar","images/stimuli/spore_stims/simple_19_A_b.gif","","","","",""
"","null","html-keyboard-response","98","576156","0.0-23.0-0.3","SS1618365651517","","","null","","","","","","<p><img src= images/blank.png width =""600"" height = ""600"" style=""position:fixed;top:50%; left:50%; transform: translate(-50%, -50%); border:5px solid black"">","","","","","","","",""
"","4493.425000226125","sequential-stimulus-presentation-old","99","581176","0.0-23.0-1.3","SS1618365651517","trial","","40","500","4993.425000226125","images/stimuli/spore_stims/simple_17_A_a.gif","images/stimuli/spore_stims/simple_19_A_b.gif","forced_short","","7","simple_dissimilar","images/stimuli/spore_stims/simple_17_A_a.gif","","","","",""
"","3753.8499999791384","survey-multi-choice","100","584952","0.0-24.0","SS1618365651517","math_question","","","","","","","","","","","","{""Q0"":""10""}","[0]","10","",""
"","null","html-keyboard-response","101","586138","0.0-25.0-0.0","SS1618365651517","","","null","","","","","","<p><img src= images/blank.png width =""600"" height = ""600"" style=""position:fixed;top:50%; left:50%; transform: translate(-50%, -50%); border:5px solid black"">","","","","","","","",""
"","388.21000000461936","sequential-stimulus-presentation-old","102","591555","0.0-25.0-1.0","SS1618365651517","trial","","40","500","888.2100000046194","images/stimuli/spore_stims/complex_03_A_b.gif","images/stimuli/spore_stims/complex_17_A_a.gif","forced_long","","8","complex_dissimilar","images/stimuli/spore_stims/complex_17_A_a.gif","","","","",""
"","null","html-keyboard-response","103","592541","0.0-25.0-0.1","SS1618365651517","","","null","","","","","","<p><img src= images/blank.png width =""600"" height = ""600"" style=""position:fixed;top:50%; left:50%; transform: translate(-50%, -50%); border:5px solid black"">","","","","","","","",""
"","5357.940000016242","sequential-stimulus-presentation-old","104","598428","0.0-25.0-1.1","SS1618365651517","trial","","40","500","5857.940000016242","images/stimuli/spore_stims/complex_03_A_b.gif","images/stimuli/spore_stims/complex_17_A_a.gif","forced_long","","8","complex_dissimilar","images/stimuli/spore_stims/complex_03_A_b.gif","","","","",""
"","null","html-keyboard-response","105","599453","0.0-25.0-0.2","SS1618365651517","","","null","","","","","","<p><img src= images/blank.png width =""600"" height = ""600"" style=""position:fixed;top:50%; left:50%; transform: translate(-50%, -50%); border:5px solid black"">","","","","","","","",""
"","4831.409999867901","sequential-stimulus-presentation-old","106","604812","0.0-25.0-1.2","SS1618365651517","trial","","40","500","5331.409999867901","images/stimuli/spore_stims/complex_03_A_b.gif","images/stimuli/spore_stims/complex_17_A_a.gif","forced_long","","8","complex_dissimilar","images/stimuli/spore_stims/complex_03_A_b.gif","","","","",""
"","null","html-keyboard-response","107","606123","0.0-25.0-0.3","SS1618365651517","","","null","","","","","","<p><img src= images/blank.png width =""600"" height = ""600"" style=""position:fixed;top:50%; left:50%; transform: translate(-50%, -50%); border:5px solid black"">","","","","","","","",""
"","5542.845000047237","sequential-stimulus-presentation-old","108","612196","0.0-25.0-1.3","SS1618365651517","trial","","40","500","6042.845000047237","images/stimuli/spore_stims/complex_03_A_b.gif","images/stimuli/spore_stims/complex_17_A_a.gif","forced_long","","8","complex_dissimilar","images/stimuli/spore_stims/complex_17_A_a.gif","","","","",""
"","3556.929999962449","survey-multi-choice","109","615774","0.0-26.0","SS1618365651517","math_question","","","","","","","","","","","","{""Q0"":""2""}","[0]","2","",""
"","null","html-keyboard-response","110","616807","0.0-27.0-0.0","SS1618365651517","","","null","","","","","","<p><img src= images/blank.png width =""600"" height = ""600"" style=""position:fixed;top:50%; left:50%; transform: translate(-50%, -50%); border:5px solid black"">","","","","","","","",""
"","525.3399999346584","sequential-stimulus-presentation-old","111","622363","0.0-27.0-1.0","SS1618365651517","trial","","40","500","1025.3399999346584","images/stimuli/spore_stims/simple_16_A_a.gif","images/stimuli/spore_stims/simple_01_A_b.gif","forced_long","","9","simple_dissimilar","images/stimuli/spore_stims/simple_01_A_b.gif","","","","",""
"","null","html-keyboard-response","112","623200","0.0-27.0-0.1","SS1618365651517","","","null","","","","","","<p><img src= images/blank.png width =""600"" height = ""600"" style=""position:fixed;top:50%; left:50%; transform: translate(-50%, -50%); border:5px solid black"">","","","","","","","",""
"","5056.559999939054","sequential-stimulus-presentation-old","113","628784","0.0-27.0-1.1","SS1618365651517","trial","","40","500","5556.559999939054","images/stimuli/spore_stims/simple_16_A_a.gif","images/stimuli/spore_stims/simple_01_A_b.gif","forced_long","","9","simple_dissimilar","images/stimuli/spore_stims/simple_01_A_b.gif","","","","",""
"","null","html-keyboard-response","114","629858","0.0-27.0-0.2","SS1618365651517","","","null","","","","","","<p><img src= images/blank.png width =""600"" height = ""600"" style=""position:fixed;top:50%; left:50%; transform: translate(-50%, -50%); border:5px solid black"">","","","","","","","",""
"","3449.1050001233816","sequential-stimulus-presentation-old","115","633839","0.0-27.0-1.2","SS1618365651517","trial","","40","500","3949.1050001233816","images/stimuli/spore_stims/simple_16_A_a.gif","images/stimuli/spore_stims/simple_01_A_b.gif","forced_long","","9","simple_dissimilar","images/stimuli/spore_stims/simple_01_A_b.gif","","","","",""
"","null","html-keyboard-response","116","634975","0.0-27.0-0.3","SS1618365651517","","","null","","","","","","<p><img src= images/blank.png width =""600"" height = ""600"" style=""position:fixed;top:50%; left:50%; transform: translate(-50%, -50%); border:5px solid black"">","","","","","","","",""
"","5916.149999946356","sequential-stimulus-presentation-old","117","641422","0.0-27.0-1.3","SS1618365651517","trial","","40","500","6416.149999946356","images/stimuli/spore_stims/simple_16_A_a.gif","images/stimuli/spore_stims/simple_01_A_b.gif","forced_long","","9","simple_dissimilar","images/stimuli/spore_stims/simple_01_A_b.gif","","","","",""
"","4408.985000103712","survey-multi-choice","118","645855","0.0-28.0","SS1618365651517","math_question","","","","","","","","","","","","{""Q0"":""12""}","[0]","12","",""
"","null","html-keyboard-response","119","647040","0.0-29.0-0.0","SS1618365651517","","","null","","","","","","<p><img src= images/blank.png width =""600"" height = ""600"" style=""position:fixed;top:50%; left:50%; transform: translate(-50%, -50%); border:5px solid black"">","","","","","","","",""
"","1567.659999942407","sequential-stimulus-presentation-old","120","648687","0.0-29.0-1.0","SS1618365651517","trial","","40","500","2067.659999942407","images/stimuli/spore_stims/complex_08_A_a.gif","images/stimuli/spore_stims/complex_07_A_b.gif","forced_short","","10","complex_dissimilar","images/stimuli/spore_stims/complex_07_A_b.gif","","","","",""
"","null","html-keyboard-response","121","649639","0.0-29.0-0.1","SS1618365651517","","","null","","","","","","<p><img src= images/blank.png width =""600"" height = ""600"" style=""position:fixed;top:50%; left:50%; transform: translate(-50%, -50%); border:5px solid black"">","","","","","","","",""
"","3091.2099999841303","sequential-stimulus-presentation-old","122","653258","0.0-29.0-1.1","SS1618365651517","trial","","40","500","3591.2099999841303","images/stimuli/spore_stims/complex_08_A_a.gif","images/stimuli/spore_stims/complex_07_A_b.gif","forced_short","","10","complex_dissimilar","images/stimuli/spore_stims/complex_07_A_b.gif","","","","",""
"","null","html-keyboard-response","123","654575","0.0-29.0-0.2","SS1618365651517","","","null","","","","","","<p><img src= images/blank.png width =""600"" height = ""600"" style=""position:fixed;top:50%; left:50%; transform: translate(-50%, -50%); border:5px solid black"">","","","","","","","",""
"","2884.1450000181794","sequential-stimulus-presentation-old","124","657990","0.0-29.0-1.2","SS1618365651517","trial","","40","500","3384.1450000181794","images/stimuli/spore_stims/complex_08_A_a.gif","images/stimuli/spore_stims/complex_07_A_b.gif","forced_short","","10","complex_dissimilar","images/stimuli/spore_stims/complex_08_A_a.gif","","","","",""
"","null","html-keyboard-response","125","659184","0.0-29.0-0.3","SS1618365651517","","","null","","","","","","<p><img src= images/blank.png width =""600"" height = ""600"" style=""position:fixed;top:50%; left:50%; transform: translate(-50%, -50%); border:5px solid black"">","","","","","","","",""
"","2007.0749998558313","sequential-stimulus-presentation-old","126","661723","0.0-29.0-1.3","SS1618365651517","trial","","40","500","2507.0749998558313","images/stimuli/spore_stims/complex_08_A_a.gif","images/stimuli/spore_stims/complex_07_A_b.gif","forced_short","","10","complex_dissimilar","images/stimuli/spore_stims/complex_07_A_b.gif","","","","",""
"","null","html-keyboard-response","127","662804","0.0-29.0-0.4","SS1618365651517","","","null","","","","","","<p><img src= images/blank.png width =""600"" height = ""600"" style=""position:fixed;top:50%; left:50%; transform: translate(-50%, -50%); border:5px solid black"">","","","","","","","",""
"","2130.0999999511987","sequential-stimulus-presentation-old","128","665466","0.0-29.0-1.4","SS1618365651517","trial","","40","500","2630.0999999511987","images/stimuli/spore_stims/complex_08_A_a.gif","images/stimuli/spore_stims/complex_07_A_b.gif","forced_short","","10","complex_dissimilar","images/stimuli/spore_stims/complex_08_A_a.gif","","","","",""
"","3696.7899999581277","survey-multi-choice","129","669188","0.0-30.0","SS1618365651517","math_question","","","","","","","","","","","","{""Q0"":""9""}","[0]","9","",""
"","null","html-keyboard-response","130","670279","0.0-31.0-0.0","SS1618365651517","","","null","","","","","","<p><img src= images/blank.png width =""600"" height = ""600"" style=""position:fixed;top:50%; left:50%; transform: translate(-50%, -50%); border:5px solid black"">","","","","","","","",""
"","10058.154999976978","sequential-stimulus-presentation-old","131","680869","0.0-31.0-1.0","SS1618365651517","trial","","40","500","10558.154999976978","images/stimuli/spore_stims/complex_14_A_a.gif","images/stimuli/spore_stims/complex_19_A_b.gif","self_paced","","11","complex_dissimilar","images/stimuli/spore_stims/complex_19_A_b.gif","","","","",""
"","null","html-keyboard-response","132","682097","0.0-31.0-0.1","SS1618365651517","","","null","","","","","","<p><img src= images/blank.png width =""600"" height = ""600"" style=""position:fixed;top:50%; left:50%; transform: translate(-50%, -50%); border:5px solid black"">","","","","","","","",""
"","3752.394999843091","sequential-stimulus-presentation-old","133","686382","0.0-31.0-1.1","SS1618365651517","trial","","40","500","4252.394999843091","images/stimuli/spore_stims/complex_14_A_a.gif","images/stimuli/spore_stims/complex_19_A_b.gif","self_paced","","11","complex_dissimilar","images/stimuli/spore_stims/complex_19_A_b.gif","","","","",""
"","null","html-keyboard-response","134","687433","0.0-31.0-0.2","SS1618365651517","","","null","","","","","","<p><img src= images/blank.png width =""600"" height = ""600"" style=""position:fixed;top:50%; left:50%; transform: translate(-50%, -50%); border:5px solid black"">","","","","","","","",""
"","3006.5200000535697","sequential-stimulus-presentation-old","135","690972","0.0-31.0-1.2","SS1618365651517","trial","","40","500","3506.5200000535697","images/stimuli/spore_stims/complex_14_A_a.gif","images/stimuli/spore_stims/complex_19_A_b.gif","self_paced","","11","complex_dissimilar","images/stimuli/spore_stims/complex_14_A_a.gif","","","","",""
"","null","html-keyboard-response","136","692213","0.0-31.0-0.3","SS1618365651517","","","null","","","","","","<p><img src= images/blank.png width =""600"" height = ""600"" style=""position:fixed;top:50%; left:50%; transform: translate(-50%, -50%); border:5px solid black"">","","","","","","","",""
"","1077.0000000484288","sequential-stimulus-presentation-old","137","693822","0.0-31.0-1.3","SS1618365651517","trial","","40","500","1577.0000000484288","images/stimuli/spore_stims/complex_14_A_a.gif","images/stimuli/spore_stims/complex_19_A_b.gif","self_paced","","11","complex_dissimilar","images/stimuli/spore_stims/complex_19_A_b.gif","","","","",""
"","null","html-keyboard-response","138","694950","0.0-31.0-0.4","SS1618365651517","","","null","","","","","","<p><img src= images/blank.png width =""600"" height = ""600"" style=""position:fixed;top:50%; left:50%; transform: translate(-50%, -50%); border:5px solid black"">","","","","","","","",""
"","1542.2600000165403","sequential-stimulus-presentation-old","139","697025","0.0-31.0-1.4","SS1618365651517","trial","","40","500","2042.2600000165403","images/stimuli/spore_stims/complex_14_A_a.gif","images/stimuli/spore_stims/complex_19_A_b.gif","self_paced","","11","complex_dissimilar","images/stimuli/spore_stims/complex_19_A_b.gif","","","","",""
"","null","html-keyboard-response","140","697899","0.0-31.0-0.5","SS1618365651517","","","null","","","","","","<p><img src= images/blank.png width =""600"" height = ""600"" style=""position:fixed;top:50%; left:50%; transform: translate(-50%, -50%); border:5px solid black"">","","","","","","","",""
"","2317.2450000420213","sequential-stimulus-presentation-old","141","700749","0.0-31.0-1.5","SS1618365651517","trial","","40","500","2817.2450000420213","images/stimuli/spore_stims/complex_14_A_a.gif","images/stimuli/spore_stims/complex_19_A_b.gif","self_paced","","11","complex_dissimilar","images/stimuli/spore_stims/complex_14_A_a.gif","","","","",""
"[{""page_index"":0,""viewing_time"":8097.150000045076}]","8098.225000081584","instructions","142","708875","0.0-32.0","SS1618365651517","instructions","","","","","","","","","","","","","","","",""
"","7481.730000115931","survey-likert","143","716391","0.0-33.0","SS1618365651517","similarity_question","","","","","","","","","","","","{""Q0"":0}","[0]","","images/stimuli/spore_stims/complex_02_A_b.gif","images/stimuli/spore_stims/complex_13_A_a.gif"
"","11139.174999902025","survey-likert","144","727572","0.0-34.0","SS1618365651517","similarity_question","","","","","","","","","","","","{""Q0"":5}","[0]","","images/stimuli/spore_stims/simple_19_A_a.gif","images/stimuli/spore_stims/simple_06_A_b.gif"
"","8398.524999851361","survey-likert","145","736016","0.0-35.0","SS1618365651517","similarity_question","","","","","","","","","","","","{""Q0"":2}","[0]","","images/stimuli/spore_stims/simple_16_A_b.gif","images/stimuli/spore_stims/simple_18_A_a.gif"
"","7361.234999960288","survey-likert","146","743429","0.0-36.0","SS1618365651517","similarity_question","","","","","","","","","","","","{""Q0"":5}","[0]","","images/stimuli/spore_stims/simple_16_A_a.gif","images/stimuli/spore_stims/simple_01_A_b.gif"
"","4773.47999997437","survey-likert","147","748249","0.0-37.0","SS1618365651517","similarity_question","","","","","","","","","","","","{""Q0"":4}","[0]","","images/stimuli/spore_stims/simple_07_A_b.gif","images/stimuli/spore_stims/simple_06_A_a.gif"
"","8800.300000002608","survey-likert","148","757100","0.0-38.0","SS1618365651517","similarity_question","","","","","","","","","","","","{""Q0"":4}","[0]","","images/stimuli/spore_stims/complex_18_A_a.gif","images/stimuli/spore_stims/complex_08_A_b.gif"
"","6065.20999991335","survey-likert","149","763210","0.0-39.0","SS1618365651517","similarity_question","","","","","","","","","","","","{""Q0"":4}","[0]","","images/stimuli/spore_stims/complex_07_A_b.gif","images/stimuli/spore_stims/complex_08_A_a.gif"
"","7919.830000028014","survey-likert","150","771177","0.0-40.0","SS1618365651517","similarity_question","","","","","","","","","","","","{""Q0"":5}","[0]","","images/stimuli/spore_stims/simple_12_A_b.gif","images/stimuli/spore_stims/simple_11_A_a.gif"
"","7153.344999998808","survey-likert","151","778375","0.0-41.0","SS1618365651517","similarity_question","","","","","","","","","","","","{""Q0"":6}","[0]","","images/stimuli/spore_stims/complex_19_A_b.gif","images/stimuli/spore_stims/complex_14_A_a.gif"
"","6105.205000145361","survey-likert","152","784525","0.0-42.0","SS1618365651517","similarity_question","","","","","","","","","","","","{""Q0"":5}","[0]","","images/stimuli/spore_stims/simple_17_A_a.gif","images/stimuli/spore_stims/simple_19_A_b.gif"
"","6518.795000156388","survey-likert","153","791093","0.0-43.0","SS1618365651517","similarity_question","","","","","","","","","","","","{""Q0"":5}","[0]","","images/stimuli/spore_stims/complex_07_A_a.gif","images/stimuli/spore_stims/complex_20_A_b.gif"
"","6570.82000002265","survey-likert","154","797708","0.0-44.0","SS1618365651517","similarity_question","","","","","","","","","","","","{""Q0"":0}","[0]","","images/stimuli/spore_stims/complex_17_A_a.gif","images/stimuli/spore_stims/complex_03_A_b.gif"
"[{""page_index"":0,""viewing_time"":4101.24500002712}]","4102.195000043139","instructions","155","801857","0.0-45.0","SS1618365651517","instructions","","","","","","","","","","","","","","","",""
"","11362.99500009045","survey-likert","156","813252","0.0-46.0","SS1618365651517","","","","","","","","","images/stimuli/spore_stims/complex_14_A_a.gif","","","","{""Q0"":5}","[0]","","",""
"","4462.309999857098","survey-likert","157","817760","0.0-47.0","SS1618365651517","","","","","","","","","images/stimuli/spore_stims/complex_17_A_a.gif","","","","{""Q0"":4}","[0]","","",""
"","4044.1300000529736","survey-likert","158","821858","0.0-48.0","SS1618365651517","","","","","","","","","images/stimuli/spore_stims/complex_07_A_b.gif","","","","{""Q0"":5}","[0]","","",""
"","4092.3550000879914","survey-likert","159","825997","0.0-49.0","SS1618365651517","","","","","","","","","images/stimuli/spore_stims/complex_20_A_b.gif","","","","{""Q0"":5}","[0]","","",""
"","6905.650000087917","survey-likert","160","832952","0.0-50.0","SS1618365651517","","","","","","","","","images/stimuli/spore_stims/simple_06_A_b.gif","","","","{""Q0"":0}","[0]","","",""
"","7607.739999890327","survey-likert","161","840608","0.0-51.0","SS1618365651517","","","","","","","","","images/stimuli/spore_stims/simple_16_A_b.gif","","","","{""Q0"":1}","[0]","","",""
"","13936.669999966398","survey-likert","162","854591","0.0-52.0","SS1618365651517","","","","","","","","","images/stimuli/spore_stims/complex_02_A_b.gif","","","","{""Q0"":4}","[0]","","",""
"","4394.124999875203","survey-likert","163","859033","0.0-53.0","SS1618365651517","","","","","","","","","images/stimuli/spore_stims/simple_06_A_a.gif","","","","{""Q0"":0}","[0]","","",""
"","17419.870000099763","survey-likert","164","876502","0.0-54.0","SS1618365651517","","","","","","","","","images/stimuli/spore_stims/simple_17_A_a.gif","","","","{""Q0"":1}","[0]","","",""
"","14823.115000035614","survey-likert","165","891373","0.0-55.0","SS1618365651517","","","","","","","","","images/stimuli/spore_stims/simple_11_A_a.gif","","","","{""Q0"":1}","[0]","","",""
"","9446.83500006795","survey-likert","166","900870","0.0-56.0","SS1618365651517","","","","","","","","","images/stimuli/spore_stims/simple_16_A_a.gif","","","","{""Q0"":1}","[0]","","",""
"","8101.8300000578165","survey-likert","167","909021","0.0-57.0","SS1618365651517","","","","","","","","","images/stimuli/spore_stims/complex_18_A_a.gif","","","","{""Q0"":5}","[0]","","",""
"[{""page_index"":0,""viewing_time"":2745.4599998891354}]","2746.1500000208616","instructions","168","911819","0.0-58.0","SS1618365651517","instructions","","","","","","","","","","","","","","","",""
"","3391.7350000701845","demog-age","169","915257","0.0-59.0","SS1618365651517","","","","","","","","","","","","","{""age"":""26""}","","","",""
"","24333.259999984875","demog-ethnic-US","170","939636","0.0-60.0","SS1618365651517","","","","","","","","","","","","","{""ethnicity"":[""Hispanic or Latino""]}","[0]","","",""
"","10137.254999950528","demog-gender-and-education","171","949829","0.0-61.0","SS1618365651517","","","","","","","","","","","","","{""gender"":""Male"",""education"":""Bachelor's Degree""}","[0,1]","","",""
"","29268.500000005588","survey-text","172","979154","0.0-62.0","SS1618365651517","feedback","","","","","","","","","","","","{""Q0"":""no problems with the animation, but some creatures were a bit disturbing""}","","","",""
"[{""page_index"":0,""viewing_time"":2248.7000001128763}]","2249.3950000498444","instructions","173","981436","0.0-63.0","SS1618365651517","instructions","","","","","","","","","","","","","","","",""
