"view_history","rt","trial_type","trial_index","time_elapsed","internal_node_id","subject","stimulus_type","trial_stimulus","key_press","minimum_viewing_duration","trial_looking_time","block_deviant","block_background","exposure_type","stimulus","block_number","block_type","stimulus_displayed","responses","question_order","math_correct_answer","stimulus_left","stimulus_right"
"[{""page_index"":0,""viewing_time"":3453.1000000424683}]","3453.4200000343844","instructions","0","3457","0.0-0.0","SS1618435657644","","","","","","","","","","","","","","","","",""
"[{""page_index"":0,""viewing_time"":5499.415000085719},{""page_index"":1,""viewing_time"":3112.3399999924004}]","8611.975000007078","instructions","1","14072","0.0-1.0","SS1618435657644","instructions","","","","","","","","","","","","","","","",""
"","3761.0749999294057","sequential-stimulus-presentation-old","2","18337","0.0-2.0","SS1618435657644","","","40","500","4261.074999929406","null","null","self_paced","","","","","","","","",""
"","2099.2499999701977","sequential-stimulus-presentation-old","3","20939","0.0-3.0","SS1618435657644","","","40","500","2599.2499999701977","null","null","self_paced","","","","","","","","",""
"[{""page_index"":0,""viewing_time"":7267.295000026934}]","7267.570000025444","instructions","4","28208","0.0-4.0","SS1618435657644","instructions","","","","","","","","","","","","","","","",""
"","1410.6900000479072","sequential-stimulus-presentation-old","5","34622","0.0-5.0","SS1618435657644","","","40","500","1910.6900000479072","null","null","forced_long","","","","","","","","",""
"","1915.2049999684095","sequential-stimulus-presentation-old","6","36592","0.0-6.0","SS1618435657644","","","40","50","1965.2049999684095","null","null","forced_long","","","","","","","","",""
"[{""page_index"":0,""viewing_time"":1854.1549999499694}]","1854.395000031218","instructions","7","38448","0.0-7.0","SS1618435657644","instructions","","","","","","","","","","","","","","","",""
"[{""page_index"":0,""viewing_time"":4686.305000097491},{""page_index"":1,""viewing_time"":4192.504999926314},{""page_index"":2,""viewing_time"":4687.905000057071},{""page_index"":3,""viewing_time"":1104.1249999543652},{""page_index"":4,""viewing_time"":983.6399999912828}]","15654.72500002943","instructions","8","54104","0.0-8.0","SS1618435657644","instructions","","","","","","","","","","","","","","","",""
"","null","html-keyboard-response","9","54932","0.0-9.0-0.0","SS1618435657644","","","null","","","","","","<p><img src= images/blank.png width =""600"" height = ""600"" style=""position:fixed;top:50%; left:50%; transform: translate(-50%, -50%); border:5px solid black"">","","","","","","","",""
"","2452.764999936335","sequential-stimulus-presentation-old","10","57893","0.0-9.0-1.0","SS1618435657644","trial","","40","500","2952.764999936335","images/stimuli/spore_stims/simple_13_A_b.gif","images/stimuli/spore_stims/simple_16_A_a.gif","self_paced","","0","simple_dissimilar","images/stimuli/spore_stims/simple_16_A_a.gif","","","","",""
"","null","html-keyboard-response","11","58836","0.0-9.0-0.1","SS1618435657644","","","null","","","","","","<p><img src= images/blank.png width =""600"" height = ""600"" style=""position:fixed;top:50%; left:50%; transform: translate(-50%, -50%); border:5px solid black"">","","","","","","","",""
"","2397.3799999803305","sequential-stimulus-presentation-old","12","61741","0.0-9.0-1.1","SS1618435657644","trial","","40","500","2897.3799999803305","images/stimuli/spore_stims/simple_13_A_b.gif","images/stimuli/spore_stims/simple_16_A_a.gif","self_paced","","0","simple_dissimilar","images/stimuli/spore_stims/simple_16_A_a.gif","","","","",""
"","null","html-keyboard-response","13","62837","0.0-9.0-0.2","SS1618435657644","","","null","","","","","","<p><img src= images/blank.png width =""600"" height = ""600"" style=""position:fixed;top:50%; left:50%; transform: translate(-50%, -50%); border:5px solid black"">","","","","","","","",""
"","2606.9249999709427","sequential-stimulus-presentation-old","14","65952","0.0-9.0-1.2","SS1618435657644","trial","","40","500","3106.9249999709427","images/stimuli/spore_stims/simple_13_A_b.gif","images/stimuli/spore_stims/simple_16_A_a.gif","self_paced","","0","simple_dissimilar","images/stimuli/spore_stims/simple_16_A_a.gif","","","","",""
"","null","html-keyboard-response","15","67022","0.0-9.0-0.3","SS1618435657644","","","null","","","","","","<p><img src= images/blank.png width =""600"" height = ""600"" style=""position:fixed;top:50%; left:50%; transform: translate(-50%, -50%); border:5px solid black"">","","","","","","","",""
"","907.3949999874458","sequential-stimulus-presentation-old","16","68438","0.0-9.0-1.3","SS1618435657644","trial","","40","500","1407.3949999874458","images/stimuli/spore_stims/simple_13_A_b.gif","images/stimuli/spore_stims/simple_16_A_a.gif","self_paced","","0","simple_dissimilar","images/stimuli/spore_stims/simple_16_A_a.gif","","","","",""
"","null","html-keyboard-response","17","69483","0.0-9.0-0.4","SS1618435657644","","","null","","","","","","<p><img src= images/blank.png width =""600"" height = ""600"" style=""position:fixed;top:50%; left:50%; transform: translate(-50%, -50%); border:5px solid black"">","","","","","","","",""
"","3559.3949999893084","sequential-stimulus-presentation-old","18","73550","0.0-9.0-1.4","SS1618435657644","trial","","40","500","4059.3949999893084","images/stimuli/spore_stims/simple_13_A_b.gif","images/stimuli/spore_stims/simple_16_A_a.gif","self_paced","","0","simple_dissimilar","images/stimuli/spore_stims/simple_16_A_a.gif","","","","",""
"","null","html-keyboard-response","19","74539","0.0-9.0-0.5","SS1618435657644","","","null","","","","","","<p><img src= images/blank.png width =""600"" height = ""600"" style=""position:fixed;top:50%; left:50%; transform: translate(-50%, -50%); border:5px solid black"">","","","","","","","",""
"","715.5600000405684","sequential-stimulus-presentation-old","20","75761","0.0-9.0-1.5","SS1618435657644","trial","","40","500","1215.5600000405684","images/stimuli/spore_stims/simple_13_A_b.gif","images/stimuli/spore_stims/simple_16_A_a.gif","self_paced","","0","simple_dissimilar","images/stimuli/spore_stims/simple_16_A_a.gif","","","","",""
"","3266.3650000467896","survey-multi-choice","21","79033","0.0-10.0","SS1618435657644","math_question","","","","","","","","","","","","{""Q0"":""8""}","[0]","8","",""
"","null","html-keyboard-response","22","80206","0.0-11.0-0.0","SS1618435657644","","","null","","","","","","<p><img src= images/blank.png width =""600"" height = ""600"" style=""position:fixed;top:50%; left:50%; transform: translate(-50%, -50%); border:5px solid black"">","","","","","","","",""
"","1457.0450000464916","sequential-stimulus-presentation-old","23","82171","0.0-11.0-1.0","SS1618435657644","trial","","40","500","1957.0450000464916","images/stimuli/spore_stims/simple_07_A_b.gif","images/stimuli/spore_stims/simple_14_A_a.gif","self_paced","","1","simple_dissimilar","images/stimuli/spore_stims/simple_14_A_a.gif","","","","",""
"","null","html-keyboard-response","24","83151","0.0-11.0-0.1","SS1618435657644","","","null","","","","","","<p><img src= images/blank.png width =""600"" height = ""600"" style=""position:fixed;top:50%; left:50%; transform: translate(-50%, -50%); border:5px solid black"">","","","","","","","",""
"","2455.9949999675155","sequential-stimulus-presentation-old","25","86115","0.0-11.0-1.1","SS1618435657644","trial","","40","500","2955.9949999675155","images/stimuli/spore_stims/simple_07_A_b.gif","images/stimuli/spore_stims/simple_14_A_a.gif","self_paced","","1","simple_dissimilar","images/stimuli/spore_stims/simple_07_A_b.gif","","","","",""
"","null","html-keyboard-response","26","87185","0.0-11.0-0.2","SS1618435657644","","","null","","","","","","<p><img src= images/blank.png width =""600"" height = ""600"" style=""position:fixed;top:50%; left:50%; transform: translate(-50%, -50%); border:5px solid black"">","","","","","","","",""
"","2157.050000037998","sequential-stimulus-presentation-old","27","89851","0.0-11.0-1.2","SS1618435657644","trial","","40","500","2657.050000037998","images/stimuli/spore_stims/simple_07_A_b.gif","images/stimuli/spore_stims/simple_14_A_a.gif","self_paced","","1","simple_dissimilar","images/stimuli/spore_stims/simple_14_A_a.gif","","","","",""
"","null","html-keyboard-response","28","90764","0.0-11.0-0.3","SS1618435657644","","","null","","","","","","<p><img src= images/blank.png width =""600"" height = ""600"" style=""position:fixed;top:50%; left:50%; transform: translate(-50%, -50%); border:5px solid black"">","","","","","","","",""
"","816.3450000574812","sequential-stimulus-presentation-old","29","92087","0.0-11.0-1.3","SS1618435657644","trial","","40","500","1316.3450000574812","images/stimuli/spore_stims/simple_07_A_b.gif","images/stimuli/spore_stims/simple_14_A_a.gif","self_paced","","1","simple_dissimilar","images/stimuli/spore_stims/simple_14_A_a.gif","","","","",""
"","null","html-keyboard-response","30","93023","0.0-11.0-0.4","SS1618435657644","","","null","","","","","","<p><img src= images/blank.png width =""600"" height = ""600"" style=""position:fixed;top:50%; left:50%; transform: translate(-50%, -50%); border:5px solid black"">","","","","","","","",""
"","464.4450000487268","sequential-stimulus-presentation-old","31","93996","0.0-11.0-1.4","SS1618435657644","trial","","40","500","964.4450000487268","images/stimuli/spore_stims/simple_07_A_b.gif","images/stimuli/spore_stims/simple_14_A_a.gif","self_paced","","1","simple_dissimilar","images/stimuli/spore_stims/simple_14_A_a.gif","","","","",""
"","null","html-keyboard-response","32","94838","0.0-11.0-0.5","SS1618435657644","","","null","","","","","","<p><img src= images/blank.png width =""600"" height = ""600"" style=""position:fixed;top:50%; left:50%; transform: translate(-50%, -50%); border:5px solid black"">","","","","","","","",""
"","3303.1900000059977","sequential-stimulus-presentation-old","33","98647","0.0-11.0-1.5","SS1618435657644","trial","","40","500","3803.1900000059977","images/stimuli/spore_stims/simple_07_A_b.gif","images/stimuli/spore_stims/simple_14_A_a.gif","self_paced","","1","simple_dissimilar","images/stimuli/spore_stims/simple_07_A_b.gif","","","","",""
"","2276.7649999586865","survey-multi-choice","34","100928","0.0-12.0","SS1618435657644","math_question","","","","","","","","","","","","{""Q0"":""5""}","[0]","5","",""
"","null","html-keyboard-response","35","101877","0.0-13.0-0.0","SS1618435657644","","","null","","","","","","<p><img src= images/blank.png width =""600"" height = ""600"" style=""position:fixed;top:50%; left:50%; transform: translate(-50%, -50%); border:5px solid black"">","","","","","","","",""
"","82.98499998636544","sequential-stimulus-presentation-old","36","106969","0.0-13.0-1.0","SS1618435657644","trial","","40","500","582.9849999863654","images/stimuli/spore_stims/complex_04_A_b.gif","images/stimuli/spore_stims/complex_09_A_a.gif","forced_long","","2","complex_dissimilar","images/stimuli/spore_stims/complex_09_A_a.gif","","","","",""
"","null","html-keyboard-response","37","107967","0.0-13.0-0.1","SS1618435657644","","","null","","","","","","<p><img src= images/blank.png width =""600"" height = ""600"" style=""position:fixed;top:50%; left:50%; transform: translate(-50%, -50%); border:5px solid black"">","","","","","","","",""
"","911.420000018552","sequential-stimulus-presentation-old","38","109388","0.0-13.0-1.1","SS1618435657644","trial","","40","500","1411.420000018552","images/stimuli/spore_stims/complex_04_A_b.gif","images/stimuli/spore_stims/complex_09_A_a.gif","forced_long","","2","complex_dissimilar","images/stimuli/spore_stims/complex_09_A_a.gif","","","","",""
"","null","html-keyboard-response","39","110302","0.0-13.0-0.2","SS1618435657644","","","null","","","","","","<p><img src= images/blank.png width =""600"" height = ""600"" style=""position:fixed;top:50%; left:50%; transform: translate(-50%, -50%); border:5px solid black"">","","","","","","","",""
"","1953.1050000805408","sequential-stimulus-presentation-old","40","112762","0.0-13.0-1.2","SS1618435657644","trial","","40","500","2453.105000080541","images/stimuli/spore_stims/complex_04_A_b.gif","images/stimuli/spore_stims/complex_09_A_a.gif","forced_long","","2","complex_dissimilar","images/stimuli/spore_stims/complex_09_A_a.gif","","","","",""
"","null","html-keyboard-response","41","113616","0.0-13.0-0.3","SS1618435657644","","","null","","","","","","<p><img src= images/blank.png width =""600"" height = ""600"" style=""position:fixed;top:50%; left:50%; transform: translate(-50%, -50%); border:5px solid black"">","","","","","","","",""
"","4738.305000006221","sequential-stimulus-presentation-old","42","118861","0.0-13.0-1.3","SS1618435657644","trial","","40","500","5238.305000006221","images/stimuli/spore_stims/complex_04_A_b.gif","images/stimuli/spore_stims/complex_09_A_a.gif","forced_long","","2","complex_dissimilar","images/stimuli/spore_stims/complex_04_A_b.gif","","","","",""
"","3061.710000038147","survey-multi-choice","43","121928","0.0-14.0","SS1618435657644","math_question","","","","","","","","","","","","{""Q0"":""12""}","[0]","12","",""
"","null","html-keyboard-response","44","123202","0.0-15.0-0.0","SS1618435657644","","","null","","","","","","<p><img src= images/blank.png width =""600"" height = ""600"" style=""position:fixed;top:50%; left:50%; transform: translate(-50%, -50%); border:5px solid black"">","","","","","","","",""
"","540.1550000533462","sequential-stimulus-presentation-old","45","128749","0.0-15.0-1.0","SS1618435657644","trial","","40","500","1040.1550000533462","images/stimuli/spore_stims/simple_03_A_a.gif","images/stimuli/spore_stims/simple_09_A_b.gif","forced_long","","3","simple_dissimilar","images/stimuli/spore_stims/simple_09_A_b.gif","","","","",""
"","null","html-keyboard-response","46","129775","0.0-15.0-0.1","SS1618435657644","","","null","","","","","","<p><img src= images/blank.png width =""600"" height = ""600"" style=""position:fixed;top:50%; left:50%; transform: translate(-50%, -50%); border:5px solid black"">","","","","","","","",""
"","1785.1999999256805","sequential-stimulus-presentation-old","47","132068","0.0-15.0-1.1","SS1618435657644","trial","","40","500","2285.1999999256805","images/stimuli/spore_stims/simple_03_A_a.gif","images/stimuli/spore_stims/simple_09_A_b.gif","forced_long","","3","simple_dissimilar","images/stimuli/spore_stims/simple_09_A_b.gif","","","","",""
"","null","html-keyboard-response","48","133096","0.0-15.0-0.2","SS1618435657644","","","null","","","","","","<p><img src= images/blank.png width =""600"" height = ""600"" style=""position:fixed;top:50%; left:50%; transform: translate(-50%, -50%); border:5px solid black"">","","","","","","","",""
"","369.00000006426126","sequential-stimulus-presentation-old","49","133973","0.0-15.0-1.2","SS1618435657644","trial","","40","500","869.0000000642613","images/stimuli/spore_stims/simple_03_A_a.gif","images/stimuli/spore_stims/simple_09_A_b.gif","forced_long","","3","simple_dissimilar","images/stimuli/spore_stims/simple_09_A_b.gif","","","","",""
"","null","html-keyboard-response","50","135181","0.0-15.0-0.3","SS1618435657644","","","null","","","","","","<p><img src= images/blank.png width =""600"" height = ""600"" style=""position:fixed;top:50%; left:50%; transform: translate(-50%, -50%); border:5px solid black"">","","","","","","","",""
"","1044.385000015609","sequential-stimulus-presentation-old","51","136731","0.0-15.0-1.3","SS1618435657644","trial","","40","500","1544.385000015609","images/stimuli/spore_stims/simple_03_A_a.gif","images/stimuli/spore_stims/simple_09_A_b.gif","forced_long","","3","simple_dissimilar","images/stimuli/spore_stims/simple_09_A_b.gif","","","","",""
"","null","html-keyboard-response","52","137724","0.0-15.0-0.4","SS1618435657644","","","null","","","","","","<p><img src= images/blank.png width =""600"" height = ""600"" style=""position:fixed;top:50%; left:50%; transform: translate(-50%, -50%); border:5px solid black"">","","","","","","","",""
"","99.50500004924834","sequential-stimulus-presentation-old","53","138332","0.0-15.0-1.4","SS1618435657644","trial","","40","500","599.5050000492483","images/stimuli/spore_stims/simple_03_A_a.gif","images/stimuli/spore_stims/simple_09_A_b.gif","forced_long","","3","simple_dissimilar","images/stimuli/spore_stims/simple_09_A_b.gif","","","","",""
"","2462.5349999405444","survey-multi-choice","54","140800","0.0-16.0","SS1618435657644","math_question","","","","","","","","","","","","{""Q0"":""11""}","[0]","11","",""
"","null","html-keyboard-response","55","142065","0.0-17.0-0.0","SS1618435657644","","","null","","","","","","<p><img src= images/blank.png width =""600"" height = ""600"" style=""position:fixed;top:50%; left:50%; transform: translate(-50%, -50%); border:5px solid black"">","","","","","","","",""
"","2283.9799999492243","sequential-stimulus-presentation-old","56","144408","0.0-17.0-1.0","SS1618435657644","trial","","40","500","2783.9799999492243","images/stimuli/spore_stims/simple_09_A_a.gif","images/stimuli/spore_stims/simple_06_A_b.gif","forced_short","","4","simple_dissimilar","images/stimuli/spore_stims/simple_06_A_b.gif","","","","",""
"","null","html-keyboard-response","57","145520","0.0-17.0-0.1","SS1618435657644","","","null","","","","","","<p><img src= images/blank.png width =""600"" height = ""600"" style=""position:fixed;top:50%; left:50%; transform: translate(-50%, -50%); border:5px solid black"">","","","","","","","",""
"","2801.4449999900535","sequential-stimulus-presentation-old","58","148830","0.0-17.0-1.1","SS1618435657644","trial","","40","500","3301.4449999900535","images/stimuli/spore_stims/simple_09_A_a.gif","images/stimuli/spore_stims/simple_06_A_b.gif","forced_short","","4","simple_dissimilar","images/stimuli/spore_stims/simple_06_A_b.gif","","","","",""
"","null","html-keyboard-response","59","149851","0.0-17.0-0.2","SS1618435657644","","","null","","","","","","<p><img src= images/blank.png width =""600"" height = ""600"" style=""position:fixed;top:50%; left:50%; transform: translate(-50%, -50%); border:5px solid black"">","","","","","","","",""
"","1303.2299999613315","sequential-stimulus-presentation-old","60","151663","0.0-17.0-1.2","SS1618435657644","trial","","40","500","1803.2299999613315","images/stimuli/spore_stims/simple_09_A_a.gif","images/stimuli/spore_stims/simple_06_A_b.gif","forced_short","","4","simple_dissimilar","images/stimuli/spore_stims/simple_06_A_b.gif","","","","",""
"","null","html-keyboard-response","61","152523","0.0-17.0-0.3","SS1618435657644","","","null","","","","","","<p><img src= images/blank.png width =""600"" height = ""600"" style=""position:fixed;top:50%; left:50%; transform: translate(-50%, -50%); border:5px solid black"">","","","","","","","",""
"","3318.855000077747","sequential-stimulus-presentation-old","62","156349","0.0-17.0-1.3","SS1618435657644","trial","","40","500","3818.855000077747","images/stimuli/spore_stims/simple_09_A_a.gif","images/stimuli/spore_stims/simple_06_A_b.gif","forced_short","","4","simple_dissimilar","images/stimuli/spore_stims/simple_09_A_a.gif","","","","",""
"","null","html-keyboard-response","63","157231","0.0-17.0-0.4","SS1618435657644","","","null","","","","","","<p><img src= images/blank.png width =""600"" height = ""600"" style=""position:fixed;top:50%; left:50%; transform: translate(-50%, -50%); border:5px solid black"">","","","","","","","",""
"","337.3200000496581","sequential-stimulus-presentation-old","64","158078","0.0-17.0-1.4","SS1618435657644","trial","","40","500","837.3200000496581","images/stimuli/spore_stims/simple_09_A_a.gif","images/stimuli/spore_stims/simple_06_A_b.gif","forced_short","","4","simple_dissimilar","images/stimuli/spore_stims/simple_09_A_a.gif","","","","",""
"","2427.904999931343","survey-multi-choice","65","160512","0.0-18.0","SS1618435657644","math_question","","","","","","","","","","","","{""Q0"":""16""}","[0]","16","",""
"","null","html-keyboard-response","66","161430","0.0-19.0-0.0","SS1618435657644","","","null","","","","","","<p><img src= images/blank.png width =""600"" height = ""600"" style=""position:fixed;top:50%; left:50%; transform: translate(-50%, -50%); border:5px solid black"">","","","","","","","",""
"","1200.8599999826401","sequential-stimulus-presentation-old","67","162691","0.0-19.0-1.0","SS1618435657644","trial","","40","500","1700.8599999826401","images/stimuli/spore_stims/simple_19_A_b.gif","images/stimuli/spore_stims/simple_01_A_a.gif","forced_short","","5","simple_dissimilar","images/stimuli/spore_stims/simple_01_A_a.gif","","","","",""
"","null","html-keyboard-response","68","163735","0.0-19.0-0.1","SS1618435657644","","","null","","","","","","<p><img src= images/blank.png width =""600"" height = ""600"" style=""position:fixed;top:50%; left:50%; transform: translate(-50%, -50%); border:5px solid black"">","","","","","","","",""
"","2972.9050000896677","sequential-stimulus-presentation-old","69","167225","0.0-19.0-1.1","SS1618435657644","trial","","40","500","3472.9050000896677","images/stimuli/spore_stims/simple_19_A_b.gif","images/stimuli/spore_stims/simple_01_A_a.gif","forced_short","","5","simple_dissimilar","images/stimuli/spore_stims/simple_01_A_a.gif","","","","",""
"","null","html-keyboard-response","70","168364","0.0-19.0-0.2","SS1618435657644","","","null","","","","","","<p><img src= images/blank.png width =""600"" height = ""600"" style=""position:fixed;top:50%; left:50%; transform: translate(-50%, -50%); border:5px solid black"">","","","","","","","",""
"","624.9649999663234","sequential-stimulus-presentation-old","71","169499","0.0-19.0-1.2","SS1618435657644","trial","","40","500","1124.9649999663234","images/stimuli/spore_stims/simple_19_A_b.gif","images/stimuli/spore_stims/simple_01_A_a.gif","forced_short","","5","simple_dissimilar","images/stimuli/spore_stims/simple_01_A_a.gif","","","","",""
"","null","html-keyboard-response","72","170485","0.0-19.0-0.3","SS1618435657644","","","null","","","","","","<p><img src= images/blank.png width =""600"" height = ""600"" style=""position:fixed;top:50%; left:50%; transform: translate(-50%, -50%); border:5px solid black"">","","","","","","","",""
"","860.6350000482053","sequential-stimulus-presentation-old","73","171857","0.0-19.0-1.3","SS1618435657644","trial","","40","500","1360.6350000482053","images/stimuli/spore_stims/simple_19_A_b.gif","images/stimuli/spore_stims/simple_01_A_a.gif","forced_short","","5","simple_dissimilar","images/stimuli/spore_stims/simple_01_A_a.gif","","","","",""
"","2753.9249999681488","survey-multi-choice","74","174616","0.0-20.0","SS1618435657644","math_question","","","","","","","","","","","","{""Q0"":""9""}","[0]","9","",""
"","null","html-keyboard-response","75","175604","0.0-21.0-0.0","SS1618435657644","","","null","","","","","","<p><img src= images/blank.png width =""600"" height = ""600"" style=""position:fixed;top:50%; left:50%; transform: translate(-50%, -50%); border:5px solid black"">","","","","","","","",""
"","5566.37499993667","sequential-stimulus-presentation-old","76","181682","0.0-21.0-1.0","SS1618435657644","trial","","40","500","6066.37499993667","images/stimuli/spore_stims/complex_19_A_b.gif","images/stimuli/spore_stims/complex_17_A_a.gif","self_paced","","6","complex_dissimilar","images/stimuli/spore_stims/complex_17_A_a.gif","","","","",""
"","null","html-keyboard-response","77","182706","0.0-21.0-0.1","SS1618435657644","","","null","","","","","","<p><img src= images/blank.png width =""600"" height = ""600"" style=""position:fixed;top:50%; left:50%; transform: translate(-50%, -50%); border:5px solid black"">","","","","","","","",""
"","2239.4400000339374","sequential-stimulus-presentation-old","78","185455","0.0-21.0-1.1","SS1618435657644","trial","","40","500","2739.4400000339374","images/stimuli/spore_stims/complex_19_A_b.gif","images/stimuli/spore_stims/complex_17_A_a.gif","self_paced","","6","complex_dissimilar","images/stimuli/spore_stims/complex_17_A_a.gif","","","","",""
"","null","html-keyboard-response","79","186589","0.0-21.0-0.2","SS1618435657644","","","null","","","","","","<p><img src= images/blank.png width =""600"" height = ""600"" style=""position:fixed;top:50%; left:50%; transform: translate(-50%, -50%); border:5px solid black"">","","","","","","","",""
"","54.28000004030764","sequential-stimulus-presentation-old","80","187153","0.0-21.0-1.2","SS1618435657644","trial","","40","500","554.2800000403076","images/stimuli/spore_stims/complex_19_A_b.gif","images/stimuli/spore_stims/complex_17_A_a.gif","self_paced","","6","complex_dissimilar","images/stimuli/spore_stims/complex_17_A_a.gif","","","","",""
"","null","html-keyboard-response","81","188082","0.0-21.0-0.3","SS1618435657644","","","null","","","","","","<p><img src= images/blank.png width =""600"" height = ""600"" style=""position:fixed;top:50%; left:50%; transform: translate(-50%, -50%); border:5px solid black"">","","","","","","","",""
"","98.58499991241843","sequential-stimulus-presentation-old","82","188689","0.0-21.0-1.3","SS1618435657644","trial","","40","500","598.5849999124184","images/stimuli/spore_stims/complex_19_A_b.gif","images/stimuli/spore_stims/complex_17_A_a.gif","self_paced","","6","complex_dissimilar","images/stimuli/spore_stims/complex_17_A_a.gif","","","","",""
"","null","html-keyboard-response","83","189980","0.0-21.0-0.4","SS1618435657644","","","null","","","","","","<p><img src= images/blank.png width =""600"" height = ""600"" style=""position:fixed;top:50%; left:50%; transform: translate(-50%, -50%); border:5px solid black"">","","","","","","","",""
"","443.7899999320507","sequential-stimulus-presentation-old","84","190932","0.0-21.0-1.4","SS1618435657644","trial","","40","500","943.7899999320507","images/stimuli/spore_stims/complex_19_A_b.gif","images/stimuli/spore_stims/complex_17_A_a.gif","self_paced","","6","complex_dissimilar","images/stimuli/spore_stims/complex_17_A_a.gif","","","","",""
"","null","html-keyboard-response","85","192026","0.0-21.0-0.5","SS1618435657644","","","null","","","","","","<p><img src= images/blank.png width =""600"" height = ""600"" style=""position:fixed;top:50%; left:50%; transform: translate(-50%, -50%); border:5px solid black"">","","","","","","","",""
"","1582.3850000742823","sequential-stimulus-presentation-old","86","194116","0.0-21.0-1.5","SS1618435657644","trial","","40","500","2082.3850000742823","images/stimuli/spore_stims/complex_19_A_b.gif","images/stimuli/spore_stims/complex_17_A_a.gif","self_paced","","6","complex_dissimilar","images/stimuli/spore_stims/complex_17_A_a.gif","","","","",""
"","2437.3149999883026","survey-multi-choice","87","196560","0.0-22.0","SS1618435657644","math_question","","","","","","","","","","","","{""Q0"":""11""}","[0]","11","",""
"","null","html-keyboard-response","88","197554","0.0-23.0-0.0","SS1618435657644","","","null","","","","","","<p><img src= images/blank.png width =""600"" height = ""600"" style=""position:fixed;top:50%; left:50%; transform: translate(-50%, -50%); border:5px solid black"">","","","","","","","",""
"","413.8800000073388","sequential-stimulus-presentation-old","89","202978","0.0-23.0-1.0","SS1618435657644","trial","","40","500","913.8800000073388","images/stimuli/spore_stims/complex_03_A_a.gif","images/stimuli/spore_stims/complex_15_A_b.gif","forced_long","","7","complex_dissimilar","images/stimuli/spore_stims/complex_15_A_b.gif","","","","",""
"","null","html-keyboard-response","90","204201","0.0-23.0-0.1","SS1618435657644","","","null","","","","","","<p><img src= images/blank.png width =""600"" height = ""600"" style=""position:fixed;top:50%; left:50%; transform: translate(-50%, -50%); border:5px solid black"">","","","","","","","",""
"","2714.1099999425933","sequential-stimulus-presentation-old","91","207420","0.0-23.0-1.1","SS1618435657644","trial","","40","500","3214.1099999425933","images/stimuli/spore_stims/complex_03_A_a.gif","images/stimuli/spore_stims/complex_15_A_b.gif","forced_long","","7","complex_dissimilar","images/stimuli/spore_stims/complex_03_A_a.gif","","","","",""
"","null","html-keyboard-response","92","208323","0.0-23.0-0.2","SS1618435657644","","","null","","","","","","<p><img src= images/blank.png width =""600"" height = ""600"" style=""position:fixed;top:50%; left:50%; transform: translate(-50%, -50%); border:5px solid black"">","","","","","","","",""
"","4831.039999960922","sequential-stimulus-presentation-old","93","213666","0.0-23.0-1.2","SS1618435657644","trial","","40","500","5331.039999960922","images/stimuli/spore_stims/complex_03_A_a.gif","images/stimuli/spore_stims/complex_15_A_b.gif","forced_long","","7","complex_dissimilar","images/stimuli/spore_stims/complex_15_A_b.gif","","","","",""
"","null","html-keyboard-response","94","214501","0.0-23.0-0.3","SS1618435657644","","","null","","","","","","<p><img src= images/blank.png width =""600"" height = ""600"" style=""position:fixed;top:50%; left:50%; transform: translate(-50%, -50%); border:5px solid black"">","","","","","","","",""
"","2734.0799999656156","sequential-stimulus-presentation-old","95","217745","0.0-23.0-1.3","SS1618435657644","trial","","40","500","3234.0799999656156","images/stimuli/spore_stims/complex_03_A_a.gif","images/stimuli/spore_stims/complex_15_A_b.gif","forced_long","","7","complex_dissimilar","images/stimuli/spore_stims/complex_03_A_a.gif","","","","",""
"","null","html-keyboard-response","96","218679","0.0-23.0-0.4","SS1618435657644","","","null","","","","","","<p><img src= images/blank.png width =""600"" height = ""600"" style=""position:fixed;top:50%; left:50%; transform: translate(-50%, -50%); border:5px solid black"">","","","","","","","",""
"","3217.655000044033","sequential-stimulus-presentation-old","97","222406","0.0-23.0-1.4","SS1618435657644","trial","","40","500","3717.655000044033","images/stimuli/spore_stims/complex_03_A_a.gif","images/stimuli/spore_stims/complex_15_A_b.gif","forced_long","","7","complex_dissimilar","images/stimuli/spore_stims/complex_15_A_b.gif","","","","",""
"","null","html-keyboard-response","98","223407","0.0-23.0-0.5","SS1618435657644","","","null","","","","","","<p><img src= images/blank.png width =""600"" height = ""600"" style=""position:fixed;top:50%; left:50%; transform: translate(-50%, -50%); border:5px solid black"">","","","","","","","",""
"","627.2599999792874","sequential-stimulus-presentation-old","99","224546","0.0-23.0-1.5","SS1618435657644","trial","","40","500","1127.2599999792874","images/stimuli/spore_stims/complex_03_A_a.gif","images/stimuli/spore_stims/complex_15_A_b.gif","forced_long","","7","complex_dissimilar","images/stimuli/spore_stims/complex_15_A_b.gif","","","","",""
"","2791.674999985844","survey-multi-choice","100","227344","0.0-24.0","SS1618435657644","math_question","","","","","","","","","","","","{""Q0"":""5""}","[0]","5","",""
"","null","html-keyboard-response","101","228519","0.0-25.0-0.0","SS1618435657644","","","null","","","","","","<p><img src= images/blank.png width =""600"" height = ""600"" style=""position:fixed;top:50%; left:50%; transform: translate(-50%, -50%); border:5px solid black"">","","","","","","","",""
"","1910.1850000442937","sequential-stimulus-presentation-old","102","230484","0.0-25.0-1.0","SS1618435657644","trial","","40","500","2410.1850000442937","images/stimuli/spore_stims/complex_20_A_b.gif","images/stimuli/spore_stims/complex_04_A_a.gif","forced_short","","8","complex_dissimilar","images/stimuli/spore_stims/complex_04_A_a.gif","","","","",""
"","null","html-keyboard-response","103","231556","0.0-25.0-0.1","SS1618435657644","","","null","","","","","","<p><img src= images/blank.png width =""600"" height = ""600"" style=""position:fixed;top:50%; left:50%; transform: translate(-50%, -50%); border:5px solid black"">","","","","","","","",""
"","418.74999995343387","sequential-stimulus-presentation-old","104","232481","0.0-25.0-1.1","SS1618435657644","trial","","40","500","918.7499999534339","images/stimuli/spore_stims/complex_20_A_b.gif","images/stimuli/spore_stims/complex_04_A_a.gif","forced_short","","8","complex_dissimilar","images/stimuli/spore_stims/complex_04_A_a.gif","","","","",""
"","null","html-keyboard-response","105","233734","0.0-25.0-0.2","SS1618435657644","","","null","","","","","","<p><img src= images/blank.png width =""600"" height = ""600"" style=""position:fixed;top:50%; left:50%; transform: translate(-50%, -50%); border:5px solid black"">","","","","","","","",""
"","1902.7299999725074","sequential-stimulus-presentation-old","106","236148","0.0-25.0-1.2","SS1618435657644","trial","","40","500","2402.7299999725074","images/stimuli/spore_stims/complex_20_A_b.gif","images/stimuli/spore_stims/complex_04_A_a.gif","forced_short","","8","complex_dissimilar","images/stimuli/spore_stims/complex_04_A_a.gif","","","","",""
"","null","html-keyboard-response","107","237372","0.0-25.0-0.3","SS1618435657644","","","null","","","","","","<p><img src= images/blank.png width =""600"" height = ""600"" style=""position:fixed;top:50%; left:50%; transform: translate(-50%, -50%); border:5px solid black"">","","","","","","","",""
"","1576.4849999686703","sequential-stimulus-presentation-old","108","239457","0.0-25.0-1.3","SS1618435657644","trial","","40","500","2076.4849999686703","images/stimuli/spore_stims/complex_20_A_b.gif","images/stimuli/spore_stims/complex_04_A_a.gif","forced_short","","8","complex_dissimilar","images/stimuli/spore_stims/complex_04_A_a.gif","","","","",""
"","null","html-keyboard-response","109","240386","0.0-25.0-0.4","SS1618435657644","","","null","","","","","","<p><img src= images/blank.png width =""600"" height = ""600"" style=""position:fixed;top:50%; left:50%; transform: translate(-50%, -50%); border:5px solid black"">","","","","","","","",""
"","215.78000008594245","sequential-stimulus-presentation-old","110","241115","0.0-25.0-1.4","SS1618435657644","trial","","40","500","715.7800000859424","images/stimuli/spore_stims/complex_20_A_b.gif","images/stimuli/spore_stims/complex_04_A_a.gif","forced_short","","8","complex_dissimilar","images/stimuli/spore_stims/complex_04_A_a.gif","","","","",""
"","2833.7850000243634","survey-multi-choice","111","243952","0.0-26.0","SS1618435657644","math_question","","","","","","","","","","","","{""Q0"":""5""}","[0]","5","",""
"","null","html-keyboard-response","112","244780","0.0-27.0-0.0","SS1618435657644","","","null","","","","","","<p><img src= images/blank.png width =""600"" height = ""600"" style=""position:fixed;top:50%; left:50%; transform: translate(-50%, -50%); border:5px solid black"">","","","","","","","",""
"","1222.1850000787526","sequential-stimulus-presentation-old","113","246064","0.0-27.0-1.0","SS1618435657644","trial","","40","500","1722.1850000787526","images/stimuli/spore_stims/complex_18_A_a.gif","images/stimuli/spore_stims/complex_05_A_b.gif","forced_short","","9","complex_dissimilar","images/stimuli/spore_stims/complex_05_A_b.gif","","","","",""
"","null","html-keyboard-response","114","247195","0.0-27.0-0.1","SS1618435657644","","","null","","","","","","<p><img src= images/blank.png width =""600"" height = ""600"" style=""position:fixed;top:50%; left:50%; transform: translate(-50%, -50%); border:5px solid black"">","","","","","","","",""
"","4436.270000063814","sequential-stimulus-presentation-old","115","252142","0.0-27.0-1.1","SS1618435657644","trial","","40","500","4936.270000063814","images/stimuli/spore_stims/complex_18_A_a.gif","images/stimuli/spore_stims/complex_05_A_b.gif","forced_short","","9","complex_dissimilar","images/stimuli/spore_stims/complex_05_A_b.gif","","","","",""
"","null","html-keyboard-response","116","253042","0.0-27.0-0.2","SS1618435657644","","","null","","","","","","<p><img src= images/blank.png width =""600"" height = ""600"" style=""position:fixed;top:50%; left:50%; transform: translate(-50%, -50%); border:5px solid black"">","","","","","","","",""
"","237.5300000421703","sequential-stimulus-presentation-old","117","253790","0.0-27.0-1.2","SS1618435657644","trial","","40","500","737.5300000421703","images/stimuli/spore_stims/complex_18_A_a.gif","images/stimuli/spore_stims/complex_05_A_b.gif","forced_short","","9","complex_dissimilar","images/stimuli/spore_stims/complex_05_A_b.gif","","","","",""
"","null","html-keyboard-response","118","254609","0.0-27.0-0.3","SS1618435657644","","","null","","","","","","<p><img src= images/blank.png width =""600"" height = ""600"" style=""position:fixed;top:50%; left:50%; transform: translate(-50%, -50%); border:5px solid black"">","","","","","","","",""
"","136.12500007729977","sequential-stimulus-presentation-old","119","255255","0.0-27.0-1.3","SS1618435657644","trial","","40","500","636.1250000772998","images/stimuli/spore_stims/complex_18_A_a.gif","images/stimuli/spore_stims/complex_05_A_b.gif","forced_short","","9","complex_dissimilar","images/stimuli/spore_stims/complex_05_A_b.gif","","","","",""
"","2936.824999982491","survey-multi-choice","120","258200","0.0-28.0","SS1618435657644","math_question","","","","","","","","","","","","{""Q0"":""7""}","[0]","7","",""
"","null","html-keyboard-response","121","259190","0.0-29.0-0.0","SS1618435657644","","","null","","","","","","<p><img src= images/blank.png width =""600"" height = ""600"" style=""position:fixed;top:50%; left:50%; transform: translate(-50%, -50%); border:5px solid black"">","","","","","","","",""
"","5153.399999951944","sequential-stimulus-presentation-old","122","264849","0.0-29.0-1.0","SS1618435657644","trial","","40","500","5653.399999951944","images/stimuli/spore_stims/complex_01_A_a.gif","images/stimuli/spore_stims/complex_02_A_b.gif","self_paced","","10","complex_dissimilar","images/stimuli/spore_stims/complex_02_A_b.gif","","","","",""
"","null","html-keyboard-response","123","265820","0.0-29.0-0.1","SS1618435657644","","","null","","","","","","<p><img src= images/blank.png width =""600"" height = ""600"" style=""position:fixed;top:50%; left:50%; transform: translate(-50%, -50%); border:5px solid black"">","","","","","","","",""
"","928.0499999877065","sequential-stimulus-presentation-old","124","267259","0.0-29.0-1.1","SS1618435657644","trial","","40","500","1428.0499999877065","images/stimuli/spore_stims/complex_01_A_a.gif","images/stimuli/spore_stims/complex_02_A_b.gif","self_paced","","10","complex_dissimilar","images/stimuli/spore_stims/complex_02_A_b.gif","","","","",""
"","null","html-keyboard-response","125","268449","0.0-29.0-0.2","SS1618435657644","","","null","","","","","","<p><img src= images/blank.png width =""600"" height = ""600"" style=""position:fixed;top:50%; left:50%; transform: translate(-50%, -50%); border:5px solid black"">","","","","","","","",""
"","4.799999995157123","sequential-stimulus-presentation-old","126","268965","0.0-29.0-1.2","SS1618435657644","trial","","40","500","504.7999999951571","images/stimuli/spore_stims/complex_01_A_a.gif","images/stimuli/spore_stims/complex_02_A_b.gif","self_paced","","10","complex_dissimilar","images/stimuli/spore_stims/complex_02_A_b.gif","","","","",""
"","null","html-keyboard-response","127","269847","0.0-29.0-0.3","SS1618435657644","","","null","","","","","","<p><img src= images/blank.png width =""600"" height = ""600"" style=""position:fixed;top:50%; left:50%; transform: translate(-50%, -50%); border:5px solid black"">","","","","","","","",""
"","6286.885000066832","sequential-stimulus-presentation-old","128","276644","0.0-29.0-1.3","SS1618435657644","trial","","40","500","6786.885000066832","images/stimuli/spore_stims/complex_01_A_a.gif","images/stimuli/spore_stims/complex_02_A_b.gif","self_paced","","10","complex_dissimilar","images/stimuli/spore_stims/complex_01_A_a.gif","","","","",""
"","1998.145000077784","survey-multi-choice","129","278648","0.0-30.0","SS1618435657644","math_question","","","","","","","","","","","","{""Q0"":""7""}","[0]","7","",""
"","null","html-keyboard-response","130","279797","0.0-31.0-0.0","SS1618435657644","","","null","","","","","","<p><img src= images/blank.png width =""600"" height = ""600"" style=""position:fixed;top:50%; left:50%; transform: translate(-50%, -50%); border:5px solid black"">","","","","","","","",""
"","136.62499992642552","sequential-stimulus-presentation-old","131","284943","0.0-31.0-1.0","SS1618435657644","trial","","40","500","636.6249999264255","images/stimuli/spore_stims/simple_20_A_b.gif","images/stimuli/spore_stims/simple_10_A_a.gif","forced_long","","11","simple_dissimilar","images/stimuli/spore_stims/simple_10_A_a.gif","","","","",""
"","null","html-keyboard-response","132","285911","0.0-31.0-0.1","SS1618435657644","","","null","","","","","","<p><img src= images/blank.png width =""600"" height = ""600"" style=""position:fixed;top:50%; left:50%; transform: translate(-50%, -50%); border:5px solid black"">","","","","","","","",""
"","1494.1849999595433","sequential-stimulus-presentation-old","133","287917","0.0-31.0-1.1","SS1618435657644","trial","","40","500","1994.1849999595433","images/stimuli/spore_stims/simple_20_A_b.gif","images/stimuli/spore_stims/simple_10_A_a.gif","forced_long","","11","simple_dissimilar","images/stimuli/spore_stims/simple_20_A_b.gif","","","","",""
"","null","html-keyboard-response","134","288879","0.0-31.0-0.2","SS1618435657644","","","null","","","","","","<p><img src= images/blank.png width =""600"" height = ""600"" style=""position:fixed;top:50%; left:50%; transform: translate(-50%, -50%); border:5px solid black"">","","","","","","","",""
"","149.36499996110797","sequential-stimulus-presentation-old","135","289539","0.0-31.0-1.2","SS1618435657644","trial","","40","500","649.364999961108","images/stimuli/spore_stims/simple_20_A_b.gif","images/stimuli/spore_stims/simple_10_A_a.gif","forced_long","","11","simple_dissimilar","images/stimuli/spore_stims/simple_10_A_a.gif","","","","",""
"","null","html-keyboard-response","136","290784","0.0-31.0-0.3","SS1618435657644","","","null","","","","","","<p><img src= images/blank.png width =""600"" height = ""600"" style=""position:fixed;top:50%; left:50%; transform: translate(-50%, -50%); border:5px solid black"">","","","","","","","",""
"","479.0800000773743","sequential-stimulus-presentation-old","137","291776","0.0-31.0-1.3","SS1618435657644","trial","","40","500","979.0800000773743","images/stimuli/spore_stims/simple_20_A_b.gif","images/stimuli/spore_stims/simple_10_A_a.gif","forced_long","","11","simple_dissimilar","images/stimuli/spore_stims/simple_10_A_a.gif","","","","",""
"","null","html-keyboard-response","138","292952","0.0-31.0-0.4","SS1618435657644","","","null","","","","","","<p><img src= images/blank.png width =""600"" height = ""600"" style=""position:fixed;top:50%; left:50%; transform: translate(-50%, -50%); border:5px solid black"">","","","","","","","",""
"","1888.5299999965355","sequential-stimulus-presentation-old","139","295351","0.0-31.0-1.4","SS1618435657644","trial","","40","500","2388.5299999965355","images/stimuli/spore_stims/simple_20_A_b.gif","images/stimuli/spore_stims/simple_10_A_a.gif","forced_long","","11","simple_dissimilar","images/stimuli/spore_stims/simple_20_A_b.gif","","","","",""
"[{""page_index"":0,""viewing_time"":2794.095000019297}]","2794.319999986328","instructions","140","298152","0.0-32.0","SS1618435657644","instructions","","","","","","","","","","","","","","","",""
"","5739.620000007562","survey-likert","141","303896","0.0-33.0","SS1618435657644","similarity_question","","","","","","","","","","","","{""Q0"":2}","[0]","","images/stimuli/spore_stims/simple_09_A_b.gif","images/stimuli/spore_stims/simple_03_A_a.gif"
"","3665.0900000240654","survey-likert","142","307568","0.0-34.0","SS1618435657644","similarity_question","","","","","","","","","","","","{""Q0"":1}","[0]","","images/stimuli/spore_stims/complex_03_A_a.gif","images/stimuli/spore_stims/complex_15_A_b.gif"
"","3200.385000091046","survey-likert","143","310776","0.0-35.0","SS1618435657644","similarity_question","","","","","","","","","","","","{""Q0"":2}","[0]","","images/stimuli/spore_stims/simple_07_A_b.gif","images/stimuli/spore_stims/simple_14_A_a.gif"
"","3615.7850000308827","survey-likert","144","314400","0.0-36.0","SS1618435657644","similarity_question","","","","","","","","","","","","{""Q0"":3}","[0]","","images/stimuli/spore_stims/simple_16_A_a.gif","images/stimuli/spore_stims/simple_13_A_b.gif"
"","3472.2299999557436","survey-likert","145","317880","0.0-37.0","SS1618435657644","similarity_question","","","","","","","","","","","","{""Q0"":4}","[0]","","images/stimuli/spore_stims/simple_06_A_b.gif","images/stimuli/spore_stims/simple_09_A_a.gif"
"","7071.699999971315","survey-likert","146","324960","0.0-38.0","SS1618435657644","similarity_question","","","","","","","","","","","","{""Q0"":1}","[0]","","images/stimuli/spore_stims/complex_02_A_b.gif","images/stimuli/spore_stims/complex_01_A_a.gif"
"","2528.790000011213","survey-likert","147","327496","0.0-39.0","SS1618435657644","similarity_question","","","","","","","","","","","","{""Q0"":2}","[0]","","images/stimuli/spore_stims/simple_20_A_b.gif","images/stimuli/spore_stims/simple_10_A_a.gif"
"","9296.384999994189","survey-likert","148","336800","0.0-40.0","SS1618435657644","similarity_question","","","","","","","","","","","","{""Q0"":1}","[0]","","images/stimuli/spore_stims/complex_19_A_b.gif","images/stimuli/spore_stims/complex_17_A_a.gif"
"","7598.985000047833","survey-likert","149","344408","0.0-41.0","SS1618435657644","similarity_question","","","","","","","","","","","","{""Q0"":1}","[0]","","images/stimuli/spore_stims/complex_05_A_b.gif","images/stimuli/spore_stims/complex_18_A_a.gif"
"","7984.399999957532","survey-likert","150","352400","0.0-42.0","SS1618435657644","similarity_question","","","","","","","","","","","","{""Q0"":1}","[0]","","images/stimuli/spore_stims/complex_04_A_a.gif","images/stimuli/spore_stims/complex_20_A_b.gif"
"","2680.155000067316","survey-likert","151","355088","0.0-43.0","SS1618435657644","similarity_question","","","","","","","","","","","","{""Q0"":2}","[0]","","images/stimuli/spore_stims/simple_19_A_b.gif","images/stimuli/spore_stims/simple_01_A_a.gif"
"","4544.274999992922","survey-likert","152","359640","0.0-44.0","SS1618435657644","similarity_question","","","","","","","","","","","","{""Q0"":1}","[0]","","images/stimuli/spore_stims/complex_09_A_a.gif","images/stimuli/spore_stims/complex_04_A_b.gif"
"[{""page_index"":0,""viewing_time"":2304.9299999838695}]","2305.18500006292","instructions","153","361952","0.0-45.0","SS1618435657644","instructions","","","","","","","","","","","","","","","",""
"","4084.1599999694154","survey-likert","154","366040","0.0-46.0","SS1618435657644","","","","","","","","","images/stimuli/spore_stims/simple_06_A_b.gif","","","","{""Q0"":1}","[0]","","",""
"","2360.0700000533834","survey-likert","155","368408","0.0-47.0","SS1618435657644","","","","","","","","","images/stimuli/spore_stims/simple_13_A_b.gif","","","","{""Q0"":1}","[0]","","",""
"","2432.3900000890717","survey-likert","156","370848","0.0-48.0","SS1618435657644","","","","","","","","","images/stimuli/spore_stims/simple_01_A_a.gif","","","","{""Q0"":0}","[0]","","",""
"","3159.8900000099093","survey-likert","157","374016","0.0-49.0","SS1618435657644","","","","","","","","","images/stimuli/spore_stims/complex_02_A_b.gif","","","","{""Q0"":4}","[0]","","",""
"","2648.710000095889","survey-likert","158","376672","0.0-50.0","SS1618435657644","","","","","","","","","images/stimuli/spore_stims/complex_09_A_a.gif","","","","{""Q0"":5}","[0]","","",""
"","3072.1849999390543","survey-likert","159","379753","0.0-51.0","SS1618435657644","","","","","","","","","images/stimuli/spore_stims/complex_04_A_a.gif","","","","{""Q0"":5}","[0]","","",""
"","3535.9049999387935","survey-likert","160","383297","0.0-52.0","SS1618435657644","","","","","","","","","images/stimuli/spore_stims/simple_07_A_b.gif","","","","{""Q0"":1}","[0]","","",""
"","6016.169999958947","survey-likert","161","389321","0.0-53.0","SS1618435657644","","","","","","","","","images/stimuli/spore_stims/complex_19_A_b.gif","","","","{""Q0"":5}","[0]","","",""
"","3047.6849999977276","survey-likert","162","392376","0.0-54.0","SS1618435657644","","","","","","","","","images/stimuli/spore_stims/simple_20_A_b.gif","","","","{""Q0"":2}","[0]","","",""
"","2000.0200000358745","survey-likert","163","394385","0.0-55.0","SS1618435657644","","","","","","","","","images/stimuli/spore_stims/simple_09_A_b.gif","","","","{""Q0"":1}","[0]","","",""
"","4784.259999985807","survey-likert","164","399176","0.0-56.0","SS1618435657644","","","","","","","","","images/stimuli/spore_stims/complex_18_A_a.gif","","","","{""Q0"":6}","[0]","","",""
"","2960.5400000000373","survey-likert","165","402144","0.0-57.0","SS1618435657644","","","","","","","","","images/stimuli/spore_stims/complex_15_A_b.gif","","","","{""Q0"":6}","[0]","","",""
"[{""page_index"":0,""viewing_time"":1295.475000049919}]","1295.7350000506267","instructions","166","403448","0.0-58.0","SS1618435657644","instructions","","","","","","","","","","","","","","","",""
"","2265.8649999648333","demog-age","167","405720","0.0-59.0","SS1618435657644","","","","","","","","","","","","","{""age"":""48""}","","","",""
"","3081.9249999476597","demog-ethnic-US","168","408809","0.0-60.0","SS1618435657644","","","","","","","","","","","","","{""ethnicity"":[""White""]}","[0]","","",""
"","4208.140000002459","demog-gender-and-education","169","413025","0.0-61.0","SS1618435657644","","","","","","","","","","","","","{""gender"":""Male"",""education"":""Bachelor's Degree""}","[0,1]","","",""
"","8701.935000019148","survey-text","170","421737","0.0-62.0","SS1618435657644","feedback","","","","","","","","","","","","{""Q0"":""no - all was fine""}","","","",""
"[{""page_index"":0,""viewing_time"":1027.9950000112876}]","1028.3500000368804","instructions","171","422768","0.0-63.0","SS1618435657644","instructions","","","","","","","","","","","","","","","",""
