"view_history","rt","trial_type","trial_index","time_elapsed","internal_node_id","subject","stimulus_type","trial_stimulus","key_press","minimum_viewing_duration","trial_looking_time","block_deviant","block_background","exposure_type","stimulus","block_number","block_type","stimulus_displayed","responses","question_order","math_correct_answer","stimulus_left","stimulus_right"
"[{""page_index"":0,""viewing_time"":5518.8450000023295}]","5519.595000001573","instructions","0","5521","0.0-0.0","SS1618365921646","","","","","","","","","","","","","","","","",""
"[{""page_index"":0,""viewing_time"":2076.580000000831},{""page_index"":1,""viewing_time"":5771.754999997938}]","7848.509999999806","instructions","1","15372","0.0-1.0","SS1618365921646","instructions","","","","","","","","","","","","","","","",""
"","5064.044999999169","sequential-stimulus-presentation-old","2","20938","0.0-2.0","SS1618365921646","","","40","500","5564.044999999169","null","null","self_paced","","","","","","","","",""
"","5079.775000001973","sequential-stimulus-presentation-old","3","26521","0.0-3.0","SS1618365921646","","","40","500","5579.775000001973","null","null","self_paced","","","","","","","","",""
"[{""page_index"":0,""viewing_time"":4001.509999998234}]","4001.720000000205","instructions","4","30523","0.0-4.0","SS1618365921646","instructions","","","","","","","","","","","","","","","",""
"","1308.549999997922","sequential-stimulus-presentation-old","5","36834","0.0-5.0","SS1618365921646","","","40","500","1808.549999997922","null","null","forced_long","","","","","","","","",""
"","4435.315000002447","sequential-stimulus-presentation-old","6","41321","0.0-6.0","SS1618365921646","","","40","50","4485.315000002447","null","null","forced_long","","","","","","","","",""
"[{""page_index"":0,""viewing_time"":2091.5700000005018}]","2091.7700000027253","instructions","7","43413","0.0-7.0","SS1618365921646","instructions","","","","","","","","","","","","","","","",""
"[{""page_index"":0,""viewing_time"":1420.8599999983562},{""page_index"":1,""viewing_time"":1308.5250000003725},{""page_index"":2,""viewing_time"":1429.9099999989267},{""page_index"":3,""viewing_time"":933.4450000023935},{""page_index"":4,""viewing_time"":996.1899999980233}]","6089.154999997845","instructions","8","49503","0.0-8.0","SS1618365921646","instructions","","","","","","","","","","","","","","","",""
"","null","html-keyboard-response","9","50437","0.0-9.0-0.0","SS1618365921646","","","null","","","","","","<p><img src= images/blank.png width =""600"" height = ""600"" style=""position:fixed;top:50%; left:50%; transform: translate(-50%, -50%); border:5px solid black"">","","","","","","","",""
"","336.7849999995087","sequential-stimulus-presentation-old","10","55777","0.0-9.0-1.0","SS1618365921646","trial","","40","500","836.7849999995087","images/stimuli/spore_stims/simple_08_A_a.gif","images/stimuli/spore_stims/simple_05_A_b.gif","forced_long","","0","simple_dissimilar","images/stimuli/spore_stims/simple_05_A_b.gif","","","","",""
"","null","html-keyboard-response","11","56745","0.0-9.0-0.1","SS1618365921646","","","null","","","","","","<p><img src= images/blank.png width =""600"" height = ""600"" style=""position:fixed;top:50%; left:50%; transform: translate(-50%, -50%); border:5px solid black"">","","","","","","","",""
"","11449.404999999388","sequential-stimulus-presentation-old","12","68697","0.0-9.0-1.1","SS1618365921646","trial","","40","500","11949.404999999388","images/stimuli/spore_stims/simple_08_A_a.gif","images/stimuli/spore_stims/simple_05_A_b.gif","forced_long","","0","simple_dissimilar","images/stimuli/spore_stims/simple_05_A_b.gif","","","","",""
"","null","html-keyboard-response","13","69793","0.0-9.0-0.2","SS1618365921646","","","null","","","","","","<p><img src= images/blank.png width =""600"" height = ""600"" style=""position:fixed;top:50%; left:50%; transform: translate(-50%, -50%); border:5px solid black"">","","","","","","","",""
"","545.0350000028266","sequential-stimulus-presentation-old","14","70840","0.0-9.0-1.2","SS1618365921646","trial","","40","500","1045.0350000028266","images/stimuli/spore_stims/simple_08_A_a.gif","images/stimuli/spore_stims/simple_05_A_b.gif","forced_long","","0","simple_dissimilar","images/stimuli/spore_stims/simple_05_A_b.gif","","","","",""
"","null","html-keyboard-response","15","72056","0.0-9.0-0.3","SS1618365921646","","","null","","","","","","<p><img src= images/blank.png width =""600"" height = ""600"" style=""position:fixed;top:50%; left:50%; transform: translate(-50%, -50%); border:5px solid black"">","","","","","","","",""
"","449.7650000012072","sequential-stimulus-presentation-old","16","73009","0.0-9.0-1.3","SS1618365921646","trial","","40","500","949.7650000012072","images/stimuli/spore_stims/simple_08_A_a.gif","images/stimuli/spore_stims/simple_05_A_b.gif","forced_long","","0","simple_dissimilar","images/stimuli/spore_stims/simple_05_A_b.gif","","","","",""
"","null","html-keyboard-response","17","73836","0.0-9.0-0.4","SS1618365921646","","","null","","","","","","<p><img src= images/blank.png width =""600"" height = ""600"" style=""position:fixed;top:50%; left:50%; transform: translate(-50%, -50%); border:5px solid black"">","","","","","","","",""
"","749.7000000003027","sequential-stimulus-presentation-old","18","75089","0.0-9.0-1.4","SS1618365921646","trial","","40","500","1249.7000000003027","images/stimuli/spore_stims/simple_08_A_a.gif","images/stimuli/spore_stims/simple_05_A_b.gif","forced_long","","0","simple_dissimilar","images/stimuli/spore_stims/simple_08_A_a.gif","","","","",""
"","null","html-keyboard-response","19","76060","0.0-9.0-0.5","SS1618365921646","","","null","","","","","","<p><img src= images/blank.png width =""600"" height = ""600"" style=""position:fixed;top:50%; left:50%; transform: translate(-50%, -50%); border:5px solid black"">","","","","","","","",""
"","358.29000000012456","sequential-stimulus-presentation-old","20","76920","0.0-9.0-1.5","SS1618365921646","trial","","40","500","858.2900000001246","images/stimuli/spore_stims/simple_08_A_a.gif","images/stimuli/spore_stims/simple_05_A_b.gif","forced_long","","0","simple_dissimilar","images/stimuli/spore_stims/simple_08_A_a.gif","","","","",""
"","3849.4250000003376","survey-multi-choice","21","80772","0.0-10.0","SS1618365921646","math_question","","","","","","","","","","","","{""Q0"":""5""}","[0]","5","",""
"","null","html-keyboard-response","22","81592","0.0-11.0-0.0","SS1618365921646","","","null","","","","","","<p><img src= images/blank.png width =""600"" height = ""600"" style=""position:fixed;top:50%; left:50%; transform: translate(-50%, -50%); border:5px solid black"">","","","","","","","",""
"","965.4850000006263","sequential-stimulus-presentation-old","23","87561","0.0-11.0-1.0","SS1618365921646","trial","","40","500","1465.4850000006263","images/stimuli/spore_stims/simple_15_A_b.gif","images/stimuli/spore_stims/simple_07_A_a.gif","forced_long","","1","simple_dissimilar","images/stimuli/spore_stims/simple_07_A_a.gif","","","","",""
"","null","html-keyboard-response","24","88371","0.0-11.0-0.1","SS1618365921646","","","null","","","","","","<p><img src= images/blank.png width =""600"" height = ""600"" style=""position:fixed;top:50%; left:50%; transform: translate(-50%, -50%); border:5px solid black"">","","","","","","","",""
"","70.62999999834574","sequential-stimulus-presentation-old","25","88944","0.0-11.0-1.1","SS1618365921646","trial","","40","500","570.6299999983457","images/stimuli/spore_stims/simple_15_A_b.gif","images/stimuli/spore_stims/simple_07_A_a.gif","forced_long","","1","simple_dissimilar","images/stimuli/spore_stims/simple_07_A_a.gif","","","","",""
"","null","html-keyboard-response","26","90170","0.0-11.0-0.2","SS1618365921646","","","null","","","","","","<p><img src= images/blank.png width =""600"" height = ""600"" style=""position:fixed;top:50%; left:50%; transform: translate(-50%, -50%); border:5px solid black"">","","","","","","","",""
"","48.45499999646563","sequential-stimulus-presentation-old","27","90721","0.0-11.0-1.2","SS1618365921646","trial","","40","500","548.4549999964656","images/stimuli/spore_stims/simple_15_A_b.gif","images/stimuli/spore_stims/simple_07_A_a.gif","forced_long","","1","simple_dissimilar","images/stimuli/spore_stims/simple_07_A_a.gif","","","","",""
"","null","html-keyboard-response","28","91595","0.0-11.0-0.3","SS1618365921646","","","null","","","","","","<p><img src= images/blank.png width =""600"" height = ""600"" style=""position:fixed;top:50%; left:50%; transform: translate(-50%, -50%); border:5px solid black"">","","","","","","","",""
"","144.29499999823747","sequential-stimulus-presentation-old","29","92241","0.0-11.0-1.3","SS1618365921646","trial","","40","500","644.2949999982375","images/stimuli/spore_stims/simple_15_A_b.gif","images/stimuli/spore_stims/simple_07_A_a.gif","forced_long","","1","simple_dissimilar","images/stimuli/spore_stims/simple_07_A_a.gif","","","","",""
"","null","html-keyboard-response","30","93351","0.0-11.0-0.4","SS1618365921646","","","null","","","","","","<p><img src= images/blank.png width =""600"" height = ""600"" style=""position:fixed;top:50%; left:50%; transform: translate(-50%, -50%); border:5px solid black"">","","","","","","","",""
"","155.67000000010012","sequential-stimulus-presentation-old","31","94009","0.0-11.0-1.4","SS1618365921646","trial","","40","500","655.6700000001001","images/stimuli/spore_stims/simple_15_A_b.gif","images/stimuli/spore_stims/simple_07_A_a.gif","forced_long","","1","simple_dissimilar","images/stimuli/spore_stims/simple_15_A_b.gif","","","","",""
"","null","html-keyboard-response","32","95003","0.0-11.0-0.5","SS1618365921646","","","null","","","","","","<p><img src= images/blank.png width =""600"" height = ""600"" style=""position:fixed;top:50%; left:50%; transform: translate(-50%, -50%); border:5px solid black"">","","","","","","","",""
"","295.1599999978498","sequential-stimulus-presentation-old","33","95800","0.0-11.0-1.5","SS1618365921646","trial","","40","500","795.1599999978498","images/stimuli/spore_stims/simple_15_A_b.gif","images/stimuli/spore_stims/simple_07_A_a.gif","forced_long","","1","simple_dissimilar","images/stimuli/spore_stims/simple_15_A_b.gif","","","","",""
"","4693.409999999858","survey-multi-choice","34","100495","0.0-12.0","SS1618365921646","math_question","","","","","","","","","","","","{""Q0"":""11""}","[0]","11","",""
"","null","html-keyboard-response","35","101580","0.0-13.0-0.0","SS1618365921646","","","null","","","","","","<p><img src= images/blank.png width =""600"" height = ""600"" style=""position:fixed;top:50%; left:50%; transform: translate(-50%, -50%); border:5px solid black"">","","","","","","","",""
"","672.2049999989395","sequential-stimulus-presentation-old","36","102305","0.0-13.0-1.0","SS1618365921646","trial","","40","500","1172.2049999989395","images/stimuli/spore_stims/simple_14_A_a.gif","images/stimuli/spore_stims/simple_02_A_b.gif","forced_short","","2","simple_dissimilar","images/stimuli/spore_stims/simple_02_A_b.gif","","","","",""
"","null","html-keyboard-response","37","103408","0.0-13.0-0.1","SS1618365921646","","","null","","","","","","<p><img src= images/blank.png width =""600"" height = ""600"" style=""position:fixed;top:50%; left:50%; transform: translate(-50%, -50%); border:5px solid black"">","","","","","","","",""
"","226.92000000097323","sequential-stimulus-presentation-old","38","104137","0.0-13.0-1.1","SS1618365921646","trial","","40","500","726.9200000009732","images/stimuli/spore_stims/simple_14_A_a.gif","images/stimuli/spore_stims/simple_02_A_b.gif","forced_short","","2","simple_dissimilar","images/stimuli/spore_stims/simple_02_A_b.gif","","","","",""
"","null","html-keyboard-response","39","105340","0.0-13.0-0.2","SS1618365921646","","","null","","","","","","<p><img src= images/blank.png width =""600"" height = ""600"" style=""position:fixed;top:50%; left:50%; transform: translate(-50%, -50%); border:5px solid black"">","","","","","","","",""
"","238.5050000011688","sequential-stimulus-presentation-old","40","106081","0.0-13.0-1.2","SS1618365921646","trial","","40","500","738.5050000011688","images/stimuli/spore_stims/simple_14_A_a.gif","images/stimuli/spore_stims/simple_02_A_b.gif","forced_short","","2","simple_dissimilar","images/stimuli/spore_stims/simple_02_A_b.gif","","","","",""
"","null","html-keyboard-response","41","107178","0.0-13.0-0.3","SS1618365921646","","","null","","","","","","<p><img src= images/blank.png width =""600"" height = ""600"" style=""position:fixed;top:50%; left:50%; transform: translate(-50%, -50%); border:5px solid black"">","","","","","","","",""
"","136.38500000161002","sequential-stimulus-presentation-old","42","107825","0.0-13.0-1.3","SS1618365921646","trial","","40","500","636.38500000161","images/stimuli/spore_stims/simple_14_A_a.gif","images/stimuli/spore_stims/simple_02_A_b.gif","forced_short","","2","simple_dissimilar","images/stimuli/spore_stims/simple_02_A_b.gif","","","","",""
"","null","html-keyboard-response","43","108874","0.0-13.0-0.4","SS1618365921646","","","null","","","","","","<p><img src= images/blank.png width =""600"" height = ""600"" style=""position:fixed;top:50%; left:50%; transform: translate(-50%, -50%); border:5px solid black"">","","","","","","","",""
"","352.5800000024901","sequential-stimulus-presentation-old","44","109729","0.0-13.0-1.4","SS1618365921646","trial","","40","500","852.5800000024901","images/stimuli/spore_stims/simple_14_A_a.gif","images/stimuli/spore_stims/simple_02_A_b.gif","forced_short","","2","simple_dissimilar","images/stimuli/spore_stims/simple_02_A_b.gif","","","","",""
"","3587.5249999990046","survey-multi-choice","45","113318","0.0-14.0","SS1618365921646","math_question","","","","","","","","","","","","{""Q0"":""9""}","[0]","9","",""
"","null","html-keyboard-response","46","114502","0.0-15.0-0.0","SS1618365921646","","","null","","","","","","<p><img src= images/blank.png width =""600"" height = ""600"" style=""position:fixed;top:50%; left:50%; transform: translate(-50%, -50%); border:5px solid black"">","","","","","","","",""
"","317.5149999988207","sequential-stimulus-presentation-old","47","114873","0.0-15.0-1.0","SS1618365921646","trial","","40","500","817.5149999988207","images/stimuli/spore_stims/complex_09_A_a.gif","images/stimuli/spore_stims/complex_15_A_b.gif","forced_short","","3","complex_dissimilar","images/stimuli/spore_stims/complex_15_A_b.gif","","","","",""
"","null","html-keyboard-response","48","116034","0.0-15.0-0.1","SS1618365921646","","","null","","","","","","<p><img src= images/blank.png width =""600"" height = ""600"" style=""position:fixed;top:50%; left:50%; transform: translate(-50%, -50%); border:5px solid black"">","","","","","","","",""
"","312.2250000014901","sequential-stimulus-presentation-old","49","116849","0.0-15.0-1.1","SS1618365921646","trial","","40","500","812.2250000014901","images/stimuli/spore_stims/complex_09_A_a.gif","images/stimuli/spore_stims/complex_15_A_b.gif","forced_short","","3","complex_dissimilar","images/stimuli/spore_stims/complex_15_A_b.gif","","","","",""
"","null","html-keyboard-response","50","117928","0.0-15.0-0.2","SS1618365921646","","","null","","","","","","<p><img src= images/blank.png width =""600"" height = ""600"" style=""position:fixed;top:50%; left:50%; transform: translate(-50%, -50%); border:5px solid black"">","","","","","","","",""
"","331.00999999805936","sequential-stimulus-presentation-old","51","118761","0.0-15.0-1.2","SS1618365921646","trial","","40","500","831.0099999980594","images/stimuli/spore_stims/complex_09_A_a.gif","images/stimuli/spore_stims/complex_15_A_b.gif","forced_short","","3","complex_dissimilar","images/stimuli/spore_stims/complex_15_A_b.gif","","","","",""
"","null","html-keyboard-response","52","119910","0.0-15.0-0.3","SS1618365921646","","","null","","","","","","<p><img src= images/blank.png width =""600"" height = ""600"" style=""position:fixed;top:50%; left:50%; transform: translate(-50%, -50%); border:5px solid black"">","","","","","","","",""
"","76.50999999896158","sequential-stimulus-presentation-old","53","120489","0.0-15.0-1.3","SS1618365921646","trial","","40","500","576.5099999989616","images/stimuli/spore_stims/complex_09_A_a.gif","images/stimuli/spore_stims/complex_15_A_b.gif","forced_short","","3","complex_dissimilar","images/stimuli/spore_stims/complex_09_A_a.gif","","","","",""
"","null","html-keyboard-response","54","121296","0.0-15.0-0.4","SS1618365921646","","","null","","","","","","<p><img src= images/blank.png width =""600"" height = ""600"" style=""position:fixed;top:50%; left:50%; transform: translate(-50%, -50%); border:5px solid black"">","","","","","","","",""
"","682.6650000002701","sequential-stimulus-presentation-old","55","122481","0.0-15.0-1.4","SS1618365921646","trial","","40","500","1182.66500000027","images/stimuli/spore_stims/complex_09_A_a.gif","images/stimuli/spore_stims/complex_15_A_b.gif","forced_short","","3","complex_dissimilar","images/stimuli/spore_stims/complex_09_A_a.gif","","","","",""
"","null","html-keyboard-response","56","123295","0.0-15.0-0.5","SS1618365921646","","","null","","","","","","<p><img src= images/blank.png width =""600"" height = ""600"" style=""position:fixed;top:50%; left:50%; transform: translate(-50%, -50%); border:5px solid black"">","","","","","","","",""
"","122.92000000161352","sequential-stimulus-presentation-old","57","123921","0.0-15.0-1.5","SS1618365921646","trial","","40","500","622.9200000016135","images/stimuli/spore_stims/complex_09_A_a.gif","images/stimuli/spore_stims/complex_15_A_b.gif","forced_short","","3","complex_dissimilar","images/stimuli/spore_stims/complex_15_A_b.gif","","","","",""
"","4713.5550000020885","survey-multi-choice","58","128636","0.0-16.0","SS1618365921646","math_question","","","","","","","","","","","","{""Q0"":""8""}","[0]","8","",""
"","null","html-keyboard-response","59","129521","0.0-17.0-0.0","SS1618365921646","","","null","","","","","","<p><img src= images/blank.png width =""600"" height = ""600"" style=""position:fixed;top:50%; left:50%; transform: translate(-50%, -50%); border:5px solid black"">","","","","","","","",""
"","597.9350000015984","sequential-stimulus-presentation-old","60","135121","0.0-17.0-1.0","SS1618365921646","trial","","40","500","1097.9350000015984","images/stimuli/spore_stims/complex_01_A_a.gif","images/stimuli/spore_stims/complex_03_A_b.gif","forced_long","","4","complex_dissimilar","images/stimuli/spore_stims/complex_03_A_b.gif","","","","",""
"","null","html-keyboard-response","61","136012","0.0-17.0-0.1","SS1618365921646","","","null","","","","","","<p><img src= images/blank.png width =""600"" height = ""600"" style=""position:fixed;top:50%; left:50%; transform: translate(-50%, -50%); border:5px solid black"">","","","","","","","",""
"","143.25000000098953","sequential-stimulus-presentation-old","62","136657","0.0-17.0-1.1","SS1618365921646","trial","","40","500","643.2500000009895","images/stimuli/spore_stims/complex_01_A_a.gif","images/stimuli/spore_stims/complex_03_A_b.gif","forced_long","","4","complex_dissimilar","images/stimuli/spore_stims/complex_03_A_b.gif","","","","",""
"","null","html-keyboard-response","63","137897","0.0-17.0-0.2","SS1618365921646","","","null","","","","","","<p><img src= images/blank.png width =""600"" height = ""600"" style=""position:fixed;top:50%; left:50%; transform: translate(-50%, -50%); border:5px solid black"">","","","","","","","",""
"","264.54000000012456","sequential-stimulus-presentation-old","64","138664","0.0-17.0-1.2","SS1618365921646","trial","","40","500","764.5400000001246","images/stimuli/spore_stims/complex_01_A_a.gif","images/stimuli/spore_stims/complex_03_A_b.gif","forced_long","","4","complex_dissimilar","images/stimuli/spore_stims/complex_01_A_a.gif","","","","",""
"","null","html-keyboard-response","65","139750","0.0-17.0-0.3","SS1618365921646","","","null","","","","","","<p><img src= images/blank.png width =""600"" height = ""600"" style=""position:fixed;top:50%; left:50%; transform: translate(-50%, -50%); border:5px solid black"">","","","","","","","",""
"","108.24000000138767","sequential-stimulus-presentation-old","66","140360","0.0-17.0-1.3","SS1618365921646","trial","","40","500","608.2400000013877","images/stimuli/spore_stims/complex_01_A_a.gif","images/stimuli/spore_stims/complex_03_A_b.gif","forced_long","","4","complex_dissimilar","images/stimuli/spore_stims/complex_03_A_b.gif","","","","",""
"","null","html-keyboard-response","67","141227","0.0-17.0-0.4","SS1618365921646","","","null","","","","","","<p><img src= images/blank.png width =""600"" height = ""600"" style=""position:fixed;top:50%; left:50%; transform: translate(-50%, -50%); border:5px solid black"">","","","","","","","",""
"","7.190000000264263","sequential-stimulus-presentation-old","68","141736","0.0-17.0-1.4","SS1618365921646","trial","","40","500","507.19000000026426","images/stimuli/spore_stims/complex_01_A_a.gif","images/stimuli/spore_stims/complex_03_A_b.gif","forced_long","","4","complex_dissimilar","images/stimuli/spore_stims/complex_03_A_b.gif","","","","",""
"","null","html-keyboard-response","69","142627","0.0-17.0-0.5","SS1618365921646","","","null","","","","","","<p><img src= images/blank.png width =""600"" height = ""600"" style=""position:fixed;top:50%; left:50%; transform: translate(-50%, -50%); border:5px solid black"">","","","","","","","",""
"","487.0950000004086","sequential-stimulus-presentation-old","70","143616","0.0-17.0-1.5","SS1618365921646","trial","","40","500","987.0950000004086","images/stimuli/spore_stims/complex_01_A_a.gif","images/stimuli/spore_stims/complex_03_A_b.gif","forced_long","","4","complex_dissimilar","images/stimuli/spore_stims/complex_01_A_a.gif","","","","",""
"","4919.275000000198","survey-multi-choice","71","148537","0.0-18.0","SS1618365921646","math_question","","","","","","","","","","","","{""Q0"":""12""}","[0]","12","",""
"","null","html-keyboard-response","72","149630","0.0-19.0-0.0","SS1618365921646","","","null","","","","","","<p><img src= images/blank.png width =""600"" height = ""600"" style=""position:fixed;top:50%; left:50%; transform: translate(-50%, -50%); border:5px solid black"">","","","","","","","",""
"","340.55500000249594","sequential-stimulus-presentation-old","73","150473","0.0-19.0-1.0","SS1618365921646","trial","","40","500","840.555000002496","images/stimuli/spore_stims/complex_03_A_a.gif","images/stimuli/spore_stims/complex_10_A_b.gif","self_paced","","5","complex_dissimilar","images/stimuli/spore_stims/complex_10_A_b.gif","","","","",""
"","null","html-keyboard-response","74","151606","0.0-19.0-0.1","SS1618365921646","","","null","","","","","","<p><img src= images/blank.png width =""600"" height = ""600"" style=""position:fixed;top:50%; left:50%; transform: translate(-50%, -50%); border:5px solid black"">","","","","","","","",""
"","180.0199999997858","sequential-stimulus-presentation-old","75","152289","0.0-19.0-1.1","SS1618365921646","trial","","40","500","680.0199999997858","images/stimuli/spore_stims/complex_03_A_a.gif","images/stimuli/spore_stims/complex_10_A_b.gif","self_paced","","5","complex_dissimilar","images/stimuli/spore_stims/complex_10_A_b.gif","","","","",""
"","null","html-keyboard-response","76","153513","0.0-19.0-0.2","SS1618365921646","","","null","","","","","","<p><img src= images/blank.png width =""600"" height = ""600"" style=""position:fixed;top:50%; left:50%; transform: translate(-50%, -50%); border:5px solid black"">","","","","","","","",""
"","145.14000000053784","sequential-stimulus-presentation-old","77","154160","0.0-19.0-1.2","SS1618365921646","trial","","40","500","645.1400000005378","images/stimuli/spore_stims/complex_03_A_a.gif","images/stimuli/spore_stims/complex_10_A_b.gif","self_paced","","5","complex_dissimilar","images/stimuli/spore_stims/complex_10_A_b.gif","","","","",""
"","null","html-keyboard-response","78","155125","0.0-19.0-0.3","SS1618365921646","","","null","","","","","","<p><img src= images/blank.png width =""600"" height = ""600"" style=""position:fixed;top:50%; left:50%; transform: translate(-50%, -50%); border:5px solid black"">","","","","","","","",""
"","76.12499999959255","sequential-stimulus-presentation-old","79","155704","0.0-19.0-1.3","SS1618365921646","trial","","40","500","576.1249999995925","images/stimuli/spore_stims/complex_03_A_a.gif","images/stimuli/spore_stims/complex_10_A_b.gif","self_paced","","5","complex_dissimilar","images/stimuli/spore_stims/complex_10_A_b.gif","","","","",""
"","null","html-keyboard-response","80","156649","0.0-19.0-0.4","SS1618365921646","","","null","","","","","","<p><img src= images/blank.png width =""600"" height = ""600"" style=""position:fixed;top:50%; left:50%; transform: translate(-50%, -50%); border:5px solid black"">","","","","","","","",""
"","121.62499999976717","sequential-stimulus-presentation-old","81","157273","0.0-19.0-1.4","SS1618365921646","trial","","40","500","621.6249999997672","images/stimuli/spore_stims/complex_03_A_a.gif","images/stimuli/spore_stims/complex_10_A_b.gif","self_paced","","5","complex_dissimilar","images/stimuli/spore_stims/complex_10_A_b.gif","","","","",""
"","6150.6700000027195","survey-multi-choice","82","163425","0.0-20.0","SS1618365921646","math_question","","","","","","","","","","","","{""Q0"":""5""}","[0]","5","",""
"","null","html-keyboard-response","83","164587","0.0-21.0-0.0","SS1618365921646","","","null","","","","","","<p><img src= images/blank.png width =""600"" height = ""600"" style=""position:fixed;top:50%; left:50%; transform: translate(-50%, -50%); border:5px solid black"">","","","","","","","",""
"","45.79500000181724","sequential-stimulus-presentation-old","84","165137","0.0-21.0-1.0","SS1618365921646","trial","","40","500","545.7950000018172","images/stimuli/spore_stims/simple_02_A_a.gif","images/stimuli/spore_stims/simple_13_A_b.gif","self_paced","","6","simple_dissimilar","images/stimuli/spore_stims/simple_13_A_b.gif","","","","",""
"","null","html-keyboard-response","85","165981","0.0-21.0-0.1","SS1618365921646","","","null","","","","","","<p><img src= images/blank.png width =""600"" height = ""600"" style=""position:fixed;top:50%; left:50%; transform: translate(-50%, -50%); border:5px solid black"">","","","","","","","",""
"","260.7449999995879","sequential-stimulus-presentation-old","86","166744","0.0-21.0-1.1","SS1618365921646","trial","","40","500","760.7449999995879","images/stimuli/spore_stims/simple_02_A_a.gif","images/stimuli/spore_stims/simple_13_A_b.gif","self_paced","","6","simple_dissimilar","images/stimuli/spore_stims/simple_13_A_b.gif","","","","",""
"","null","html-keyboard-response","87","168021","0.0-21.0-0.2","SS1618365921646","","","null","","","","","","<p><img src= images/blank.png width =""600"" height = ""600"" style=""position:fixed;top:50%; left:50%; transform: translate(-50%, -50%); border:5px solid black"">","","","","","","","",""
"","140.7249999974738","sequential-stimulus-presentation-old","88","168665","0.0-21.0-1.2","SS1618365921646","trial","","40","500","640.7249999974738","images/stimuli/spore_stims/simple_02_A_a.gif","images/stimuli/spore_stims/simple_13_A_b.gif","self_paced","","6","simple_dissimilar","images/stimuli/spore_stims/simple_02_A_a.gif","","","","",""
"","null","html-keyboard-response","89","169783","0.0-21.0-0.3","SS1618365921646","","","null","","","","","","<p><img src= images/blank.png width =""600"" height = ""600"" style=""position:fixed;top:50%; left:50%; transform: translate(-50%, -50%); border:5px solid black"">","","","","","","","",""
"","419.7500000009313","sequential-stimulus-presentation-old","90","170704","0.0-21.0-1.3","SS1618365921646","trial","","40","500","919.7500000009313","images/stimuli/spore_stims/simple_02_A_a.gif","images/stimuli/spore_stims/simple_13_A_b.gif","self_paced","","6","simple_dissimilar","images/stimuli/spore_stims/simple_13_A_b.gif","","","","",""
"","null","html-keyboard-response","91","171619","0.0-21.0-0.4","SS1618365921646","","","null","","","","","","<p><img src= images/blank.png width =""600"" height = ""600"" style=""position:fixed;top:50%; left:50%; transform: translate(-50%, -50%); border:5px solid black"">","","","","","","","",""
"","103.51499999887892","sequential-stimulus-presentation-old","92","172225","0.0-21.0-1.4","SS1618365921646","trial","","40","500","603.5149999988789","images/stimuli/spore_stims/simple_02_A_a.gif","images/stimuli/spore_stims/simple_13_A_b.gif","self_paced","","6","simple_dissimilar","images/stimuli/spore_stims/simple_13_A_b.gif","","","","",""
"","3727.134999997361","survey-multi-choice","93","175953","0.0-22.0","SS1618365921646","math_question","","","","","","","","","","","","{""Q0"":""11""}","[0]","11","",""
"","null","html-keyboard-response","94","177113","0.0-23.0-0.0","SS1618365921646","","","null","","","","","","<p><img src= images/blank.png width =""600"" height = ""600"" style=""position:fixed;top:50%; left:50%; transform: translate(-50%, -50%); border:5px solid black"">","","","","","","","",""
"","65.89999999778229","sequential-stimulus-presentation-old","95","177233","0.0-23.0-1.0","SS1618365921646","trial","","40","500","565.8999999977823","images/stimuli/spore_stims/complex_20_A_a.gif","images/stimuli/spore_stims/complex_09_A_b.gif","forced_short","","7","complex_dissimilar","images/stimuli/spore_stims/complex_09_A_b.gif","","","","",""
"","null","html-keyboard-response","96","178473","0.0-23.0-0.1","SS1618365921646","","","null","","","","","","<p><img src= images/blank.png width =""600"" height = ""600"" style=""position:fixed;top:50%; left:50%; transform: translate(-50%, -50%); border:5px solid black"">","","","","","","","",""
"","113.44499999904656","sequential-stimulus-presentation-old","97","179089","0.0-23.0-1.1","SS1618365921646","trial","","40","500","613.4449999990466","images/stimuli/spore_stims/complex_20_A_a.gif","images/stimuli/spore_stims/complex_09_A_b.gif","forced_short","","7","complex_dissimilar","images/stimuli/spore_stims/complex_09_A_b.gif","","","","",""
"","null","html-keyboard-response","98","179941","0.0-23.0-0.2","SS1618365921646","","","null","","","","","","<p><img src= images/blank.png width =""600"" height = ""600"" style=""position:fixed;top:50%; left:50%; transform: translate(-50%, -50%); border:5px solid black"">","","","","","","","",""
"","180.9399999983725","sequential-stimulus-presentation-old","99","180624","0.0-23.0-1.2","SS1618365921646","trial","","40","500","680.9399999983725","images/stimuli/spore_stims/complex_20_A_a.gif","images/stimuli/spore_stims/complex_09_A_b.gif","forced_short","","7","complex_dissimilar","images/stimuli/spore_stims/complex_09_A_b.gif","","","","",""
"","null","html-keyboard-response","100","181852","0.0-23.0-0.3","SS1618365921646","","","null","","","","","","<p><img src= images/blank.png width =""600"" height = ""600"" style=""position:fixed;top:50%; left:50%; transform: translate(-50%, -50%); border:5px solid black"">","","","","","","","",""
"","364.59000000104425","sequential-stimulus-presentation-old","101","182720","0.0-23.0-1.3","SS1618365921646","trial","","40","500","864.5900000010442","images/stimuli/spore_stims/complex_20_A_a.gif","images/stimuli/spore_stims/complex_09_A_b.gif","forced_short","","7","complex_dissimilar","images/stimuli/spore_stims/complex_09_A_b.gif","","","","",""
"","null","html-keyboard-response","102","183770","0.0-23.0-0.4","SS1618365921646","","","null","","","","","","<p><img src= images/blank.png width =""600"" height = ""600"" style=""position:fixed;top:50%; left:50%; transform: translate(-50%, -50%); border:5px solid black"">","","","","","","","",""
"","120.14999999883003","sequential-stimulus-presentation-old","103","184393","0.0-23.0-1.4","SS1618365921646","trial","","40","500","620.14999999883","images/stimuli/spore_stims/complex_20_A_a.gif","images/stimuli/spore_stims/complex_09_A_b.gif","forced_short","","7","complex_dissimilar","images/stimuli/spore_stims/complex_20_A_a.gif","","","","",""
"","5506.649999999354","survey-multi-choice","104","189902","0.0-24.0","SS1618365921646","math_question","","","","","","","","","","","","{""Q0"":""11""}","[0]","11","",""
"","null","html-keyboard-response","105","190832","0.0-25.0-0.0","SS1618365921646","","","null","","","","","","<p><img src= images/blank.png width =""600"" height = ""600"" style=""position:fixed;top:50%; left:50%; transform: translate(-50%, -50%); border:5px solid black"">","","","","","","","",""
"","137.20500000272295","sequential-stimulus-presentation-old","106","191474","0.0-25.0-1.0","SS1618365921646","trial","","40","500","637.205000002723","images/stimuli/spore_stims/simple_14_A_b.gif","images/stimuli/spore_stims/simple_03_A_a.gif","self_paced","","8","simple_dissimilar","images/stimuli/spore_stims/simple_03_A_a.gif","","","","",""
"","null","html-keyboard-response","107","192655","0.0-25.0-0.1","SS1618365921646","","","null","","","","","","<p><img src= images/blank.png width =""600"" height = ""600"" style=""position:fixed;top:50%; left:50%; transform: translate(-50%, -50%); border:5px solid black"">","","","","","","","",""
"","34.84000000025844","sequential-stimulus-presentation-old","108","193193","0.0-25.0-1.1","SS1618365921646","trial","","40","500","534.8400000002584","images/stimuli/spore_stims/simple_14_A_b.gif","images/stimuli/spore_stims/simple_03_A_a.gif","self_paced","","8","simple_dissimilar","images/stimuli/spore_stims/simple_03_A_a.gif","","","","",""
"","null","html-keyboard-response","109","194264","0.0-25.0-0.2","SS1618365921646","","","null","","","","","","<p><img src= images/blank.png width =""600"" height = ""600"" style=""position:fixed;top:50%; left:50%; transform: translate(-50%, -50%); border:5px solid black"">","","","","","","","",""
"","49.45500000030734","sequential-stimulus-presentation-old","110","194816","0.0-25.0-1.2","SS1618365921646","trial","","40","500","549.4550000003073","images/stimuli/spore_stims/simple_14_A_b.gif","images/stimuli/spore_stims/simple_03_A_a.gif","self_paced","","8","simple_dissimilar","images/stimuli/spore_stims/simple_03_A_a.gif","","","","",""
"","null","html-keyboard-response","111","195862","0.0-25.0-0.3","SS1618365921646","","","null","","","","","","<p><img src= images/blank.png width =""600"" height = ""600"" style=""position:fixed;top:50%; left:50%; transform: translate(-50%, -50%); border:5px solid black"">","","","","","","","",""
"","133.00000000162981","sequential-stimulus-presentation-old","112","196497","0.0-25.0-1.3","SS1618365921646","trial","","40","500","633.0000000016298","images/stimuli/spore_stims/simple_14_A_b.gif","images/stimuli/spore_stims/simple_03_A_a.gif","self_paced","","8","simple_dissimilar","images/stimuli/spore_stims/simple_14_A_b.gif","","","","",""
"","null","html-keyboard-response","113","197361","0.0-25.0-0.4","SS1618365921646","","","null","","","","","","<p><img src= images/blank.png width =""600"" height = ""600"" style=""position:fixed;top:50%; left:50%; transform: translate(-50%, -50%); border:5px solid black"">","","","","","","","",""
"","41.04499999812106","sequential-stimulus-presentation-old","114","197905","0.0-25.0-1.4","SS1618365921646","trial","","40","500","541.044999998121","images/stimuli/spore_stims/simple_14_A_b.gif","images/stimuli/spore_stims/simple_03_A_a.gif","self_paced","","8","simple_dissimilar","images/stimuli/spore_stims/simple_03_A_a.gif","","","","",""
"","6814.9649999977555","survey-multi-choice","115","204721","0.0-26.0","SS1618365921646","math_question","","","","","","","","","","","","{""Q0"":""10""}","[0]","10","",""
"","null","html-keyboard-response","116","205808","0.0-27.0-0.0","SS1618365921646","","","null","","","","","","<p><img src= images/blank.png width =""600"" height = ""600"" style=""position:fixed;top:50%; left:50%; transform: translate(-50%, -50%); border:5px solid black"">","","","","","","","",""
"","337.43999999933294","sequential-stimulus-presentation-old","117","206649","0.0-27.0-1.0","SS1618365921646","trial","","40","500","837.4399999993329","images/stimuli/spore_stims/complex_13_A_b.gif","images/stimuli/spore_stims/complex_10_A_a.gif","self_paced","","9","complex_dissimilar","images/stimuli/spore_stims/complex_10_A_a.gif","","","","",""
"","null","html-keyboard-response","118","207855","0.0-27.0-0.1","SS1618365921646","","","null","","","","","","<p><img src= images/blank.png width =""600"" height = ""600"" style=""position:fixed;top:50%; left:50%; transform: translate(-50%, -50%); border:5px solid black"">","","","","","","","",""
"","58.550000001559965","sequential-stimulus-presentation-old","119","208417","0.0-27.0-1.1","SS1618365921646","trial","","40","500","558.55000000156","images/stimuli/spore_stims/complex_13_A_b.gif","images/stimuli/spore_stims/complex_10_A_a.gif","self_paced","","9","complex_dissimilar","images/stimuli/spore_stims/complex_10_A_a.gif","","","","",""
"","null","html-keyboard-response","120","209588","0.0-27.0-0.2","SS1618365921646","","","null","","","","","","<p><img src= images/blank.png width =""600"" height = ""600"" style=""position:fixed;top:50%; left:50%; transform: translate(-50%, -50%); border:5px solid black"">","","","","","","","",""
"","126.65500000002794","sequential-stimulus-presentation-old","121","210217","0.0-27.0-1.2","SS1618365921646","trial","","40","500","626.6550000000279","images/stimuli/spore_stims/complex_13_A_b.gif","images/stimuli/spore_stims/complex_10_A_a.gif","self_paced","","9","complex_dissimilar","images/stimuli/spore_stims/complex_10_A_a.gif","","","","",""
"","null","html-keyboard-response","122","211116","0.0-27.0-0.3","SS1618365921646","","","null","","","","","","<p><img src= images/blank.png width =""600"" height = ""600"" style=""position:fixed;top:50%; left:50%; transform: translate(-50%, -50%); border:5px solid black"">","","","","","","","",""
"","213.88500000102795","sequential-stimulus-presentation-old","123","211833","0.0-27.0-1.3","SS1618365921646","trial","","40","500","713.885000001028","images/stimuli/spore_stims/complex_13_A_b.gif","images/stimuli/spore_stims/complex_10_A_a.gif","self_paced","","9","complex_dissimilar","images/stimuli/spore_stims/complex_10_A_a.gif","","","","",""
"","null","html-keyboard-response","124","212978","0.0-27.0-0.4","SS1618365921646","","","null","","","","","","<p><img src= images/blank.png width =""600"" height = ""600"" style=""position:fixed;top:50%; left:50%; transform: translate(-50%, -50%); border:5px solid black"">","","","","","","","",""
"","111.46499999813386","sequential-stimulus-presentation-old","125","213592","0.0-27.0-1.4","SS1618365921646","trial","","40","500","611.4649999981339","images/stimuli/spore_stims/complex_13_A_b.gif","images/stimuli/spore_stims/complex_10_A_a.gif","self_paced","","9","complex_dissimilar","images/stimuli/spore_stims/complex_13_A_b.gif","","","","",""
"","4984.555000002729","survey-multi-choice","126","218579","0.0-28.0","SS1618365921646","math_question","","","","","","","","","","","","{""Q0"":""11""}","[0]","11","",""
"","null","html-keyboard-response","127","219612","0.0-29.0-0.0","SS1618365921646","","","null","","","","","","<p><img src= images/blank.png width =""600"" height = ""600"" style=""position:fixed;top:50%; left:50%; transform: translate(-50%, -50%); border:5px solid black"">","","","","","","","",""
"","24.93499999764026","sequential-stimulus-presentation-old","128","224641","0.0-29.0-1.0","SS1618365921646","trial","","40","500","524.9349999976403","images/stimuli/spore_stims/complex_12_A_a.gif","images/stimuli/spore_stims/complex_20_A_b.gif","forced_long","","10","complex_dissimilar","images/stimuli/spore_stims/complex_20_A_b.gif","","","","",""
"","null","html-keyboard-response","129","225475","0.0-29.0-0.1","SS1618365921646","","","null","","","","","","<p><img src= images/blank.png width =""600"" height = ""600"" style=""position:fixed;top:50%; left:50%; transform: translate(-50%, -50%); border:5px solid black"">","","","","","","","",""
"","70.63500000003842","sequential-stimulus-presentation-old","130","226049","0.0-29.0-1.1","SS1618365921646","trial","","40","500","570.6350000000384","images/stimuli/spore_stims/complex_12_A_a.gif","images/stimuli/spore_stims/complex_20_A_b.gif","forced_long","","10","complex_dissimilar","images/stimuli/spore_stims/complex_20_A_b.gif","","","","",""
"","null","html-keyboard-response","131","226903","0.0-29.0-0.2","SS1618365921646","","","null","","","","","","<p><img src= images/blank.png width =""600"" height = ""600"" style=""position:fixed;top:50%; left:50%; transform: translate(-50%, -50%); border:5px solid black"">","","","","","","","",""
"","299.01000000245403","sequential-stimulus-presentation-old","132","227704","0.0-29.0-1.2","SS1618365921646","trial","","40","500","799.010000002454","images/stimuli/spore_stims/complex_12_A_a.gif","images/stimuli/spore_stims/complex_20_A_b.gif","forced_long","","10","complex_dissimilar","images/stimuli/spore_stims/complex_20_A_b.gif","","","","",""
"","null","html-keyboard-response","133","228800","0.0-29.0-0.3","SS1618365921646","","","null","","","","","","<p><img src= images/blank.png width =""600"" height = ""600"" style=""position:fixed;top:50%; left:50%; transform: translate(-50%, -50%); border:5px solid black"">","","","","","","","",""
"","265.38000000073225","sequential-stimulus-presentation-old","134","229569","0.0-29.0-1.3","SS1618365921646","trial","","40","500","765.3800000007323","images/stimuli/spore_stims/complex_12_A_a.gif","images/stimuli/spore_stims/complex_20_A_b.gif","forced_long","","10","complex_dissimilar","images/stimuli/spore_stims/complex_12_A_a.gif","","","","",""
"","3128.6849999996775","survey-multi-choice","135","232699","0.0-30.0","SS1618365921646","math_question","","","","","","","","","","","","{""Q0"":""9""}","[0]","9","",""
"","null","html-keyboard-response","136","233570","0.0-31.0-0.0","SS1618365921646","","","null","","","","","","<p><img src= images/blank.png width =""600"" height = ""600"" style=""position:fixed;top:50%; left:50%; transform: translate(-50%, -50%); border:5px solid black"">","","","","","","","",""
"","111.83499999970081","sequential-stimulus-presentation-old","137","233736","0.0-31.0-1.0","SS1618365921646","trial","","40","500","611.8349999997008","images/stimuli/spore_stims/simple_12_A_a.gif","images/stimuli/spore_stims/simple_17_A_b.gif","forced_short","","11","simple_dissimilar","images/stimuli/spore_stims/simple_17_A_b.gif","","","","",""
"","null","html-keyboard-response","138","234908","0.0-31.0-0.1","SS1618365921646","","","null","","","","","","<p><img src= images/blank.png width =""600"" height = ""600"" style=""position:fixed;top:50%; left:50%; transform: translate(-50%, -50%); border:5px solid black"">","","","","","","","",""
"","238.44000000099186","sequential-stimulus-presentation-old","139","235649","0.0-31.0-1.1","SS1618365921646","trial","","40","500","738.4400000009919","images/stimuli/spore_stims/simple_12_A_a.gif","images/stimuli/spore_stims/simple_17_A_b.gif","forced_short","","11","simple_dissimilar","images/stimuli/spore_stims/simple_17_A_b.gif","","","","",""
"","null","html-keyboard-response","140","236894","0.0-31.0-0.2","SS1618365921646","","","null","","","","","","<p><img src= images/blank.png width =""600"" height = ""600"" style=""position:fixed;top:50%; left:50%; transform: translate(-50%, -50%); border:5px solid black"">","","","","","","","",""
"","67.41999999940163","sequential-stimulus-presentation-old","141","237464","0.0-31.0-1.2","SS1618365921646","trial","","40","500","567.4199999994016","images/stimuli/spore_stims/simple_12_A_a.gif","images/stimuli/spore_stims/simple_17_A_b.gif","forced_short","","11","simple_dissimilar","images/stimuli/spore_stims/simple_12_A_a.gif","","","","",""
"","null","html-keyboard-response","142","238570","0.0-31.0-0.3","SS1618365921646","","","null","","","","","","<p><img src= images/blank.png width =""600"" height = ""600"" style=""position:fixed;top:50%; left:50%; transform: translate(-50%, -50%); border:5px solid black"">","","","","","","","",""
"","231.45999999906053","sequential-stimulus-presentation-old","143","239304","0.0-31.0-1.3","SS1618365921646","trial","","40","500","731.4599999990605","images/stimuli/spore_stims/simple_12_A_a.gif","images/stimuli/spore_stims/simple_17_A_b.gif","forced_short","","11","simple_dissimilar","images/stimuli/spore_stims/simple_17_A_b.gif","","","","",""
"","null","html-keyboard-response","144","240560","0.0-31.0-0.4","SS1618365921646","","","null","","","","","","<p><img src= images/blank.png width =""600"" height = ""600"" style=""position:fixed;top:50%; left:50%; transform: translate(-50%, -50%); border:5px solid black"">","","","","","","","",""
"","89.5700000000943","sequential-stimulus-presentation-old","145","241152","0.0-31.0-1.4","SS1618365921646","trial","","40","500","589.5700000000943","images/stimuli/spore_stims/simple_12_A_a.gif","images/stimuli/spore_stims/simple_17_A_b.gif","forced_short","","11","simple_dissimilar","images/stimuli/spore_stims/simple_12_A_a.gif","","","","",""
"[{""page_index"":0,""viewing_time"":3954.634999998234}]","3954.845000000205","instructions","146","245109","0.0-32.0","SS1618365921646","instructions","","","","","","","","","","","","","","","",""
"","3821.960000001127","survey-likert","147","248934","0.0-33.0","SS1618365921646","similarity_question","","","","","","","","","","","","{""Q0"":1}","[0]","","images/stimuli/spore_stims/simple_07_A_a.gif","images/stimuli/spore_stims/simple_15_A_b.gif"
"","5102.474999999686","survey-likert","148","254041","0.0-34.0","SS1618365921646","similarity_question","","","","","","","","","","","","{""Q0"":2}","[0]","","images/stimuli/spore_stims/complex_10_A_b.gif","images/stimuli/spore_stims/complex_03_A_a.gif"
"","4638.589999998687","survey-likert","149","258685","0.0-35.0","SS1618365921646","similarity_question","","","","","","","","","","","","{""Q0"":2}","[0]","","images/stimuli/spore_stims/simple_14_A_a.gif","images/stimuli/spore_stims/simple_02_A_b.gif"
"","3477.8100000002887","survey-likert","150","262167","0.0-36.0","SS1618365921646","similarity_question","","","","","","","","","","","","{""Q0"":1}","[0]","","images/stimuli/spore_stims/complex_20_A_b.gif","images/stimuli/spore_stims/complex_12_A_a.gif"
"","3730.9749999985797","survey-likert","151","265903","0.0-37.0","SS1618365921646","similarity_question","","","","","","","","","","","","{""Q0"":1}","[0]","","images/stimuli/spore_stims/simple_14_A_b.gif","images/stimuli/spore_stims/simple_03_A_a.gif"
"","5039.7850000008475","survey-likert","152","270948","0.0-38.0","SS1618365921646","similarity_question","","","","","","","","","","","","{""Q0"":2}","[0]","","images/stimuli/spore_stims/complex_09_A_b.gif","images/stimuli/spore_stims/complex_20_A_a.gif"
"","2843.0350000016624","survey-likert","153","273796","0.0-39.0","SS1618365921646","similarity_question","","","","","","","","","","","","{""Q0"":2}","[0]","","images/stimuli/spore_stims/complex_01_A_a.gif","images/stimuli/spore_stims/complex_03_A_b.gif"
"","7424.145000000892","survey-likert","154","281224","0.0-40.0","SS1618365921646","similarity_question","","","","","","","","","","","","{""Q0"":0}","[0]","","images/stimuli/spore_stims/simple_12_A_a.gif","images/stimuli/spore_stims/simple_17_A_b.gif"
"","4048.2150000025285","survey-likert","155","285277","0.0-41.0","SS1618365921646","similarity_question","","","","","","","","","","","","{""Q0"":6}","[0]","","images/stimuli/spore_stims/simple_02_A_a.gif","images/stimuli/spore_stims/simple_13_A_b.gif"
"","5755.584999998973","survey-likert","156","291037","0.0-42.0","SS1618365921646","similarity_question","","","","","","","","","","","","{""Q0"":4}","[0]","","images/stimuli/spore_stims/complex_15_A_b.gif","images/stimuli/spore_stims/complex_09_A_a.gif"
"","6863.990000001679","survey-likert","157","297906","0.0-43.0","SS1618365921646","similarity_question","","","","","","","","","","","","{""Q0"":1}","[0]","","images/stimuli/spore_stims/simple_08_A_a.gif","images/stimuli/spore_stims/simple_05_A_b.gif"
"","5269.475000000908","survey-likert","158","303180","0.0-44.0","SS1618365921646","similarity_question","","","","","","","","","","","","{""Q0"":2}","[0]","","images/stimuli/spore_stims/complex_13_A_b.gif","images/stimuli/spore_stims/complex_10_A_a.gif"
"[{""page_index"":0,""viewing_time"":1445.0649999998277}]","1445.2650000021094","instructions","159","304630","0.0-45.0","SS1618365921646","instructions","","","","","","","","","","","","","","","",""
"","3933.000000000873","survey-likert","160","308566","0.0-46.0","SS1618365921646","","","","","","","","","images/stimuli/spore_stims/simple_14_A_b.gif","","","","{""Q0"":0}","[0]","","",""
"","2369.624999999418","survey-likert","161","310940","0.0-47.0","SS1618365921646","","","","","","","","","images/stimuli/spore_stims/simple_05_A_b.gif","","","","{""Q0"":1}","[0]","","",""
"","2785.3400000021793","survey-likert","162","313730","0.0-48.0","SS1618365921646","","","","","","","","","images/stimuli/spore_stims/simple_12_A_a.gif","","","","{""Q0"":2}","[0]","","",""
"","4771.455000001879","survey-likert","163","318506","0.0-49.0","SS1618365921646","","","","","","","","","images/stimuli/spore_stims/complex_03_A_b.gif","","","","{""Q0"":4}","[0]","","",""
"","2592.9500000019907","survey-likert","164","321104","0.0-50.0","SS1618365921646","","","","","","","","","images/stimuli/spore_stims/simple_07_A_a.gif","","","","{""Q0"":1}","[0]","","",""
"","3219.020000000426","survey-likert","165","324328","0.0-51.0","SS1618365921646","","","","","","","","","images/stimuli/spore_stims/complex_20_A_b.gif","","","","{""Q0"":5}","[0]","","",""
"","2327.919999999751","survey-likert","166","326660","0.0-52.0","SS1618365921646","","","","","","","","","images/stimuli/spore_stims/complex_13_A_b.gif","","","","{""Q0"":6}","[0]","","",""
"","2554.5800000000163","survey-likert","167","329220","0.0-53.0","SS1618365921646","","","","","","","","","images/stimuli/spore_stims/complex_15_A_b.gif","","","","{""Q0"":5}","[0]","","",""
"","2595.470000000205","survey-likert","168","331820","0.0-54.0","SS1618365921646","","","","","","","","","images/stimuli/spore_stims/complex_09_A_b.gif","","","","{""Q0"":5}","[0]","","",""
"","3451.6199999998207","survey-likert","169","335276","0.0-55.0","SS1618365921646","","","","","","","","","images/stimuli/spore_stims/simple_14_A_a.gif","","","","{""Q0"":0}","[0]","","",""
"","2204.79499999783","survey-likert","170","337486","0.0-56.0","SS1618365921646","","","","","","","","","images/stimuli/spore_stims/complex_03_A_a.gif","","","","{""Q0"":4}","[0]","","",""
"","5591.549999997369","survey-likert","171","343082","0.0-57.0","SS1618365921646","","","","","","","","","images/stimuli/spore_stims/simple_02_A_a.gif","","","","{""Q0"":1}","[0]","","",""
"[{""page_index"":0,""viewing_time"":2547.569999998843}]","2547.774999999092","instructions","172","345634","0.0-58.0","SS1618365921646","instructions","","","","","","","","","","","","","","","",""
"","3144.6499999983935","demog-age","173","348782","0.0-59.0","SS1618365921646","","","","","","","","","","","","","{""age"":""18""}","","","",""
"","10518.584999997984","demog-ethnic-US","174","359305","0.0-60.0","SS1618365921646","","","","","","","","","","","","","{""ethnicity"":[""White""]}","[0]","","",""
"","19484.67000000167","demog-gender-and-education","175","378794","0.0-61.0","SS1618365921646","","","","","","","","","","","","","{""gender"":""Male"",""education"":""High school diploma""}","[0,1]","","",""
"","18379.25499999983","survey-text","176","397179","0.0-62.0","SS1618365921646","feedback","","","","","","","","","","","","{""Q0"":""All good""}","","","",""
"[{""page_index"":0,""viewing_time"":2031.380000000354}]","2031.5200000004843","instructions","177","399213","0.0-63.0","SS1618365921646","instructions","","","","","","","","","","","","","","","",""
