"view_history","rt","trial_type","trial_index","time_elapsed","internal_node_id","subject","stimulus_type","trial_stimulus","key_press","minimum_viewing_duration","trial_looking_time","block_deviant","block_background","exposure_type","stimulus","block_number","block_type","stimulus_displayed","responses","question_order","math_correct_answer","stimulus_left","stimulus_right"
"[{""page_index"":0,""viewing_time"":8854}]","8855","instructions","0","8857","0.0-0.0","SS1618366027904","","","","","","","","","","","","","","","","",""
"[{""page_index"":0,""viewing_time"":16777},{""page_index"":1,""viewing_time"":4748}]","21526","instructions","1","32395","0.0-1.0","SS1618366027904","instructions","","","","","","","","","","","","","","","",""
"","8751","sequential-stimulus-presentation-old","2","41659","0.0-2.0","SS1618366027904","","","40","500","9251","null","null","self_paced","","","","","","","","",""
"","5023","sequential-stimulus-presentation-old","3","47188","0.0-3.0","SS1618366027904","","","40","500","5523","null","null","self_paced","","","","","","","","",""
"[{""page_index"":0,""viewing_time"":14084}]","14084","instructions","4","61273","0.0-4.0","SS1618366027904","instructions","","","","","","","","","","","","","","","",""
"","3337","sequential-stimulus-presentation-old","5","69634","0.0-5.0","SS1618366027904","","","40","500","3837","null","null","forced_long","","","","","","","","",""
"","13031","sequential-stimulus-presentation-old","6","82738","0.0-6.0","SS1618366027904","","","40","50","13081","null","null","forced_long","","","","","","","","",""
"[{""page_index"":0,""viewing_time"":3895}]","3895","instructions","7","86636","0.0-7.0","SS1618366027904","instructions","","","","","","","","","","","","","","","",""
"[{""page_index"":0,""viewing_time"":8913},{""page_index"":1,""viewing_time"":7706},{""page_index"":2,""viewing_time"":5064},{""page_index"":3,""viewing_time"":1517},{""page_index"":4,""viewing_time"":983}]","24183","instructions","8","110820","0.0-8.0","SS1618366027904","instructions","","","","","","","","","","","","","","","",""
"","null","html-keyboard-response","9","111737","0.0-9.0-0.0","SS1618366027904","","","null","","","","","","<p><img src= images/blank.png width =""600"" height = ""600"" style=""position:fixed;top:50%; left:50%; transform: translate(-50%, -50%); border:5px solid black"">","","","","","","","",""
"","7784","sequential-stimulus-presentation-old","10","120039","0.0-9.0-1.0","SS1618366027904","trial","","40","500","8284","images/stimuli/spore_stims/simple_18_A_b.gif","images/stimuli/spore_stims/simple_13_A_a.gif","self_paced","","0","simple_dissimilar","images/stimuli/spore_stims/simple_13_A_a.gif","","","","",""
"","null","html-keyboard-response","11","120885","0.0-9.0-0.1","SS1618366027904","","","null","","","","","","<p><img src= images/blank.png width =""600"" height = ""600"" style=""position:fixed;top:50%; left:50%; transform: translate(-50%, -50%); border:5px solid black"">","","","","","","","",""
"","2155","sequential-stimulus-presentation-old","12","123560","0.0-9.0-1.1","SS1618366027904","trial","","40","500","2655","images/stimuli/spore_stims/simple_18_A_b.gif","images/stimuli/spore_stims/simple_13_A_a.gif","self_paced","","0","simple_dissimilar","images/stimuli/spore_stims/simple_13_A_a.gif","","","","",""
"","null","html-keyboard-response","13","124405","0.0-9.0-0.2","SS1618366027904","","","null","","","","","","<p><img src= images/blank.png width =""600"" height = ""600"" style=""position:fixed;top:50%; left:50%; transform: translate(-50%, -50%); border:5px solid black"">","","","","","","","",""
"","6393","sequential-stimulus-presentation-old","14","131320","0.0-9.0-1.2","SS1618366027904","trial","","40","500","6893","images/stimuli/spore_stims/simple_18_A_b.gif","images/stimuli/spore_stims/simple_13_A_a.gif","self_paced","","0","simple_dissimilar","images/stimuli/spore_stims/simple_13_A_a.gif","","","","",""
"","null","html-keyboard-response","15","132336","0.0-9.0-0.3","SS1618366027904","","","null","","","","","","<p><img src= images/blank.png width =""600"" height = ""600"" style=""position:fixed;top:50%; left:50%; transform: translate(-50%, -50%); border:5px solid black"">","","","","","","","",""
"","6323","sequential-stimulus-presentation-old","16","139179","0.0-9.0-1.3","SS1618366027904","trial","","40","500","6823","images/stimuli/spore_stims/simple_18_A_b.gif","images/stimuli/spore_stims/simple_13_A_a.gif","self_paced","","0","simple_dissimilar","images/stimuli/spore_stims/simple_13_A_a.gif","","","","",""
"","5050","survey-multi-choice","17","144233","0.0-10.0","SS1618366027904","math_question","","","","","","","","","","","","{""Q0"":""3""}","[0]","3","",""
"","null","html-keyboard-response","18","145336","0.0-11.0-0.0","SS1618366027904","","","null","","","","","","<p><img src= images/blank.png width =""600"" height = ""600"" style=""position:fixed;top:50%; left:50%; transform: translate(-50%, -50%); border:5px solid black"">","","","","","","","",""
"","685","sequential-stimulus-presentation-old","19","151041","0.0-11.0-1.0","SS1618366027904","trial","","40","500","1185","images/stimuli/spore_stims/simple_14_A_b.gif","images/stimuli/spore_stims/simple_16_A_a.gif","forced_long","","1","simple_dissimilar","images/stimuli/spore_stims/simple_16_A_a.gif","","","","",""
"","null","html-keyboard-response","20","152106","0.0-11.0-0.1","SS1618366027904","","","null","","","","","","<p><img src= images/blank.png width =""600"" height = ""600"" style=""position:fixed;top:50%; left:50%; transform: translate(-50%, -50%); border:5px solid black"">","","","","","","","",""
"","6021","sequential-stimulus-presentation-old","21","158648","0.0-11.0-1.1","SS1618366027904","trial","","40","500","6521","images/stimuli/spore_stims/simple_14_A_b.gif","images/stimuli/spore_stims/simple_16_A_a.gif","forced_long","","1","simple_dissimilar","images/stimuli/spore_stims/simple_16_A_a.gif","","","","",""
"","null","html-keyboard-response","22","159556","0.0-11.0-0.2","SS1618366027904","","","null","","","","","","<p><img src= images/blank.png width =""600"" height = ""600"" style=""position:fixed;top:50%; left:50%; transform: translate(-50%, -50%); border:5px solid black"">","","","","","","","",""
"","4122","sequential-stimulus-presentation-old","23","164200","0.0-11.0-1.2","SS1618366027904","trial","","40","500","4622","images/stimuli/spore_stims/simple_14_A_b.gif","images/stimuli/spore_stims/simple_16_A_a.gif","forced_long","","1","simple_dissimilar","images/stimuli/spore_stims/simple_16_A_a.gif","","","","",""
"","null","html-keyboard-response","24","165116","0.0-11.0-0.3","SS1618366027904","","","null","","","","","","<p><img src= images/blank.png width =""600"" height = ""600"" style=""position:fixed;top:50%; left:50%; transform: translate(-50%, -50%); border:5px solid black"">","","","","","","","",""
"","3241","sequential-stimulus-presentation-old","25","168877","0.0-11.0-1.3","SS1618366027904","trial","","40","500","3741","images/stimuli/spore_stims/simple_14_A_b.gif","images/stimuli/spore_stims/simple_16_A_a.gif","forced_long","","1","simple_dissimilar","images/stimuli/spore_stims/simple_16_A_a.gif","","","","",""
"","null","html-keyboard-response","26","169885","0.0-11.0-0.4","SS1618366027904","","","null","","","","","","<p><img src= images/blank.png width =""600"" height = ""600"" style=""position:fixed;top:50%; left:50%; transform: translate(-50%, -50%); border:5px solid black"">","","","","","","","",""
"","3720","sequential-stimulus-presentation-old","27","174126","0.0-11.0-1.4","SS1618366027904","trial","","40","500","4220","images/stimuli/spore_stims/simple_14_A_b.gif","images/stimuli/spore_stims/simple_16_A_a.gif","forced_long","","1","simple_dissimilar","images/stimuli/spore_stims/simple_16_A_a.gif","","","","",""
"","2627","survey-multi-choice","28","176758","0.0-12.0","SS1618366027904","math_question","","","","","","","","","","","","{""Q0"":""10""}","[0]","10","",""
"","null","html-keyboard-response","29","177645","0.0-13.0-0.0","SS1618366027904","","","null","","","","","","<p><img src= images/blank.png width =""600"" height = ""600"" style=""position:fixed;top:50%; left:50%; transform: translate(-50%, -50%); border:5px solid black"">","","","","","","","",""
"","499","sequential-stimulus-presentation-old","30","183154","0.0-13.0-1.0","SS1618366027904","trial","","40","500","999","images/stimuli/spore_stims/simple_17_A_b.gif","images/stimuli/spore_stims/simple_03_A_a.gif","forced_long","","2","simple_dissimilar","images/stimuli/spore_stims/simple_03_A_a.gif","","","","",""
"","null","html-keyboard-response","31","184275","0.0-13.0-0.1","SS1618366027904","","","null","","","","","","<p><img src= images/blank.png width =""600"" height = ""600"" style=""position:fixed;top:50%; left:50%; transform: translate(-50%, -50%); border:5px solid black"">","","","","","","","",""
"","2616","sequential-stimulus-presentation-old","32","187412","0.0-13.0-1.1","SS1618366027904","trial","","40","500","3116","images/stimuli/spore_stims/simple_17_A_b.gif","images/stimuli/spore_stims/simple_03_A_a.gif","forced_long","","2","simple_dissimilar","images/stimuli/spore_stims/simple_03_A_a.gif","","","","",""
"","null","html-keyboard-response","33","188606","0.0-13.0-0.2","SS1618366027904","","","null","","","","","","<p><img src= images/blank.png width =""600"" height = ""600"" style=""position:fixed;top:50%; left:50%; transform: translate(-50%, -50%); border:5px solid black"">","","","","","","","",""
"","2253","sequential-stimulus-presentation-old","34","191379","0.0-13.0-1.2","SS1618366027904","trial","","40","500","2753","images/stimuli/spore_stims/simple_17_A_b.gif","images/stimuli/spore_stims/simple_03_A_a.gif","forced_long","","2","simple_dissimilar","images/stimuli/spore_stims/simple_03_A_a.gif","","","","",""
"","null","html-keyboard-response","35","192285","0.0-13.0-0.3","SS1618366027904","","","null","","","","","","<p><img src= images/blank.png width =""600"" height = ""600"" style=""position:fixed;top:50%; left:50%; transform: translate(-50%, -50%); border:5px solid black"">","","","","","","","",""
"","2089","sequential-stimulus-presentation-old","36","194895","0.0-13.0-1.3","SS1618366027904","trial","","40","500","2589","images/stimuli/spore_stims/simple_17_A_b.gif","images/stimuli/spore_stims/simple_03_A_a.gif","forced_long","","2","simple_dissimilar","images/stimuli/spore_stims/simple_03_A_a.gif","","","","",""
"","null","html-keyboard-response","37","196185","0.0-13.0-0.4","SS1618366027904","","","null","","","","","","<p><img src= images/blank.png width =""600"" height = ""600"" style=""position:fixed;top:50%; left:50%; transform: translate(-50%, -50%); border:5px solid black"">","","","","","","","",""
"","2796","sequential-stimulus-presentation-old","38","199502","0.0-13.0-1.4","SS1618366027904","trial","","40","500","3296","images/stimuli/spore_stims/simple_17_A_b.gif","images/stimuli/spore_stims/simple_03_A_a.gif","forced_long","","2","simple_dissimilar","images/stimuli/spore_stims/simple_17_A_b.gif","","","","",""
"","null","html-keyboard-response","39","200335","0.0-13.0-0.5","SS1618366027904","","","null","","","","","","<p><img src= images/blank.png width =""600"" height = ""600"" style=""position:fixed;top:50%; left:50%; transform: translate(-50%, -50%); border:5px solid black"">","","","","","","","",""
"","3222","sequential-stimulus-presentation-old","40","204079","0.0-13.0-1.5","SS1618366027904","trial","","40","500","3722","images/stimuli/spore_stims/simple_17_A_b.gif","images/stimuli/spore_stims/simple_03_A_a.gif","forced_long","","2","simple_dissimilar","images/stimuli/spore_stims/simple_03_A_a.gif","","","","",""
"","2763","survey-multi-choice","41","206844","0.0-14.0","SS1618366027904","math_question","","","","","","","","","","","","{""Q0"":""12""}","[0]","12","",""
"","null","html-keyboard-response","42","207805","0.0-15.0-0.0","SS1618366027904","","","null","","","","","","<p><img src= images/blank.png width =""600"" height = ""600"" style=""position:fixed;top:50%; left:50%; transform: translate(-50%, -50%); border:5px solid black"">","","","","","","","",""
"","3180","sequential-stimulus-presentation-old","43","211505","0.0-15.0-1.0","SS1618366027904","trial","","40","500","3680","images/stimuli/spore_stims/complex_08_A_b.gif","images/stimuli/spore_stims/complex_14_A_a.gif","self_paced","","3","complex_dissimilar","images/stimuli/spore_stims/complex_14_A_a.gif","","","","",""
"","null","html-keyboard-response","44","212546","0.0-15.0-0.1","SS1618366027904","","","null","","","","","","<p><img src= images/blank.png width =""600"" height = ""600"" style=""position:fixed;top:50%; left:50%; transform: translate(-50%, -50%); border:5px solid black"">","","","","","","","",""
"","2889","sequential-stimulus-presentation-old","45","215946","0.0-15.0-1.1","SS1618366027904","trial","","40","500","3389","images/stimuli/spore_stims/complex_08_A_b.gif","images/stimuli/spore_stims/complex_14_A_a.gif","self_paced","","3","complex_dissimilar","images/stimuli/spore_stims/complex_14_A_a.gif","","","","",""
"","null","html-keyboard-response","46","217036","0.0-15.0-0.2","SS1618366027904","","","null","","","","","","<p><img src= images/blank.png width =""600"" height = ""600"" style=""position:fixed;top:50%; left:50%; transform: translate(-50%, -50%); border:5px solid black"">","","","","","","","",""
"","3912","sequential-stimulus-presentation-old","47","221468","0.0-15.0-1.2","SS1618366027904","trial","","40","500","4412","images/stimuli/spore_stims/complex_08_A_b.gif","images/stimuli/spore_stims/complex_14_A_a.gif","self_paced","","3","complex_dissimilar","images/stimuli/spore_stims/complex_08_A_b.gif","","","","",""
"","null","html-keyboard-response","48","222346","0.0-15.0-0.3","SS1618366027904","","","null","","","","","","<p><img src= images/blank.png width =""600"" height = ""600"" style=""position:fixed;top:50%; left:50%; transform: translate(-50%, -50%); border:5px solid black"">","","","","","","","",""
"","2032","sequential-stimulus-presentation-old","49","224899","0.0-15.0-1.3","SS1618366027904","trial","","40","500","2532","images/stimuli/spore_stims/complex_08_A_b.gif","images/stimuli/spore_stims/complex_14_A_a.gif","self_paced","","3","complex_dissimilar","images/stimuli/spore_stims/complex_14_A_a.gif","","","","",""
"","null","html-keyboard-response","50","225936","0.0-15.0-0.4","SS1618366027904","","","null","","","","","","<p><img src= images/blank.png width =""600"" height = ""600"" style=""position:fixed;top:50%; left:50%; transform: translate(-50%, -50%); border:5px solid black"">","","","","","","","",""
"","1638","sequential-stimulus-presentation-old","51","228093","0.0-15.0-1.4","SS1618366027904","trial","","40","500","2138","images/stimuli/spore_stims/complex_08_A_b.gif","images/stimuli/spore_stims/complex_14_A_a.gif","self_paced","","3","complex_dissimilar","images/stimuli/spore_stims/complex_14_A_a.gif","","","","",""
"","2432","survey-multi-choice","52","230530","0.0-16.0","SS1618366027904","math_question","","","","","","","","","","","","{""Q0"":""10""}","[0]","10","",""
"","null","html-keyboard-response","53","231456","0.0-17.0-0.0","SS1618366027904","","","null","","","","","","<p><img src= images/blank.png width =""600"" height = ""600"" style=""position:fixed;top:50%; left:50%; transform: translate(-50%, -50%); border:5px solid black"">","","","","","","","",""
"","1458","sequential-stimulus-presentation-old","54","232974","0.0-17.0-1.0","SS1618366027904","trial","","40","500","1958","images/stimuli/spore_stims/simple_08_A_b.gif","images/stimuli/spore_stims/simple_20_A_a.gif","forced_short","","4","simple_dissimilar","images/stimuli/spore_stims/simple_20_A_a.gif","","","","",""
"","null","html-keyboard-response","55","233955","0.0-17.0-0.1","SS1618366027904","","","null","","","","","","<p><img src= images/blank.png width =""600"" height = ""600"" style=""position:fixed;top:50%; left:50%; transform: translate(-50%, -50%); border:5px solid black"">","","","","","","","",""
"","2574","sequential-stimulus-presentation-old","56","237049","0.0-17.0-1.1","SS1618366027904","trial","","40","500","3074","images/stimuli/spore_stims/simple_08_A_b.gif","images/stimuli/spore_stims/simple_20_A_a.gif","forced_short","","4","simple_dissimilar","images/stimuli/spore_stims/simple_08_A_b.gif","","","","",""
"","null","html-keyboard-response","57","238266","0.0-17.0-0.2","SS1618366027904","","","null","","","","","","<p><img src= images/blank.png width =""600"" height = ""600"" style=""position:fixed;top:50%; left:50%; transform: translate(-50%, -50%); border:5px solid black"">","","","","","","","",""
"","2209","sequential-stimulus-presentation-old","58","240995","0.0-17.0-1.2","SS1618366027904","trial","","40","500","2709","images/stimuli/spore_stims/simple_08_A_b.gif","images/stimuli/spore_stims/simple_20_A_a.gif","forced_short","","4","simple_dissimilar","images/stimuli/spore_stims/simple_20_A_a.gif","","","","",""
"","null","html-keyboard-response","59","242165","0.0-17.0-0.3","SS1618366027904","","","null","","","","","","<p><img src= images/blank.png width =""600"" height = ""600"" style=""position:fixed;top:50%; left:50%; transform: translate(-50%, -50%); border:5px solid black"">","","","","","","","",""
"","1336","sequential-stimulus-presentation-old","60","244022","0.0-17.0-1.3","SS1618366027904","trial","","40","500","1836","images/stimuli/spore_stims/simple_08_A_b.gif","images/stimuli/spore_stims/simple_20_A_a.gif","forced_short","","4","simple_dissimilar","images/stimuli/spore_stims/simple_20_A_a.gif","","","","",""
"","null","html-keyboard-response","61","245135","0.0-17.0-0.4","SS1618366027904","","","null","","","","","","<p><img src= images/blank.png width =""600"" height = ""600"" style=""position:fixed;top:50%; left:50%; transform: translate(-50%, -50%); border:5px solid black"">","","","","","","","",""
"","429","sequential-stimulus-presentation-old","62","246084","0.0-17.0-1.4","SS1618366027904","trial","","40","500","929","images/stimuli/spore_stims/simple_08_A_b.gif","images/stimuli/spore_stims/simple_20_A_a.gif","forced_short","","4","simple_dissimilar","images/stimuli/spore_stims/simple_20_A_a.gif","","","","",""
"","null","html-keyboard-response","63","247275","0.0-17.0-0.5","SS1618366027904","","","null","","","","","","<p><img src= images/blank.png width =""600"" height = ""600"" style=""position:fixed;top:50%; left:50%; transform: translate(-50%, -50%); border:5px solid black"">","","","","","","","",""
"","1402","sequential-stimulus-presentation-old","64","249198","0.0-17.0-1.5","SS1618366027904","trial","","40","500","1902","images/stimuli/spore_stims/simple_08_A_b.gif","images/stimuli/spore_stims/simple_20_A_a.gif","forced_short","","4","simple_dissimilar","images/stimuli/spore_stims/simple_08_A_b.gif","","","","",""
"","2947","survey-multi-choice","65","252150","0.0-18.0","SS1618366027904","math_question","","","","","","","","","","","","{""Q0"":""13""}","[0]","13","",""
"","null","html-keyboard-response","66","252996","0.0-19.0-0.0","SS1618366027904","","","null","","","","","","<p><img src= images/blank.png width =""600"" height = ""600"" style=""position:fixed;top:50%; left:50%; transform: translate(-50%, -50%); border:5px solid black"">","","","","","","","",""
"","1458","sequential-stimulus-presentation-old","67","254514","0.0-19.0-1.0","SS1618366027904","trial","","40","500","1958","images/stimuli/spore_stims/complex_13_A_b.gif","images/stimuli/spore_stims/complex_02_A_a.gif","forced_short","","5","complex_dissimilar","images/stimuli/spore_stims/complex_02_A_a.gif","","","","",""
"","null","html-keyboard-response","68","255336","0.0-19.0-0.1","SS1618366027904","","","null","","","","","","<p><img src= images/blank.png width =""600"" height = ""600"" style=""position:fixed;top:50%; left:50%; transform: translate(-50%, -50%); border:5px solid black"">","","","","","","","",""
"","3772","sequential-stimulus-presentation-old","69","259626","0.0-19.0-1.1","SS1618366027904","trial","","40","500","4272","images/stimuli/spore_stims/complex_13_A_b.gif","images/stimuli/spore_stims/complex_02_A_a.gif","forced_short","","5","complex_dissimilar","images/stimuli/spore_stims/complex_13_A_b.gif","","","","",""
"","null","html-keyboard-response","70","260516","0.0-19.0-0.2","SS1618366027904","","","null","","","","","","<p><img src= images/blank.png width =""600"" height = ""600"" style=""position:fixed;top:50%; left:50%; transform: translate(-50%, -50%); border:5px solid black"">","","","","","","","",""
"","2307","sequential-stimulus-presentation-old","71","263344","0.0-19.0-1.2","SS1618366027904","trial","","40","500","2807","images/stimuli/spore_stims/complex_13_A_b.gif","images/stimuli/spore_stims/complex_02_A_a.gif","forced_short","","5","complex_dissimilar","images/stimuli/spore_stims/complex_13_A_b.gif","","","","",""
"","null","html-keyboard-response","72","264236","0.0-19.0-0.3","SS1618366027904","","","null","","","","","","<p><img src= images/blank.png width =""600"" height = ""600"" style=""position:fixed;top:50%; left:50%; transform: translate(-50%, -50%); border:5px solid black"">","","","","","","","",""
"","2978","sequential-stimulus-presentation-old","73","267734","0.0-19.0-1.3","SS1618366027904","trial","","40","500","3478","images/stimuli/spore_stims/complex_13_A_b.gif","images/stimuli/spore_stims/complex_02_A_a.gif","forced_short","","5","complex_dissimilar","images/stimuli/spore_stims/complex_02_A_a.gif","","","","",""
"","2877","survey-multi-choice","74","270616","0.0-20.0","SS1618366027904","math_question","","","","","","","","","","","","{""Q0"":""12""}","[0]","12","",""
"","null","html-keyboard-response","75","271641","0.0-21.0-0.0","SS1618366027904","","","null","","","","","","<p><img src= images/blank.png width =""600"" height = ""600"" style=""position:fixed;top:50%; left:50%; transform: translate(-50%, -50%); border:5px solid black"">","","","","","","","",""
"","1565","sequential-stimulus-presentation-old","76","273730","0.0-21.0-1.0","SS1618366027904","trial","","40","500","2065","images/stimuli/spore_stims/simple_02_A_a.gif","images/stimuli/spore_stims/simple_11_A_b.gif","self_paced","","6","simple_dissimilar","images/stimuli/spore_stims/simple_11_A_b.gif","","","","",""
"","null","html-keyboard-response","77","274665","0.0-21.0-0.1","SS1618366027904","","","null","","","","","","<p><img src= images/blank.png width =""600"" height = ""600"" style=""position:fixed;top:50%; left:50%; transform: translate(-50%, -50%); border:5px solid black"">","","","","","","","",""
"","2433","sequential-stimulus-presentation-old","78","277619","0.0-21.0-1.1","SS1618366027904","trial","","40","500","2933","images/stimuli/spore_stims/simple_02_A_a.gif","images/stimuli/spore_stims/simple_11_A_b.gif","self_paced","","6","simple_dissimilar","images/stimuli/spore_stims/simple_11_A_b.gif","","","","",""
"","null","html-keyboard-response","79","278656","0.0-21.0-0.2","SS1618366027904","","","null","","","","","","<p><img src= images/blank.png width =""600"" height = ""600"" style=""position:fixed;top:50%; left:50%; transform: translate(-50%, -50%); border:5px solid black"">","","","","","","","",""
"","2426","sequential-stimulus-presentation-old","80","281602","0.0-21.0-1.2","SS1618366027904","trial","","40","500","2926","images/stimuli/spore_stims/simple_02_A_a.gif","images/stimuli/spore_stims/simple_11_A_b.gif","self_paced","","6","simple_dissimilar","images/stimuli/spore_stims/simple_02_A_a.gif","","","","",""
"","null","html-keyboard-response","81","282876","0.0-21.0-0.3","SS1618366027904","","","null","","","","","","<p><img src= images/blank.png width =""600"" height = ""600"" style=""position:fixed;top:50%; left:50%; transform: translate(-50%, -50%); border:5px solid black"">","","","","","","","",""
"","2675","sequential-stimulus-presentation-old","82","286071","0.0-21.0-1.3","SS1618366027904","trial","","40","500","3175","images/stimuli/spore_stims/simple_02_A_a.gif","images/stimuli/spore_stims/simple_11_A_b.gif","self_paced","","6","simple_dissimilar","images/stimuli/spore_stims/simple_11_A_b.gif","","","","",""
"","null","html-keyboard-response","83","287066","0.0-21.0-0.4","SS1618366027904","","","null","","","","","","<p><img src= images/blank.png width =""600"" height = ""600"" style=""position:fixed;top:50%; left:50%; transform: translate(-50%, -50%); border:5px solid black"">","","","","","","","",""
"","2299","sequential-stimulus-presentation-old","84","289875","0.0-21.0-1.4","SS1618366027904","trial","","40","500","2799","images/stimuli/spore_stims/simple_02_A_a.gif","images/stimuli/spore_stims/simple_11_A_b.gif","self_paced","","6","simple_dissimilar","images/stimuli/spore_stims/simple_11_A_b.gif","","","","",""
"","null","html-keyboard-response","85","290986","0.0-21.0-0.5","SS1618366027904","","","null","","","","","","<p><img src= images/blank.png width =""600"" height = ""600"" style=""position:fixed;top:50%; left:50%; transform: translate(-50%, -50%); border:5px solid black"">","","","","","","","",""
"","874","sequential-stimulus-presentation-old","86","292380","0.0-21.0-1.5","SS1618366027904","trial","","40","500","1374","images/stimuli/spore_stims/simple_02_A_a.gif","images/stimuli/spore_stims/simple_11_A_b.gif","self_paced","","6","simple_dissimilar","images/stimuli/spore_stims/simple_11_A_b.gif","","","","",""
"","2783","survey-multi-choice","87","295168","0.0-22.0","SS1618366027904","math_question","","","","","","","","","","","","{""Q0"":""9""}","[0]","9","",""
"","null","html-keyboard-response","88","296436","0.0-23.0-0.0","SS1618366027904","","","null","","","","","","<p><img src= images/blank.png width =""600"" height = ""600"" style=""position:fixed;top:50%; left:50%; transform: translate(-50%, -50%); border:5px solid black"">","","","","","","","",""
"","441","sequential-stimulus-presentation-old","89","301887","0.0-23.0-1.0","SS1618366027904","trial","","40","500","941","images/stimuli/spore_stims/complex_01_A_b.gif","images/stimuli/spore_stims/complex_13_A_a.gif","forced_long","","7","complex_dissimilar","images/stimuli/spore_stims/complex_13_A_a.gif","","","","",""
"","null","html-keyboard-response","90","303086","0.0-23.0-0.1","SS1618366027904","","","null","","","","","","<p><img src= images/blank.png width =""600"" height = ""600"" style=""position:fixed;top:50%; left:50%; transform: translate(-50%, -50%); border:5px solid black"">","","","","","","","",""
"","2601","sequential-stimulus-presentation-old","91","306206","0.0-23.0-1.1","SS1618366027904","trial","","40","500","3101","images/stimuli/spore_stims/complex_01_A_b.gif","images/stimuli/spore_stims/complex_13_A_a.gif","forced_long","","7","complex_dissimilar","images/stimuli/spore_stims/complex_13_A_a.gif","","","","",""
"","null","html-keyboard-response","92","307216","0.0-23.0-0.2","SS1618366027904","","","null","","","","","","<p><img src= images/blank.png width =""600"" height = ""600"" style=""position:fixed;top:50%; left:50%; transform: translate(-50%, -50%); border:5px solid black"">","","","","","","","",""
"","1330","sequential-stimulus-presentation-old","93","309066","0.0-23.0-1.2","SS1618366027904","trial","","40","500","1830","images/stimuli/spore_stims/complex_01_A_b.gif","images/stimuli/spore_stims/complex_13_A_a.gif","forced_long","","7","complex_dissimilar","images/stimuli/spore_stims/complex_13_A_a.gif","","","","",""
"","null","html-keyboard-response","94","310275","0.0-23.0-0.3","SS1618366027904","","","null","","","","","","<p><img src= images/blank.png width =""600"" height = ""600"" style=""position:fixed;top:50%; left:50%; transform: translate(-50%, -50%); border:5px solid black"">","","","","","","","",""
"","764","sequential-stimulus-presentation-old","95","311560","0.0-23.0-1.3","SS1618366027904","trial","","40","500","1264","images/stimuli/spore_stims/complex_01_A_b.gif","images/stimuli/spore_stims/complex_13_A_a.gif","forced_long","","7","complex_dissimilar","images/stimuli/spore_stims/complex_13_A_a.gif","","","","",""
"","3329","survey-multi-choice","96","314891","0.0-24.0","SS1618366027904","math_question","","","","","","","","","","","","{""Q0"":""16""}","[0]","16","",""
"","null","html-keyboard-response","97","315847","0.0-25.0-0.0","SS1618366027904","","","null","","","","","","<p><img src= images/blank.png width =""600"" height = ""600"" style=""position:fixed;top:50%; left:50%; transform: translate(-50%, -50%); border:5px solid black"">","","","","","","","",""
"","1552","sequential-stimulus-presentation-old","98","317918","0.0-25.0-1.0","SS1618366027904","trial","","40","500","2052","images/stimuli/spore_stims/complex_20_A_a.gif","images/stimuli/spore_stims/complex_11_A_b.gif","self_paced","","8","complex_dissimilar","images/stimuli/spore_stims/complex_11_A_b.gif","","","","",""
"","null","html-keyboard-response","99","318966","0.0-25.0-0.1","SS1618366027904","","","null","","","","","","<p><img src= images/blank.png width =""600"" height = ""600"" style=""position:fixed;top:50%; left:50%; transform: translate(-50%, -50%); border:5px solid black"">","","","","","","","",""
"","2552","sequential-stimulus-presentation-old","100","322038","0.0-25.0-1.1","SS1618366027904","trial","","40","500","3052","images/stimuli/spore_stims/complex_20_A_a.gif","images/stimuli/spore_stims/complex_11_A_b.gif","self_paced","","8","complex_dissimilar","images/stimuli/spore_stims/complex_11_A_b.gif","","","","",""
"","null","html-keyboard-response","101","322965","0.0-25.0-0.2","SS1618366027904","","","null","","","","","","<p><img src= images/blank.png width =""600"" height = ""600"" style=""position:fixed;top:50%; left:50%; transform: translate(-50%, -50%); border:5px solid black"">","","","","","","","",""
"","2656","sequential-stimulus-presentation-old","102","326141","0.0-25.0-1.2","SS1618366027904","trial","","40","500","3156","images/stimuli/spore_stims/complex_20_A_a.gif","images/stimuli/spore_stims/complex_11_A_b.gif","self_paced","","8","complex_dissimilar","images/stimuli/spore_stims/complex_20_A_a.gif","","","","",""
"","null","html-keyboard-response","103","327365","0.0-25.0-0.3","SS1618366027904","","","null","","","","","","<p><img src= images/blank.png width =""600"" height = ""600"" style=""position:fixed;top:50%; left:50%; transform: translate(-50%, -50%); border:5px solid black"">","","","","","","","",""
"","681","sequential-stimulus-presentation-old","104","328565","0.0-25.0-1.3","SS1618366027904","trial","","40","500","1181","images/stimuli/spore_stims/complex_20_A_a.gif","images/stimuli/spore_stims/complex_11_A_b.gif","self_paced","","8","complex_dissimilar","images/stimuli/spore_stims/complex_11_A_b.gif","","","","",""
"","null","html-keyboard-response","105","329506","0.0-25.0-0.4","SS1618366027904","","","null","","","","","","<p><img src= images/blank.png width =""600"" height = ""600"" style=""position:fixed;top:50%; left:50%; transform: translate(-50%, -50%); border:5px solid black"">","","","","","","","",""
"","1306","sequential-stimulus-presentation-old","106","331331","0.0-25.0-1.4","SS1618366027904","trial","","40","500","1806","images/stimuli/spore_stims/complex_20_A_a.gif","images/stimuli/spore_stims/complex_11_A_b.gif","self_paced","","8","complex_dissimilar","images/stimuli/spore_stims/complex_11_A_b.gif","","","","",""
"","null","html-keyboard-response","107","332306","0.0-25.0-0.5","SS1618366027904","","","null","","","","","","<p><img src= images/blank.png width =""600"" height = ""600"" style=""position:fixed;top:50%; left:50%; transform: translate(-50%, -50%); border:5px solid black"">","","","","","","","",""
"","1872","sequential-stimulus-presentation-old","108","334698","0.0-25.0-1.5","SS1618366027904","trial","","40","500","2372","images/stimuli/spore_stims/complex_20_A_a.gif","images/stimuli/spore_stims/complex_11_A_b.gif","self_paced","","8","complex_dissimilar","images/stimuli/spore_stims/complex_11_A_b.gif","","","","",""
"","3160","survey-multi-choice","109","337865","0.0-26.0","SS1618366027904","math_question","","","","","","","","","","","","{""Q0"":""9""}","[0]","9","",""
"","null","html-keyboard-response","110","338726","0.0-27.0-0.0","SS1618366027904","","","null","","","","","","<p><img src= images/blank.png width =""600"" height = ""600"" style=""position:fixed;top:50%; left:50%; transform: translate(-50%, -50%); border:5px solid black"">","","","","","","","",""
"","8957","sequential-stimulus-presentation-old","111","347741","0.0-27.0-1.0","SS1618366027904","trial","","40","500","9457","images/stimuli/spore_stims/complex_04_A_a.gif","images/stimuli/spore_stims/complex_02_A_b.gif","forced_short","","9","complex_dissimilar","images/stimuli/spore_stims/complex_02_A_b.gif","","","","",""
"","null","html-keyboard-response","112","348695","0.0-27.0-0.1","SS1618366027904","","","null","","","","","","<p><img src= images/blank.png width =""600"" height = ""600"" style=""position:fixed;top:50%; left:50%; transform: translate(-50%, -50%); border:5px solid black"">","","","","","","","",""
"","3091","sequential-stimulus-presentation-old","113","352297","0.0-27.0-1.1","SS1618366027904","trial","","40","500","3591","images/stimuli/spore_stims/complex_04_A_a.gif","images/stimuli/spore_stims/complex_02_A_b.gif","forced_short","","9","complex_dissimilar","images/stimuli/spore_stims/complex_04_A_a.gif","","","","",""
"","null","html-keyboard-response","114","353606","0.0-27.0-0.2","SS1618366027904","","","null","","","","","","<p><img src= images/blank.png width =""600"" height = ""600"" style=""position:fixed;top:50%; left:50%; transform: translate(-50%, -50%); border:5px solid black"">","","","","","","","",""
"","2453","sequential-stimulus-presentation-old","115","356579","0.0-27.0-1.2","SS1618366027904","trial","","40","500","2953","images/stimuli/spore_stims/complex_04_A_a.gif","images/stimuli/spore_stims/complex_02_A_b.gif","forced_short","","9","complex_dissimilar","images/stimuli/spore_stims/complex_02_A_b.gif","","","","",""
"","null","html-keyboard-response","116","357687","0.0-27.0-0.3","SS1618366027904","","","null","","","","","","<p><img src= images/blank.png width =""600"" height = ""600"" style=""position:fixed;top:50%; left:50%; transform: translate(-50%, -50%); border:5px solid black"">","","","","","","","",""
"","1694","sequential-stimulus-presentation-old","117","359901","0.0-27.0-1.3","SS1618366027904","trial","","40","500","2194","images/stimuli/spore_stims/complex_04_A_a.gif","images/stimuli/spore_stims/complex_02_A_b.gif","forced_short","","9","complex_dissimilar","images/stimuli/spore_stims/complex_04_A_a.gif","","","","",""
"","2422","survey-multi-choice","118","362330","0.0-28.0","SS1618366027904","math_question","","","","","","","","","","","","{""Q0"":""14""}","[0]","14","",""
"","null","html-keyboard-response","119","363486","0.0-29.0-0.0","SS1618366027904","","","null","","","","","","<p><img src= images/blank.png width =""600"" height = ""600"" style=""position:fixed;top:50%; left:50%; transform: translate(-50%, -50%); border:5px solid black"">","","","","","","","",""
"","414","sequential-stimulus-presentation-old","120","368920","0.0-29.0-1.0","SS1618366027904","trial","","40","500","914","images/stimuli/spore_stims/complex_18_A_b.gif","images/stimuli/spore_stims/complex_11_A_a.gif","forced_long","","10","complex_dissimilar","images/stimuli/spore_stims/complex_11_A_a.gif","","","","",""
"","null","html-keyboard-response","121","369765","0.0-29.0-0.1","SS1618366027904","","","null","","","","","","<p><img src= images/blank.png width =""600"" height = ""600"" style=""position:fixed;top:50%; left:50%; transform: translate(-50%, -50%); border:5px solid black"">","","","","","","","",""
"","2524","sequential-stimulus-presentation-old","122","372809","0.0-29.0-1.1","SS1618366027904","trial","","40","500","3024","images/stimuli/spore_stims/complex_18_A_b.gif","images/stimuli/spore_stims/complex_11_A_a.gif","forced_long","","10","complex_dissimilar","images/stimuli/spore_stims/complex_18_A_b.gif","","","","",""
"","null","html-keyboard-response","123","373966","0.0-29.0-0.2","SS1618366027904","","","null","","","","","","<p><img src= images/blank.png width =""600"" height = ""600"" style=""position:fixed;top:50%; left:50%; transform: translate(-50%, -50%); border:5px solid black"">","","","","","","","",""
"","396","sequential-stimulus-presentation-old","124","374882","0.0-29.0-1.2","SS1618366027904","trial","","40","500","896","images/stimuli/spore_stims/complex_18_A_b.gif","images/stimuli/spore_stims/complex_11_A_a.gif","forced_long","","10","complex_dissimilar","images/stimuli/spore_stims/complex_11_A_a.gif","","","","",""
"","null","html-keyboard-response","125","376156","0.0-29.0-0.3","SS1618366027904","","","null","","","","","","<p><img src= images/blank.png width =""600"" height = ""600"" style=""position:fixed;top:50%; left:50%; transform: translate(-50%, -50%); border:5px solid black"">","","","","","","","",""
"","374","sequential-stimulus-presentation-old","126","377049","0.0-29.0-1.3","SS1618366027904","trial","","40","500","874","images/stimuli/spore_stims/complex_18_A_b.gif","images/stimuli/spore_stims/complex_11_A_a.gif","forced_long","","10","complex_dissimilar","images/stimuli/spore_stims/complex_11_A_a.gif","","","","",""
"","null","html-keyboard-response","127","377956","0.0-29.0-0.4","SS1618366027904","","","null","","","","","","<p><img src= images/blank.png width =""600"" height = ""600"" style=""position:fixed;top:50%; left:50%; transform: translate(-50%, -50%); border:5px solid black"">","","","","","","","",""
"","2130","sequential-stimulus-presentation-old","128","380606","0.0-29.0-1.4","SS1618366027904","trial","","40","500","2630","images/stimuli/spore_stims/complex_18_A_b.gif","images/stimuli/spore_stims/complex_11_A_a.gif","forced_long","","10","complex_dissimilar","images/stimuli/spore_stims/complex_18_A_b.gif","","","","",""
"","2949","survey-multi-choice","129","383556","0.0-30.0","SS1618366027904","math_question","","","","","","","","","","","","{""Q0"":""10""}","[0]","10","",""
"","null","html-keyboard-response","130","384743","0.0-31.0-0.0","SS1618366027904","","","null","","","","","","<p><img src= images/blank.png width =""600"" height = ""600"" style=""position:fixed;top:50%; left:50%; transform: translate(-50%, -50%); border:5px solid black"">","","","","","","","",""
"","1127","sequential-stimulus-presentation-old","131","385932","0.0-31.0-1.0","SS1618366027904","trial","","40","500","1627","images/stimuli/spore_stims/simple_09_A_a.gif","images/stimuli/spore_stims/simple_06_A_b.gif","forced_short","","11","simple_dissimilar","images/stimuli/spore_stims/simple_06_A_b.gif","","","","",""
"","null","html-keyboard-response","132","387005","0.0-31.0-0.1","SS1618366027904","","","null","","","","","","<p><img src= images/blank.png width =""600"" height = ""600"" style=""position:fixed;top:50%; left:50%; transform: translate(-50%, -50%); border:5px solid black"">","","","","","","","",""
"","245","sequential-stimulus-presentation-old","133","387761","0.0-31.0-1.1","SS1618366027904","trial","","40","500","745","images/stimuli/spore_stims/simple_09_A_a.gif","images/stimuli/spore_stims/simple_06_A_b.gif","forced_short","","11","simple_dissimilar","images/stimuli/spore_stims/simple_06_A_b.gif","","","","",""
"","null","html-keyboard-response","134","389036","0.0-31.0-0.2","SS1618366027904","","","null","","","","","","<p><img src= images/blank.png width =""600"" height = ""600"" style=""position:fixed;top:50%; left:50%; transform: translate(-50%, -50%); border:5px solid black"">","","","","","","","",""
"","22","sequential-stimulus-presentation-old","135","389577","0.0-31.0-1.2","SS1618366027904","trial","","40","500","522","images/stimuli/spore_stims/simple_09_A_a.gif","images/stimuli/spore_stims/simple_06_A_b.gif","forced_short","","11","simple_dissimilar","images/stimuli/spore_stims/simple_06_A_b.gif","","","","",""
"","null","html-keyboard-response","136","390875","0.0-31.0-0.3","SS1618366027904","","","null","","","","","","<p><img src= images/blank.png width =""600"" height = ""600"" style=""position:fixed;top:50%; left:50%; transform: translate(-50%, -50%); border:5px solid black"">","","","","","","","",""
"","1151","sequential-stimulus-presentation-old","137","392547","0.0-31.0-1.3","SS1618366027904","trial","","40","500","1651","images/stimuli/spore_stims/simple_09_A_a.gif","images/stimuli/spore_stims/simple_06_A_b.gif","forced_short","","11","simple_dissimilar","images/stimuli/spore_stims/simple_06_A_b.gif","","","","",""
"","null","html-keyboard-response","138","393496","0.0-31.0-0.4","SS1618366027904","","","null","","","","","","<p><img src= images/blank.png width =""600"" height = ""600"" style=""position:fixed;top:50%; left:50%; transform: translate(-50%, -50%); border:5px solid black"">","","","","","","","",""
"","1187","sequential-stimulus-presentation-old","139","395203","0.0-31.0-1.4","SS1618366027904","trial","","40","500","1687","images/stimuli/spore_stims/simple_09_A_a.gif","images/stimuli/spore_stims/simple_06_A_b.gif","forced_short","","11","simple_dissimilar","images/stimuli/spore_stims/simple_06_A_b.gif","","","","",""
"","null","html-keyboard-response","140","396066","0.0-31.0-0.5","SS1618366027904","","","null","","","","","","<p><img src= images/blank.png width =""600"" height = ""600"" style=""position:fixed;top:50%; left:50%; transform: translate(-50%, -50%); border:5px solid black"">","","","","","","","",""
"","1951","sequential-stimulus-presentation-old","141","398536","0.0-31.0-1.5","SS1618366027904","trial","","40","500","2451","images/stimuli/spore_stims/simple_09_A_a.gif","images/stimuli/spore_stims/simple_06_A_b.gif","forced_short","","11","simple_dissimilar","images/stimuli/spore_stims/simple_09_A_a.gif","","","","",""
"[{""page_index"":0,""viewing_time"":4166}]","4166","instructions","142","402705","0.0-32.0","SS1618366027904","instructions","","","","","","","","","","","","","","","",""
"","7423","survey-likert","143","410132","0.0-33.0","SS1618366027904","similarity_question","","","","","","","","","","","","{""Q0"":3}","[0]","","images/stimuli/spore_stims/simple_03_A_a.gif","images/stimuli/spore_stims/simple_17_A_b.gif"
"","6285","survey-likert","144","416421","0.0-34.0","SS1618366027904","similarity_question","","","","","","","","","","","","{""Q0"":1}","[0]","","images/stimuli/spore_stims/complex_11_A_b.gif","images/stimuli/spore_stims/complex_20_A_a.gif"
"","7412","survey-likert","145","423836","0.0-35.0","SS1618366027904","similarity_question","","","","","","","","","","","","{""Q0"":3}","[0]","","images/stimuli/spore_stims/simple_20_A_a.gif","images/stimuli/spore_stims/simple_08_A_b.gif"
"","2630","survey-likert","146","426471","0.0-36.0","SS1618366027904","similarity_question","","","","","","","","","","","","{""Q0"":3}","[0]","","images/stimuli/spore_stims/simple_18_A_b.gif","images/stimuli/spore_stims/simple_13_A_a.gif"
"","3102","survey-likert","147","429577","0.0-37.0","SS1618366027904","similarity_question","","","","","","","","","","","","{""Q0"":3}","[0]","","images/stimuli/spore_stims/simple_09_A_a.gif","images/stimuli/spore_stims/simple_06_A_b.gif"
"","4638","survey-likert","148","434217","0.0-38.0","SS1618366027904","similarity_question","","","","","","","","","","","","{""Q0"":0}","[0]","","images/stimuli/spore_stims/complex_08_A_b.gif","images/stimuli/spore_stims/complex_14_A_a.gif"
"","3996","survey-likert","149","438218","0.0-39.0","SS1618366027904","similarity_question","","","","","","","","","","","","{""Q0"":1}","[0]","","images/stimuli/spore_stims/complex_02_A_a.gif","images/stimuli/spore_stims/complex_13_A_b.gif"
"","4555","survey-likert","150","442779","0.0-40.0","SS1618366027904","similarity_question","","","","","","","","","","","","{""Q0"":3}","[0]","","images/stimuli/spore_stims/simple_14_A_b.gif","images/stimuli/spore_stims/simple_16_A_a.gif"
"","2381","survey-likert","151","445164","0.0-41.0","SS1618366027904","similarity_question","","","","","","","","","","","","{""Q0"":3}","[0]","","images/stimuli/spore_stims/simple_11_A_b.gif","images/stimuli/spore_stims/simple_02_A_a.gif"
"","2999","survey-likert","152","448166","0.0-42.0","SS1618366027904","similarity_question","","","","","","","","","","","","{""Q0"":1}","[0]","","images/stimuli/spore_stims/complex_11_A_a.gif","images/stimuli/spore_stims/complex_18_A_b.gif"
"","2589","survey-likert","153","450757","0.0-43.0","SS1618366027904","similarity_question","","","","","","","","","","","","{""Q0"":1}","[0]","","images/stimuli/spore_stims/complex_02_A_b.gif","images/stimuli/spore_stims/complex_04_A_a.gif"
"","3371","survey-likert","154","454132","0.0-44.0","SS1618366027904","similarity_question","","","","","","","","","","","","{""Q0"":0}","[0]","","images/stimuli/spore_stims/complex_01_A_b.gif","images/stimuli/spore_stims/complex_13_A_a.gif"
"[{""page_index"":0,""viewing_time"":5192}]","5192","instructions","155","459325","0.0-45.0","SS1618366027904","instructions","","","","","","","","","","","","","","","",""
"","5631","survey-likert","156","464960","0.0-46.0","SS1618366027904","","","","","","","","","images/stimuli/spore_stims/complex_08_A_b.gif","","","","{""Q0"":5}","[0]","","",""
"","2870","survey-likert","157","467834","0.0-47.0","SS1618366027904","","","","","","","","","images/stimuli/spore_stims/complex_02_A_a.gif","","","","{""Q0"":5}","[0]","","",""
"","2304","survey-likert","158","470142","0.0-48.0","SS1618366027904","","","","","","","","","images/stimuli/spore_stims/complex_20_A_a.gif","","","","{""Q0"":6}","[0]","","",""
"","2334","survey-likert","159","472481","0.0-49.0","SS1618366027904","","","","","","","","","images/stimuli/spore_stims/simple_11_A_b.gif","","","","{""Q0"":0}","[0]","","",""
"","3182","survey-likert","160","475666","0.0-50.0","SS1618366027904","","","","","","","","","images/stimuli/spore_stims/simple_08_A_b.gif","","","","{""Q0"":0}","[0]","","",""
"","4882","survey-likert","161","480552","0.0-51.0","SS1618366027904","","","","","","","","","images/stimuli/spore_stims/complex_18_A_b.gif","","","","{""Q0"":5}","[0]","","",""
"","2220","survey-likert","162","482778","0.0-52.0","SS1618366027904","","","","","","","","","images/stimuli/spore_stims/simple_14_A_b.gif","","","","{""Q0"":0}","[0]","","",""
"","2116","survey-likert","163","484899","0.0-53.0","SS1618366027904","","","","","","","","","images/stimuli/spore_stims/complex_02_A_b.gif","","","","{""Q0"":5}","[0]","","",""
"","2105","survey-likert","164","487007","0.0-54.0","SS1618366027904","","","","","","","","","images/stimuli/spore_stims/simple_09_A_a.gif","","","","{""Q0"":0}","[0]","","",""
"","1834","survey-likert","165","488846","0.0-55.0","SS1618366027904","","","","","","","","","images/stimuli/spore_stims/simple_17_A_b.gif","","","","{""Q0"":0}","[0]","","",""
"","1470","survey-likert","166","490322","0.0-56.0","SS1618366027904","","","","","","","","","images/stimuli/spore_stims/simple_13_A_a.gif","","","","{""Q0"":0}","[0]","","",""
"","2432","survey-likert","167","492759","0.0-57.0","SS1618366027904","","","","","","","","","images/stimuli/spore_stims/complex_13_A_a.gif","","","","{""Q0"":5}","[0]","","",""
"[{""page_index"":0,""viewing_time"":49589}]","49590","instructions","168","542353","0.0-58.0","SS1618366027904","instructions","","","","","","","","","","","","","","","",""
"","2453","demog-age","169","544813","0.0-59.0","SS1618366027904","","","","","","","","","","","","","{""age"":""23""}","","","",""
"","5048","demog-ethnic-US","170","549869","0.0-60.0","SS1618366027904","","","","","","","","","","","","","{""ethnicity"":[""White""]}","[0]","","",""
"","7926","demog-gender-and-education","171","557801","0.0-61.0","SS1618366027904","","","","","","","","","","","","","{""gender"":""Male"",""education"":""Bachelor's Degree""}","[0,1]","","",""
"","23582","survey-text","172","581390","0.0-62.0","SS1618366027904","feedback","","","","","","","","","","","","{""Q0"":""I don't think so, very smooth for me""}","","","",""
"[{""page_index"":0,""viewing_time"":2318}]","2318","instructions","173","583713","0.0-63.0","SS1618366027904","instructions","","","","","","","","","","","","","","","",""
