"view_history","rt","trial_type","trial_index","time_elapsed","internal_node_id","subject","stimulus_type","trial_stimulus","key_press","minimum_viewing_duration","trial_looking_time","block_deviant","block_background","exposure_type","stimulus","block_number","block_type","stimulus_displayed","responses","question_order","math_correct_answer","stimulus_left","stimulus_right"
"[{""page_index"":0,""viewing_time"":1750.9100000024773}]","1751.1999999987893","instructions","0","1753","0.0-0.0","SS1618365292414","","","","","","","","","","","","","","","","",""
"[{""page_index"":0,""viewing_time"":21365.850000001956},{""page_index"":1,""viewing_time"":10329.854999996314}]","31695.999999996275","instructions","1","35450","0.0-1.0","SS1618365292414","instructions","","","","","","","","","","","","","","","",""
"","7028.59499999613","sequential-stimulus-presentation-old","2","42981","0.0-2.0","SS1618365292414","","","40","500","7528.59499999613","null","null","self_paced","","","","","","","","",""
"","5741.835000000719","sequential-stimulus-presentation-old","3","49225","0.0-3.0","SS1618365292414","","","40","500","6241.835000000719","null","null","self_paced","","","","","","","","",""
"[{""page_index"":0,""viewing_time"":21119.070000000647}]","21119.384999998147","instructions","4","70345","0.0-4.0","SS1618365292414","instructions","","","","","","","","","","","","","","","",""
"","7194.530000000668","sequential-stimulus-presentation-old","5","82541","0.0-5.0","SS1618365292414","","","40","500","7694.530000000668","null","null","forced_long","","","","","","","","",""
"","3661.5549999987707","sequential-stimulus-presentation-old","6","86254","0.0-6.0","SS1618365292414","","","40","50","3711.5549999987707","null","null","forced_long","","","","","","","","",""
"[{""page_index"":0,""viewing_time"":4269.964999999502}]","4270.270000000892","instructions","7","90525","0.0-7.0","SS1618365292414","instructions","","","","","","","","","","","","","","","",""
"[{""page_index"":0,""viewing_time"":8142.7850000036415},{""page_index"":1,""viewing_time"":9887.99999999901},{""page_index"":2,""viewing_time"":8789.039999996021},{""page_index"":3,""viewing_time"":1961.795000002894},{""page_index"":4,""viewing_time"":1222.1500000014203}]","30004.039999999804","instructions","8","120530","0.0-8.0","SS1618365292414","instructions","","","","","","","","","","","","","","","",""
"","null","html-keyboard-response","9","121453","0.0-9.0-0.0","SS1618365292414","","","null","","","","","","<p><img src= images/blank.png width =""600"" height = ""600"" style=""position:fixed;top:50%; left:50%; transform: translate(-50%, -50%); border:5px solid black"">","","","","","","","",""
"","725.3700000001118","sequential-stimulus-presentation-old","10","127182","0.0-9.0-1.0","SS1618365292414","trial","","40","500","1225.3700000001118","images/stimuli/spore_stims/complex_03_A_b.gif","images/stimuli/spore_stims/complex_20_A_a.gif","forced_long","","0","complex_dissimilar","images/stimuli/spore_stims/complex_20_A_a.gif","","","","",""
"","null","html-keyboard-response","11","128051","0.0-9.0-0.1","SS1618365292414","","","null","","","","","","<p><img src= images/blank.png width =""600"" height = ""600"" style=""position:fixed;top:50%; left:50%; transform: translate(-50%, -50%); border:5px solid black"">","","","","","","","",""
"","2584.340000001248","sequential-stimulus-presentation-old","12","131137","0.0-9.0-1.1","SS1618365292414","trial","","40","500","3084.340000001248","images/stimuli/spore_stims/complex_03_A_b.gif","images/stimuli/spore_stims/complex_20_A_a.gif","forced_long","","0","complex_dissimilar","images/stimuli/spore_stims/complex_20_A_a.gif","","","","",""
"","null","html-keyboard-response","13","132294","0.0-9.0-0.2","SS1618365292414","","","null","","","","","","<p><img src= images/blank.png width =""600"" height = ""600"" style=""position:fixed;top:50%; left:50%; transform: translate(-50%, -50%); border:5px solid black"">","","","","","","","",""
"","1000.5349999992177","sequential-stimulus-presentation-old","14","133797","0.0-9.0-1.2","SS1618365292414","trial","","40","500","1500.5349999992177","images/stimuli/spore_stims/complex_03_A_b.gif","images/stimuli/spore_stims/complex_20_A_a.gif","forced_long","","0","complex_dissimilar","images/stimuli/spore_stims/complex_20_A_a.gif","","","","",""
"","null","html-keyboard-response","15","134886","0.0-9.0-0.3","SS1618365292414","","","null","","","","","","<p><img src= images/blank.png width =""600"" height = ""600"" style=""position:fixed;top:50%; left:50%; transform: translate(-50%, -50%); border:5px solid black"">","","","","","","","",""
"","5592.185000001336","sequential-stimulus-presentation-old","16","140980","0.0-9.0-1.3","SS1618365292414","trial","","40","500","6092.185000001336","images/stimuli/spore_stims/complex_03_A_b.gif","images/stimuli/spore_stims/complex_20_A_a.gif","forced_long","","0","complex_dissimilar","images/stimuli/spore_stims/complex_20_A_a.gif","","","","",""
"","6404.240000003483","survey-multi-choice","17","147386","0.0-10.0","SS1618365292414","math_question","","","","","","","","","","","","{""Q0"":""12""}","[0]","12","",""
"","null","html-keyboard-response","18","148535","0.0-11.0-0.0","SS1618365292414","","","null","","","","","","<p><img src= images/blank.png width =""600"" height = ""600"" style=""position:fixed;top:50%; left:50%; transform: translate(-50%, -50%); border:5px solid black"">","","","","","","","",""
"","10.36500000191154","sequential-stimulus-presentation-old","19","153550","0.0-11.0-1.0","SS1618365292414","trial","","40","500","510.36500000191154","images/stimuli/spore_stims/simple_14_A_a.gif","images/stimuli/spore_stims/simple_05_A_b.gif","forced_long","","1","simple_dissimilar","images/stimuli/spore_stims/simple_05_A_b.gif","","","","",""
"","null","html-keyboard-response","20","154748","0.0-11.0-0.1","SS1618365292414","","","null","","","","","","<p><img src= images/blank.png width =""600"" height = ""600"" style=""position:fixed;top:50%; left:50%; transform: translate(-50%, -50%); border:5px solid black"">","","","","","","","",""
"","1583.4000000031665","sequential-stimulus-presentation-old","21","156833","0.0-11.0-1.1","SS1618365292414","trial","","40","500","2083.4000000031665","images/stimuli/spore_stims/simple_14_A_a.gif","images/stimuli/spore_stims/simple_05_A_b.gif","forced_long","","1","simple_dissimilar","images/stimuli/spore_stims/simple_05_A_b.gif","","","","",""
"","null","html-keyboard-response","22","158098","0.0-11.0-0.2","SS1618365292414","","","null","","","","","","<p><img src= images/blank.png width =""600"" height = ""600"" style=""position:fixed;top:50%; left:50%; transform: translate(-50%, -50%); border:5px solid black"">","","","","","","","",""
"","4562.410000005912","sequential-stimulus-presentation-old","23","163163","0.0-11.0-1.2","SS1618365292414","trial","","40","500","5062.410000005912","images/stimuli/spore_stims/simple_14_A_a.gif","images/stimuli/spore_stims/simple_05_A_b.gif","forced_long","","1","simple_dissimilar","images/stimuli/spore_stims/simple_05_A_b.gif","","","","",""
"","null","html-keyboard-response","24","164271","0.0-11.0-0.3","SS1618365292414","","","null","","","","","","<p><img src= images/blank.png width =""600"" height = ""600"" style=""position:fixed;top:50%; left:50%; transform: translate(-50%, -50%); border:5px solid black"">","","","","","","","",""
"","3235.390000001644","sequential-stimulus-presentation-old","25","168009","0.0-11.0-1.3","SS1618365292414","trial","","40","500","3735.390000001644","images/stimuli/spore_stims/simple_14_A_a.gif","images/stimuli/spore_stims/simple_05_A_b.gif","forced_long","","1","simple_dissimilar","images/stimuli/spore_stims/simple_14_A_a.gif","","","","",""
"","null","html-keyboard-response","26","169109","0.0-11.0-0.4","SS1618365292414","","","null","","","","","","<p><img src= images/blank.png width =""600"" height = ""600"" style=""position:fixed;top:50%; left:50%; transform: translate(-50%, -50%); border:5px solid black"">","","","","","","","",""
"","1700.4799999995157","sequential-stimulus-presentation-old","27","171312","0.0-11.0-1.4","SS1618365292414","trial","","40","500","2200.4799999995157","images/stimuli/spore_stims/simple_14_A_a.gif","images/stimuli/spore_stims/simple_05_A_b.gif","forced_long","","1","simple_dissimilar","images/stimuli/spore_stims/simple_05_A_b.gif","","","","",""
"","null","html-keyboard-response","28","172589","0.0-11.0-0.5","SS1618365292414","","","null","","","","","","<p><img src= images/blank.png width =""600"" height = ""600"" style=""position:fixed;top:50%; left:50%; transform: translate(-50%, -50%); border:5px solid black"">","","","","","","","",""
"","3855.70000000007","sequential-stimulus-presentation-old","29","176951","0.0-11.0-1.5","SS1618365292414","trial","","40","500","4355.70000000007","images/stimuli/spore_stims/simple_14_A_a.gif","images/stimuli/spore_stims/simple_05_A_b.gif","forced_long","","1","simple_dissimilar","images/stimuli/spore_stims/simple_14_A_a.gif","","","","",""
"","2978.705000001355","survey-multi-choice","30","179931","0.0-12.0","SS1618365292414","math_question","","","","","","","","","","","","{""Q0"":""6""}","[0]","6","",""
"","null","html-keyboard-response","31","180817","0.0-13.0-0.0","SS1618365292414","","","null","","","","","","<p><img src= images/blank.png width =""600"" height = ""600"" style=""position:fixed;top:50%; left:50%; transform: translate(-50%, -50%); border:5px solid black"">","","","","","","","",""
"","1711.3850000023376","sequential-stimulus-presentation-old","32","183031","0.0-13.0-1.0","SS1618365292414","trial","","40","500","2211.3850000023376","images/stimuli/spore_stims/complex_15_A_b.gif","images/stimuli/spore_stims/complex_05_A_a.gif","self_paced","","2","complex_dissimilar","images/stimuli/spore_stims/complex_05_A_a.gif","","","","",""
"","null","html-keyboard-response","33","183928","0.0-13.0-0.1","SS1618365292414","","","null","","","","","","<p><img src= images/blank.png width =""600"" height = ""600"" style=""position:fixed;top:50%; left:50%; transform: translate(-50%, -50%); border:5px solid black"">","","","","","","","",""
"","1262.2100000007777","sequential-stimulus-presentation-old","34","185692","0.0-13.0-1.1","SS1618365292414","trial","","40","500","1762.2100000007777","images/stimuli/spore_stims/complex_15_A_b.gif","images/stimuli/spore_stims/complex_05_A_a.gif","self_paced","","2","complex_dissimilar","images/stimuli/spore_stims/complex_05_A_a.gif","","","","",""
"","null","html-keyboard-response","35","186770","0.0-13.0-0.2","SS1618365292414","","","null","","","","","","<p><img src= images/blank.png width =""600"" height = ""600"" style=""position:fixed;top:50%; left:50%; transform: translate(-50%, -50%); border:5px solid black"">","","","","","","","",""
"","1571.7750000039814","sequential-stimulus-presentation-old","36","188844","0.0-13.0-1.2","SS1618365292414","trial","","40","500","2071.7750000039814","images/stimuli/spore_stims/complex_15_A_b.gif","images/stimuli/spore_stims/complex_05_A_a.gif","self_paced","","2","complex_dissimilar","images/stimuli/spore_stims/complex_15_A_b.gif","","","","",""
"","null","html-keyboard-response","37","189870","0.0-13.0-0.3","SS1618365292414","","","null","","","","","","<p><img src= images/blank.png width =""600"" height = ""600"" style=""position:fixed;top:50%; left:50%; transform: translate(-50%, -50%); border:5px solid black"">","","","","","","","",""
"","386.4099999991595","sequential-stimulus-presentation-old","38","190758","0.0-13.0-1.3","SS1618365292414","trial","","40","500","886.4099999991595","images/stimuli/spore_stims/complex_15_A_b.gif","images/stimuli/spore_stims/complex_05_A_a.gif","self_paced","","2","complex_dissimilar","images/stimuli/spore_stims/complex_15_A_b.gif","","","","",""
"","null","html-keyboard-response","39","191678","0.0-13.0-0.4","SS1618365292414","","","null","","","","","","<p><img src= images/blank.png width =""600"" height = ""600"" style=""position:fixed;top:50%; left:50%; transform: translate(-50%, -50%); border:5px solid black"">","","","","","","","",""
"","1255.1750000056927","sequential-stimulus-presentation-old","40","193436","0.0-13.0-1.4","SS1618365292414","trial","","40","500","1755.1750000056927","images/stimuli/spore_stims/complex_15_A_b.gif","images/stimuli/spore_stims/complex_05_A_a.gif","self_paced","","2","complex_dissimilar","images/stimuli/spore_stims/complex_05_A_a.gif","","","","",""
"","3313.545000004524","survey-multi-choice","41","196751","0.0-14.0","SS1618365292414","math_question","","","","","","","","","","","","{""Q0"":""2""}","[0]","2","",""
"","null","html-keyboard-response","42","197870","0.0-15.0-0.0","SS1618365292414","","","null","","","","","","<p><img src= images/blank.png width =""600"" height = ""600"" style=""position:fixed;top:50%; left:50%; transform: translate(-50%, -50%); border:5px solid black"">","","","","","","","",""
"","1055.2200000020093","sequential-stimulus-presentation-old","43","198978","0.0-15.0-1.0","SS1618365292414","trial","","40","500","1555.2200000020093","images/stimuli/spore_stims/simple_05_A_a.gif","images/stimuli/spore_stims/simple_19_A_b.gif","forced_short","","3","simple_dissimilar","images/stimuli/spore_stims/simple_19_A_b.gif","","","","",""
"","null","html-keyboard-response","44","200154","0.0-15.0-0.1","SS1618365292414","","","null","","","","","","<p><img src= images/blank.png width =""600"" height = ""600"" style=""position:fixed;top:50%; left:50%; transform: translate(-50%, -50%); border:5px solid black"">","","","","","","","",""
"","1314.0850000054343","sequential-stimulus-presentation-old","45","201971","0.0-15.0-1.1","SS1618365292414","trial","","40","500","1814.0850000054343","images/stimuli/spore_stims/simple_05_A_a.gif","images/stimuli/spore_stims/simple_19_A_b.gif","forced_short","","3","simple_dissimilar","images/stimuli/spore_stims/simple_19_A_b.gif","","","","",""
"","null","html-keyboard-response","46","202824","0.0-15.0-0.2","SS1618365292414","","","null","","","","","","<p><img src= images/blank.png width =""600"" height = ""600"" style=""position:fixed;top:50%; left:50%; transform: translate(-50%, -50%); border:5px solid black"">","","","","","","","",""
"","502.4300000004587","sequential-stimulus-presentation-old","47","203830","0.0-15.0-1.2","SS1618365292414","trial","","40","500","1002.4300000004587","images/stimuli/spore_stims/simple_05_A_a.gif","images/stimuli/spore_stims/simple_19_A_b.gif","forced_short","","3","simple_dissimilar","images/stimuli/spore_stims/simple_19_A_b.gif","","","","",""
"","null","html-keyboard-response","48","205118","0.0-15.0-0.3","SS1618365292414","","","null","","","","","","<p><img src= images/blank.png width =""600"" height = ""600"" style=""position:fixed;top:50%; left:50%; transform: translate(-50%, -50%); border:5px solid black"">","","","","","","","",""
"","590.2900000000955","sequential-stimulus-presentation-old","49","206210","0.0-15.0-1.3","SS1618365292414","trial","","40","500","1090.2900000000955","images/stimuli/spore_stims/simple_05_A_a.gif","images/stimuli/spore_stims/simple_19_A_b.gif","forced_short","","3","simple_dissimilar","images/stimuli/spore_stims/simple_19_A_b.gif","","","","",""
"","2816.469999997935","survey-multi-choice","50","209029","0.0-16.0","SS1618365292414","math_question","","","","","","","","","","","","{""Q0"":""10""}","[0]","10","",""
"","null","html-keyboard-response","51","210192","0.0-17.0-0.0","SS1618365292414","","","null","","","","","","<p><img src= images/blank.png width =""600"" height = ""600"" style=""position:fixed;top:50%; left:50%; transform: translate(-50%, -50%); border:5px solid black"">","","","","","","","",""
"","1635.8499999987544","sequential-stimulus-presentation-old","52","216830","0.0-17.0-1.0","SS1618365292414","trial","","40","500","2135.8499999987544","images/stimuli/spore_stims/complex_06_A_b.gif","images/stimuli/spore_stims/complex_14_A_a.gif","forced_long","","4","complex_dissimilar","images/stimuli/spore_stims/complex_14_A_a.gif","","","","",""
"","null","html-keyboard-response","53","217893","0.0-17.0-0.1","SS1618365292414","","","null","","","","","","<p><img src= images/blank.png width =""600"" height = ""600"" style=""position:fixed;top:50%; left:50%; transform: translate(-50%, -50%); border:5px solid black"">","","","","","","","",""
"","475.1699999978882","sequential-stimulus-presentation-old","54","218870","0.0-17.0-1.1","SS1618365292414","trial","","40","500","975.1699999978882","images/stimuli/spore_stims/complex_06_A_b.gif","images/stimuli/spore_stims/complex_14_A_a.gif","forced_long","","4","complex_dissimilar","images/stimuli/spore_stims/complex_14_A_a.gif","","","","",""
"","null","html-keyboard-response","55","219704","0.0-17.0-0.2","SS1618365292414","","","null","","","","","","<p><img src= images/blank.png width =""600"" height = ""600"" style=""position:fixed;top:50%; left:50%; transform: translate(-50%, -50%); border:5px solid black"">","","","","","","","",""
"","443.2249999954365","sequential-stimulus-presentation-old","56","220649","0.0-17.0-1.2","SS1618365292414","trial","","40","500","943.2249999954365","images/stimuli/spore_stims/complex_06_A_b.gif","images/stimuli/spore_stims/complex_14_A_a.gif","forced_long","","4","complex_dissimilar","images/stimuli/spore_stims/complex_14_A_a.gif","","","","",""
"","null","html-keyboard-response","57","221553","0.0-17.0-0.3","SS1618365292414","","","null","","","","","","<p><img src= images/blank.png width =""600"" height = ""600"" style=""position:fixed;top:50%; left:50%; transform: translate(-50%, -50%); border:5px solid black"">","","","","","","","",""
"","213.06499999627704","sequential-stimulus-presentation-old","58","222269","0.0-17.0-1.3","SS1618365292414","trial","","40","500","713.064999996277","images/stimuli/spore_stims/complex_06_A_b.gif","images/stimuli/spore_stims/complex_14_A_a.gif","forced_long","","4","complex_dissimilar","images/stimuli/spore_stims/complex_14_A_a.gif","","","","",""
"","null","html-keyboard-response","59","223550","0.0-17.0-0.4","SS1618365292414","","","null","","","","","","<p><img src= images/blank.png width =""600"" height = ""600"" style=""position:fixed;top:50%; left:50%; transform: translate(-50%, -50%); border:5px solid black"">","","","","","","","",""
"","633.0549999984214","sequential-stimulus-presentation-old","60","224684","0.0-17.0-1.4","SS1618365292414","trial","","40","500","1133.0549999984214","images/stimuli/spore_stims/complex_06_A_b.gif","images/stimuli/spore_stims/complex_14_A_a.gif","forced_long","","4","complex_dissimilar","images/stimuli/spore_stims/complex_14_A_a.gif","","","","",""
"","null","html-keyboard-response","61","225915","0.0-17.0-0.5","SS1618365292414","","","null","","","","","","<p><img src= images/blank.png width =""600"" height = ""600"" style=""position:fixed;top:50%; left:50%; transform: translate(-50%, -50%); border:5px solid black"">","","","","","","","",""
"","1436.0799999994924","sequential-stimulus-presentation-old","62","227853","0.0-17.0-1.5","SS1618365292414","trial","","40","500","1936.0799999994924","images/stimuli/spore_stims/complex_06_A_b.gif","images/stimuli/spore_stims/complex_14_A_a.gif","forced_long","","4","complex_dissimilar","images/stimuli/spore_stims/complex_06_A_b.gif","","","","",""
"","3437.2849999999744","survey-multi-choice","63","231292","0.0-18.0","SS1618365292414","math_question","","","","","","","","","","","","{""Q0"":""10""}","[0]","10","",""
"","null","html-keyboard-response","64","232280","0.0-19.0-0.0","SS1618365292414","","","null","","","","","","<p><img src= images/blank.png width =""600"" height = ""600"" style=""position:fixed;top:50%; left:50%; transform: translate(-50%, -50%); border:5px solid black"">","","","","","","","",""
"","3538.7899999986985","sequential-stimulus-presentation-old","65","235871","0.0-19.0-1.0","SS1618365292414","trial","","40","500","4038.7899999986985","images/stimuli/spore_stims/complex_15_A_a.gif","images/stimuli/spore_stims/complex_02_A_b.gif","forced_short","","5","complex_dissimilar","images/stimuli/spore_stims/complex_02_A_b.gif","","","","",""
"","null","html-keyboard-response","66","236998","0.0-19.0-0.1","SS1618365292414","","","null","","","","","","<p><img src= images/blank.png width =""600"" height = ""600"" style=""position:fixed;top:50%; left:50%; transform: translate(-50%, -50%); border:5px solid black"">","","","","","","","",""
"","556.0100000002421","sequential-stimulus-presentation-old","67","238057","0.0-19.0-1.1","SS1618365292414","trial","","40","500","1056.0100000002421","images/stimuli/spore_stims/complex_15_A_a.gif","images/stimuli/spore_stims/complex_02_A_b.gif","forced_short","","5","complex_dissimilar","images/stimuli/spore_stims/complex_02_A_b.gif","","","","",""
"","null","html-keyboard-response","68","239168","0.0-19.0-0.2","SS1618365292414","","","null","","","","","","<p><img src= images/blank.png width =""600"" height = ""600"" style=""position:fixed;top:50%; left:50%; transform: translate(-50%, -50%); border:5px solid black"">","","","","","","","",""
"","867.500000000291","sequential-stimulus-presentation-old","69","240537","0.0-19.0-1.2","SS1618365292414","trial","","40","500","1367.500000000291","images/stimuli/spore_stims/complex_15_A_a.gif","images/stimuli/spore_stims/complex_02_A_b.gif","forced_short","","5","complex_dissimilar","images/stimuli/spore_stims/complex_02_A_b.gif","","","","",""
"","null","html-keyboard-response","70","241408","0.0-19.0-0.3","SS1618365292414","","","null","","","","","","<p><img src= images/blank.png width =""600"" height = ""600"" style=""position:fixed;top:50%; left:50%; transform: translate(-50%, -50%); border:5px solid black"">","","","","","","","",""
"","521.325000001525","sequential-stimulus-presentation-old","71","242431","0.0-19.0-1.3","SS1618365292414","trial","","40","500","1021.325000001525","images/stimuli/spore_stims/complex_15_A_a.gif","images/stimuli/spore_stims/complex_02_A_b.gif","forced_short","","5","complex_dissimilar","images/stimuli/spore_stims/complex_02_A_b.gif","","","","",""
"","3236.5500000014435","survey-multi-choice","72","245669","0.0-20.0","SS1618365292414","math_question","","","","","","","","","","","","{""Q0"":""7""}","[0]","7","",""
"","null","html-keyboard-response","73","246474","0.0-21.0-0.0","SS1618365292414","","","null","","","","","","<p><img src= images/blank.png width =""600"" height = ""600"" style=""position:fixed;top:50%; left:50%; transform: translate(-50%, -50%); border:5px solid black"">","","","","","","","",""
"","974.2049999986193","sequential-stimulus-presentation-old","74","247950","0.0-21.0-1.0","SS1618365292414","trial","","40","500","1474.2049999986193","images/stimuli/spore_stims/complex_08_A_a.gif","images/stimuli/spore_stims/complex_13_A_b.gif","self_paced","","6","complex_dissimilar","images/stimuli/spore_stims/complex_13_A_b.gif","","","","",""
"","null","html-keyboard-response","75","249101","0.0-21.0-0.1","SS1618365292414","","","null","","","","","","<p><img src= images/blank.png width =""600"" height = ""600"" style=""position:fixed;top:50%; left:50%; transform: translate(-50%, -50%); border:5px solid black"">","","","","","","","",""
"","738.3600000030128","sequential-stimulus-presentation-old","76","250342","0.0-21.0-1.1","SS1618365292414","trial","","40","500","1238.3600000030128","images/stimuli/spore_stims/complex_08_A_a.gif","images/stimuli/spore_stims/complex_13_A_b.gif","self_paced","","6","complex_dissimilar","images/stimuli/spore_stims/complex_13_A_b.gif","","","","",""
"","null","html-keyboard-response","77","251394","0.0-21.0-0.2","SS1618365292414","","","null","","","","","","<p><img src= images/blank.png width =""600"" height = ""600"" style=""position:fixed;top:50%; left:50%; transform: translate(-50%, -50%); border:5px solid black"">","","","","","","","",""
"","438.58000000182074","sequential-stimulus-presentation-old","78","252335","0.0-21.0-1.2","SS1618365292414","trial","","40","500","938.5800000018207","images/stimuli/spore_stims/complex_08_A_a.gif","images/stimuli/spore_stims/complex_13_A_b.gif","self_paced","","6","complex_dissimilar","images/stimuli/spore_stims/complex_13_A_b.gif","","","","",""
"","null","html-keyboard-response","79","253478","0.0-21.0-0.3","SS1618365292414","","","null","","","","","","<p><img src= images/blank.png width =""600"" height = ""600"" style=""position:fixed;top:50%; left:50%; transform: translate(-50%, -50%); border:5px solid black"">","","","","","","","",""
"","525.1700000007986","sequential-stimulus-presentation-old","80","254506","0.0-21.0-1.3","SS1618365292414","trial","","40","500","1025.1700000007986","images/stimuli/spore_stims/complex_08_A_a.gif","images/stimuli/spore_stims/complex_13_A_b.gif","self_paced","","6","complex_dissimilar","images/stimuli/spore_stims/complex_13_A_b.gif","","","","",""
"","null","html-keyboard-response","81","255321","0.0-21.0-0.4","SS1618365292414","","","null","","","","","","<p><img src= images/blank.png width =""600"" height = ""600"" style=""position:fixed;top:50%; left:50%; transform: translate(-50%, -50%); border:5px solid black"">","","","","","","","",""
"","776.335000002291","sequential-stimulus-presentation-old","82","256601","0.0-21.0-1.4","SS1618365292414","trial","","40","500","1276.335000002291","images/stimuli/spore_stims/complex_08_A_a.gif","images/stimuli/spore_stims/complex_13_A_b.gif","self_paced","","6","complex_dissimilar","images/stimuli/spore_stims/complex_13_A_b.gif","","","","",""
"","2607.510000001639","survey-multi-choice","83","259210","0.0-22.0","SS1618365292414","math_question","","","","","","","","","","","","{""Q0"":""3""}","[0]","3","",""
"","null","html-keyboard-response","84","260283","0.0-23.0-0.0","SS1618365292414","","","null","","","","","","<p><img src= images/blank.png width =""600"" height = ""600"" style=""position:fixed;top:50%; left:50%; transform: translate(-50%, -50%); border:5px solid black"">","","","","","","","",""
"","3609.3949999994948","sequential-stimulus-presentation-old","85","268896","0.0-23.0-1.0","SS1618365292414","trial","","40","500","4109.394999999495","images/stimuli/spore_stims/simple_10_A_a.gif","images/stimuli/spore_stims/simple_17_A_b.gif","forced_long","","7","simple_dissimilar","images/stimuli/spore_stims/simple_17_A_b.gif","","","","",""
"","null","html-keyboard-response","86","269704","0.0-23.0-0.1","SS1618365292414","","","null","","","","","","<p><img src= images/blank.png width =""600"" height = ""600"" style=""position:fixed;top:50%; left:50%; transform: translate(-50%, -50%); border:5px solid black"">","","","","","","","",""
"","884.2850000000908","sequential-stimulus-presentation-old","87","271090","0.0-23.0-1.1","SS1618365292414","trial","","40","500","1384.2850000000908","images/stimuli/spore_stims/simple_10_A_a.gif","images/stimuli/spore_stims/simple_17_A_b.gif","forced_long","","7","simple_dissimilar","images/stimuli/spore_stims/simple_10_A_a.gif","","","","",""
"","null","html-keyboard-response","88","272020","0.0-23.0-0.2","SS1618365292414","","","null","","","","","","<p><img src= images/blank.png width =""600"" height = ""600"" style=""position:fixed;top:50%; left:50%; transform: translate(-50%, -50%); border:5px solid black"">","","","","","","","",""
"","373.12999999994645","sequential-stimulus-presentation-old","89","272896","0.0-23.0-1.2","SS1618365292414","trial","","40","500","873.1299999999464","images/stimuli/spore_stims/simple_10_A_a.gif","images/stimuli/spore_stims/simple_17_A_b.gif","forced_long","","7","simple_dissimilar","images/stimuli/spore_stims/simple_17_A_b.gif","","","","",""
"","null","html-keyboard-response","90","273994","0.0-23.0-0.3","SS1618365292414","","","null","","","","","","<p><img src= images/blank.png width =""600"" height = ""600"" style=""position:fixed;top:50%; left:50%; transform: translate(-50%, -50%); border:5px solid black"">","","","","","","","",""
"","81.71499999298248","sequential-stimulus-presentation-old","91","274579","0.0-23.0-1.3","SS1618365292414","trial","","40","500","581.7149999929825","images/stimuli/spore_stims/simple_10_A_a.gif","images/stimuli/spore_stims/simple_17_A_b.gif","forced_long","","7","simple_dissimilar","images/stimuli/spore_stims/simple_17_A_b.gif","","","","",""
"","null","html-keyboard-response","92","275759","0.0-23.0-0.4","SS1618365292414","","","null","","","","","","<p><img src= images/blank.png width =""600"" height = ""600"" style=""position:fixed;top:50%; left:50%; transform: translate(-50%, -50%); border:5px solid black"">","","","","","","","",""
"","42.45000000082655","sequential-stimulus-presentation-old","93","276304","0.0-23.0-1.4","SS1618365292414","trial","","40","500","542.4500000008265","images/stimuli/spore_stims/simple_10_A_a.gif","images/stimuli/spore_stims/simple_17_A_b.gif","forced_long","","7","simple_dissimilar","images/stimuli/spore_stims/simple_17_A_b.gif","","","","",""
"","null","html-keyboard-response","94","277241","0.0-23.0-0.5","SS1618365292414","","","null","","","","","","<p><img src= images/blank.png width =""600"" height = ""600"" style=""position:fixed;top:50%; left:50%; transform: translate(-50%, -50%); border:5px solid black"">","","","","","","","",""
"","1967.38500000356","sequential-stimulus-presentation-old","95","279717","0.0-23.0-1.5","SS1618365292414","trial","","40","500","2467.38500000356","images/stimuli/spore_stims/simple_10_A_a.gif","images/stimuli/spore_stims/simple_17_A_b.gif","forced_long","","7","simple_dissimilar","images/stimuli/spore_stims/simple_10_A_a.gif","","","","",""
"","4898.430000001099","survey-multi-choice","96","284617","0.0-24.0","SS1618365292414","math_question","","","","","","","","","","","","{""Q0"":""12""}","[0]","12","",""
"","null","html-keyboard-response","97","285591","0.0-25.0-0.0","SS1618365292414","","","null","","","","","","<p><img src= images/blank.png width =""600"" height = ""600"" style=""position:fixed;top:50%; left:50%; transform: translate(-50%, -50%); border:5px solid black"">","","","","","","","",""
"","1511.0050000002957","sequential-stimulus-presentation-old","98","287155","0.0-25.0-1.0","SS1618365292414","trial","","40","500","2011.0050000002957","images/stimuli/spore_stims/simple_15_A_a.gif","images/stimuli/spore_stims/simple_10_A_b.gif","forced_short","","8","simple_dissimilar","images/stimuli/spore_stims/simple_10_A_b.gif","","","","",""
"","null","html-keyboard-response","99","288049","0.0-25.0-0.1","SS1618365292414","","","null","","","","","","<p><img src= images/blank.png width =""600"" height = ""600"" style=""position:fixed;top:50%; left:50%; transform: translate(-50%, -50%); border:5px solid black"">","","","","","","","",""
"","591.8650000021444","sequential-stimulus-presentation-old","100","289143","0.0-25.0-1.1","SS1618365292414","trial","","40","500","1091.8650000021444","images/stimuli/spore_stims/simple_15_A_a.gif","images/stimuli/spore_stims/simple_10_A_b.gif","forced_short","","8","simple_dissimilar","images/stimuli/spore_stims/simple_10_A_b.gif","","","","",""
"","null","html-keyboard-response","101","290230","0.0-25.0-0.2","SS1618365292414","","","null","","","","","","<p><img src= images/blank.png width =""600"" height = ""600"" style=""position:fixed;top:50%; left:50%; transform: translate(-50%, -50%); border:5px solid black"">","","","","","","","",""
"","1464.0999999974156","sequential-stimulus-presentation-old","102","292197","0.0-25.0-1.2","SS1618365292414","trial","","40","500","1964.0999999974156","images/stimuli/spore_stims/simple_15_A_a.gif","images/stimuli/spore_stims/simple_10_A_b.gif","forced_short","","8","simple_dissimilar","images/stimuli/spore_stims/simple_10_A_b.gif","","","","",""
"","null","html-keyboard-response","103","293398","0.0-25.0-0.3","SS1618365292414","","","null","","","","","","<p><img src= images/blank.png width =""600"" height = ""600"" style=""position:fixed;top:50%; left:50%; transform: translate(-50%, -50%); border:5px solid black"">","","","","","","","",""
"","49.774999999499414","sequential-stimulus-presentation-old","104","293950","0.0-25.0-1.3","SS1618365292414","trial","","40","500","549.7749999994994","images/stimuli/spore_stims/simple_15_A_a.gif","images/stimuli/spore_stims/simple_10_A_b.gif","forced_short","","8","simple_dissimilar","images/stimuli/spore_stims/simple_10_A_b.gif","","","","",""
"","null","html-keyboard-response","105","294935","0.0-25.0-0.4","SS1618365292414","","","null","","","","","","<p><img src= images/blank.png width =""600"" height = ""600"" style=""position:fixed;top:50%; left:50%; transform: translate(-50%, -50%); border:5px solid black"">","","","","","","","",""
"","322.8799999997136","sequential-stimulus-presentation-old","106","295760","0.0-25.0-1.4","SS1618365292414","trial","","40","500","822.8799999997136","images/stimuli/spore_stims/simple_15_A_a.gif","images/stimuli/spore_stims/simple_10_A_b.gif","forced_short","","8","simple_dissimilar","images/stimuli/spore_stims/simple_10_A_b.gif","","","","",""
"","3178.3549999963725","survey-multi-choice","107","298941","0.0-26.0","SS1618365292414","math_question","","","","","","","","","","","","{""Q0"":""8""}","[0]","8","",""
"","null","html-keyboard-response","108","300089","0.0-27.0-0.0","SS1618365292414","","","null","","","","","","<p><img src= images/blank.png width =""600"" height = ""600"" style=""position:fixed;top:50%; left:50%; transform: translate(-50%, -50%); border:5px solid black"">","","","","","","","",""
"","620.4849999994622","sequential-stimulus-presentation-old","109","301213","0.0-27.0-1.0","SS1618365292414","trial","","40","500","1120.4849999994622","images/stimuli/spore_stims/simple_04_A_a.gif","images/stimuli/spore_stims/simple_18_A_b.gif","self_paced","","9","simple_dissimilar","images/stimuli/spore_stims/simple_18_A_b.gif","","","","",""
"","null","html-keyboard-response","110","302212","0.0-27.0-0.1","SS1618365292414","","","null","","","","","","<p><img src= images/blank.png width =""600"" height = ""600"" style=""position:fixed;top:50%; left:50%; transform: translate(-50%, -50%); border:5px solid black"">","","","","","","","",""
"","1.5950000015436672","sequential-stimulus-presentation-old","111","302717","0.0-27.0-1.1","SS1618365292414","trial","","40","500","501.59500000154367","images/stimuli/spore_stims/simple_04_A_a.gif","images/stimuli/spore_stims/simple_18_A_b.gif","self_paced","","9","simple_dissimilar","images/stimuli/spore_stims/simple_18_A_b.gif","","","","",""
"","null","html-keyboard-response","112","303575","0.0-27.0-0.2","SS1618365292414","","","null","","","","","","<p><img src= images/blank.png width =""600"" height = ""600"" style=""position:fixed;top:50%; left:50%; transform: translate(-50%, -50%); border:5px solid black"">","","","","","","","",""
"","96.96999999869149","sequential-stimulus-presentation-old","113","304175","0.0-27.0-1.2","SS1618365292414","trial","","40","500","596.9699999986915","images/stimuli/spore_stims/simple_04_A_a.gif","images/stimuli/spore_stims/simple_18_A_b.gif","self_paced","","9","simple_dissimilar","images/stimuli/spore_stims/simple_18_A_b.gif","","","","",""
"","null","html-keyboard-response","114","305355","0.0-27.0-0.3","SS1618365292414","","","null","","","","","","<p><img src= images/blank.png width =""600"" height = ""600"" style=""position:fixed;top:50%; left:50%; transform: translate(-50%, -50%); border:5px solid black"">","","","","","","","",""
"","1234.0800000019954","sequential-stimulus-presentation-old","115","307091","0.0-27.0-1.3","SS1618365292414","trial","","40","500","1734.0800000019954","images/stimuli/spore_stims/simple_04_A_a.gif","images/stimuli/spore_stims/simple_18_A_b.gif","self_paced","","9","simple_dissimilar","images/stimuli/spore_stims/simple_18_A_b.gif","","","","",""
"","2779.464999999618","survey-multi-choice","116","309872","0.0-28.0","SS1618365292414","math_question","","","","","","","","","","","","{""Q0"":""12""}","[0]","12","",""
"","null","html-keyboard-response","117","310858","0.0-29.0-0.0","SS1618365292414","","","null","","","","","","<p><img src= images/blank.png width =""600"" height = ""600"" style=""position:fixed;top:50%; left:50%; transform: translate(-50%, -50%); border:5px solid black"">","","","","","","","",""
"","918.5699999943608","sequential-stimulus-presentation-old","118","312280","0.0-29.0-1.0","SS1618365292414","trial","","40","500","1418.5699999943608","images/stimuli/spore_stims/simple_12_A_b.gif","images/stimuli/spore_stims/simple_08_A_a.gif","self_paced","","10","simple_dissimilar","images/stimuli/spore_stims/simple_08_A_a.gif","","","","",""
"","null","html-keyboard-response","119","313369","0.0-29.0-0.1","SS1618365292414","","","null","","","","","","<p><img src= images/blank.png width =""600"" height = ""600"" style=""position:fixed;top:50%; left:50%; transform: translate(-50%, -50%); border:5px solid black"">","","","","","","","",""
"","5.509999995410908","sequential-stimulus-presentation-old","120","313877","0.0-29.0-1.1","SS1618365292414","trial","","40","500","505.5099999954109","images/stimuli/spore_stims/simple_12_A_b.gif","images/stimuli/spore_stims/simple_08_A_a.gif","self_paced","","10","simple_dissimilar","images/stimuli/spore_stims/simple_08_A_a.gif","","","","",""
"","null","html-keyboard-response","121","314718","0.0-29.0-0.2","SS1618365292414","","","null","","","","","","<p><img src= images/blank.png width =""600"" height = ""600"" style=""position:fixed;top:50%; left:50%; transform: translate(-50%, -50%); border:5px solid black"">","","","","","","","",""
"","466.325000001234","sequential-stimulus-presentation-old","122","315688","0.0-29.0-1.2","SS1618365292414","trial","","40","500","966.325000001234","images/stimuli/spore_stims/simple_12_A_b.gif","images/stimuli/spore_stims/simple_08_A_a.gif","self_paced","","10","simple_dissimilar","images/stimuli/spore_stims/simple_12_A_b.gif","","","","",""
"","null","html-keyboard-response","123","316556","0.0-29.0-0.3","SS1618365292414","","","null","","","","","","<p><img src= images/blank.png width =""600"" height = ""600"" style=""position:fixed;top:50%; left:50%; transform: translate(-50%, -50%); border:5px solid black"">","","","","","","","",""
"","317.44500000058906","sequential-stimulus-presentation-old","124","317376","0.0-29.0-1.3","SS1618365292414","trial","","40","500","817.4450000005891","images/stimuli/spore_stims/simple_12_A_b.gif","images/stimuli/spore_stims/simple_08_A_a.gif","self_paced","","10","simple_dissimilar","images/stimuli/spore_stims/simple_08_A_a.gif","","","","",""
"","null","html-keyboard-response","125","318369","0.0-29.0-0.4","SS1618365292414","","","null","","","","","","<p><img src= images/blank.png width =""600"" height = ""600"" style=""position:fixed;top:50%; left:50%; transform: translate(-50%, -50%); border:5px solid black"">","","","","","","","",""
"","224.02499999589054","sequential-stimulus-presentation-old","126","319096","0.0-29.0-1.4","SS1618365292414","trial","","40","500","724.0249999958905","images/stimuli/spore_stims/simple_12_A_b.gif","images/stimuli/spore_stims/simple_08_A_a.gif","self_paced","","10","simple_dissimilar","images/stimuli/spore_stims/simple_08_A_a.gif","","","","",""
"","null","html-keyboard-response","127","319949","0.0-29.0-0.5","SS1618365292414","","","null","","","","","","<p><img src= images/blank.png width =""600"" height = ""600"" style=""position:fixed;top:50%; left:50%; transform: translate(-50%, -50%); border:5px solid black"">","","","","","","","",""
"","377.8999999994994","sequential-stimulus-presentation-old","128","320829","0.0-29.0-1.5","SS1618365292414","trial","","40","500","877.8999999994994","images/stimuli/spore_stims/simple_12_A_b.gif","images/stimuli/spore_stims/simple_08_A_a.gif","self_paced","","10","simple_dissimilar","images/stimuli/spore_stims/simple_08_A_a.gif","","","","",""
"","3067.0000000027358","survey-multi-choice","129","323898","0.0-30.0","SS1618365292414","math_question","","","","","","","","","","","","{""Q0"":""8""}","[0]","8","",""
"","null","html-keyboard-response","130","324949","0.0-31.0-0.0","SS1618365292414","","","null","","","","","","<p><img src= images/blank.png width =""600"" height = ""600"" style=""position:fixed;top:50%; left:50%; transform: translate(-50%, -50%); border:5px solid black"">","","","","","","","",""
"","512.9949999973178","sequential-stimulus-presentation-old","131","325516","0.0-31.0-1.0","SS1618365292414","trial","","40","500","1012.9949999973178","images/stimuli/spore_stims/complex_02_A_a.gif","images/stimuli/spore_stims/complex_09_A_b.gif","forced_short","","11","complex_dissimilar","images/stimuli/spore_stims/complex_09_A_b.gif","","","","",""
"","null","html-keyboard-response","132","326445","0.0-31.0-0.1","SS1618365292414","","","null","","","","","","<p><img src= images/blank.png width =""600"" height = ""600"" style=""position:fixed;top:50%; left:50%; transform: translate(-50%, -50%); border:5px solid black"">","","","","","","","",""
"","1751.3600000020233","sequential-stimulus-presentation-old","133","328700","0.0-31.0-1.1","SS1618365292414","trial","","40","500","2251.3600000020233","images/stimuli/spore_stims/complex_02_A_a.gif","images/stimuli/spore_stims/complex_09_A_b.gif","forced_short","","11","complex_dissimilar","images/stimuli/spore_stims/complex_09_A_b.gif","","","","",""
"","null","html-keyboard-response","134","329734","0.0-31.0-0.2","SS1618365292414","","","null","","","","","","<p><img src= images/blank.png width =""600"" height = ""600"" style=""position:fixed;top:50%; left:50%; transform: translate(-50%, -50%); border:5px solid black"">","","","","","","","",""
"","476.29500000039116","sequential-stimulus-presentation-old","135","330713","0.0-31.0-1.2","SS1618365292414","trial","","40","500","976.2950000003912","images/stimuli/spore_stims/complex_02_A_a.gif","images/stimuli/spore_stims/complex_09_A_b.gif","forced_short","","11","complex_dissimilar","images/stimuli/spore_stims/complex_09_A_b.gif","","","","",""
"","null","html-keyboard-response","136","331666","0.0-31.0-0.3","SS1618365292414","","","null","","","","","","<p><img src= images/blank.png width =""600"" height = ""600"" style=""position:fixed;top:50%; left:50%; transform: translate(-50%, -50%); border:5px solid black"">","","","","","","","",""
"","353.54999999981374","sequential-stimulus-presentation-old","137","332522","0.0-31.0-1.3","SS1618365292414","trial","","40","500","853.5499999998137","images/stimuli/spore_stims/complex_02_A_a.gif","images/stimuli/spore_stims/complex_09_A_b.gif","forced_short","","11","complex_dissimilar","images/stimuli/spore_stims/complex_09_A_b.gif","","","","",""
"[{""page_index"":0,""viewing_time"":6248.919999998179}]","6249.174999997194","instructions","138","338773","0.0-32.0","SS1618365292414","instructions","","","","","","","","","","","","","","","",""
"","8889.694999998028","survey-likert","139","347666","0.0-33.0","SS1618365292414","similarity_question","","","","","","","","","","","","{""Q0"":0}","[0]","","images/stimuli/spore_stims/complex_02_A_b.gif","images/stimuli/spore_stims/complex_15_A_a.gif"
"","7059.43500000285","survey-likert","140","354728","0.0-34.0","SS1618365292414","similarity_question","","","","","","","","","","","","{""Q0"":4}","[0]","","images/stimuli/spore_stims/simple_19_A_b.gif","images/stimuli/spore_stims/simple_05_A_a.gif"
"","8642.594999997527","survey-likert","141","363373","0.0-35.0","SS1618365292414","similarity_question","","","","","","","","","","","","{""Q0"":1}","[0]","","images/stimuli/spore_stims/complex_08_A_a.gif","images/stimuli/spore_stims/complex_13_A_b.gif"
"","2824.9899999937043","survey-likert","142","366201","0.0-36.0","SS1618365292414","similarity_question","","","","","","","","","","","","{""Q0"":1}","[0]","","images/stimuli/spore_stims/complex_09_A_b.gif","images/stimuli/spore_stims/complex_02_A_a.gif"
"","2239.1049999932875","survey-likert","143","368443","0.0-37.0","SS1618365292414","similarity_question","","","","","","","","","","","","{""Q0"":1}","[0]","","images/stimuli/spore_stims/complex_03_A_b.gif","images/stimuli/spore_stims/complex_20_A_a.gif"
"","3015.269999996235","survey-likert","144","371461","0.0-38.0","SS1618365292414","similarity_question","","","","","","","","","","","","{""Q0"":5}","[0]","","images/stimuli/spore_stims/simple_15_A_a.gif","images/stimuli/spore_stims/simple_10_A_b.gif"
"","3593.254999999772","survey-likert","145","375057","0.0-39.0","SS1618365292414","similarity_question","","","","","","","","","","","","{""Q0"":4}","[0]","","images/stimuli/spore_stims/simple_04_A_a.gif","images/stimuli/spore_stims/simple_18_A_b.gif"
"","1729.2899999956717","survey-likert","146","376789","0.0-40.0","SS1618365292414","similarity_question","","","","","","","","","","","","{""Q0"":4}","[0]","","images/stimuli/spore_stims/simple_10_A_a.gif","images/stimuli/spore_stims/simple_17_A_b.gif"
"","1587.1100000003935","survey-likert","147","378380","0.0-41.0","SS1618365292414","similarity_question","","","","","","","","","","","","{""Q0"":4}","[0]","","images/stimuli/spore_stims/simple_05_A_b.gif","images/stimuli/spore_stims/simple_14_A_a.gif"
"","2161.1249999987194","survey-likert","148","380543","0.0-42.0","SS1618365292414","similarity_question","","","","","","","","","","","","{""Q0"":1}","[0]","","images/stimuli/spore_stims/complex_14_A_a.gif","images/stimuli/spore_stims/complex_06_A_b.gif"
"","3826.954999996815","survey-likert","149","384373","0.0-43.0","SS1618365292414","similarity_question","","","","","","","","","","","","{""Q0"":1}","[0]","","images/stimuli/spore_stims/complex_05_A_a.gif","images/stimuli/spore_stims/complex_15_A_b.gif"
"","3610.934999996971","survey-likert","150","387987","0.0-44.0","SS1618365292414","similarity_question","","","","","","","","","","","","{""Q0"":5}","[0]","","images/stimuli/spore_stims/simple_08_A_a.gif","images/stimuli/spore_stims/simple_12_A_b.gif"
"[{""page_index"":0,""viewing_time"":5166.574999995646}]","5166.924999997718","instructions","151","393156","0.0-45.0","SS1618365292414","instructions","","","","","","","","","","","","","","","",""
"","2645.8399999974063","survey-likert","152","395805","0.0-46.0","SS1618365292414","","","","","","","","","images/stimuli/spore_stims/simple_10_A_a.gif","","","","{""Q0"":0}","[0]","","",""
"","1864.7249999994528","survey-likert","153","397672","0.0-47.0","SS1618365292414","","","","","","","","","images/stimuli/spore_stims/simple_18_A_b.gif","","","","{""Q0"":1}","[0]","","",""
"","2007.7299999975367","survey-likert","154","399682","0.0-48.0","SS1618365292414","","","","","","","","","images/stimuli/spore_stims/simple_05_A_b.gif","","","","{""Q0"":0}","[0]","","",""
"","1931.125000002794","survey-likert","155","401616","0.0-49.0","SS1618365292414","","","","","","","","","images/stimuli/spore_stims/simple_12_A_b.gif","","","","{""Q0"":0}","[0]","","",""
"","1573.2800000041607","survey-likert","156","403192","0.0-50.0","SS1618365292414","","","","","","","","","images/stimuli/spore_stims/simple_10_A_b.gif","","","","{""Q0"":0}","[0]","","",""
"","6935.610000000452","survey-likert","157","410130","0.0-51.0","SS1618365292414","","","","","","","","","images/stimuli/spore_stims/complex_02_A_a.gif","","","","{""Q0"":2}","[0]","","",""
"","3181.4999999987776","survey-likert","158","413314","0.0-52.0","SS1618365292414","","","","","","","","","images/stimuli/spore_stims/complex_05_A_a.gif","","","","{""Q0"":3}","[0]","","",""
"","2212.6999999964028","survey-likert","159","415530","0.0-53.0","SS1618365292414","","","","","","","","","images/stimuli/spore_stims/complex_06_A_b.gif","","","","{""Q0"":2}","[0]","","",""
"","2021.0099999967497","survey-likert","160","417554","0.0-54.0","SS1618365292414","","","","","","","","","images/stimuli/spore_stims/simple_05_A_a.gif","","","","{""Q0"":0}","[0]","","",""
"","2641.1650000009104","survey-likert","161","420198","0.0-55.0","SS1618365292414","","","","","","","","","images/stimuli/spore_stims/complex_20_A_a.gif","","","","{""Q0"":3}","[0]","","",""
"","2195.3750000029686","survey-likert","162","422396","0.0-56.0","SS1618365292414","","","","","","","","","images/stimuli/spore_stims/complex_02_A_b.gif","","","","{""Q0"":2}","[0]","","",""
"","1687.0849999977509","survey-likert","163","424086","0.0-57.0","SS1618365292414","","","","","","","","","images/stimuli/spore_stims/complex_13_A_b.gif","","","","{""Q0"":3}","[0]","","",""
"[{""page_index"":0,""viewing_time"":1947.570000003907}]","1947.8450000024168","instructions","164","426036","0.0-58.0","SS1618365292414","instructions","","","","","","","","","","","","","","","",""
"","3039.8050000003423","demog-age","165","429080","0.0-59.0","SS1618365292414","","","","","","","","","","","","","{""age"":""21""}","","","",""
"","4563.645000001998","demog-ethnic-US","166","433649","0.0-60.0","SS1618365292414","","","","","","","","","","","","","{""ethnicity"":[""White""]}","[0]","","",""
"","9684.385000000475","demog-gender-and-education","167","443336","0.0-61.0","SS1618365292414","","","","","","","","","","","","","{""gender"":""Female"",""education"":""Some high school""}","[0,1]","","",""
"","24914.989999997488","survey-text","168","468255","0.0-62.0","SS1618365292414","feedback","","","","","","","","","","","","{""Q0"":""Sometimes I had to press arrow 2 times to go next""}","","","",""
"[{""page_index"":0,""viewing_time"":2158.914999999979}]","2159.185000004072","instructions","169","470417","0.0-63.0","SS1618365292414","instructions","","","","","","","","","","","","","","","",""
