"view_history","rt","trial_type","trial_index","time_elapsed","internal_node_id","subject","stimulus_type","trial_stimulus","key_press","minimum_viewing_duration","trial_looking_time","block_deviant","block_background","exposure_type","stimulus","block_number","block_type","stimulus_displayed","responses","question_order","math_correct_answer","stimulus_left","stimulus_right"
"[{""page_index"":0,""viewing_time"":20631.70500000706}]","20632.409999961965","instructions","0","20634","0.0-0.0","SS1618435720994","","","","","","","","","","","","","","","","",""
"[{""page_index"":0,""viewing_time"":35865.17499998445},{""page_index"":1,""viewing_time"":12685.210000025108}]","48550.72499997914","instructions","1","71201","0.0-1.0","SS1618435720994","instructions","","","","","","","","","","","","","","","",""
"","16986.794999975245","sequential-stimulus-presentation-old","2","88694","0.0-2.0","SS1618435720994","","","40","500","17486.794999975245","null","null","self_paced","","","","","","","","",""
"","7026.304999948479","sequential-stimulus-presentation-old","3","96225","0.0-3.0","SS1618435720994","","","40","500","7526.304999948479","null","null","self_paced","","","","","","","","",""
"[{""page_index"":0,""viewing_time"":48261.64000004064}]","48262.05000001937","instructions","4","144487","0.0-4.0","SS1618435720994","instructions","","","","","","","","","","","","","","","",""
"","7282.509999989998","sequential-stimulus-presentation-old","5","156773","0.0-5.0","SS1618435720994","","","40","500","7782.509999989998","null","null","forced_long","","","","","","","","",""
"","5898.82999996189","sequential-stimulus-presentation-old","6","162725","0.0-6.0","SS1618435720994","","","40","50","5948.82999996189","null","null","forced_long","","","","","","","","",""
"[{""page_index"":0,""viewing_time"":4485.415000002831}]","4485.81500002183","instructions","7","167212","0.0-7.0","SS1618435720994","instructions","","","","","","","","","","","","","","","",""
"[{""page_index"":0,""viewing_time"":15269.920000049751},{""page_index"":1,""viewing_time"":21132.909999985714},{""page_index"":2,""viewing_time"":11440.609999990556},{""page_index"":3,""viewing_time"":6244.989999977406},{""page_index"":4,""viewing_time"":1579.105000011623}]","55667.87000000477","instructions","8","222881","0.0-8.0","SS1618435720994","instructions","","","","","","","","","","","","","","","",""
"","null","html-keyboard-response","9","224060","0.0-9.0-0.0","SS1618435720994","","","null","","","","","","<p><img src= images/blank.png width =""600"" height = ""600"" style=""position:fixed;top:50%; left:50%; transform: translate(-50%, -50%); border:5px solid black"">","","","","","","","",""
"","4209.525000012945","sequential-stimulus-presentation-old","10","228774","0.0-9.0-1.0","SS1618435720994","trial","","40","500","4709.525000012945","images/stimuli/spore_stims/simple_01_A_a.gif","images/stimuli/spore_stims/simple_05_A_b.gif","self_paced","","0","simple_dissimilar","images/stimuli/spore_stims/simple_05_A_b.gif","","","","",""
"","null","html-keyboard-response","11","229606","0.0-9.0-0.1","SS1618435720994","","","null","","","","","","<p><img src= images/blank.png width =""600"" height = ""600"" style=""position:fixed;top:50%; left:50%; transform: translate(-50%, -50%); border:5px solid black"">","","","","","","","",""
"","4014.2749999649823","sequential-stimulus-presentation-old","12","234123","0.0-9.0-1.1","SS1618435720994","trial","","40","500","4514.274999964982","images/stimuli/spore_stims/simple_01_A_a.gif","images/stimuli/spore_stims/simple_05_A_b.gif","self_paced","","0","simple_dissimilar","images/stimuli/spore_stims/simple_05_A_b.gif","","","","",""
"","null","html-keyboard-response","13","235384","0.0-9.0-0.2","SS1618435720994","","","null","","","","","","<p><img src= images/blank.png width =""600"" height = ""600"" style=""position:fixed;top:50%; left:50%; transform: translate(-50%, -50%); border:5px solid black"">","","","","","","","",""
"","3022.4249999737367","sequential-stimulus-presentation-old","14","238911","0.0-9.0-1.2","SS1618435720994","trial","","40","500","3522.4249999737367","images/stimuli/spore_stims/simple_01_A_a.gif","images/stimuli/spore_stims/simple_05_A_b.gif","self_paced","","0","simple_dissimilar","images/stimuli/spore_stims/simple_05_A_b.gif","","","","",""
"","null","html-keyboard-response","15","239733","0.0-9.0-0.3","SS1618435720994","","","null","","","","","","<p><img src= images/blank.png width =""600"" height = ""600"" style=""position:fixed;top:50%; left:50%; transform: translate(-50%, -50%); border:5px solid black"">","","","","","","","",""
"","1844.9350000009872","sequential-stimulus-presentation-old","16","242082","0.0-9.0-1.3","SS1618435720994","trial","","40","500","2344.935000000987","images/stimuli/spore_stims/simple_01_A_a.gif","images/stimuli/spore_stims/simple_05_A_b.gif","self_paced","","0","simple_dissimilar","images/stimuli/spore_stims/simple_01_A_a.gif","","","","",""
"","null","html-keyboard-response","17","242903","0.0-9.0-0.4","SS1618435720994","","","null","","","","","","<p><img src= images/blank.png width =""600"" height = ""600"" style=""position:fixed;top:50%; left:50%; transform: translate(-50%, -50%); border:5px solid black"">","","","","","","","",""
"","571.7300000251271","sequential-stimulus-presentation-old","18","243989","0.0-9.0-1.4","SS1618435720994","trial","","40","500","1071.730000025127","images/stimuli/spore_stims/simple_01_A_a.gif","images/stimuli/spore_stims/simple_05_A_b.gif","self_paced","","0","simple_dissimilar","images/stimuli/spore_stims/simple_01_A_a.gif","","","","",""
"","null","html-keyboard-response","19","245136","0.0-9.0-0.5","SS1618435720994","","","null","","","","","","<p><img src= images/blank.png width =""600"" height = ""600"" style=""position:fixed;top:50%; left:50%; transform: translate(-50%, -50%); border:5px solid black"">","","","","","","","",""
"","2398.8099999842234","sequential-stimulus-presentation-old","20","248038","0.0-9.0-1.5","SS1618435720994","trial","","40","500","2898.8099999842234","images/stimuli/spore_stims/simple_01_A_a.gif","images/stimuli/spore_stims/simple_05_A_b.gif","self_paced","","0","simple_dissimilar","images/stimuli/spore_stims/simple_05_A_b.gif","","","","",""
"","6579.900000011548","survey-multi-choice","21","254622","0.0-10.0","SS1618435720994","math_question","","","","","","","","","","","","{""Q0"":""14""}","[0]","14","",""
"","null","html-keyboard-response","22","255671","0.0-11.0-0.0","SS1618435720994","","","null","","","","","","<p><img src= images/blank.png width =""600"" height = ""600"" style=""position:fixed;top:50%; left:50%; transform: translate(-50%, -50%); border:5px solid black"">","","","","","","","",""
"","8469.084999989718","sequential-stimulus-presentation-old","23","264646","0.0-11.0-1.0","SS1618435720994","trial","","40","500","8969.084999989718","images/stimuli/spore_stims/complex_20_A_b.gif","images/stimuli/spore_stims/complex_11_A_a.gif","self_paced","","1","complex_dissimilar","images/stimuli/spore_stims/complex_11_A_a.gif","","","","",""
"","null","html-keyboard-response","24","265501","0.0-11.0-0.1","SS1618435720994","","","null","","","","","","<p><img src= images/blank.png width =""600"" height = ""600"" style=""position:fixed;top:50%; left:50%; transform: translate(-50%, -50%); border:5px solid black"">","","","","","","","",""
"","9048.384999972768","sequential-stimulus-presentation-old","25","275055","0.0-11.0-1.1","SS1618435720994","trial","","40","500","9548.384999972768","images/stimuli/spore_stims/complex_20_A_b.gif","images/stimuli/spore_stims/complex_11_A_a.gif","self_paced","","1","complex_dissimilar","images/stimuli/spore_stims/complex_11_A_a.gif","","","","",""
"","null","html-keyboard-response","26","275971","0.0-11.0-0.2","SS1618435720994","","","null","","","","","","<p><img src= images/blank.png width =""600"" height = ""600"" style=""position:fixed;top:50%; left:50%; transform: translate(-50%, -50%); border:5px solid black"">","","","","","","","",""
"","11507.219999970403","sequential-stimulus-presentation-old","27","287982","0.0-11.0-1.2","SS1618435720994","trial","","40","500","12007.219999970403","images/stimuli/spore_stims/complex_20_A_b.gif","images/stimuli/spore_stims/complex_11_A_a.gif","self_paced","","1","complex_dissimilar","images/stimuli/spore_stims/complex_11_A_a.gif","","","","",""
"","null","html-keyboard-response","28","289241","0.0-11.0-0.3","SS1618435720994","","","null","","","","","","<p><img src= images/blank.png width =""600"" height = ""600"" style=""position:fixed;top:50%; left:50%; transform: translate(-50%, -50%); border:5px solid black"">","","","","","","","",""
"","5744.59499999648","sequential-stimulus-presentation-old","29","295489","0.0-11.0-1.3","SS1618435720994","trial","","40","500","6244.59499999648","images/stimuli/spore_stims/complex_20_A_b.gif","images/stimuli/spore_stims/complex_11_A_a.gif","self_paced","","1","complex_dissimilar","images/stimuli/spore_stims/complex_11_A_a.gif","","","","",""
"","null","html-keyboard-response","30","296722","0.0-11.0-0.4","SS1618435720994","","","null","","","","","","<p><img src= images/blank.png width =""600"" height = ""600"" style=""position:fixed;top:50%; left:50%; transform: translate(-50%, -50%); border:5px solid black"">","","","","","","","",""
"","11980.470000009518","sequential-stimulus-presentation-old","31","309208","0.0-11.0-1.4","SS1618435720994","trial","","40","500","12480.470000009518","images/stimuli/spore_stims/complex_20_A_b.gif","images/stimuli/spore_stims/complex_11_A_a.gif","self_paced","","1","complex_dissimilar","images/stimuli/spore_stims/complex_20_A_b.gif","","","","",""
"","4760.390000010375","survey-multi-choice","32","313972","0.0-12.0","SS1618435720994","math_question","","","","","","","","","","","","{""Q0"":""13""}","[0]","13","",""
"","null","html-keyboard-response","33","315010","0.0-13.0-0.0","SS1618435720994","","","null","","","","","","<p><img src= images/blank.png width =""600"" height = ""600"" style=""position:fixed;top:50%; left:50%; transform: translate(-50%, -50%); border:5px solid black"">","","","","","","","",""
"","6487.26500000339","sequential-stimulus-presentation-old","34","321559","0.0-13.0-1.0","SS1618435720994","trial","","40","500","6987.26500000339","images/stimuli/spore_stims/complex_18_A_a.gif","images/stimuli/spore_stims/complex_16_A_b.gif","forced_short","","2","complex_dissimilar","images/stimuli/spore_stims/complex_16_A_b.gif","","","","",""
"","null","html-keyboard-response","35","322772","0.0-13.0-0.1","SS1618435720994","","","null","","","","","","<p><img src= images/blank.png width =""600"" height = ""600"" style=""position:fixed;top:50%; left:50%; transform: translate(-50%, -50%); border:5px solid black"">","","","","","","","",""
"","11456.209999974817","sequential-stimulus-presentation-old","36","334738","0.0-13.0-1.1","SS1618435720994","trial","","40","500","11956.209999974817","images/stimuli/spore_stims/complex_18_A_a.gif","images/stimuli/spore_stims/complex_16_A_b.gif","forced_short","","2","complex_dissimilar","images/stimuli/spore_stims/complex_16_A_b.gif","","","","",""
"","null","html-keyboard-response","37","335974","0.0-13.0-0.2","SS1618435720994","","","null","","","","","","<p><img src= images/blank.png width =""600"" height = ""600"" style=""position:fixed;top:50%; left:50%; transform: translate(-50%, -50%); border:5px solid black"">","","","","","","","",""
"","7269.440000003669","sequential-stimulus-presentation-old","38","343749","0.0-13.0-1.2","SS1618435720994","trial","","40","500","7769.440000003669","images/stimuli/spore_stims/complex_18_A_a.gif","images/stimuli/spore_stims/complex_16_A_b.gif","forced_short","","2","complex_dissimilar","images/stimuli/spore_stims/complex_16_A_b.gif","","","","",""
"","null","html-keyboard-response","39","344956","0.0-13.0-0.3","SS1618435720994","","","null","","","","","","<p><img src= images/blank.png width =""600"" height = ""600"" style=""position:fixed;top:50%; left:50%; transform: translate(-50%, -50%); border:5px solid black"">","","","","","","","",""
"","4180.3300000028685","sequential-stimulus-presentation-old","40","349657","0.0-13.0-1.3","SS1618435720994","trial","","40","500","4680.3300000028685","images/stimuli/spore_stims/complex_18_A_a.gif","images/stimuli/spore_stims/complex_16_A_b.gif","forced_short","","2","complex_dissimilar","images/stimuli/spore_stims/complex_16_A_b.gif","","","","",""
"","null","html-keyboard-response","41","350954","0.0-13.0-0.4","SS1618435720994","","","null","","","","","","<p><img src= images/blank.png width =""600"" height = ""600"" style=""position:fixed;top:50%; left:50%; transform: translate(-50%, -50%); border:5px solid black"">","","","","","","","",""
"","5832.38000003621","sequential-stimulus-presentation-old","42","357304","0.0-13.0-1.4","SS1618435720994","trial","","40","500","6332.38000003621","images/stimuli/spore_stims/complex_18_A_a.gif","images/stimuli/spore_stims/complex_16_A_b.gif","forced_short","","2","complex_dissimilar","images/stimuli/spore_stims/complex_16_A_b.gif","","","","",""
"","4189.099999959581","survey-multi-choice","43","361495","0.0-14.0","SS1618435720994","math_question","","","","","","","","","","","","{""Q0"":""6""}","[0]","6","",""
"","null","html-keyboard-response","44","362425","0.0-15.0-0.0","SS1618435720994","","","null","","","","","","<p><img src= images/blank.png width =""600"" height = ""600"" style=""position:fixed;top:50%; left:50%; transform: translate(-50%, -50%); border:5px solid black"">","","","","","","","",""
"","893.7750000040978","sequential-stimulus-presentation-old","45","363373","0.0-15.0-1.0","SS1618435720994","trial","","40","500","1393.7750000040978","images/stimuli/spore_stims/simple_17_A_b.gif","images/stimuli/spore_stims/simple_02_A_a.gif","forced_short","","3","simple_dissimilar","images/stimuli/spore_stims/simple_02_A_a.gif","","","","",""
"","null","html-keyboard-response","46","364237","0.0-15.0-0.1","SS1618435720994","","","null","","","","","","<p><img src= images/blank.png width =""600"" height = ""600"" style=""position:fixed;top:50%; left:50%; transform: translate(-50%, -50%); border:5px solid black"">","","","","","","","",""
"","5042.725000006612","sequential-stimulus-presentation-old","47","369785","0.0-15.0-1.1","SS1618435720994","trial","","40","500","5542.725000006612","images/stimuli/spore_stims/simple_17_A_b.gif","images/stimuli/spore_stims/simple_02_A_a.gif","forced_short","","3","simple_dissimilar","images/stimuli/spore_stims/simple_02_A_a.gif","","","","",""
"","null","html-keyboard-response","48","370983","0.0-15.0-0.2","SS1618435720994","","","null","","","","","","<p><img src= images/blank.png width =""600"" height = ""600"" style=""position:fixed;top:50%; left:50%; transform: translate(-50%, -50%); border:5px solid black"">","","","","","","","",""
"","3137.029999983497","sequential-stimulus-presentation-old","49","374624","0.0-15.0-1.2","SS1618435720994","trial","","40","500","3637.029999983497","images/stimuli/spore_stims/simple_17_A_b.gif","images/stimuli/spore_stims/simple_02_A_a.gif","forced_short","","3","simple_dissimilar","images/stimuli/spore_stims/simple_02_A_a.gif","","","","",""
"","null","html-keyboard-response","50","375640","0.0-15.0-0.3","SS1618435720994","","","null","","","","","","<p><img src= images/blank.png width =""600"" height = ""600"" style=""position:fixed;top:50%; left:50%; transform: translate(-50%, -50%); border:5px solid black"">","","","","","","","",""
"","3519.960000005085","sequential-stimulus-presentation-old","51","379674","0.0-15.0-1.3","SS1618435720994","trial","","40","500","4019.960000005085","images/stimuli/spore_stims/simple_17_A_b.gif","images/stimuli/spore_stims/simple_02_A_a.gif","forced_short","","3","simple_dissimilar","images/stimuli/spore_stims/simple_02_A_a.gif","","","","",""
"","null","html-keyboard-response","52","380730","0.0-15.0-0.4","SS1618435720994","","","null","","","","","","<p><img src= images/blank.png width =""600"" height = ""600"" style=""position:fixed;top:50%; left:50%; transform: translate(-50%, -50%); border:5px solid black"">","","","","","","","",""
"","2639.415000041481","sequential-stimulus-presentation-old","53","383874","0.0-15.0-1.4","SS1618435720994","trial","","40","500","3139.415000041481","images/stimuli/spore_stims/simple_17_A_b.gif","images/stimuli/spore_stims/simple_02_A_a.gif","forced_short","","3","simple_dissimilar","images/stimuli/spore_stims/simple_02_A_a.gif","","","","",""
"","null","html-keyboard-response","54","385172","0.0-15.0-0.5","SS1618435720994","","","null","","","","","","<p><img src= images/blank.png width =""600"" height = ""600"" style=""position:fixed;top:50%; left:50%; transform: translate(-50%, -50%); border:5px solid black"">","","","","","","","",""
"","2800.534999987576","sequential-stimulus-presentation-old","55","388478","0.0-15.0-1.5","SS1618435720994","trial","","40","500","3300.534999987576","images/stimuli/spore_stims/simple_17_A_b.gif","images/stimuli/spore_stims/simple_02_A_a.gif","forced_short","","3","simple_dissimilar","images/stimuli/spore_stims/simple_02_A_a.gif","","","","",""
"","5361.3599999807775","survey-multi-choice","56","393843","0.0-16.0","SS1618435720994","math_question","","","","","","","","","","","","{""Q0"":""12""}","[0]","12","",""
"","null","html-keyboard-response","57","394794","0.0-17.0-0.0","SS1618435720994","","","null","","","","","","<p><img src= images/blank.png width =""600"" height = ""600"" style=""position:fixed;top:50%; left:50%; transform: translate(-50%, -50%); border:5px solid black"">","","","","","","","",""
"","1536.5299999830313","sequential-stimulus-presentation-old","58","401340","0.0-17.0-1.0","SS1618435720994","trial","","40","500","2036.5299999830313","images/stimuli/spore_stims/complex_06_A_a.gif","images/stimuli/spore_stims/complex_02_A_b.gif","forced_long","","4","complex_dissimilar","images/stimuli/spore_stims/complex_02_A_b.gif","","","","",""
"","null","html-keyboard-response","59","402444","0.0-17.0-0.1","SS1618435720994","","","null","","","","","","<p><img src= images/blank.png width =""600"" height = ""600"" style=""position:fixed;top:50%; left:50%; transform: translate(-50%, -50%); border:5px solid black"">","","","","","","","",""
"","4380.4200000013225","sequential-stimulus-presentation-old","60","407332","0.0-17.0-1.1","SS1618435720994","trial","","40","500","4880.4200000013225","images/stimuli/spore_stims/complex_06_A_a.gif","images/stimuli/spore_stims/complex_02_A_b.gif","forced_long","","4","complex_dissimilar","images/stimuli/spore_stims/complex_06_A_a.gif","","","","",""
"","null","html-keyboard-response","61","408323","0.0-17.0-0.2","SS1618435720994","","","null","","","","","","<p><img src= images/blank.png width =""600"" height = ""600"" style=""position:fixed;top:50%; left:50%; transform: translate(-50%, -50%); border:5px solid black"">","","","","","","","",""
"","3920.070000051055","sequential-stimulus-presentation-old","62","412750","0.0-17.0-1.2","SS1618435720994","trial","","40","500","4420.070000051055","images/stimuli/spore_stims/complex_06_A_a.gif","images/stimuli/spore_stims/complex_02_A_b.gif","forced_long","","4","complex_dissimilar","images/stimuli/spore_stims/complex_06_A_a.gif","","","","",""
"","null","html-keyboard-response","63","413671","0.0-17.0-0.3","SS1618435720994","","","null","","","","","","<p><img src= images/blank.png width =""600"" height = ""600"" style=""position:fixed;top:50%; left:50%; transform: translate(-50%, -50%); border:5px solid black"">","","","","","","","",""
"","10168.055000016466","sequential-stimulus-presentation-old","64","424345","0.0-17.0-1.3","SS1618435720994","trial","","40","500","10668.055000016466","images/stimuli/spore_stims/complex_06_A_a.gif","images/stimuli/spore_stims/complex_02_A_b.gif","forced_long","","4","complex_dissimilar","images/stimuli/spore_stims/complex_02_A_b.gif","","","","",""
"","null","html-keyboard-response","65","425617","0.0-17.0-0.4","SS1618435720994","","","null","","","","","","<p><img src= images/blank.png width =""600"" height = ""600"" style=""position:fixed;top:50%; left:50%; transform: translate(-50%, -50%); border:5px solid black"">","","","","","","","",""
"","9362.525000004098","sequential-stimulus-presentation-old","66","435498","0.0-17.0-1.4","SS1618435720994","trial","","40","500","9862.525000004098","images/stimuli/spore_stims/complex_06_A_a.gif","images/stimuli/spore_stims/complex_02_A_b.gif","forced_long","","4","complex_dissimilar","images/stimuli/spore_stims/complex_02_A_b.gif","","","","",""
"","null","html-keyboard-response","67","436470","0.0-17.0-0.5","SS1618435720994","","","null","","","","","","<p><img src= images/blank.png width =""600"" height = ""600"" style=""position:fixed;top:50%; left:50%; transform: translate(-50%, -50%); border:5px solid black"">","","","","","","","",""
"","6303.264999995008","sequential-stimulus-presentation-old","68","443277","0.0-17.0-1.5","SS1618435720994","trial","","40","500","6803.264999995008","images/stimuli/spore_stims/complex_06_A_a.gif","images/stimuli/spore_stims/complex_02_A_b.gif","forced_long","","4","complex_dissimilar","images/stimuli/spore_stims/complex_02_A_b.gif","","","","",""
"","4473.620000004303","survey-multi-choice","69","447757","0.0-18.0","SS1618435720994","math_question","","","","","","","","","","","","{""Q0"":""10""}","[0]","10","",""
"","null","html-keyboard-response","70","448993","0.0-19.0-0.0","SS1618435720994","","","null","","","","","","<p><img src= images/blank.png width =""600"" height = ""600"" style=""position:fixed;top:50%; left:50%; transform: translate(-50%, -50%); border:5px solid black"">","","","","","","","",""
"","961.200000019744","sequential-stimulus-presentation-old","71","450017","0.0-19.0-1.0","SS1618435720994","trial","","40","500","1461.200000019744","images/stimuli/spore_stims/simple_03_A_b.gif","images/stimuli/spore_stims/simple_17_A_a.gif","forced_short","","5","simple_dissimilar","images/stimuli/spore_stims/simple_17_A_a.gif","","","","",""
"","null","html-keyboard-response","72","450875","0.0-19.0-0.1","SS1618435720994","","","null","","","","","","<p><img src= images/blank.png width =""600"" height = ""600"" style=""position:fixed;top:50%; left:50%; transform: translate(-50%, -50%); border:5px solid black"">","","","","","","","",""
"","1525.83500003675","sequential-stimulus-presentation-old","73","452919","0.0-19.0-1.1","SS1618435720994","trial","","40","500","2025.83500003675","images/stimuli/spore_stims/simple_03_A_b.gif","images/stimuli/spore_stims/simple_17_A_a.gif","forced_short","","5","simple_dissimilar","images/stimuli/spore_stims/simple_03_A_b.gif","","","","",""
"","null","html-keyboard-response","74","454164","0.0-19.0-0.2","SS1618435720994","","","null","","","","","","<p><img src= images/blank.png width =""600"" height = ""600"" style=""position:fixed;top:50%; left:50%; transform: translate(-50%, -50%); border:5px solid black"">","","","","","","","",""
"","1752.1299999789335","sequential-stimulus-presentation-old","75","456421","0.0-19.0-1.2","SS1618435720994","trial","","40","500","2252.1299999789335","images/stimuli/spore_stims/simple_03_A_b.gif","images/stimuli/spore_stims/simple_17_A_a.gif","forced_short","","5","simple_dissimilar","images/stimuli/spore_stims/simple_17_A_a.gif","","","","",""
"","null","html-keyboard-response","76","457655","0.0-19.0-0.3","SS1618435720994","","","null","","","","","","<p><img src= images/blank.png width =""600"" height = ""600"" style=""position:fixed;top:50%; left:50%; transform: translate(-50%, -50%); border:5px solid black"">","","","","","","","",""
"","1104.6499999938533","sequential-stimulus-presentation-old","77","459263","0.0-19.0-1.3","SS1618435720994","trial","","40","500","1604.6499999938533","images/stimuli/spore_stims/simple_03_A_b.gif","images/stimuli/spore_stims/simple_17_A_a.gif","forced_short","","5","simple_dissimilar","images/stimuli/spore_stims/simple_17_A_a.gif","","","","",""
"","null","html-keyboard-response","78","460121","0.0-19.0-0.4","SS1618435720994","","","null","","","","","","<p><img src= images/blank.png width =""600"" height = ""600"" style=""position:fixed;top:50%; left:50%; transform: translate(-50%, -50%); border:5px solid black"">","","","","","","","",""
"","1249.8499999637716","sequential-stimulus-presentation-old","79","461877","0.0-19.0-1.4","SS1618435720994","trial","","40","500","1749.8499999637716","images/stimuli/spore_stims/simple_03_A_b.gif","images/stimuli/spore_stims/simple_17_A_a.gif","forced_short","","5","simple_dissimilar","images/stimuli/spore_stims/simple_03_A_b.gif","","","","",""
"","2613.950000028126","survey-multi-choice","80","464493","0.0-20.0","SS1618435720994","math_question","","","","","","","","","","","","{""Q0"":""8""}","[0]","8","",""
"","null","html-keyboard-response","81","465313","0.0-21.0-0.0","SS1618435720994","","","null","","","","","","<p><img src= images/blank.png width =""600"" height = ""600"" style=""position:fixed;top:50%; left:50%; transform: translate(-50%, -50%); border:5px solid black"">","","","","","","","",""
"","578.9299999596551","sequential-stimulus-presentation-old","82","470897","0.0-21.0-1.0","SS1618435720994","trial","","40","500","1078.929999959655","images/stimuli/spore_stims/simple_02_A_b.gif","images/stimuli/spore_stims/simple_04_A_a.gif","forced_long","","6","simple_dissimilar","images/stimuli/spore_stims/simple_04_A_a.gif","","","","",""
"","null","html-keyboard-response","83","471819","0.0-21.0-0.1","SS1618435720994","","","null","","","","","","<p><img src= images/blank.png width =""600"" height = ""600"" style=""position:fixed;top:50%; left:50%; transform: translate(-50%, -50%); border:5px solid black"">","","","","","","","",""
"","2135.584999981802","sequential-stimulus-presentation-old","84","474461","0.0-21.0-1.1","SS1618435720994","trial","","40","500","2635.584999981802","images/stimuli/spore_stims/simple_02_A_b.gif","images/stimuli/spore_stims/simple_04_A_a.gif","forced_long","","6","simple_dissimilar","images/stimuli/spore_stims/simple_02_A_b.gif","","","","",""
"","null","html-keyboard-response","85","475382","0.0-21.0-0.2","SS1618435720994","","","null","","","","","","<p><img src= images/blank.png width =""600"" height = ""600"" style=""position:fixed;top:50%; left:50%; transform: translate(-50%, -50%); border:5px solid black"">","","","","","","","",""
"","553.3700000378303","sequential-stimulus-presentation-old","86","476439","0.0-21.0-1.2","SS1618435720994","trial","","40","500","1053.3700000378303","images/stimuli/spore_stims/simple_02_A_b.gif","images/stimuli/spore_stims/simple_04_A_a.gif","forced_long","","6","simple_dissimilar","images/stimuli/spore_stims/simple_04_A_a.gif","","","","",""
"","null","html-keyboard-response","87","477598","0.0-21.0-0.3","SS1618435720994","","","null","","","","","","<p><img src= images/blank.png width =""600"" height = ""600"" style=""position:fixed;top:50%; left:50%; transform: translate(-50%, -50%); border:5px solid black"">","","","","","","","",""
"","698.8199999905191","sequential-stimulus-presentation-old","88","478803","0.0-21.0-1.3","SS1618435720994","trial","","40","500","1198.8199999905191","images/stimuli/spore_stims/simple_02_A_b.gif","images/stimuli/spore_stims/simple_04_A_a.gif","forced_long","","6","simple_dissimilar","images/stimuli/spore_stims/simple_04_A_a.gif","","","","",""
"","null","html-keyboard-response","89","479881","0.0-21.0-0.4","SS1618435720994","","","null","","","","","","<p><img src= images/blank.png width =""600"" height = ""600"" style=""position:fixed;top:50%; left:50%; transform: translate(-50%, -50%); border:5px solid black"">","","","","","","","",""
"","1593.764999997802","sequential-stimulus-presentation-old","90","481981","0.0-21.0-1.4","SS1618435720994","trial","","40","500","2093.764999997802","images/stimuli/spore_stims/simple_02_A_b.gif","images/stimuli/spore_stims/simple_04_A_a.gif","forced_long","","6","simple_dissimilar","images/stimuli/spore_stims/simple_04_A_a.gif","","","","",""
"","5342.58499997668","survey-multi-choice","91","487326","0.0-22.0","SS1618435720994","math_question","","","","","","","","","","","","{""Q0"":""6""}","[0]","6","",""
"","null","html-keyboard-response","92","488344","0.0-23.0-0.0","SS1618435720994","","","null","","","","","","<p><img src= images/blank.png width =""600"" height = ""600"" style=""position:fixed;top:50%; left:50%; transform: translate(-50%, -50%); border:5px solid black"">","","","","","","","",""
"","863.4150000289083","sequential-stimulus-presentation-old","93","494211","0.0-23.0-1.0","SS1618435720994","trial","","40","500","1363.4150000289083","images/stimuli/spore_stims/simple_08_A_b.gif","images/stimuli/spore_stims/simple_16_A_a.gif","forced_long","","7","simple_dissimilar","images/stimuli/spore_stims/simple_16_A_a.gif","","","","",""
"","null","html-keyboard-response","94","495419","0.0-23.0-0.1","SS1618435720994","","","null","","","","","","<p><img src= images/blank.png width =""600"" height = ""600"" style=""position:fixed;top:50%; left:50%; transform: translate(-50%, -50%); border:5px solid black"">","","","","","","","",""
"","3420.769999967888","sequential-stimulus-presentation-old","95","499345","0.0-23.0-1.1","SS1618435720994","trial","","40","500","3920.769999967888","images/stimuli/spore_stims/simple_08_A_b.gif","images/stimuli/spore_stims/simple_16_A_a.gif","forced_long","","7","simple_dissimilar","images/stimuli/spore_stims/simple_16_A_a.gif","","","","",""
"","null","html-keyboard-response","96","500368","0.0-23.0-0.2","SS1618435720994","","","null","","","","","","<p><img src= images/blank.png width =""600"" height = ""600"" style=""position:fixed;top:50%; left:50%; transform: translate(-50%, -50%); border:5px solid black"">","","","","","","","",""
"","3333.059999975376","sequential-stimulus-presentation-old","97","504207","0.0-23.0-1.2","SS1618435720994","trial","","40","500","3833.059999975376","images/stimuli/spore_stims/simple_08_A_b.gif","images/stimuli/spore_stims/simple_16_A_a.gif","forced_long","","7","simple_dissimilar","images/stimuli/spore_stims/simple_16_A_a.gif","","","","",""
"","null","html-keyboard-response","98","505343","0.0-23.0-0.3","SS1618435720994","","","null","","","","","","<p><img src= images/blank.png width =""600"" height = ""600"" style=""position:fixed;top:50%; left:50%; transform: translate(-50%, -50%); border:5px solid black"">","","","","","","","",""
"","3018.4599999920465","sequential-stimulus-presentation-old","99","508869","0.0-23.0-1.3","SS1618435720994","trial","","40","500","3518.4599999920465","images/stimuli/spore_stims/simple_08_A_b.gif","images/stimuli/spore_stims/simple_16_A_a.gif","forced_long","","7","simple_dissimilar","images/stimuli/spore_stims/simple_16_A_a.gif","","","","",""
"","2958.885000029113","survey-multi-choice","100","511833","0.0-24.0","SS1618435720994","math_question","","","","","","","","","","","","{""Q0"":""9""}","[0]","9","",""
"","null","html-keyboard-response","101","512744","0.0-25.0-0.0","SS1618435720994","","","null","","","","","","<p><img src= images/blank.png width =""600"" height = ""600"" style=""position:fixed;top:50%; left:50%; transform: translate(-50%, -50%); border:5px solid black"">","","","","","","","",""
"","1122.6750000496395","sequential-stimulus-presentation-old","102","518870","0.0-25.0-1.0","SS1618435720994","trial","","40","500","1622.6750000496395","images/stimuli/spore_stims/complex_19_A_b.gif","images/stimuli/spore_stims/complex_01_A_a.gif","forced_long","","8","complex_dissimilar","images/stimuli/spore_stims/complex_01_A_a.gif","","","","",""
"","null","html-keyboard-response","103","520144","0.0-25.0-0.1","SS1618435720994","","","null","","","","","","<p><img src= images/blank.png width =""600"" height = ""600"" style=""position:fixed;top:50%; left:50%; transform: translate(-50%, -50%); border:5px solid black"">","","","","","","","",""
"","7400.309999997262","sequential-stimulus-presentation-old","104","528048","0.0-25.0-1.1","SS1618435720994","trial","","40","500","7900.309999997262","images/stimuli/spore_stims/complex_19_A_b.gif","images/stimuli/spore_stims/complex_01_A_a.gif","forced_long","","8","complex_dissimilar","images/stimuli/spore_stims/complex_19_A_b.gif","","","","",""
"","null","html-keyboard-response","105","529259","0.0-25.0-0.2","SS1618435720994","","","null","","","","","","<p><img src= images/blank.png width =""600"" height = ""600"" style=""position:fixed;top:50%; left:50%; transform: translate(-50%, -50%); border:5px solid black"">","","","","","","","",""
"","6781.320000009146","sequential-stimulus-presentation-old","106","536546","0.0-25.0-1.2","SS1618435720994","trial","","40","500","7281.320000009146","images/stimuli/spore_stims/complex_19_A_b.gif","images/stimuli/spore_stims/complex_01_A_a.gif","forced_long","","8","complex_dissimilar","images/stimuli/spore_stims/complex_01_A_a.gif","","","","",""
"","null","html-keyboard-response","107","537585","0.0-25.0-0.3","SS1618435720994","","","null","","","","","","<p><img src= images/blank.png width =""600"" height = ""600"" style=""position:fixed;top:50%; left:50%; transform: translate(-50%, -50%); border:5px solid black"">","","","","","","","",""
"","4786.614999989979","sequential-stimulus-presentation-old","108","542891","0.0-25.0-1.3","SS1618435720994","trial","","40","500","5286.614999989979","images/stimuli/spore_stims/complex_19_A_b.gif","images/stimuli/spore_stims/complex_01_A_a.gif","forced_long","","8","complex_dissimilar","images/stimuli/spore_stims/complex_01_A_a.gif","","","","",""
"","null","html-keyboard-response","109","544106","0.0-25.0-0.4","SS1618435720994","","","null","","","","","","<p><img src= images/blank.png width =""600"" height = ""600"" style=""position:fixed;top:50%; left:50%; transform: translate(-50%, -50%); border:5px solid black"">","","","","","","","",""
"","2533.1399999558926","sequential-stimulus-presentation-old","110","547146","0.0-25.0-1.4","SS1618435720994","trial","","40","500","3033.1399999558926","images/stimuli/spore_stims/complex_19_A_b.gif","images/stimuli/spore_stims/complex_01_A_a.gif","forced_long","","8","complex_dissimilar","images/stimuli/spore_stims/complex_01_A_a.gif","","","","",""
"","null","html-keyboard-response","111","548118","0.0-25.0-0.5","SS1618435720994","","","null","","","","","","<p><img src= images/blank.png width =""600"" height = ""600"" style=""position:fixed;top:50%; left:50%; transform: translate(-50%, -50%); border:5px solid black"">","","","","","","","",""
"","2436.3399999565445","sequential-stimulus-presentation-old","112","551061","0.0-25.0-1.5","SS1618435720994","trial","","40","500","2936.3399999565445","images/stimuli/spore_stims/complex_19_A_b.gif","images/stimuli/spore_stims/complex_01_A_a.gif","forced_long","","8","complex_dissimilar","images/stimuli/spore_stims/complex_01_A_a.gif","","","","",""
"","4484.865000005811","survey-multi-choice","113","555548","0.0-26.0","SS1618435720994","math_question","","","","","","","","","","","","{""Q0"":""14""}","[0]","14","",""
"","null","html-keyboard-response","114","556471","0.0-27.0-0.0","SS1618435720994","","","null","","","","","","<p><img src= images/blank.png width =""600"" height = ""600"" style=""position:fixed;top:50%; left:50%; transform: translate(-50%, -50%); border:5px solid black"">","","","","","","","",""
"","811.1500000231899","sequential-stimulus-presentation-old","115","557337","0.0-27.0-1.0","SS1618435720994","trial","","40","500","1311.15000002319","images/stimuli/spore_stims/complex_04_A_b.gif","images/stimuli/spore_stims/complex_07_A_a.gif","forced_short","","9","complex_dissimilar","images/stimuli/spore_stims/complex_07_A_a.gif","","","","",""
"","null","html-keyboard-response","116","558600","0.0-27.0-0.1","SS1618435720994","","","null","","","","","","<p><img src= images/blank.png width =""600"" height = ""600"" style=""position:fixed;top:50%; left:50%; transform: translate(-50%, -50%); border:5px solid black"">","","","","","","","",""
"","3334.8000000114553","sequential-stimulus-presentation-old","117","562451","0.0-27.0-1.1","SS1618435720994","trial","","40","500","3834.8000000114553","images/stimuli/spore_stims/complex_04_A_b.gif","images/stimuli/spore_stims/complex_07_A_a.gif","forced_short","","9","complex_dissimilar","images/stimuli/spore_stims/complex_07_A_a.gif","","","","",""
"","null","html-keyboard-response","118","563680","0.0-27.0-0.2","SS1618435720994","","","null","","","","","","<p><img src= images/blank.png width =""600"" height = ""600"" style=""position:fixed;top:50%; left:50%; transform: translate(-50%, -50%); border:5px solid black"">","","","","","","","",""
"","4414.510000031441","sequential-stimulus-presentation-old","119","568602","0.0-27.0-1.2","SS1618435720994","trial","","40","500","4914.510000031441","images/stimuli/spore_stims/complex_04_A_b.gif","images/stimuli/spore_stims/complex_07_A_a.gif","forced_short","","9","complex_dissimilar","images/stimuli/spore_stims/complex_04_A_b.gif","","","","",""
"","null","html-keyboard-response","120","569529","0.0-27.0-0.3","SS1618435720994","","","null","","","","","","<p><img src= images/blank.png width =""600"" height = ""600"" style=""position:fixed;top:50%; left:50%; transform: translate(-50%, -50%); border:5px solid black"">","","","","","","","",""
"","2612.955000018701","sequential-stimulus-presentation-old","121","572648","0.0-27.0-1.3","SS1618435720994","trial","","40","500","3112.955000018701","images/stimuli/spore_stims/complex_04_A_b.gif","images/stimuli/spore_stims/complex_07_A_a.gif","forced_short","","9","complex_dissimilar","images/stimuli/spore_stims/complex_07_A_a.gif","","","","",""
"","null","html-keyboard-response","122","573847","0.0-27.0-0.4","SS1618435720994","","","null","","","","","","<p><img src= images/blank.png width =""600"" height = ""600"" style=""position:fixed;top:50%; left:50%; transform: translate(-50%, -50%); border:5px solid black"">","","","","","","","",""
"","5072.71000003675","sequential-stimulus-presentation-old","123","579439","0.0-27.0-1.4","SS1618435720994","trial","","40","500","5572.71000003675","images/stimuli/spore_stims/complex_04_A_b.gif","images/stimuli/spore_stims/complex_07_A_a.gif","forced_short","","9","complex_dissimilar","images/stimuli/spore_stims/complex_07_A_a.gif","","","","",""
"","null","html-keyboard-response","124","580354","0.0-27.0-0.5","SS1618435720994","","","null","","","","","","<p><img src= images/blank.png width =""600"" height = ""600"" style=""position:fixed;top:50%; left:50%; transform: translate(-50%, -50%); border:5px solid black"">","","","","","","","",""
"","3314.220000000205","sequential-stimulus-presentation-old","125","584173","0.0-27.0-1.5","SS1618435720994","trial","","40","500","3814.220000000205","images/stimuli/spore_stims/complex_04_A_b.gif","images/stimuli/spore_stims/complex_07_A_a.gif","forced_short","","9","complex_dissimilar","images/stimuli/spore_stims/complex_04_A_b.gif","","","","",""
"","3435.064999968745","survey-multi-choice","126","587611","0.0-28.0","SS1618435720994","math_question","","","","","","","","","","","","{""Q0"":""7""}","[0]","7","",""
"","null","html-keyboard-response","127","588857","0.0-29.0-0.0","SS1618435720994","","","null","","","","","","<p><img src= images/blank.png width =""600"" height = ""600"" style=""position:fixed;top:50%; left:50%; transform: translate(-50%, -50%); border:5px solid black"">","","","","","","","",""
"","11616.455000010319","sequential-stimulus-presentation-old","128","600981","0.0-29.0-1.0","SS1618435720994","trial","","40","500","12116.455000010319","images/stimuli/spore_stims/complex_10_A_a.gif","images/stimuli/spore_stims/complex_06_A_b.gif","self_paced","","10","complex_dissimilar","images/stimuli/spore_stims/complex_06_A_b.gif","","","","",""
"","null","html-keyboard-response","129","602115","0.0-29.0-0.1","SS1618435720994","","","null","","","","","","<p><img src= images/blank.png width =""600"" height = ""600"" style=""position:fixed;top:50%; left:50%; transform: translate(-50%, -50%); border:5px solid black"">","","","","","","","",""
"","2792.909999960102","sequential-stimulus-presentation-old","130","605412","0.0-29.0-1.1","SS1618435720994","trial","","40","500","3292.909999960102","images/stimuli/spore_stims/complex_10_A_a.gif","images/stimuli/spore_stims/complex_06_A_b.gif","self_paced","","10","complex_dissimilar","images/stimuli/spore_stims/complex_06_A_b.gif","","","","",""
"","null","html-keyboard-response","131","606436","0.0-29.0-0.2","SS1618435720994","","","null","","","","","","<p><img src= images/blank.png width =""600"" height = ""600"" style=""position:fixed;top:50%; left:50%; transform: translate(-50%, -50%); border:5px solid black"">","","","","","","","",""
"","15876.369999954477","sequential-stimulus-presentation-old","132","622817","0.0-29.0-1.2","SS1618435720994","trial","","40","500","16376.369999954477","images/stimuli/spore_stims/complex_10_A_a.gif","images/stimuli/spore_stims/complex_06_A_b.gif","self_paced","","10","complex_dissimilar","images/stimuli/spore_stims/complex_10_A_a.gif","","","","",""
"","null","html-keyboard-response","133","623854","0.0-29.0-0.3","SS1618435720994","","","null","","","","","","<p><img src= images/blank.png width =""600"" height = ""600"" style=""position:fixed;top:50%; left:50%; transform: translate(-50%, -50%); border:5px solid black"">","","","","","","","",""
"","1851.3299999758601","sequential-stimulus-presentation-old","134","626210","0.0-29.0-1.3","SS1618435720994","trial","","40","500","2351.32999997586","images/stimuli/spore_stims/complex_10_A_a.gif","images/stimuli/spore_stims/complex_06_A_b.gif","self_paced","","10","complex_dissimilar","images/stimuli/spore_stims/complex_06_A_b.gif","","","","",""
"","2676.844999950845","survey-multi-choice","135","628890","0.0-30.0","SS1618435720994","math_question","","","","","","","","","","","","{""Q0"":""6""}","[0]","6","",""
"","null","html-keyboard-response","136","630004","0.0-31.0-0.0","SS1618435720994","","","null","","","","","","<p><img src= images/blank.png width =""600"" height = ""600"" style=""position:fixed;top:50%; left:50%; transform: translate(-50%, -50%); border:5px solid black"">","","","","","","","",""
"","571.8900000210851","sequential-stimulus-presentation-old","137","631080","0.0-31.0-1.0","SS1618435720994","trial","","40","500","1071.8900000210851","images/stimuli/spore_stims/simple_09_A_a.gif","images/stimuli/spore_stims/simple_04_A_b.gif","self_paced","","11","simple_dissimilar","images/stimuli/spore_stims/simple_04_A_b.gif","","","","",""
"","null","html-keyboard-response","138","632022","0.0-31.0-0.1","SS1618435720994","","","null","","","","","","<p><img src= images/blank.png width =""600"" height = ""600"" style=""position:fixed;top:50%; left:50%; transform: translate(-50%, -50%); border:5px solid black"">","","","","","","","",""
"","3338.164999964647","sequential-stimulus-presentation-old","139","635877","0.0-31.0-1.1","SS1618435720994","trial","","40","500","3838.164999964647","images/stimuli/spore_stims/simple_09_A_a.gif","images/stimuli/spore_stims/simple_04_A_b.gif","self_paced","","11","simple_dissimilar","images/stimuli/spore_stims/simple_04_A_b.gif","","","","",""
"","null","html-keyboard-response","140","636790","0.0-31.0-0.2","SS1618435720994","","","null","","","","","","<p><img src= images/blank.png width =""600"" height = ""600"" style=""position:fixed;top:50%; left:50%; transform: translate(-50%, -50%); border:5px solid black"">","","","","","","","",""
"","477.8900000383146","sequential-stimulus-presentation-old","141","637772","0.0-31.0-1.2","SS1618435720994","trial","","40","500","977.8900000383146","images/stimuli/spore_stims/simple_09_A_a.gif","images/stimuli/spore_stims/simple_04_A_b.gif","self_paced","","11","simple_dissimilar","images/stimuli/spore_stims/simple_09_A_a.gif","","","","",""
"","null","html-keyboard-response","142","638696","0.0-31.0-0.3","SS1618435720994","","","null","","","","","","<p><img src= images/blank.png width =""600"" height = ""600"" style=""position:fixed;top:50%; left:50%; transform: translate(-50%, -50%); border:5px solid black"">","","","","","","","",""
"","239.22499996842816","sequential-stimulus-presentation-old","143","639453","0.0-31.0-1.3","SS1618435720994","trial","","40","500","739.2249999684282","images/stimuli/spore_stims/simple_09_A_a.gif","images/stimuli/spore_stims/simple_04_A_b.gif","self_paced","","11","simple_dissimilar","images/stimuli/spore_stims/simple_04_A_b.gif","","","","",""
"","null","html-keyboard-response","144","640673","0.0-31.0-0.4","SS1618435720994","","","null","","","","","","<p><img src= images/blank.png width =""600"" height = ""600"" style=""position:fixed;top:50%; left:50%; transform: translate(-50%, -50%); border:5px solid black"">","","","","","","","",""
"","5945.125000027474","sequential-stimulus-presentation-old","145","647123","0.0-31.0-1.4","SS1618435720994","trial","","40","500","6445.125000027474","images/stimuli/spore_stims/simple_09_A_a.gif","images/stimuli/spore_stims/simple_04_A_b.gif","self_paced","","11","simple_dissimilar","images/stimuli/spore_stims/simple_04_A_b.gif","","","","",""
"","null","html-keyboard-response","146","648296","0.0-31.0-0.5","SS1618435720994","","","null","","","","","","<p><img src= images/blank.png width =""600"" height = ""600"" style=""position:fixed;top:50%; left:50%; transform: translate(-50%, -50%); border:5px solid black"">","","","","","","","",""
"","4072.0999999903142","sequential-stimulus-presentation-old","147","652874","0.0-31.0-1.5","SS1618435720994","trial","","40","500","4572.099999990314","images/stimuli/spore_stims/simple_09_A_a.gif","images/stimuli/spore_stims/simple_04_A_b.gif","self_paced","","11","simple_dissimilar","images/stimuli/spore_stims/simple_09_A_a.gif","","","","",""
"[{""page_index"":0,""viewing_time"":6802.75500001153}]","6803.575000027195","instructions","148","659679","0.0-32.0","SS1618435720994","instructions","","","","","","","","","","","","","","","",""
"","11252.550000033807","survey-likert","149","670937","0.0-33.0","SS1618435720994","similarity_question","","","","","","","","","","","","{""Q0"":1}","[0]","","images/stimuli/spore_stims/complex_11_A_a.gif","images/stimuli/spore_stims/complex_20_A_b.gif"
"","13852.654999995138","survey-likert","150","684795","0.0-34.0","SS1618435720994","similarity_question","","","","","","","","","","","","{""Q0"":2}","[0]","","images/stimuli/spore_stims/complex_18_A_a.gif","images/stimuli/spore_stims/complex_16_A_b.gif"
"","5962.149999977555","survey-likert","151","690763","0.0-35.0","SS1618435720994","similarity_question","","","","","","","","","","","","{""Q0"":4}","[0]","","images/stimuli/spore_stims/complex_06_A_a.gif","images/stimuli/spore_stims/complex_02_A_b.gif"
"","6726.109999988694","survey-likert","152","697493","0.0-36.0","SS1618435720994","similarity_question","","","","","","","","","","","","{""Q0"":5}","[0]","","images/stimuli/spore_stims/simple_03_A_b.gif","images/stimuli/spore_stims/simple_17_A_a.gif"
"","6067.894999985583","survey-likert","153","703566","0.0-37.0","SS1618435720994","similarity_question","","","","","","","","","","","","{""Q0"":4}","[0]","","images/stimuli/spore_stims/complex_04_A_b.gif","images/stimuli/spore_stims/complex_07_A_a.gif"
"","5405.970000021625","survey-likert","154","708976","0.0-38.0","SS1618435720994","similarity_question","","","","","","","","","","","","{""Q0"":1}","[0]","","images/stimuli/spore_stims/simple_05_A_b.gif","images/stimuli/spore_stims/simple_01_A_a.gif"
"","4094.775000005029","survey-likert","155","713075","0.0-39.0","SS1618435720994","similarity_question","","","","","","","","","","","","{""Q0"":4}","[0]","","images/stimuli/spore_stims/simple_09_A_a.gif","images/stimuli/spore_stims/simple_04_A_b.gif"
"","6034.225000010338","survey-likert","156","719114","0.0-40.0","SS1618435720994","similarity_question","","","","","","","","","","","","{""Q0"":5}","[0]","","images/stimuli/spore_stims/complex_10_A_a.gif","images/stimuli/spore_stims/complex_06_A_b.gif"
"","5514.254999987315","survey-likert","157","724632","0.0-41.0","SS1618435720994","similarity_question","","","","","","","","","","","","{""Q0"":4}","[0]","","images/stimuli/spore_stims/complex_01_A_a.gif","images/stimuli/spore_stims/complex_19_A_b.gif"
"","3512.440000020433","survey-likert","158","728149","0.0-42.0","SS1618435720994","similarity_question","","","","","","","","","","","","{""Q0"":5}","[0]","","images/stimuli/spore_stims/simple_17_A_b.gif","images/stimuli/spore_stims/simple_02_A_a.gif"
"","3600.3149999887682","survey-likert","159","731755","0.0-43.0","SS1618435720994","similarity_question","","","","","","","","","","","","{""Q0"":4}","[0]","","images/stimuli/spore_stims/simple_02_A_b.gif","images/stimuli/spore_stims/simple_04_A_a.gif"
"","3181.129999982659","survey-likert","160","734941","0.0-44.0","SS1618435720994","similarity_question","","","","","","","","","","","","{""Q0"":0}","[0]","","images/stimuli/spore_stims/simple_08_A_b.gif","images/stimuli/spore_stims/simple_16_A_a.gif"
"[{""page_index"":0,""viewing_time"":32935.614999965765}]","32936.27000000561","instructions","161","767884","0.0-45.0","SS1618435720994","instructions","","","","","","","","","","","","","","","",""
"","8410.924999974668","survey-likert","162","776301","0.0-46.0","SS1618435720994","","","","","","","","","images/stimuli/spore_stims/complex_04_A_b.gif","","","","{""Q0"":5}","[0]","","",""
"","3274.180000007618","survey-likert","163","779580","0.0-47.0","SS1618435720994","","","","","","","","","images/stimuli/spore_stims/complex_02_A_b.gif","","","","{""Q0"":4}","[0]","","",""
"","2520.970000012312","survey-likert","164","782105","0.0-48.0","SS1618435720994","","","","","","","","","images/stimuli/spore_stims/simple_02_A_a.gif","","","","{""Q0"":0}","[0]","","",""
"","7762.329999997746","survey-likert","165","789872","0.0-49.0","SS1618435720994","","","","","","","","","images/stimuli/spore_stims/complex_10_A_a.gif","","","","{""Q0"":5}","[0]","","",""
"","4551.819999993313","survey-likert","166","794429","0.0-50.0","SS1618435720994","","","","","","","","","images/stimuli/spore_stims/simple_17_A_a.gif","","","","{""Q0"":1}","[0]","","",""
"","4368.6699999962","survey-likert","167","798802","0.0-51.0","SS1618435720994","","","","","","","","","images/stimuli/spore_stims/simple_16_A_a.gif","","","","{""Q0"":1}","[0]","","",""
"","4483.1000000122","survey-likert","168","803289","0.0-52.0","SS1618435720994","","","","","","","","","images/stimuli/spore_stims/complex_19_A_b.gif","","","","{""Q0"":5}","[0]","","",""
"","9354.189999983646","survey-likert","169","812648","0.0-53.0","SS1618435720994","","","","","","","","","images/stimuli/spore_stims/complex_11_A_a.gif","","","","{""Q0"":6}","[0]","","",""
"","4531.97499999078","survey-likert","170","817186","0.0-54.0","SS1618435720994","","","","","","","","","images/stimuli/spore_stims/complex_16_A_b.gif","","","","{""Q0"":5}","[0]","","",""
"","2514.9100000271574","survey-likert","171","819708","0.0-55.0","SS1618435720994","","","","","","","","","images/stimuli/spore_stims/simple_01_A_a.gif","","","","{""Q0"":0}","[0]","","",""
"","3569.874999986496","survey-likert","172","823282","0.0-56.0","SS1618435720994","","","","","","","","","images/stimuli/spore_stims/simple_04_A_a.gif","","","","{""Q0"":1}","[0]","","",""
"","3168.6849999823608","survey-likert","173","826455","0.0-57.0","SS1618435720994","","","","","","","","","images/stimuli/spore_stims/simple_09_A_a.gif","","","","{""Q0"":0}","[0]","","",""
"[{""page_index"":0,""viewing_time"":3066.850000002887}]","3067.240000003949","instructions","174","829525","0.0-58.0","SS1618435720994","instructions","","","","","","","","","","","","","","","",""
"","2319.100000022445","demog-age","175","831853","0.0-59.0","SS1618435720994","","","","","","","","","","","","","{""age"":""20""}","","","",""
"","3537.460000021383","demog-ethnic-US","176","835398","0.0-60.0","SS1618435720994","","","","","","","","","","","","","{""ethnicity"":[""White""]}","[0]","","",""
"","5570.634999952745","demog-gender-and-education","177","840974","0.0-61.0","SS1618435720994","","","","","","","","","","","","","{""gender"":""Female"",""education"":""High school diploma""}","[0,1]","","",""
"","105799.8849999858","survey-text","178","946780","0.0-62.0","SS1618435720994","feedback","","","","","","","","","","","","{""Q0"":""The white background outside the square was too bright and my eyes felt exhausted""}","","","",""
"[{""page_index"":0,""viewing_time"":4074.015000020154}]","4074.4350000168197","instructions","179","950858","0.0-63.0","SS1618435720994","instructions","","","","","","","","","","","","","","","",""
