"view_history","rt","trial_type","trial_index","time_elapsed","internal_node_id","subject","stimulus_type","trial_stimulus","key_press","minimum_viewing_duration","trial_looking_time","block_deviant","block_background","exposure_type","stimulus","block_number","block_type","stimulus_displayed","responses","question_order","math_correct_answer","stimulus_left","stimulus_right"
"[{""page_index"":0,""viewing_time"":148247.26999999984}]","148248.10499999876","instructions","0","148250","0.0-0.0","SS1618435666737","","","","","","","","","","","","","","","","",""
"[{""page_index"":0,""viewing_time"":8042.670000002545},{""page_index"":1,""viewing_time"":4304.474999997183}]","12347.715000003518","instructions","1","162601","0.0-1.0","SS1618435666737","instructions","","","","","","","","","","","","","","","",""
"","4622.224999999162","sequential-stimulus-presentation-old","2","167730","0.0-2.0","SS1618435666737","","","40","500","5122.224999999162","null","null","self_paced","","","","","","","","",""
"","3438.9500000033877","sequential-stimulus-presentation-old","3","171673","0.0-3.0","SS1618435666737","","","40","500","3938.9500000033877","null","null","self_paced","","","","","","","","",""
"[{""page_index"":0,""viewing_time"":9983.55000000447}]","9983.890000003157","instructions","4","181658","0.0-4.0","SS1618435666737","instructions","","","","","","","","","","","","","","","",""
"","2004.8450000031153","sequential-stimulus-presentation-old","5","188673","0.0-5.0","SS1618435666737","","","40","500","2504.8450000031153","null","null","forced_long","","","","","","","","",""
"","4610.440000004019","sequential-stimulus-presentation-old","6","193337","0.0-6.0","SS1618435666737","","","40","50","4660.440000004019","null","null","forced_long","","","","","","","","",""
"[{""page_index"":0,""viewing_time"":8627.694999995583}]","8628.145000002405","instructions","7","201968","0.0-7.0","SS1618435666737","instructions","","","","","","","","","","","","","","","",""
"[{""page_index"":0,""viewing_time"":5751.4699999956065},{""page_index"":1,""viewing_time"":6138.890000001993},{""page_index"":2,""viewing_time"":3487.524999996822},{""page_index"":3,""viewing_time"":1250.9400000053574},{""page_index"":4,""viewing_time"":1435.3750000009313}]","18064.5549999972","instructions","8","220035","0.0-8.0","SS1618435666737","instructions","","","","","","","","","","","","","","","",""
"","null","html-keyboard-response","9","220894","0.0-9.0-0.0","SS1618435666737","","","null","","","","","","<p><img src= images/blank.png width =""600"" height = ""600"" style=""position:fixed;top:50%; left:50%; transform: translate(-50%, -50%); border:5px solid black"">","","","","","","","",""
"","6413.769999999204","sequential-stimulus-presentation-old","10","227814","0.0-9.0-1.0","SS1618435666737","trial","","40","500","6913.769999999204","images/stimuli/spore_stims/simple_15_A_a.gif","images/stimuli/spore_stims/simple_08_A_b.gif","self_paced","","0","simple_dissimilar","images/stimuli/spore_stims/simple_08_A_b.gif","","","","",""
"","null","html-keyboard-response","11","228730","0.0-9.0-0.1","SS1618435666737","","","null","","","","","","<p><img src= images/blank.png width =""600"" height = ""600"" style=""position:fixed;top:50%; left:50%; transform: translate(-50%, -50%); border:5px solid black"">","","","","","","","",""
"","2503.340000002936","sequential-stimulus-presentation-old","12","231737","0.0-9.0-1.1","SS1618435666737","trial","","40","500","3003.340000002936","images/stimuli/spore_stims/simple_15_A_a.gif","images/stimuli/spore_stims/simple_08_A_b.gif","self_paced","","0","simple_dissimilar","images/stimuli/spore_stims/simple_08_A_b.gif","","","","",""
"","null","html-keyboard-response","13","232827","0.0-9.0-0.2","SS1618435666737","","","null","","","","","","<p><img src= images/blank.png width =""600"" height = ""600"" style=""position:fixed;top:50%; left:50%; transform: translate(-50%, -50%); border:5px solid black"">","","","","","","","",""
"","2113.740000000689","sequential-stimulus-presentation-old","14","235445","0.0-9.0-1.2","SS1618435666737","trial","","40","500","2613.740000000689","images/stimuli/spore_stims/simple_15_A_a.gif","images/stimuli/spore_stims/simple_08_A_b.gif","self_paced","","0","simple_dissimilar","images/stimuli/spore_stims/simple_08_A_b.gif","","","","",""
"","null","html-keyboard-response","15","236504","0.0-9.0-0.3","SS1618435666737","","","null","","","","","","<p><img src= images/blank.png width =""600"" height = ""600"" style=""position:fixed;top:50%; left:50%; transform: translate(-50%, -50%); border:5px solid black"">","","","","","","","",""
"","1987.2299999988172","sequential-stimulus-presentation-old","16","238996","0.0-9.0-1.3","SS1618435666737","trial","","40","500","2487.229999998817","images/stimuli/spore_stims/simple_15_A_a.gif","images/stimuli/spore_stims/simple_08_A_b.gif","self_paced","","0","simple_dissimilar","images/stimuli/spore_stims/simple_08_A_b.gif","","","","",""
"","null","html-keyboard-response","17","240206","0.0-9.0-0.4","SS1618435666737","","","null","","","","","","<p><img src= images/blank.png width =""600"" height = ""600"" style=""position:fixed;top:50%; left:50%; transform: translate(-50%, -50%); border:5px solid black"">","","","","","","","",""
"","8565.410000002885","sequential-stimulus-presentation-old","18","249275","0.0-9.0-1.4","SS1618435666737","trial","","40","500","9065.410000002885","images/stimuli/spore_stims/simple_15_A_a.gif","images/stimuli/spore_stims/simple_08_A_b.gif","self_paced","","0","simple_dissimilar","images/stimuli/spore_stims/simple_08_A_b.gif","","","","",""
"","3377.489999998943","survey-multi-choice","19","252695","0.0-10.0","SS1618435666737","math_question","","","","","","","","","","","","{""Q0"":""7""}","[0]","7","",""
"","null","html-keyboard-response","20","253908","0.0-11.0-0.0","SS1618435666737","","","null","","","","","","<p><img src= images/blank.png width =""600"" height = ""600"" style=""position:fixed;top:50%; left:50%; transform: translate(-50%, -50%); border:5px solid black"">","","","","","","","",""
"","1907.6350000032107","sequential-stimulus-presentation-old","21","255870","0.0-11.0-1.0","SS1618435666737","trial","","40","500","2407.6350000032107","images/stimuli/spore_stims/simple_16_A_b.gif","images/stimuli/spore_stims/simple_20_A_a.gif","forced_short","","1","simple_dissimilar","images/stimuli/spore_stims/simple_20_A_a.gif","","","","",""
"","null","html-keyboard-response","22","256852","0.0-11.0-0.1","SS1618435666737","","","null","","","","","","<p><img src= images/blank.png width =""600"" height = ""600"" style=""position:fixed;top:50%; left:50%; transform: translate(-50%, -50%); border:5px solid black"">","","","","","","","",""
"","2982.6150000008056","sequential-stimulus-presentation-old","23","260338","0.0-11.0-1.1","SS1618435666737","trial","","40","500","3482.6150000008056","images/stimuli/spore_stims/simple_16_A_b.gif","images/stimuli/spore_stims/simple_20_A_a.gif","forced_short","","1","simple_dissimilar","images/stimuli/spore_stims/simple_16_A_b.gif","","","","",""
"","null","html-keyboard-response","24","261572","0.0-11.0-0.2","SS1618435666737","","","null","","","","","","<p><img src= images/blank.png width =""600"" height = ""600"" style=""position:fixed;top:50%; left:50%; transform: translate(-50%, -50%); border:5px solid black"">","","","","","","","",""
"","5211.239999996906","sequential-stimulus-presentation-old","25","267289","0.0-11.0-1.2","SS1618435666737","trial","","40","500","5711.239999996906","images/stimuli/spore_stims/simple_16_A_b.gif","images/stimuli/spore_stims/simple_20_A_a.gif","forced_short","","1","simple_dissimilar","images/stimuli/spore_stims/simple_20_A_a.gif","","","","",""
"","null","html-keyboard-response","26","268317","0.0-11.0-0.3","SS1618435666737","","","null","","","","","","<p><img src= images/blank.png width =""600"" height = ""600"" style=""position:fixed;top:50%; left:50%; transform: translate(-50%, -50%); border:5px solid black"">","","","","","","","",""
"","2196.7750000039814","sequential-stimulus-presentation-old","27","271024","0.0-11.0-1.3","SS1618435666737","trial","","40","500","2696.7750000039814","images/stimuli/spore_stims/simple_16_A_b.gif","images/stimuli/spore_stims/simple_20_A_a.gif","forced_short","","1","simple_dissimilar","images/stimuli/spore_stims/simple_20_A_a.gif","","","","",""
"","null","html-keyboard-response","28","272323","0.0-11.0-0.4","SS1618435666737","","","null","","","","","","<p><img src= images/blank.png width =""600"" height = ""600"" style=""position:fixed;top:50%; left:50%; transform: translate(-50%, -50%); border:5px solid black"">","","","","","","","",""
"","5075.974999999744","sequential-stimulus-presentation-old","29","277903","0.0-11.0-1.4","SS1618435666737","trial","","40","500","5575.974999999744","images/stimuli/spore_stims/simple_16_A_b.gif","images/stimuli/spore_stims/simple_20_A_a.gif","forced_short","","1","simple_dissimilar","images/stimuli/spore_stims/simple_20_A_a.gif","","","","",""
"","7266.395000006014","survey-multi-choice","30","285172","0.0-12.0","SS1618435666737","math_question","","","","","","","","","","","","{""Q0"":""7""}","[0]","7","",""
"","null","html-keyboard-response","31","286105","0.0-13.0-0.0","SS1618435666737","","","null","","","","","","<p><img src= images/blank.png width =""600"" height = ""600"" style=""position:fixed;top:50%; left:50%; transform: translate(-50%, -50%); border:5px solid black"">","","","","","","","",""
"","177.85000000003492","sequential-stimulus-presentation-old","32","291287","0.0-13.0-1.0","SS1618435666737","trial","","40","500","677.8500000000349","images/stimuli/spore_stims/complex_20_A_b.gif","images/stimuli/spore_stims/complex_04_A_a.gif","forced_long","","2","complex_dissimilar","images/stimuli/spore_stims/complex_04_A_a.gif","","","","",""
"","null","html-keyboard-response","33","292347","0.0-13.0-0.1","SS1618435666737","","","null","","","","","","<p><img src= images/blank.png width =""600"" height = ""600"" style=""position:fixed;top:50%; left:50%; transform: translate(-50%, -50%); border:5px solid black"">","","","","","","","",""
"","2931.1949999973876","sequential-stimulus-presentation-old","34","295782","0.0-13.0-1.1","SS1618435666737","trial","","40","500","3431.1949999973876","images/stimuli/spore_stims/complex_20_A_b.gif","images/stimuli/spore_stims/complex_04_A_a.gif","forced_long","","2","complex_dissimilar","images/stimuli/spore_stims/complex_04_A_a.gif","","","","",""
"","null","html-keyboard-response","35","296783","0.0-13.0-0.2","SS1618435666737","","","null","","","","","","<p><img src= images/blank.png width =""600"" height = ""600"" style=""position:fixed;top:50%; left:50%; transform: translate(-50%, -50%); border:5px solid black"">","","","","","","","",""
"","861.6650000039954","sequential-stimulus-presentation-old","36","298152","0.0-13.0-1.2","SS1618435666737","trial","","40","500","1361.6650000039954","images/stimuli/spore_stims/complex_20_A_b.gif","images/stimuli/spore_stims/complex_04_A_a.gif","forced_long","","2","complex_dissimilar","images/stimuli/spore_stims/complex_04_A_a.gif","","","","",""
"","null","html-keyboard-response","37","298979","0.0-13.0-0.3","SS1618435666737","","","null","","","","","","<p><img src= images/blank.png width =""600"" height = ""600"" style=""position:fixed;top:50%; left:50%; transform: translate(-50%, -50%); border:5px solid black"">","","","","","","","",""
"","3438.880000001518","sequential-stimulus-presentation-old","38","302924","0.0-13.0-1.3","SS1618435666737","trial","","40","500","3938.880000001518","images/stimuli/spore_stims/complex_20_A_b.gif","images/stimuli/spore_stims/complex_04_A_a.gif","forced_long","","2","complex_dissimilar","images/stimuli/spore_stims/complex_04_A_a.gif","","","","",""
"","null","html-keyboard-response","39","303904","0.0-13.0-0.4","SS1618435666737","","","null","","","","","","<p><img src= images/blank.png width =""600"" height = ""600"" style=""position:fixed;top:50%; left:50%; transform: translate(-50%, -50%); border:5px solid black"">","","","","","","","",""
"","684.6699999950943","sequential-stimulus-presentation-old","40","305092","0.0-13.0-1.4","SS1618435666737","trial","","40","500","1184.6699999950943","images/stimuli/spore_stims/complex_20_A_b.gif","images/stimuli/spore_stims/complex_04_A_a.gif","forced_long","","2","complex_dissimilar","images/stimuli/spore_stims/complex_04_A_a.gif","","","","",""
"","null","html-keyboard-response","41","305975","0.0-13.0-0.5","SS1618435666737","","","null","","","","","","<p><img src= images/blank.png width =""600"" height = ""600"" style=""position:fixed;top:50%; left:50%; transform: translate(-50%, -50%); border:5px solid black"">","","","","","","","",""
"","262.04000000143424","sequential-stimulus-presentation-old","42","306743","0.0-13.0-1.5","SS1618435666737","trial","","40","500","762.0400000014342","images/stimuli/spore_stims/complex_20_A_b.gif","images/stimuli/spore_stims/complex_04_A_a.gif","forced_long","","2","complex_dissimilar","images/stimuli/spore_stims/complex_04_A_a.gif","","","","",""
"","2157.275000005029","survey-multi-choice","43","308903","0.0-14.0","SS1618435666737","math_question","","","","","","","","","","","","{""Q0"":""10""}","[0]","10","",""
"","null","html-keyboard-response","44","310197","0.0-15.0-0.0","SS1618435666737","","","null","","","","","","<p><img src= images/blank.png width =""600"" height = ""600"" style=""position:fixed;top:50%; left:50%; transform: translate(-50%, -50%); border:5px solid black"">","","","","","","","",""
"","2137.8399999957765","sequential-stimulus-presentation-old","45","312840","0.0-15.0-1.0","SS1618435666737","trial","","40","500","2637.8399999957765","images/stimuli/spore_stims/complex_08_A_b.gif","images/stimuli/spore_stims/complex_18_A_a.gif","self_paced","","3","complex_dissimilar","images/stimuli/spore_stims/complex_18_A_a.gif","","","","",""
"","null","html-keyboard-response","46","313741","0.0-15.0-0.1","SS1618435666737","","","null","","","","","","<p><img src= images/blank.png width =""600"" height = ""600"" style=""position:fixed;top:50%; left:50%; transform: translate(-50%, -50%); border:5px solid black"">","","","","","","","",""
"","2093.560000001162","sequential-stimulus-presentation-old","47","316340","0.0-15.0-1.1","SS1618435666737","trial","","40","500","2593.560000001162","images/stimuli/spore_stims/complex_08_A_b.gif","images/stimuli/spore_stims/complex_18_A_a.gif","self_paced","","3","complex_dissimilar","images/stimuli/spore_stims/complex_18_A_a.gif","","","","",""
"","null","html-keyboard-response","48","317618","0.0-15.0-0.2","SS1618435666737","","","null","","","","","","<p><img src= images/blank.png width =""600"" height = ""600"" style=""position:fixed;top:50%; left:50%; transform: translate(-50%, -50%); border:5px solid black"">","","","","","","","",""
"","428.8650000016787","sequential-stimulus-presentation-old","49","318552","0.0-15.0-1.2","SS1618435666737","trial","","40","500","928.8650000016787","images/stimuli/spore_stims/complex_08_A_b.gif","images/stimuli/spore_stims/complex_18_A_a.gif","self_paced","","3","complex_dissimilar","images/stimuli/spore_stims/complex_18_A_a.gif","","","","",""
"","null","html-keyboard-response","50","319791","0.0-15.0-0.3","SS1618435666737","","","null","","","","","","<p><img src= images/blank.png width =""600"" height = ""600"" style=""position:fixed;top:50%; left:50%; transform: translate(-50%, -50%); border:5px solid black"">","","","","","","","",""
"","1576.5000000028522","sequential-stimulus-presentation-old","51","321871","0.0-15.0-1.3","SS1618435666737","trial","","40","500","2076.500000002852","images/stimuli/spore_stims/complex_08_A_b.gif","images/stimuli/spore_stims/complex_18_A_a.gif","self_paced","","3","complex_dissimilar","images/stimuli/spore_stims/complex_18_A_a.gif","","","","",""
"","null","html-keyboard-response","52","322839","0.0-15.0-0.4","SS1618435666737","","","null","","","","","","<p><img src= images/blank.png width =""600"" height = ""600"" style=""position:fixed;top:50%; left:50%; transform: translate(-50%, -50%); border:5px solid black"">","","","","","","","",""
"","1230.8999999950174","sequential-stimulus-presentation-old","53","324575","0.0-15.0-1.4","SS1618435666737","trial","","40","500","1730.8999999950174","images/stimuli/spore_stims/complex_08_A_b.gif","images/stimuli/spore_stims/complex_18_A_a.gif","self_paced","","3","complex_dissimilar","images/stimuli/spore_stims/complex_18_A_a.gif","","","","",""
"","4730.729999995674","survey-multi-choice","54","329308","0.0-16.0","SS1618435666737","math_question","","","","","","","","","","","","{""Q0"":""13""}","[0]","13","",""
"","null","html-keyboard-response","55","330421","0.0-17.0-0.0","SS1618435666737","","","null","","","","","","<p><img src= images/blank.png width =""600"" height = ""600"" style=""position:fixed;top:50%; left:50%; transform: translate(-50%, -50%); border:5px solid black"">","","","","","","","",""
"","3640.160000002652","sequential-stimulus-presentation-old","56","339070","0.0-17.0-1.0","SS1618435666737","trial","","40","500","4140.160000002652","images/stimuli/spore_stims/complex_13_A_b.gif","images/stimuli/spore_stims/complex_01_A_a.gif","forced_long","","4","complex_dissimilar","images/stimuli/spore_stims/complex_01_A_a.gif","","","","",""
"","null","html-keyboard-response","57","340040","0.0-17.0-0.1","SS1618435666737","","","null","","","","","","<p><img src= images/blank.png width =""600"" height = ""600"" style=""position:fixed;top:50%; left:50%; transform: translate(-50%, -50%); border:5px solid black"">","","","","","","","",""
"","3004.414999995788","sequential-stimulus-presentation-old","58","343553","0.0-17.0-1.1","SS1618435666737","trial","","40","500","3504.414999995788","images/stimuli/spore_stims/complex_13_A_b.gif","images/stimuli/spore_stims/complex_01_A_a.gif","forced_long","","4","complex_dissimilar","images/stimuli/spore_stims/complex_13_A_b.gif","","","","",""
"","null","html-keyboard-response","59","344806","0.0-17.0-0.2","SS1618435666737","","","null","","","","","","<p><img src= images/blank.png width =""600"" height = ""600"" style=""position:fixed;top:50%; left:50%; transform: translate(-50%, -50%); border:5px solid black"">","","","","","","","",""
"","1105.6899999966845","sequential-stimulus-presentation-old","60","346417","0.0-17.0-1.2","SS1618435666737","trial","","40","500","1605.6899999966845","images/stimuli/spore_stims/complex_13_A_b.gif","images/stimuli/spore_stims/complex_01_A_a.gif","forced_long","","4","complex_dissimilar","images/stimuli/spore_stims/complex_01_A_a.gif","","","","",""
"","null","html-keyboard-response","61","347348","0.0-17.0-0.3","SS1618435666737","","","null","","","","","","<p><img src= images/blank.png width =""600"" height = ""600"" style=""position:fixed;top:50%; left:50%; transform: translate(-50%, -50%); border:5px solid black"">","","","","","","","",""
"","3477.0250000001397","sequential-stimulus-presentation-old","62","351333","0.0-17.0-1.3","SS1618435666737","trial","","40","500","3977.0250000001397","images/stimuli/spore_stims/complex_13_A_b.gif","images/stimuli/spore_stims/complex_01_A_a.gif","forced_long","","4","complex_dissimilar","images/stimuli/spore_stims/complex_13_A_b.gif","","","","",""
"","null","html-keyboard-response","63","352338","0.0-17.0-0.4","SS1618435666737","","","null","","","","","","<p><img src= images/blank.png width =""600"" height = ""600"" style=""position:fixed;top:50%; left:50%; transform: translate(-50%, -50%); border:5px solid black"">","","","","","","","",""
"","968.1299999938346","sequential-stimulus-presentation-old","64","353813","0.0-17.0-1.4","SS1618435666737","trial","","40","500","1468.1299999938346","images/stimuli/spore_stims/complex_13_A_b.gif","images/stimuli/spore_stims/complex_01_A_a.gif","forced_long","","4","complex_dissimilar","images/stimuli/spore_stims/complex_01_A_a.gif","","","","",""
"","null","html-keyboard-response","65","354695","0.0-17.0-0.5","SS1618435666737","","","null","","","","","","<p><img src= images/blank.png width =""600"" height = ""600"" style=""position:fixed;top:50%; left:50%; transform: translate(-50%, -50%); border:5px solid black"">","","","","","","","",""
"","308.25499999627937","sequential-stimulus-presentation-old","66","355508","0.0-17.0-1.5","SS1618435666737","trial","","40","500","808.2549999962794","images/stimuli/spore_stims/complex_13_A_b.gif","images/stimuli/spore_stims/complex_01_A_a.gif","forced_long","","4","complex_dissimilar","images/stimuli/spore_stims/complex_01_A_a.gif","","","","",""
"","2858.234999999695","survey-multi-choice","67","358369","0.0-18.0","SS1618435666737","math_question","","","","","","","","","","","","{""Q0"":""16""}","[0]","16","",""
"","null","html-keyboard-response","68","359636","0.0-19.0-0.0","SS1618435666737","","","null","","","","","","<p><img src= images/blank.png width =""600"" height = ""600"" style=""position:fixed;top:50%; left:50%; transform: translate(-50%, -50%); border:5px solid black"">","","","","","","","",""
"","780.1299999991897","sequential-stimulus-presentation-old","69","360472","0.0-19.0-1.0","SS1618435666737","trial","","40","500","1280.1299999991897","images/stimuli/spore_stims/complex_20_A_a.gif","images/stimuli/spore_stims/complex_14_A_b.gif","forced_short","","5","complex_dissimilar","images/stimuli/spore_stims/complex_14_A_b.gif","","","","",""
"","null","html-keyboard-response","70","361681","0.0-19.0-0.1","SS1618435666737","","","null","","","","","","<p><img src= images/blank.png width =""600"" height = ""600"" style=""position:fixed;top:50%; left:50%; transform: translate(-50%, -50%); border:5px solid black"">","","","","","","","",""
"","902.9000000009546","sequential-stimulus-presentation-old","71","363089","0.0-19.0-1.1","SS1618435666737","trial","","40","500","1402.9000000009546","images/stimuli/spore_stims/complex_20_A_a.gif","images/stimuli/spore_stims/complex_14_A_b.gif","forced_short","","5","complex_dissimilar","images/stimuli/spore_stims/complex_14_A_b.gif","","","","",""
"","null","html-keyboard-response","72","364097","0.0-19.0-0.2","SS1618435666737","","","null","","","","","","<p><img src= images/blank.png width =""600"" height = ""600"" style=""position:fixed;top:50%; left:50%; transform: translate(-50%, -50%); border:5px solid black"">","","","","","","","",""
"","1506.4599999968777","sequential-stimulus-presentation-old","73","366107","0.0-19.0-1.2","SS1618435666737","trial","","40","500","2006.4599999968777","images/stimuli/spore_stims/complex_20_A_a.gif","images/stimuli/spore_stims/complex_14_A_b.gif","forced_short","","5","complex_dissimilar","images/stimuli/spore_stims/complex_20_A_a.gif","","","","",""
"","null","html-keyboard-response","74","366924","0.0-19.0-0.3","SS1618435666737","","","null","","","","","","<p><img src= images/blank.png width =""600"" height = ""600"" style=""position:fixed;top:50%; left:50%; transform: translate(-50%, -50%); border:5px solid black"">","","","","","","","",""
"","1622.3800000007031","sequential-stimulus-presentation-old","75","369051","0.0-19.0-1.3","SS1618435666737","trial","","40","500","2122.380000000703","images/stimuli/spore_stims/complex_20_A_a.gif","images/stimuli/spore_stims/complex_14_A_b.gif","forced_short","","5","complex_dissimilar","images/stimuli/spore_stims/complex_14_A_b.gif","","","","",""
"","null","html-keyboard-response","76","370197","0.0-19.0-0.4","SS1618435666737","","","null","","","","","","<p><img src= images/blank.png width =""600"" height = ""600"" style=""position:fixed;top:50%; left:50%; transform: translate(-50%, -50%); border:5px solid black"">","","","","","","","",""
"","1080.115000004298","sequential-stimulus-presentation-old","77","371783","0.0-19.0-1.4","SS1618435666737","trial","","40","500","1580.115000004298","images/stimuli/spore_stims/complex_20_A_a.gif","images/stimuli/spore_stims/complex_14_A_b.gif","forced_short","","5","complex_dissimilar","images/stimuli/spore_stims/complex_14_A_b.gif","","","","",""
"","null","html-keyboard-response","78","372812","0.0-19.0-0.5","SS1618435666737","","","null","","","","","","<p><img src= images/blank.png width =""600"" height = ""600"" style=""position:fixed;top:50%; left:50%; transform: translate(-50%, -50%); border:5px solid black"">","","","","","","","",""
"","1021.389999994426","sequential-stimulus-presentation-old","79","374338","0.0-19.0-1.5","SS1618435666737","trial","","40","500","1521.389999994426","images/stimuli/spore_stims/complex_20_A_a.gif","images/stimuli/spore_stims/complex_14_A_b.gif","forced_short","","5","complex_dissimilar","images/stimuli/spore_stims/complex_20_A_a.gif","","","","",""
"","3268.6849999954575","survey-multi-choice","80","377609","0.0-20.0","SS1618435666737","math_question","","","","","","","","","","","","{""Q0"":""13""}","[0]","13","",""
"","null","html-keyboard-response","81","378817","0.0-21.0-0.0","SS1618435666737","","","null","","","","","","<p><img src= images/blank.png width =""600"" height = ""600"" style=""position:fixed;top:50%; left:50%; transform: translate(-50%, -50%); border:5px solid black"">","","","","","","","",""
"","1943.9749999946798","sequential-stimulus-presentation-old","82","381265","0.0-21.0-1.0","SS1618435666737","trial","","40","500","2443.97499999468","images/stimuli/spore_stims/simple_14_A_a.gif","images/stimuli/spore_stims/simple_17_A_b.gif","self_paced","","6","simple_dissimilar","images/stimuli/spore_stims/simple_17_A_b.gif","","","","",""
"","null","html-keyboard-response","83","382308","0.0-21.0-0.1","SS1618435666737","","","null","","","","","","<p><img src= images/blank.png width =""600"" height = ""600"" style=""position:fixed;top:50%; left:50%; transform: translate(-50%, -50%); border:5px solid black"">","","","","","","","",""
"","1988.2750000033411","sequential-stimulus-presentation-old","84","384805","0.0-21.0-1.1","SS1618435666737","trial","","40","500","2488.275000003341","images/stimuli/spore_stims/simple_14_A_a.gif","images/stimuli/spore_stims/simple_17_A_b.gif","self_paced","","6","simple_dissimilar","images/stimuli/spore_stims/simple_17_A_b.gif","","","","",""
"","null","html-keyboard-response","85","385742","0.0-21.0-0.2","SS1618435666737","","","null","","","","","","<p><img src= images/blank.png width =""600"" height = ""600"" style=""position:fixed;top:50%; left:50%; transform: translate(-50%, -50%); border:5px solid black"">","","","","","","","",""
"","1678.139999996347","sequential-stimulus-presentation-old","86","387925","0.0-21.0-1.2","SS1618435666737","trial","","40","500","2178.139999996347","images/stimuli/spore_stims/simple_14_A_a.gif","images/stimuli/spore_stims/simple_17_A_b.gif","self_paced","","6","simple_dissimilar","images/stimuli/spore_stims/simple_17_A_b.gif","","","","",""
"","null","html-keyboard-response","87","388897","0.0-21.0-0.3","SS1618435666737","","","null","","","","","","<p><img src= images/blank.png width =""600"" height = ""600"" style=""position:fixed;top:50%; left:50%; transform: translate(-50%, -50%); border:5px solid black"">","","","","","","","",""
"","1571.8400000041584","sequential-stimulus-presentation-old","88","390977","0.0-21.0-1.3","SS1618435666737","trial","","40","500","2071.8400000041584","images/stimuli/spore_stims/simple_14_A_a.gif","images/stimuli/spore_stims/simple_17_A_b.gif","self_paced","","6","simple_dissimilar","images/stimuli/spore_stims/simple_14_A_a.gif","","","","",""
"","null","html-keyboard-response","89","392173","0.0-21.0-0.4","SS1618435666737","","","null","","","","","","<p><img src= images/blank.png width =""600"" height = ""600"" style=""position:fixed;top:50%; left:50%; transform: translate(-50%, -50%); border:5px solid black"">","","","","","","","",""
"","1444.2849999977625","sequential-stimulus-presentation-old","90","394123","0.0-21.0-1.4","SS1618435666737","trial","","40","500","1944.2849999977625","images/stimuli/spore_stims/simple_14_A_a.gif","images/stimuli/spore_stims/simple_17_A_b.gif","self_paced","","6","simple_dissimilar","images/stimuli/spore_stims/simple_17_A_b.gif","","","","",""
"","2523.059999999532","survey-multi-choice","91","396649","0.0-22.0","SS1618435666737","math_question","","","","","","","","","","","","{""Q0"":""14""}","[0]","14","",""
"","null","html-keyboard-response","92","397686","0.0-23.0-0.0","SS1618435666737","","","null","","","","","","<p><img src= images/blank.png width =""600"" height = ""600"" style=""position:fixed;top:50%; left:50%; transform: translate(-50%, -50%); border:5px solid black"">","","","","","","","",""
"","686.7899999997462","sequential-stimulus-presentation-old","93","403379","0.0-23.0-1.0","SS1618435666737","trial","","40","500","1186.7899999997462","images/stimuli/spore_stims/simple_10_A_b.gif","images/stimuli/spore_stims/simple_03_A_a.gif","forced_long","","7","simple_dissimilar","images/stimuli/spore_stims/simple_03_A_a.gif","","","","",""
"","null","html-keyboard-response","94","404222","0.0-23.0-0.1","SS1618435666737","","","null","","","","","","<p><img src= images/blank.png width =""600"" height = ""600"" style=""position:fixed;top:50%; left:50%; transform: translate(-50%, -50%); border:5px solid black"">","","","","","","","",""
"","1069.8800000027404","sequential-stimulus-presentation-old","95","405799","0.0-23.0-1.1","SS1618435666737","trial","","40","500","1569.8800000027404","images/stimuli/spore_stims/simple_10_A_b.gif","images/stimuli/spore_stims/simple_03_A_a.gif","forced_long","","7","simple_dissimilar","images/stimuli/spore_stims/simple_10_A_b.gif","","","","",""
"","null","html-keyboard-response","96","407079","0.0-23.0-0.2","SS1618435666737","","","null","","","","","","<p><img src= images/blank.png width =""600"" height = ""600"" style=""position:fixed;top:50%; left:50%; transform: translate(-50%, -50%); border:5px solid black"">","","","","","","","",""
"","1166.4900000032503","sequential-stimulus-presentation-old","97","408753","0.0-23.0-1.2","SS1618435666737","trial","","40","500","1666.4900000032503","images/stimuli/spore_stims/simple_10_A_b.gif","images/stimuli/spore_stims/simple_03_A_a.gif","forced_long","","7","simple_dissimilar","images/stimuli/spore_stims/simple_03_A_a.gif","","","","",""
"","null","html-keyboard-response","98","409962","0.0-23.0-0.3","SS1618435666737","","","null","","","","","","<p><img src= images/blank.png width =""600"" height = ""600"" style=""position:fixed;top:50%; left:50%; transform: translate(-50%, -50%); border:5px solid black"">","","","","","","","",""
"","24176.544999994803","sequential-stimulus-presentation-old","99","434645","0.0-23.0-1.3","SS1618435666737","trial","","40","500","24676.544999994803","images/stimuli/spore_stims/simple_10_A_b.gif","images/stimuli/spore_stims/simple_03_A_a.gif","forced_long","","7","simple_dissimilar","images/stimuli/spore_stims/simple_10_A_b.gif","","","","",""
"","5124.485000000277","survey-multi-choice","100","439773","0.0-24.0","SS1618435666737","math_question","","","","","","","","","","","","{""Q0"":""14""}","[0]","14","",""
"","null","html-keyboard-response","101","440643","0.0-25.0-0.0","SS1618435666737","","","null","","","","","","<p><img src= images/blank.png width =""600"" height = ""600"" style=""position:fixed;top:50%; left:50%; transform: translate(-50%, -50%); border:5px solid black"">","","","","","","","",""
"","1352.7949999988778","sequential-stimulus-presentation-old","102","442500","0.0-25.0-1.0","SS1618435666737","trial","","40","500","1852.7949999988778","images/stimuli/spore_stims/complex_10_A_b.gif","images/stimuli/spore_stims/complex_11_A_a.gif","self_paced","","8","complex_dissimilar","images/stimuli/spore_stims/complex_11_A_a.gif","","","","",""
"","null","html-keyboard-response","103","443549","0.0-25.0-0.1","SS1618435666737","","","null","","","","","","<p><img src= images/blank.png width =""600"" height = ""600"" style=""position:fixed;top:50%; left:50%; transform: translate(-50%, -50%); border:5px solid black"">","","","","","","","",""
"","1942.605000003823","sequential-stimulus-presentation-old","104","445996","0.0-25.0-1.1","SS1618435666737","trial","","40","500","2442.605000003823","images/stimuli/spore_stims/complex_10_A_b.gif","images/stimuli/spore_stims/complex_11_A_a.gif","self_paced","","8","complex_dissimilar","images/stimuli/spore_stims/complex_11_A_a.gif","","","","",""
"","null","html-keyboard-response","105","446957","0.0-25.0-0.2","SS1618435666737","","","null","","","","","","<p><img src= images/blank.png width =""600"" height = ""600"" style=""position:fixed;top:50%; left:50%; transform: translate(-50%, -50%); border:5px solid black"">","","","","","","","",""
"","3335.160000002361","sequential-stimulus-presentation-old","106","450800","0.0-25.0-1.2","SS1618435666737","trial","","40","500","3835.160000002361","images/stimuli/spore_stims/complex_10_A_b.gif","images/stimuli/spore_stims/complex_11_A_a.gif","self_paced","","8","complex_dissimilar","images/stimuli/spore_stims/complex_11_A_a.gif","","","","",""
"","null","html-keyboard-response","107","451729","0.0-25.0-0.3","SS1618435666737","","","null","","","","","","<p><img src= images/blank.png width =""600"" height = ""600"" style=""position:fixed;top:50%; left:50%; transform: translate(-50%, -50%); border:5px solid black"">","","","","","","","",""
"","5938.69000000268","sequential-stimulus-presentation-old","108","458171","0.0-25.0-1.3","SS1618435666737","trial","","40","500","6438.69000000268","images/stimuli/spore_stims/complex_10_A_b.gif","images/stimuli/spore_stims/complex_11_A_a.gif","self_paced","","8","complex_dissimilar","images/stimuli/spore_stims/complex_10_A_b.gif","","","","",""
"","null","html-keyboard-response","109","459228","0.0-25.0-0.4","SS1618435666737","","","null","","","","","","<p><img src= images/blank.png width =""600"" height = ""600"" style=""position:fixed;top:50%; left:50%; transform: translate(-50%, -50%); border:5px solid black"">","","","","","","","",""
"","6088.835000002291","sequential-stimulus-presentation-old","110","465824","0.0-25.0-1.4","SS1618435666737","trial","","40","500","6588.835000002291","images/stimuli/spore_stims/complex_10_A_b.gif","images/stimuli/spore_stims/complex_11_A_a.gif","self_paced","","8","complex_dissimilar","images/stimuli/spore_stims/complex_11_A_a.gif","","","","",""
"","null","html-keyboard-response","111","466942","0.0-25.0-0.5","SS1618435666737","","","null","","","","","","<p><img src= images/blank.png width =""600"" height = ""600"" style=""position:fixed;top:50%; left:50%; transform: translate(-50%, -50%); border:5px solid black"">","","","","","","","",""
"","1430.5600000006962","sequential-stimulus-presentation-old","112","468885","0.0-25.0-1.5","SS1618435666737","trial","","40","500","1930.5600000006962","images/stimuli/spore_stims/complex_10_A_b.gif","images/stimuli/spore_stims/complex_11_A_a.gif","self_paced","","8","complex_dissimilar","images/stimuli/spore_stims/complex_10_A_b.gif","","","","",""
"","2631.230000006326","survey-multi-choice","113","471523","0.0-26.0","SS1618435666737","math_question","","","","","","","","","","","","{""Q0"":""16""}","[0]","16","",""
"","null","html-keyboard-response","114","472575","0.0-27.0-0.0","SS1618435666737","","","null","","","","","","<p><img src= images/blank.png width =""600"" height = ""600"" style=""position:fixed;top:50%; left:50%; transform: translate(-50%, -50%); border:5px solid black"">","","","","","","","",""
"","876.3399999952526","sequential-stimulus-presentation-old","115","473506","0.0-27.0-1.0","SS1618435666737","trial","","40","500","1376.3399999952526","images/stimuli/spore_stims/complex_09_A_b.gif","images/stimuli/spore_stims/complex_05_A_a.gif","forced_short","","9","complex_dissimilar","images/stimuli/spore_stims/complex_05_A_a.gif","","","","",""
"","null","html-keyboard-response","116","474380","0.0-27.0-0.1","SS1618435666737","","","null","","","","","","<p><img src= images/blank.png width =""600"" height = ""600"" style=""position:fixed;top:50%; left:50%; transform: translate(-50%, -50%); border:5px solid black"">","","","","","","","",""
"","2468.78000000288","sequential-stimulus-presentation-old","117","477354","0.0-27.0-1.1","SS1618435666737","trial","","40","500","2968.78000000288","images/stimuli/spore_stims/complex_09_A_b.gif","images/stimuli/spore_stims/complex_05_A_a.gif","forced_short","","9","complex_dissimilar","images/stimuli/spore_stims/complex_05_A_a.gif","","","","",""
"","null","html-keyboard-response","118","478416","0.0-27.0-0.2","SS1618435666737","","","null","","","","","","<p><img src= images/blank.png width =""600"" height = ""600"" style=""position:fixed;top:50%; left:50%; transform: translate(-50%, -50%); border:5px solid black"">","","","","","","","",""
"","119.39999999594875","sequential-stimulus-presentation-old","119","479043","0.0-27.0-1.2","SS1618435666737","trial","","40","500","619.3999999959487","images/stimuli/spore_stims/complex_09_A_b.gif","images/stimuli/spore_stims/complex_05_A_a.gif","forced_short","","9","complex_dissimilar","images/stimuli/spore_stims/complex_05_A_a.gif","","","","",""
"","null","html-keyboard-response","120","480047","0.0-27.0-0.3","SS1618435666737","","","null","","","","","","<p><img src= images/blank.png width =""600"" height = ""600"" style=""position:fixed;top:50%; left:50%; transform: translate(-50%, -50%); border:5px solid black"">","","","","","","","",""
"","342.3650000040652","sequential-stimulus-presentation-old","121","480894","0.0-27.0-1.3","SS1618435666737","trial","","40","500","842.3650000040652","images/stimuli/spore_stims/complex_09_A_b.gif","images/stimuli/spore_stims/complex_05_A_a.gif","forced_short","","9","complex_dissimilar","images/stimuli/spore_stims/complex_05_A_a.gif","","","","",""
"","null","html-keyboard-response","122","481730","0.0-27.0-0.4","SS1618435666737","","","null","","","","","","<p><img src= images/blank.png width =""600"" height = ""600"" style=""position:fixed;top:50%; left:50%; transform: translate(-50%, -50%); border:5px solid black"">","","","","","","","",""
"","171.4399999982561","sequential-stimulus-presentation-old","123","482408","0.0-27.0-1.4","SS1618435666737","trial","","40","500","671.4399999982561","images/stimuli/spore_stims/complex_09_A_b.gif","images/stimuli/spore_stims/complex_05_A_a.gif","forced_short","","9","complex_dissimilar","images/stimuli/spore_stims/complex_05_A_a.gif","","","","",""
"","null","html-keyboard-response","124","483544","0.0-27.0-0.5","SS1618435666737","","","null","","","","","","<p><img src= images/blank.png width =""600"" height = ""600"" style=""position:fixed;top:50%; left:50%; transform: translate(-50%, -50%); border:5px solid black"">","","","","","","","",""
"","1065.230000000156","sequential-stimulus-presentation-old","125","485113","0.0-27.0-1.5","SS1618435666737","trial","","40","500","1565.230000000156","images/stimuli/spore_stims/complex_09_A_b.gif","images/stimuli/spore_stims/complex_05_A_a.gif","forced_short","","9","complex_dissimilar","images/stimuli/spore_stims/complex_05_A_a.gif","","","","",""
"","6203.355000005104","survey-multi-choice","126","491320","0.0-28.0","SS1618435666737","math_question","","","","","","","","","","","","{""Q0"":""17""}","[0]","17","",""
"","null","html-keyboard-response","127","492204","0.0-29.0-0.0","SS1618435666737","","","null","","","","","","<p><img src= images/blank.png width =""600"" height = ""600"" style=""position:fixed;top:50%; left:50%; transform: translate(-50%, -50%); border:5px solid black"">","","","","","","","",""
"","1369.8650000005728","sequential-stimulus-presentation-old","128","493629","0.0-29.0-1.0","SS1618435666737","trial","","40","500","1869.8650000005728","images/stimuli/spore_stims/simple_09_A_a.gif","images/stimuli/spore_stims/simple_13_A_b.gif","forced_short","","10","simple_dissimilar","images/stimuli/spore_stims/simple_13_A_b.gif","","","","",""
"","null","html-keyboard-response","129","494433","0.0-29.0-0.1","SS1618435666737","","","null","","","","","","<p><img src= images/blank.png width =""600"" height = ""600"" style=""position:fixed;top:50%; left:50%; transform: translate(-50%, -50%); border:5px solid black"">","","","","","","","",""
"","82.76499999919906","sequential-stimulus-presentation-old","130","495020","0.0-29.0-1.1","SS1618435666737","trial","","40","500","582.7649999991991","images/stimuli/spore_stims/simple_09_A_a.gif","images/stimuli/spore_stims/simple_13_A_b.gif","forced_short","","10","simple_dissimilar","images/stimuli/spore_stims/simple_13_A_b.gif","","","","",""
"","null","html-keyboard-response","131","496157","0.0-29.0-0.2","SS1618435666737","","","null","","","","","","<p><img src= images/blank.png width =""600"" height = ""600"" style=""position:fixed;top:50%; left:50%; transform: translate(-50%, -50%); border:5px solid black"">","","","","","","","",""
"","4676.895000004151","sequential-stimulus-presentation-old","132","501337","0.0-29.0-1.2","SS1618435666737","trial","","40","500","5176.895000004151","images/stimuli/spore_stims/simple_09_A_a.gif","images/stimuli/spore_stims/simple_13_A_b.gif","forced_short","","10","simple_dissimilar","images/stimuli/spore_stims/simple_13_A_b.gif","","","","",""
"","null","html-keyboard-response","133","502474","0.0-29.0-0.3","SS1618435666737","","","null","","","","","","<p><img src= images/blank.png width =""600"" height = ""600"" style=""position:fixed;top:50%; left:50%; transform: translate(-50%, -50%); border:5px solid black"">","","","","","","","",""
"","1395.5199999982142","sequential-stimulus-presentation-old","134","504375","0.0-29.0-1.3","SS1618435666737","trial","","40","500","1895.5199999982142","images/stimuli/spore_stims/simple_09_A_a.gif","images/stimuli/spore_stims/simple_13_A_b.gif","forced_short","","10","simple_dissimilar","images/stimuli/spore_stims/simple_13_A_b.gif","","","","",""
"","null","html-keyboard-response","135","505195","0.0-29.0-0.4","SS1618435666737","","","null","","","","","","<p><img src= images/blank.png width =""600"" height = ""600"" style=""position:fixed;top:50%; left:50%; transform: translate(-50%, -50%); border:5px solid black"">","","","","","","","",""
"","1758.6999999984982","sequential-stimulus-presentation-old","136","507462","0.0-29.0-1.4","SS1618435666737","trial","","40","500","2258.6999999984982","images/stimuli/spore_stims/simple_09_A_a.gif","images/stimuli/spore_stims/simple_13_A_b.gif","forced_short","","10","simple_dissimilar","images/stimuli/spore_stims/simple_13_A_b.gif","","","","",""
"","null","html-keyboard-response","137","508477","0.0-29.0-0.5","SS1618435666737","","","null","","","","","","<p><img src= images/blank.png width =""600"" height = ""600"" style=""position:fixed;top:50%; left:50%; transform: translate(-50%, -50%); border:5px solid black"">","","","","","","","",""
"","4582.360000000335","sequential-stimulus-presentation-old","138","513567","0.0-29.0-1.5","SS1618435666737","trial","","40","500","5082.360000000335","images/stimuli/spore_stims/simple_09_A_a.gif","images/stimuli/spore_stims/simple_13_A_b.gif","forced_short","","10","simple_dissimilar","images/stimuli/spore_stims/simple_09_A_a.gif","","","","",""
"","2127.4300000004005","survey-multi-choice","139","515697","0.0-30.0","SS1618435666737","math_question","","","","","","","","","","","","{""Q0"":""7""}","[0]","7","",""
"","null","html-keyboard-response","140","516569","0.0-31.0-0.0","SS1618435666737","","","null","","","","","","<p><img src= images/blank.png width =""600"" height = ""600"" style=""position:fixed;top:50%; left:50%; transform: translate(-50%, -50%); border:5px solid black"">","","","","","","","",""
"","7806.160000000033","sequential-stimulus-presentation-old","141","529382","0.0-31.0-1.0","SS1618435666737","trial","","40","500","8306.160000000033","images/stimuli/spore_stims/simple_04_A_b.gif","images/stimuli/spore_stims/simple_01_A_a.gif","forced_long","","11","simple_dissimilar","images/stimuli/spore_stims/simple_01_A_a.gif","","","","",""
"","null","html-keyboard-response","142","530286","0.0-31.0-0.1","SS1618435666737","","","null","","","","","","<p><img src= images/blank.png width =""600"" height = ""600"" style=""position:fixed;top:50%; left:50%; transform: translate(-50%, -50%); border:5px solid black"">","","","","","","","",""
"","3272.174999998184","sequential-stimulus-presentation-old","143","534065","0.0-31.0-1.1","SS1618435666737","trial","","40","500","3772.174999998184","images/stimuli/spore_stims/simple_04_A_b.gif","images/stimuli/spore_stims/simple_01_A_a.gif","forced_long","","11","simple_dissimilar","images/stimuli/spore_stims/simple_04_A_b.gif","","","","",""
"","null","html-keyboard-response","144","535671","0.0-31.0-0.2","SS1618435666737","","","null","","","","","","<p><img src= images/blank.png width =""600"" height = ""600"" style=""position:fixed;top:50%; left:50%; transform: translate(-50%, -50%); border:5px solid black"">","","","","","","","",""
"","23453.905000002123","sequential-stimulus-presentation-old","145","560124","0.0-31.0-1.2","SS1618435666737","trial","","40","500","23953.905000002123","images/stimuli/spore_stims/simple_04_A_b.gif","images/stimuli/spore_stims/simple_01_A_a.gif","forced_long","","11","simple_dissimilar","images/stimuli/spore_stims/simple_01_A_a.gif","","","","",""
"","null","html-keyboard-response","146","561084","0.0-31.0-0.3","SS1618435666737","","","null","","","","","","<p><img src= images/blank.png width =""600"" height = ""600"" style=""position:fixed;top:50%; left:50%; transform: translate(-50%, -50%); border:5px solid black"">","","","","","","","",""
"","125.76999999873806","sequential-stimulus-presentation-old","147","561716","0.0-31.0-1.3","SS1618435666737","trial","","40","500","625.7699999987381","images/stimuli/spore_stims/simple_04_A_b.gif","images/stimuli/spore_stims/simple_01_A_a.gif","forced_long","","11","simple_dissimilar","images/stimuli/spore_stims/simple_01_A_a.gif","","","","",""
"[{""page_index"":0,""viewing_time"":5056.969999997877}]","5057.24000000197","instructions","148","566776","0.0-32.0","SS1618435666737","instructions","","","","","","","","","","","","","","","",""
"","13829.335000002175","survey-likert","149","580610","0.0-33.0","SS1618435666737","similarity_question","","","","","","","","","","","","{""Q0"":4}","[0]","","images/stimuli/spore_stims/simple_20_A_a.gif","images/stimuli/spore_stims/simple_16_A_b.gif"
"","3832.764999999199","survey-likert","150","584447","0.0-34.0","SS1618435666737","similarity_question","","","","","","","","","","","","{""Q0"":6}","[0]","","images/stimuli/spore_stims/simple_03_A_a.gif","images/stimuli/spore_stims/simple_10_A_b.gif"
"","3007.1449999958277","survey-likert","151","587463","0.0-35.0","SS1618435666737","similarity_question","","","","","","","","","","","","{""Q0"":1}","[0]","","images/stimuli/spore_stims/complex_01_A_a.gif","images/stimuli/spore_stims/complex_13_A_b.gif"
"","3048.334999999497","survey-likert","152","590517","0.0-36.0","SS1618435666737","similarity_question","","","","","","","","","","","","{""Q0"":5}","[0]","","images/stimuli/spore_stims/simple_17_A_b.gif","images/stimuli/spore_stims/simple_14_A_a.gif"
"","2364.500000003376","survey-likert","153","592888","0.0-37.0","SS1618435666737","similarity_question","","","","","","","","","","","","{""Q0"":1}","[0]","","images/stimuli/spore_stims/complex_11_A_a.gif","images/stimuli/spore_stims/complex_10_A_b.gif"
"","2149.0550000017975","survey-likert","154","595043","0.0-38.0","SS1618435666737","similarity_question","","","","","","","","","","","","{""Q0"":6}","[0]","","images/stimuli/spore_stims/simple_09_A_a.gif","images/stimuli/spore_stims/simple_13_A_b.gif"
"","2842.8899999998976","survey-likert","155","597890","0.0-39.0","SS1618435666737","similarity_question","","","","","","","","","","","","{""Q0"":5}","[0]","","images/stimuli/spore_stims/simple_15_A_a.gif","images/stimuli/spore_stims/simple_08_A_b.gif"
"","2595.6650000007357","survey-likert","156","600493","0.0-40.0","SS1618435666737","similarity_question","","","","","","","","","","","","{""Q0"":2}","[0]","","images/stimuli/spore_stims/complex_08_A_b.gif","images/stimuli/spore_stims/complex_18_A_a.gif"
"","6926.829999996582","survey-likert","157","607425","0.0-41.0","SS1618435666737","similarity_question","","","","","","","","","","","","{""Q0"":0}","[0]","","images/stimuli/spore_stims/complex_05_A_a.gif","images/stimuli/spore_stims/complex_09_A_b.gif"
"","2262.2449999980163","survey-likert","158","609694","0.0-42.0","SS1618435666737","similarity_question","","","","","","","","","","","","{""Q0"":0}","[0]","","images/stimuli/spore_stims/complex_04_A_a.gif","images/stimuli/spore_stims/complex_20_A_b.gif"
"","3700.125000003027","survey-likert","159","613398","0.0-43.0","SS1618435666737","similarity_question","","","","","","","","","","","","{""Q0"":2}","[0]","","images/stimuli/spore_stims/simple_04_A_b.gif","images/stimuli/spore_stims/simple_01_A_a.gif"
"","2571.8600000037113","survey-likert","160","615980","0.0-44.0","SS1618435666737","similarity_question","","","","","","","","","","","","{""Q0"":1}","[0]","","images/stimuli/spore_stims/complex_14_A_b.gif","images/stimuli/spore_stims/complex_20_A_a.gif"
"[{""page_index"":0,""viewing_time"":3771.1699999999255}]","3771.659999998519","instructions","161","619757","0.0-45.0","SS1618435666737","instructions","","","","","","","","","","","","","","","",""
"","4327.579999997513","survey-likert","162","624090","0.0-46.0","SS1618435666737","","","","","","","","","images/stimuli/spore_stims/simple_10_A_b.gif","","","","{""Q0"":0}","[0]","","",""
"","2789.9899999974295","survey-likert","163","626888","0.0-47.0","SS1618435666737","","","","","","","","","images/stimuli/spore_stims/complex_08_A_b.gif","","","","{""Q0"":5}","[0]","","",""
"","1821.500000005588","survey-likert","164","628714","0.0-48.0","SS1618435666737","","","","","","","","","images/stimuli/spore_stims/complex_11_A_a.gif","","","","{""Q0"":4}","[0]","","",""
"","2918.0400000039954","survey-likert","165","631638","0.0-49.0","SS1618435666737","","","","","","","","","images/stimuli/spore_stims/simple_04_A_b.gif","","","","{""Q0"":1}","[0]","","",""
"","1350.4500000053085","survey-likert","166","632994","0.0-50.0","SS1618435666737","","","","","","","","","images/stimuli/spore_stims/simple_14_A_a.gif","","","","{""Q0"":0}","[0]","","",""
"","3262.514999995008","survey-likert","167","636260","0.0-51.0","SS1618435666737","","","","","","","","","images/stimuli/spore_stims/complex_20_A_b.gif","","","","{""Q0"":5}","[0]","","",""
"","3322.789999998291","survey-likert","168","639589","0.0-52.0","SS1618435666737","","","","","","","","","images/stimuli/spore_stims/complex_13_A_b.gif","","","","{""Q0"":5}","[0]","","",""
"","1945.0849999992643","survey-likert","169","641542","0.0-53.0","SS1618435666737","","","","","","","","","images/stimuli/spore_stims/simple_13_A_b.gif","","","","{""Q0"":0}","[0]","","",""
"","2003.8449999992736","survey-likert","170","643550","0.0-54.0","SS1618435666737","","","","","","","","","images/stimuli/spore_stims/complex_05_A_a.gif","","","","{""Q0"":5}","[0]","","",""
"","1559.1399999975692","survey-likert","171","645114","0.0-55.0","SS1618435666737","","","","","","","","","images/stimuli/spore_stims/simple_15_A_a.gif","","","","{""Q0"":0}","[0]","","",""
"","3416.6049999985844","survey-likert","172","648537","0.0-56.0","SS1618435666737","","","","","","","","","images/stimuli/spore_stims/complex_14_A_b.gif","","","","{""Q0"":6}","[0]","","",""
"","1635.1999999969266","survey-likert","173","650180","0.0-57.0","SS1618435666737","","","","","","","","","images/stimuli/spore_stims/simple_16_A_b.gif","","","","{""Q0"":1}","[0]","","",""
"[{""page_index"":0,""viewing_time"":1729.4400000028545}]","1729.879999998957","instructions","174","651914","0.0-58.0","SS1618435666737","instructions","","","","","","","","","","","","","","","",""
"","2938.9250000022585","demog-age","175","654868","0.0-59.0","SS1618435666737","","","","","","","","","","","","","{""age"":""23""}","","","",""
"","6416.290000001085","demog-ethnic-US","176","661294","0.0-60.0","SS1618435666737","","","","","","","","","","","","","{""ethnicity"":[""White""]}","[0]","","",""
"","13561.580000001355","demog-gender-and-education","177","674860","0.0-61.0","SS1618435666737","","","","","","","","","","","","","{""gender"":""Male"",""education"":""Associate Degree/Technical certification""}","[0,1]","","",""
"","10700.860000004526","survey-text","178","685575","0.0-62.0","SS1618435666737","feedback","","","","","","","","","","","","{""Q0"":""No, everything was perfect :)""}","","","",""
"[{""page_index"":0,""viewing_time"":2960.3849999986123}]","2961.1349999977974","instructions","179","688540","0.0-63.0","SS1618435666737","instructions","","","","","","","","","","","","","","","",""
