"view_history","rt","trial_type","trial_index","time_elapsed","internal_node_id","subject","stimulus_type","trial_stimulus","key_press","minimum_viewing_duration","trial_looking_time","block_deviant","block_background","exposure_type","stimulus","block_number","block_type","stimulus_displayed","responses","question_order","math_correct_answer","stimulus_left","stimulus_right"
"[{""page_index"":0,""viewing_time"":47470}]","47471","instructions","0","47473","0.0-0.0","SS1618006451245","","","","","","","","","","","","","","","","",""
"[{""page_index"":0,""viewing_time"":18801},{""page_index"":1,""viewing_time"":8285}]","27086","instructions","1","76571","0.0-1.0","SS1618006451245","instructions","","","","","","","","","","","","","","","",""
"","8367","sequential-stimulus-presentation-old","2","85456","0.0-2.0","SS1618006451245","","","40","500","8867","null","null","self_paced","","","","","","","","",""
"","6925","sequential-stimulus-presentation-old","3","92885","0.0-3.0","SS1618006451245","","","40","500","7425","null","null","self_paced","","","","","","","","",""
"[{""page_index"":0,""viewing_time"":46674}]","46674","instructions","4","139561","0.0-4.0","SS1618006451245","instructions","","","","","","","","","","","","","","","",""
"","4980","sequential-stimulus-presentation-old","5","149559","0.0-5.0","SS1618006451245","","","40","500","5480","null","null","forced_long","","","","","","","","",""
"","5589","sequential-stimulus-presentation-old","6","155205","0.0-6.0","SS1618006451245","","","40","50","5639","null","null","forced_long","","","","","","","","",""
"[{""page_index"":0,""viewing_time"":6896}]","6897","instructions","7","162102","0.0-7.0","SS1618006451245","instructions","","","","","","","","","","","","","","","",""
"[{""page_index"":0,""viewing_time"":7808},{""page_index"":1,""viewing_time"":23316},{""page_index"":2,""viewing_time"":7210},{""page_index"":3,""viewing_time"":2158},{""page_index"":4,""viewing_time"":1300}]","41792","instructions","8","203896","0.0-8.0","SS1618006451245","instructions","","","","","","","","","","","","","","","",""
"","null","html-keyboard-response","9","204912","0.0-9.0-0.0","SS1618006451245","","","null","","","","","","<p><img src= images/blank.png width =""600"" height = ""600"" style=""position:fixed;top:50%; left:50%; transform: translate(-50%, -50%); border:5px solid black"">","","","","","","","",""
"","1263","sequential-stimulus-presentation-old","10","211179","0.0-9.0-1.0","SS1618006451245","trial","","40","500","1763","images/stimuli/spore_stims/simple_07_A_b.gif","images/stimuli/spore_stims/simple_03_A_a.gif","forced_long","","0","simple_dissimilar","images/stimuli/spore_stims/simple_03_A_a.gif","","","","",""
"","null","html-keyboard-response","11","212279","0.0-9.0-0.1","SS1618006451245","","","null","","","","","","<p><img src= images/blank.png width =""600"" height = ""600"" style=""position:fixed;top:50%; left:50%; transform: translate(-50%, -50%); border:5px solid black"">","","","","","","","",""
"","10300","sequential-stimulus-presentation-old","12","223096","0.0-9.0-1.1","SS1618006451245","trial","","40","500","10800","images/stimuli/spore_stims/simple_07_A_b.gif","images/stimuli/spore_stims/simple_03_A_a.gif","forced_long","","0","simple_dissimilar","images/stimuli/spore_stims/simple_07_A_b.gif","","","","",""
"","null","html-keyboard-response","13","223942","0.0-9.0-0.2","SS1618006451245","","","null","","","","","","<p><img src= images/blank.png width =""600"" height = ""600"" style=""position:fixed;top:50%; left:50%; transform: translate(-50%, -50%); border:5px solid black"">","","","","","","","",""
"","9319","sequential-stimulus-presentation-old","14","233779","0.0-9.0-1.2","SS1618006451245","trial","","40","500","9819","images/stimuli/spore_stims/simple_07_A_b.gif","images/stimuli/spore_stims/simple_03_A_a.gif","forced_long","","0","simple_dissimilar","images/stimuli/spore_stims/simple_07_A_b.gif","","","","",""
"","null","html-keyboard-response","15","235063","0.0-9.0-0.3","SS1618006451245","","","null","","","","","","<p><img src= images/blank.png width =""600"" height = ""600"" style=""position:fixed;top:50%; left:50%; transform: translate(-50%, -50%); border:5px solid black"">","","","","","","","",""
"","6048","sequential-stimulus-presentation-old","16","241623","0.0-9.0-1.3","SS1618006451245","trial","","40","500","6548","images/stimuli/spore_stims/simple_07_A_b.gif","images/stimuli/spore_stims/simple_03_A_a.gif","forced_long","","0","simple_dissimilar","images/stimuli/spore_stims/simple_03_A_a.gif","","","","",""
"","7130","survey-multi-choice","17","248753","0.0-10.0","SS1618006451245","math_question","","","","","","","","","","","","{""Q0"":""9""}","[0]","9","",""
"","null","html-keyboard-response","18","249734","0.0-11.0-0.0","SS1618006451245","","","null","","","","","","<p><img src= images/blank.png width =""600"" height = ""600"" style=""position:fixed;top:50%; left:50%; transform: translate(-50%, -50%); border:5px solid black"">","","","","","","","",""
"","9995","sequential-stimulus-presentation-old","19","260234","0.0-11.0-1.0","SS1618006451245","trial","","40","500","10495","images/stimuli/spore_stims/simple_10_A_b.gif","images/stimuli/spore_stims/simple_09_A_a.gif","self_paced","","1","simple_dissimilar","images/stimuli/spore_stims/simple_09_A_a.gif","","","","",""
"","null","html-keyboard-response","20","261413","0.0-11.0-0.1","SS1618006451245","","","null","","","","","","<p><img src= images/blank.png width =""600"" height = ""600"" style=""position:fixed;top:50%; left:50%; transform: translate(-50%, -50%); border:5px solid black"">","","","","","","","",""
"","7185","sequential-stimulus-presentation-old","21","269114","0.0-11.0-1.1","SS1618006451245","trial","","40","500","7685","images/stimuli/spore_stims/simple_10_A_b.gif","images/stimuli/spore_stims/simple_09_A_a.gif","self_paced","","1","simple_dissimilar","images/stimuli/spore_stims/simple_09_A_a.gif","","","","",""
"","null","html-keyboard-response","22","270172","0.0-11.0-0.2","SS1618006451245","","","null","","","","","","<p><img src= images/blank.png width =""600"" height = ""600"" style=""position:fixed;top:50%; left:50%; transform: translate(-50%, -50%); border:5px solid black"">","","","","","","","",""
"","1217","sequential-stimulus-presentation-old","23","271901","0.0-11.0-1.2","SS1618006451245","trial","","40","500","1717","images/stimuli/spore_stims/simple_10_A_b.gif","images/stimuli/spore_stims/simple_09_A_a.gif","self_paced","","1","simple_dissimilar","images/stimuli/spore_stims/simple_09_A_a.gif","","","","",""
"","null","html-keyboard-response","24","272974","0.0-11.0-0.3","SS1618006451245","","","null","","","","","","<p><img src= images/blank.png width =""600"" height = ""600"" style=""position:fixed;top:50%; left:50%; transform: translate(-50%, -50%); border:5px solid black"">","","","","","","","",""
"","6202","sequential-stimulus-presentation-old","25","279689","0.0-11.0-1.3","SS1618006451245","trial","","40","500","6702","images/stimuli/spore_stims/simple_10_A_b.gif","images/stimuli/spore_stims/simple_09_A_a.gif","self_paced","","1","simple_dissimilar","images/stimuli/spore_stims/simple_09_A_a.gif","","","","",""
"","null","html-keyboard-response","26","280534","0.0-11.0-0.4","SS1618006451245","","","null","","","","","","<p><img src= images/blank.png width =""600"" height = ""600"" style=""position:fixed;top:50%; left:50%; transform: translate(-50%, -50%); border:5px solid black"">","","","","","","","",""
"","9248","sequential-stimulus-presentation-old","27","290290","0.0-11.0-1.4","SS1618006451245","trial","","40","500","9748","images/stimuli/spore_stims/simple_10_A_b.gif","images/stimuli/spore_stims/simple_09_A_a.gif","self_paced","","1","simple_dissimilar","images/stimuli/spore_stims/simple_09_A_a.gif","","","","",""
"","null","html-keyboard-response","28","291476","0.0-11.0-0.5","SS1618006451245","","","null","","","","","","<p><img src= images/blank.png width =""600"" height = ""600"" style=""position:fixed;top:50%; left:50%; transform: translate(-50%, -50%); border:5px solid black"">","","","","","","","",""
"","4513","sequential-stimulus-presentation-old","29","296501","0.0-11.0-1.5","SS1618006451245","trial","","40","500","5013","images/stimuli/spore_stims/simple_10_A_b.gif","images/stimuli/spore_stims/simple_09_A_a.gif","self_paced","","1","simple_dissimilar","images/stimuli/spore_stims/simple_09_A_a.gif","","","","",""
"","3004","survey-multi-choice","30","299507","0.0-12.0","SS1618006451245","math_question","","","","","","","","","","","","{""Q0"":""12""}","[0]","12","",""
"","null","html-keyboard-response","31","300785","0.0-13.0-0.0","SS1618006451245","","","null","","","","","","<p><img src= images/blank.png width =""600"" height = ""600"" style=""position:fixed;top:50%; left:50%; transform: translate(-50%, -50%); border:5px solid black"">","","","","","","","",""
"","25615","sequential-stimulus-presentation-old","32","326464","0.0-13.0-1.0","SS1618006451245","trial","","40","500","26115","images/stimuli/spore_stims/simple_13_A_b.gif","images/stimuli/spore_stims/simple_20_A_a.gif","forced_short","","2","simple_dissimilar","images/stimuli/spore_stims/simple_20_A_a.gif","","","","",""
"","null","html-keyboard-response","33","327656","0.0-13.0-0.1","SS1618006451245","","","null","","","","","","<p><img src= images/blank.png width =""600"" height = ""600"" style=""position:fixed;top:50%; left:50%; transform: translate(-50%, -50%); border:5px solid black"">","","","","","","","",""
"","13196","sequential-stimulus-presentation-old","34","341365","0.0-13.0-1.1","SS1618006451245","trial","","40","500","13696","images/stimuli/spore_stims/simple_13_A_b.gif","images/stimuli/spore_stims/simple_20_A_a.gif","forced_short","","2","simple_dissimilar","images/stimuli/spore_stims/simple_20_A_a.gif","","","","",""
"","null","html-keyboard-response","35","342597","0.0-13.0-0.2","SS1618006451245","","","null","","","","","","<p><img src= images/blank.png width =""600"" height = ""600"" style=""position:fixed;top:50%; left:50%; transform: translate(-50%, -50%); border:5px solid black"">","","","","","","","",""
"","8488","sequential-stimulus-presentation-old","36","351598","0.0-13.0-1.2","SS1618006451245","trial","","40","500","8988","images/stimuli/spore_stims/simple_13_A_b.gif","images/stimuli/spore_stims/simple_20_A_a.gif","forced_short","","2","simple_dissimilar","images/stimuli/spore_stims/simple_20_A_a.gif","","","","",""
"","null","html-keyboard-response","37","352844","0.0-13.0-0.3","SS1618006451245","","","null","","","","","","<p><img src= images/blank.png width =""600"" height = ""600"" style=""position:fixed;top:50%; left:50%; transform: translate(-50%, -50%); border:5px solid black"">","","","","","","","",""
"","13997","sequential-stimulus-presentation-old","38","367355","0.0-13.0-1.3","SS1618006451245","trial","","40","500","14497","images/stimuli/spore_stims/simple_13_A_b.gif","images/stimuli/spore_stims/simple_20_A_a.gif","forced_short","","2","simple_dissimilar","images/stimuli/spore_stims/simple_20_A_a.gif","","","","",""
"","null","html-keyboard-response","39","368243","0.0-13.0-0.4","SS1618006451245","","","null","","","","","","<p><img src= images/blank.png width =""600"" height = ""600"" style=""position:fixed;top:50%; left:50%; transform: translate(-50%, -50%); border:5px solid black"">","","","","","","","",""
"","5771","sequential-stimulus-presentation-old","40","374527","0.0-13.0-1.4","SS1618006451245","trial","","40","500","6271","images/stimuli/spore_stims/simple_13_A_b.gif","images/stimuli/spore_stims/simple_20_A_a.gif","forced_short","","2","simple_dissimilar","images/stimuli/spore_stims/simple_20_A_a.gif","","","","",""
"","null","html-keyboard-response","41","375679","0.0-13.0-0.5","SS1618006451245","","","null","","","","","","<p><img src= images/blank.png width =""600"" height = ""600"" style=""position:fixed;top:50%; left:50%; transform: translate(-50%, -50%); border:5px solid black"">","","","","","","","",""
"","7835","sequential-stimulus-presentation-old","42","384026","0.0-13.0-1.5","SS1618006451245","trial","","40","500","8335","images/stimuli/spore_stims/simple_13_A_b.gif","images/stimuli/spore_stims/simple_20_A_a.gif","forced_short","","2","simple_dissimilar","images/stimuli/spore_stims/simple_13_A_b.gif","","","","",""
"","2995","survey-multi-choice","43","387022","0.0-14.0","SS1618006451245","math_question","","","","","","","","","","","","{""Q0"":""11""}","[0]","11","",""
"","null","html-keyboard-response","44","388306","0.0-15.0-0.0","SS1618006451245","","","null","","","","","","<p><img src= images/blank.png width =""600"" height = ""600"" style=""position:fixed;top:50%; left:50%; transform: translate(-50%, -50%); border:5px solid black"">","","","","","","","",""
"","2282","sequential-stimulus-presentation-old","45","390651","0.0-15.0-1.0","SS1618006451245","trial","","40","500","2782","images/stimuli/spore_stims/complex_18_A_a.gif","images/stimuli/spore_stims/complex_11_A_b.gif","forced_short","","3","complex_dissimilar","images/stimuli/spore_stims/complex_11_A_b.gif","","","","",""
"","null","html-keyboard-response","46","391901","0.0-15.0-0.1","SS1618006451245","","","null","","","","","","<p><img src= images/blank.png width =""600"" height = ""600"" style=""position:fixed;top:50%; left:50%; transform: translate(-50%, -50%); border:5px solid black"">","","","","","","","",""
"","4112","sequential-stimulus-presentation-old","47","396527","0.0-15.0-1.1","SS1618006451245","trial","","40","500","4612","images/stimuli/spore_stims/complex_18_A_a.gif","images/stimuli/spore_stims/complex_11_A_b.gif","forced_short","","3","complex_dissimilar","images/stimuli/spore_stims/complex_18_A_a.gif","","","","",""
"","null","html-keyboard-response","48","397372","0.0-15.0-0.2","SS1618006451245","","","null","","","","","","<p><img src= images/blank.png width =""600"" height = ""600"" style=""position:fixed;top:50%; left:50%; transform: translate(-50%, -50%); border:5px solid black"">","","","","","","","",""
"","4182","sequential-stimulus-presentation-old","49","402068","0.0-15.0-1.2","SS1618006451245","trial","","40","500","4682","images/stimuli/spore_stims/complex_18_A_a.gif","images/stimuli/spore_stims/complex_11_A_b.gif","forced_short","","3","complex_dissimilar","images/stimuli/spore_stims/complex_18_A_a.gif","","","","",""
"","null","html-keyboard-response","50","402910","0.0-15.0-0.3","SS1618006451245","","","null","","","","","","<p><img src= images/blank.png width =""600"" height = ""600"" style=""position:fixed;top:50%; left:50%; transform: translate(-50%, -50%); border:5px solid black"">","","","","","","","",""
"","14034","sequential-stimulus-presentation-old","51","417457","0.0-15.0-1.3","SS1618006451245","trial","","40","500","14534","images/stimuli/spore_stims/complex_18_A_a.gif","images/stimuli/spore_stims/complex_11_A_b.gif","forced_short","","3","complex_dissimilar","images/stimuli/spore_stims/complex_11_A_b.gif","","","","",""
"","null","html-keyboard-response","52","418487","0.0-15.0-0.4","SS1618006451245","","","null","","","","","","<p><img src= images/blank.png width =""600"" height = ""600"" style=""position:fixed;top:50%; left:50%; transform: translate(-50%, -50%); border:5px solid black"">","","","","","","","",""
"","4053","sequential-stimulus-presentation-old","53","423053","0.0-15.0-1.4","SS1618006451245","trial","","40","500","4553","images/stimuli/spore_stims/complex_18_A_a.gif","images/stimuli/spore_stims/complex_11_A_b.gif","forced_short","","3","complex_dissimilar","images/stimuli/spore_stims/complex_11_A_b.gif","","","","",""
"","3078","survey-multi-choice","54","426132","0.0-16.0","SS1618006451245","math_question","","","","","","","","","","","","{""Q0"":""17""}","[0]","17","",""
"","null","html-keyboard-response","55","427098","0.0-17.0-0.0","SS1618006451245","","","null","","","","","","<p><img src= images/blank.png width =""600"" height = ""600"" style=""position:fixed;top:50%; left:50%; transform: translate(-50%, -50%); border:5px solid black"">","","","","","","","",""
"","4279","sequential-stimulus-presentation-old","56","431890","0.0-17.0-1.0","SS1618006451245","trial","","40","500","4779","images/stimuli/spore_stims/simple_07_A_a.gif","images/stimuli/spore_stims/simple_01_A_b.gif","self_paced","","4","simple_dissimilar","images/stimuli/spore_stims/simple_01_A_b.gif","","","","",""
"","null","html-keyboard-response","57","432837","0.0-17.0-0.1","SS1618006451245","","","null","","","","","","<p><img src= images/blank.png width =""600"" height = ""600"" style=""position:fixed;top:50%; left:50%; transform: translate(-50%, -50%); border:5px solid black"">","","","","","","","",""
"","5469","sequential-stimulus-presentation-old","58","438810","0.0-17.0-1.1","SS1618006451245","trial","","40","500","5969","images/stimuli/spore_stims/simple_07_A_a.gif","images/stimuli/spore_stims/simple_01_A_b.gif","self_paced","","4","simple_dissimilar","images/stimuli/spore_stims/simple_01_A_b.gif","","","","",""
"","null","html-keyboard-response","59","439628","0.0-17.0-0.2","SS1618006451245","","","null","","","","","","<p><img src= images/blank.png width =""600"" height = ""600"" style=""position:fixed;top:50%; left:50%; transform: translate(-50%, -50%); border:5px solid black"">","","","","","","","",""
"","2597","sequential-stimulus-presentation-old","60","442741","0.0-17.0-1.2","SS1618006451245","trial","","40","500","3097","images/stimuli/spore_stims/simple_07_A_a.gif","images/stimuli/spore_stims/simple_01_A_b.gif","self_paced","","4","simple_dissimilar","images/stimuli/spore_stims/simple_01_A_b.gif","","","","",""
"","null","html-keyboard-response","61","443568","0.0-17.0-0.3","SS1618006451245","","","null","","","","","","<p><img src= images/blank.png width =""600"" height = ""600"" style=""position:fixed;top:50%; left:50%; transform: translate(-50%, -50%); border:5px solid black"">","","","","","","","",""
"","2317","sequential-stimulus-presentation-old","62","446400","0.0-17.0-1.3","SS1618006451245","trial","","40","500","2817","images/stimuli/spore_stims/simple_07_A_a.gif","images/stimuli/spore_stims/simple_01_A_b.gif","self_paced","","4","simple_dissimilar","images/stimuli/spore_stims/simple_01_A_b.gif","","","","",""
"","null","html-keyboard-response","63","447646","0.0-17.0-0.4","SS1618006451245","","","null","","","","","","<p><img src= images/blank.png width =""600"" height = ""600"" style=""position:fixed;top:50%; left:50%; transform: translate(-50%, -50%); border:5px solid black"">","","","","","","","",""
"","23","sequential-stimulus-presentation-old","64","448183","0.0-17.0-1.4","SS1618006451245","trial","","40","500","523","images/stimuli/spore_stims/simple_07_A_a.gif","images/stimuli/spore_stims/simple_01_A_b.gif","self_paced","","4","simple_dissimilar","images/stimuli/spore_stims/simple_01_A_b.gif","","","","",""
"","4063","survey-multi-choice","65","452249","0.0-18.0","SS1618006451245","math_question","","","","","","","","","","","","{""Q0"":""18""}","[0]","18","",""
"","null","html-keyboard-response","66","453402","0.0-19.0-0.0","SS1618006451245","","","null","","","","","","<p><img src= images/blank.png width =""600"" height = ""600"" style=""position:fixed;top:50%; left:50%; transform: translate(-50%, -50%); border:5px solid black"">","","","","","","","",""
"","6032","sequential-stimulus-presentation-old","67","459950","0.0-19.0-1.0","SS1618006451245","trial","","40","500","6532","images/stimuli/spore_stims/complex_15_A_a.gif","images/stimuli/spore_stims/complex_16_A_b.gif","self_paced","","5","complex_dissimilar","images/stimuli/spore_stims/complex_16_A_b.gif","","","","",""
"","null","html-keyboard-response","68","460789","0.0-19.0-0.1","SS1618006451245","","","null","","","","","","<p><img src= images/blank.png width =""600"" height = ""600"" style=""position:fixed;top:50%; left:50%; transform: translate(-50%, -50%); border:5px solid black"">","","","","","","","",""
"","1043","sequential-stimulus-presentation-old","69","462347","0.0-19.0-1.1","SS1618006451245","trial","","40","500","1543","images/stimuli/spore_stims/complex_15_A_a.gif","images/stimuli/spore_stims/complex_16_A_b.gif","self_paced","","5","complex_dissimilar","images/stimuli/spore_stims/complex_16_A_b.gif","","","","",""
"","null","html-keyboard-response","70","463253","0.0-19.0-0.2","SS1618006451245","","","null","","","","","","<p><img src= images/blank.png width =""600"" height = ""600"" style=""position:fixed;top:50%; left:50%; transform: translate(-50%, -50%); border:5px solid black"">","","","","","","","",""
"","4179","sequential-stimulus-presentation-old","71","467946","0.0-19.0-1.2","SS1618006451245","trial","","40","500","4679","images/stimuli/spore_stims/complex_15_A_a.gif","images/stimuli/spore_stims/complex_16_A_b.gif","self_paced","","5","complex_dissimilar","images/stimuli/spore_stims/complex_15_A_a.gif","","","","",""
"","null","html-keyboard-response","72","468809","0.0-19.0-0.3","SS1618006451245","","","null","","","","","","<p><img src= images/blank.png width =""600"" height = ""600"" style=""position:fixed;top:50%; left:50%; transform: translate(-50%, -50%); border:5px solid black"">","","","","","","","",""
"","3504","sequential-stimulus-presentation-old","73","472827","0.0-19.0-1.3","SS1618006451245","trial","","40","500","4004","images/stimuli/spore_stims/complex_15_A_a.gif","images/stimuli/spore_stims/complex_16_A_b.gif","self_paced","","5","complex_dissimilar","images/stimuli/spore_stims/complex_16_A_b.gif","","","","",""
"","null","html-keyboard-response","74","473927","0.0-19.0-0.4","SS1618006451245","","","null","","","","","","<p><img src= images/blank.png width =""600"" height = ""600"" style=""position:fixed;top:50%; left:50%; transform: translate(-50%, -50%); border:5px solid black"">","","","","","","","",""
"","896","sequential-stimulus-presentation-old","75","475337","0.0-19.0-1.4","SS1618006451245","trial","","40","500","1396","images/stimuli/spore_stims/complex_15_A_a.gif","images/stimuli/spore_stims/complex_16_A_b.gif","self_paced","","5","complex_dissimilar","images/stimuli/spore_stims/complex_16_A_b.gif","","","","",""
"","null","html-keyboard-response","76","476277","0.0-19.0-0.5","SS1618006451245","","","null","","","","","","<p><img src= images/blank.png width =""600"" height = ""600"" style=""position:fixed;top:50%; left:50%; transform: translate(-50%, -50%); border:5px solid black"">","","","","","","","",""
"","765","sequential-stimulus-presentation-old","77","477555","0.0-19.0-1.5","SS1618006451245","trial","","40","500","1265","images/stimuli/spore_stims/complex_15_A_a.gif","images/stimuli/spore_stims/complex_16_A_b.gif","self_paced","","5","complex_dissimilar","images/stimuli/spore_stims/complex_15_A_a.gif","","","","",""
"","2859","survey-multi-choice","78","480417","0.0-20.0","SS1618006451245","math_question","","","","","","","","","","","","{""Q0"":""14""}","[0]","14","",""
"","null","html-keyboard-response","79","481527","0.0-21.0-0.0","SS1618006451245","","","null","","","","","","<p><img src= images/blank.png width =""600"" height = ""600"" style=""position:fixed;top:50%; left:50%; transform: translate(-50%, -50%); border:5px solid black"">","","","","","","","",""
"","4129","sequential-stimulus-presentation-old","80","486168","0.0-21.0-1.0","SS1618006451245","trial","","40","500","4629","images/stimuli/spore_stims/complex_02_A_a.gif","images/stimuli/spore_stims/complex_06_A_b.gif","self_paced","","6","complex_dissimilar","images/stimuli/spore_stims/complex_06_A_b.gif","","","","",""
"","null","html-keyboard-response","81","487192","0.0-21.0-0.1","SS1618006451245","","","null","","","","","","<p><img src= images/blank.png width =""600"" height = ""600"" style=""position:fixed;top:50%; left:50%; transform: translate(-50%, -50%); border:5px solid black"">","","","","","","","",""
"","878","sequential-stimulus-presentation-old","82","488584","0.0-21.0-1.1","SS1618006451245","trial","","40","500","1378","images/stimuli/spore_stims/complex_02_A_a.gif","images/stimuli/spore_stims/complex_06_A_b.gif","self_paced","","6","complex_dissimilar","images/stimuli/spore_stims/complex_06_A_b.gif","","","","",""
"","null","html-keyboard-response","83","489846","0.0-21.0-0.2","SS1618006451245","","","null","","","","","","<p><img src= images/blank.png width =""600"" height = ""600"" style=""position:fixed;top:50%; left:50%; transform: translate(-50%, -50%); border:5px solid black"">","","","","","","","",""
"","613","sequential-stimulus-presentation-old","84","490974","0.0-21.0-1.2","SS1618006451245","trial","","40","500","1113","images/stimuli/spore_stims/complex_02_A_a.gif","images/stimuli/spore_stims/complex_06_A_b.gif","self_paced","","6","complex_dissimilar","images/stimuli/spore_stims/complex_06_A_b.gif","","","","",""
"","null","html-keyboard-response","85","492213","0.0-21.0-0.3","SS1618006451245","","","null","","","","","","<p><img src= images/blank.png width =""600"" height = ""600"" style=""position:fixed;top:50%; left:50%; transform: translate(-50%, -50%); border:5px solid black"">","","","","","","","",""
"","839","sequential-stimulus-presentation-old","86","493567","0.0-21.0-1.3","SS1618006451245","trial","","40","500","1339","images/stimuli/spore_stims/complex_02_A_a.gif","images/stimuli/spore_stims/complex_06_A_b.gif","self_paced","","6","complex_dissimilar","images/stimuli/spore_stims/complex_06_A_b.gif","","","","",""
"","null","html-keyboard-response","87","494518","0.0-21.0-0.4","SS1618006451245","","","null","","","","","","<p><img src= images/blank.png width =""600"" height = ""600"" style=""position:fixed;top:50%; left:50%; transform: translate(-50%, -50%); border:5px solid black"">","","","","","","","",""
"","5605","sequential-stimulus-presentation-old","88","500639","0.0-21.0-1.4","SS1618006451245","trial","","40","500","6105","images/stimuli/spore_stims/complex_02_A_a.gif","images/stimuli/spore_stims/complex_06_A_b.gif","self_paced","","6","complex_dissimilar","images/stimuli/spore_stims/complex_02_A_a.gif","","","","",""
"","2389","survey-multi-choice","89","503030","0.0-22.0","SS1618006451245","math_question","","","","","","","","","","","","{""Q0"":""4""}","[0]","4","",""
"","null","html-keyboard-response","90","504240","0.0-23.0-0.0","SS1618006451245","","","null","","","","","","<p><img src= images/blank.png width =""600"" height = ""600"" style=""position:fixed;top:50%; left:50%; transform: translate(-50%, -50%); border:5px solid black"">","","","","","","","",""
"","3206","sequential-stimulus-presentation-old","91","512456","0.0-23.0-1.0","SS1618006451245","trial","","40","500","3706","images/stimuli/spore_stims/complex_12_A_a.gif","images/stimuli/spore_stims/complex_02_A_b.gif","forced_long","","7","complex_dissimilar","images/stimuli/spore_stims/complex_02_A_b.gif","","","","",""
"","null","html-keyboard-response","92","513363","0.0-23.0-0.1","SS1618006451245","","","null","","","","","","<p><img src= images/blank.png width =""600"" height = ""600"" style=""position:fixed;top:50%; left:50%; transform: translate(-50%, -50%); border:5px solid black"">","","","","","","","",""
"","3526","sequential-stimulus-presentation-old","93","517392","0.0-23.0-1.1","SS1618006451245","trial","","40","500","4026","images/stimuli/spore_stims/complex_12_A_a.gif","images/stimuli/spore_stims/complex_02_A_b.gif","forced_long","","7","complex_dissimilar","images/stimuli/spore_stims/complex_02_A_b.gif","","","","",""
"","null","html-keyboard-response","94","518491","0.0-23.0-0.2","SS1618006451245","","","null","","","","","","<p><img src= images/blank.png width =""600"" height = ""600"" style=""position:fixed;top:50%; left:50%; transform: translate(-50%, -50%); border:5px solid black"">","","","","","","","",""
"","2452","sequential-stimulus-presentation-old","95","521460","0.0-23.0-1.2","SS1618006451245","trial","","40","500","2952","images/stimuli/spore_stims/complex_12_A_a.gif","images/stimuli/spore_stims/complex_02_A_b.gif","forced_long","","7","complex_dissimilar","images/stimuli/spore_stims/complex_12_A_a.gif","","","","",""
"","null","html-keyboard-response","96","522668","0.0-23.0-0.3","SS1618006451245","","","null","","","","","","<p><img src= images/blank.png width =""600"" height = ""600"" style=""position:fixed;top:50%; left:50%; transform: translate(-50%, -50%); border:5px solid black"">","","","","","","","",""
"","1497","sequential-stimulus-presentation-old","97","524679","0.0-23.0-1.3","SS1618006451245","trial","","40","500","1997","images/stimuli/spore_stims/complex_12_A_a.gif","images/stimuli/spore_stims/complex_02_A_b.gif","forced_long","","7","complex_dissimilar","images/stimuli/spore_stims/complex_12_A_a.gif","","","","",""
"","null","html-keyboard-response","98","525965","0.0-23.0-0.4","SS1618006451245","","","null","","","","","","<p><img src= images/blank.png width =""600"" height = ""600"" style=""position:fixed;top:50%; left:50%; transform: translate(-50%, -50%); border:5px solid black"">","","","","","","","",""
"","626","sequential-stimulus-presentation-old","99","527105","0.0-23.0-1.4","SS1618006451245","trial","","40","500","1126","images/stimuli/spore_stims/complex_12_A_a.gif","images/stimuli/spore_stims/complex_02_A_b.gif","forced_long","","7","complex_dissimilar","images/stimuli/spore_stims/complex_02_A_b.gif","","","","",""
"","2853","survey-multi-choice","100","529960","0.0-24.0","SS1618006451245","math_question","","","","","","","","","","","","{""Q0"":""12""}","[0]","12","",""
"","null","html-keyboard-response","101","530997","0.0-25.0-0.0","SS1618006451245","","","null","","","","","","<p><img src= images/blank.png width =""600"" height = ""600"" style=""position:fixed;top:50%; left:50%; transform: translate(-50%, -50%); border:5px solid black"">","","","","","","","",""
"","2284","sequential-stimulus-presentation-old","102","533342","0.0-25.0-1.0","SS1618006451245","trial","","40","500","2784","images/stimuli/spore_stims/simple_13_A_a.gif","images/stimuli/spore_stims/simple_05_A_b.gif","forced_short","","8","simple_dissimilar","images/stimuli/spore_stims/simple_05_A_b.gif","","","","",""
"","null","html-keyboard-response","103","534466","0.0-25.0-0.1","SS1618006451245","","","null","","","","","","<p><img src= images/blank.png width =""600"" height = ""600"" style=""position:fixed;top:50%; left:50%; transform: translate(-50%, -50%); border:5px solid black"">","","","","","","","",""
"","2790","sequential-stimulus-presentation-old","104","537766","0.0-25.0-1.1","SS1618006451245","trial","","40","500","3290","images/stimuli/spore_stims/simple_13_A_a.gif","images/stimuli/spore_stims/simple_05_A_b.gif","forced_short","","8","simple_dissimilar","images/stimuli/spore_stims/simple_05_A_b.gif","","","","",""
"","null","html-keyboard-response","105","538840","0.0-25.0-0.2","SS1618006451245","","","null","","","","","","<p><img src= images/blank.png width =""600"" height = ""600"" style=""position:fixed;top:50%; left:50%; transform: translate(-50%, -50%); border:5px solid black"">","","","","","","","",""
"","762","sequential-stimulus-presentation-old","106","540120","0.0-25.0-1.2","SS1618006451245","trial","","40","500","1262","images/stimuli/spore_stims/simple_13_A_a.gif","images/stimuli/spore_stims/simple_05_A_b.gif","forced_short","","8","simple_dissimilar","images/stimuli/spore_stims/simple_05_A_b.gif","","","","",""
"","null","html-keyboard-response","107","541058","0.0-25.0-0.3","SS1618006451245","","","null","","","","","","<p><img src= images/blank.png width =""600"" height = ""600"" style=""position:fixed;top:50%; left:50%; transform: translate(-50%, -50%); border:5px solid black"">","","","","","","","",""
"","1181","sequential-stimulus-presentation-old","108","542753","0.0-25.0-1.3","SS1618006451245","trial","","40","500","1681","images/stimuli/spore_stims/simple_13_A_a.gif","images/stimuli/spore_stims/simple_05_A_b.gif","forced_short","","8","simple_dissimilar","images/stimuli/spore_stims/simple_05_A_b.gif","","","","",""
"","null","html-keyboard-response","109","543698","0.0-25.0-0.4","SS1618006451245","","","null","","","","","","<p><img src= images/blank.png width =""600"" height = ""600"" style=""position:fixed;top:50%; left:50%; transform: translate(-50%, -50%); border:5px solid black"">","","","","","","","",""
"","895","sequential-stimulus-presentation-old","110","545106","0.0-25.0-1.4","SS1618006451245","trial","","40","500","1395","images/stimuli/spore_stims/simple_13_A_a.gif","images/stimuli/spore_stims/simple_05_A_b.gif","forced_short","","8","simple_dissimilar","images/stimuli/spore_stims/simple_05_A_b.gif","","","","",""
"","null","html-keyboard-response","111","546034","0.0-25.0-0.5","SS1618006451245","","","null","","","","","","<p><img src= images/blank.png width =""600"" height = ""600"" style=""position:fixed;top:50%; left:50%; transform: translate(-50%, -50%); border:5px solid black"">","","","","","","","",""
"","829","sequential-stimulus-presentation-old","112","547377","0.0-25.0-1.5","SS1618006451245","trial","","40","500","1329","images/stimuli/spore_stims/simple_13_A_a.gif","images/stimuli/spore_stims/simple_05_A_b.gif","forced_short","","8","simple_dissimilar","images/stimuli/spore_stims/simple_13_A_a.gif","","","","",""
"","2781","survey-multi-choice","113","550160","0.0-26.0","SS1618006451245","math_question","","","","","","","","","","","","{""Q0"":""4""}","[0]","4","",""
"","null","html-keyboard-response","114","551084","0.0-27.0-0.0","SS1618006451245","","","null","","","","","","<p><img src= images/blank.png width =""600"" height = ""600"" style=""position:fixed;top:50%; left:50%; transform: translate(-50%, -50%); border:5px solid black"">","","","","","","","",""
"","1040","sequential-stimulus-presentation-old","115","552186","0.0-27.0-1.0","SS1618006451245","trial","","40","500","1540","images/stimuli/spore_stims/complex_07_A_a.gif","images/stimuli/spore_stims/complex_18_A_b.gif","forced_short","","9","complex_dissimilar","images/stimuli/spore_stims/complex_18_A_b.gif","","","","",""
"","null","html-keyboard-response","116","553052","0.0-27.0-0.1","SS1618006451245","","","null","","","","","","<p><img src= images/blank.png width =""600"" height = ""600"" style=""position:fixed;top:50%; left:50%; transform: translate(-50%, -50%); border:5px solid black"">","","","","","","","",""
"","2835","sequential-stimulus-presentation-old","117","556400","0.0-27.0-1.1","SS1618006451245","trial","","40","500","3335","images/stimuli/spore_stims/complex_07_A_a.gif","images/stimuli/spore_stims/complex_18_A_b.gif","forced_short","","9","complex_dissimilar","images/stimuli/spore_stims/complex_07_A_a.gif","","","","",""
"","null","html-keyboard-response","118","557529","0.0-27.0-0.2","SS1618006451245","","","null","","","","","","<p><img src= images/blank.png width =""600"" height = ""600"" style=""position:fixed;top:50%; left:50%; transform: translate(-50%, -50%); border:5px solid black"">","","","","","","","",""
"","1566","sequential-stimulus-presentation-old","119","559611","0.0-27.0-1.2","SS1618006451245","trial","","40","500","2066","images/stimuli/spore_stims/complex_07_A_a.gif","images/stimuli/spore_stims/complex_18_A_b.gif","forced_short","","9","complex_dissimilar","images/stimuli/spore_stims/complex_18_A_b.gif","","","","",""
"","null","html-keyboard-response","120","560518","0.0-27.0-0.3","SS1618006451245","","","null","","","","","","<p><img src= images/blank.png width =""600"" height = ""600"" style=""position:fixed;top:50%; left:50%; transform: translate(-50%, -50%); border:5px solid black"">","","","","","","","",""
"","3190","sequential-stimulus-presentation-old","121","564221","0.0-27.0-1.3","SS1618006451245","trial","","40","500","3690","images/stimuli/spore_stims/complex_07_A_a.gif","images/stimuli/spore_stims/complex_18_A_b.gif","forced_short","","9","complex_dissimilar","images/stimuli/spore_stims/complex_18_A_b.gif","","","","",""
"","null","html-keyboard-response","122","565475","0.0-27.0-0.4","SS1618006451245","","","null","","","","","","<p><img src= images/blank.png width =""600"" height = ""600"" style=""position:fixed;top:50%; left:50%; transform: translate(-50%, -50%); border:5px solid black"">","","","","","","","",""
"","912","sequential-stimulus-presentation-old","123","566901","0.0-27.0-1.4","SS1618006451245","trial","","40","500","1412","images/stimuli/spore_stims/complex_07_A_a.gif","images/stimuli/spore_stims/complex_18_A_b.gif","forced_short","","9","complex_dissimilar","images/stimuli/spore_stims/complex_18_A_b.gif","","","","",""
"","null","html-keyboard-response","124","567767","0.0-27.0-0.5","SS1618006451245","","","null","","","","","","<p><img src= images/blank.png width =""600"" height = ""600"" style=""position:fixed;top:50%; left:50%; transform: translate(-50%, -50%); border:5px solid black"">","","","","","","","",""
"","1156","sequential-stimulus-presentation-old","125","569436","0.0-27.0-1.5","SS1618006451245","trial","","40","500","1656","images/stimuli/spore_stims/complex_07_A_a.gif","images/stimuli/spore_stims/complex_18_A_b.gif","forced_short","","9","complex_dissimilar","images/stimuli/spore_stims/complex_07_A_a.gif","","","","",""
"","2637","survey-multi-choice","126","572077","0.0-28.0","SS1618006451245","math_question","","","","","","","","","","","","{""Q0"":""10""}","[0]","10","",""
"","null","html-keyboard-response","127","573319","0.0-29.0-0.0","SS1618006451245","","","null","","","","","","<p><img src= images/blank.png width =""600"" height = ""600"" style=""position:fixed;top:50%; left:50%; transform: translate(-50%, -50%); border:5px solid black"">","","","","","","","",""
"","544","sequential-stimulus-presentation-old","128","578879","0.0-29.0-1.0","SS1618006451245","trial","","40","500","1044","images/stimuli/spore_stims/complex_13_A_a.gif","images/stimuli/spore_stims/complex_09_A_b.gif","forced_long","","10","complex_dissimilar","images/stimuli/spore_stims/complex_09_A_b.gif","","","","",""
"","null","html-keyboard-response","129","580114","0.0-29.0-0.1","SS1618006451245","","","null","","","","","","<p><img src= images/blank.png width =""600"" height = ""600"" style=""position:fixed;top:50%; left:50%; transform: translate(-50%, -50%); border:5px solid black"">","","","","","","","",""
"","3749","sequential-stimulus-presentation-old","130","584371","0.0-29.0-1.1","SS1618006451245","trial","","40","500","4249","images/stimuli/spore_stims/complex_13_A_a.gif","images/stimuli/spore_stims/complex_09_A_b.gif","forced_long","","10","complex_dissimilar","images/stimuli/spore_stims/complex_13_A_a.gif","","","","",""
"","null","html-keyboard-response","131","585217","0.0-29.0-0.2","SS1618006451245","","","null","","","","","","<p><img src= images/blank.png width =""600"" height = ""600"" style=""position:fixed;top:50%; left:50%; transform: translate(-50%, -50%); border:5px solid black"">","","","","","","","",""
"","1323","sequential-stimulus-presentation-old","132","587052","0.0-29.0-1.2","SS1618006451245","trial","","40","500","1823","images/stimuli/spore_stims/complex_13_A_a.gif","images/stimuli/spore_stims/complex_09_A_b.gif","forced_long","","10","complex_dissimilar","images/stimuli/spore_stims/complex_09_A_b.gif","","","","",""
"","null","html-keyboard-response","133","588306","0.0-29.0-0.3","SS1618006451245","","","null","","","","","","<p><img src= images/blank.png width =""600"" height = ""600"" style=""position:fixed;top:50%; left:50%; transform: translate(-50%, -50%); border:5px solid black"">","","","","","","","",""
"","1084","sequential-stimulus-presentation-old","134","589905","0.0-29.0-1.3","SS1618006451245","trial","","40","500","1584","images/stimuli/spore_stims/complex_13_A_a.gif","images/stimuli/spore_stims/complex_09_A_b.gif","forced_long","","10","complex_dissimilar","images/stimuli/spore_stims/complex_09_A_b.gif","","","","",""
"","null","html-keyboard-response","135","591069","0.0-29.0-0.4","SS1618006451245","","","null","","","","","","<p><img src= images/blank.png width =""600"" height = ""600"" style=""position:fixed;top:50%; left:50%; transform: translate(-50%, -50%); border:5px solid black"">","","","","","","","",""
"","2288","sequential-stimulus-presentation-old","136","593873","0.0-29.0-1.4","SS1618006451245","trial","","40","500","2788","images/stimuli/spore_stims/complex_13_A_a.gif","images/stimuli/spore_stims/complex_09_A_b.gif","forced_long","","10","complex_dissimilar","images/stimuli/spore_stims/complex_13_A_a.gif","","","","",""
"","2731","survey-multi-choice","137","596607","0.0-30.0","SS1618006451245","math_question","","","","","","","","","","","","{""Q0"":""11""}","[0]","11","",""
"","null","html-keyboard-response","138","597695","0.0-31.0-0.0","SS1618006451245","","","null","","","","","","<p><img src= images/blank.png width =""600"" height = ""600"" style=""position:fixed;top:50%; left:50%; transform: translate(-50%, -50%); border:5px solid black"">","","","","","","","",""
"","6212","sequential-stimulus-presentation-old","139","608918","0.0-31.0-1.0","SS1618006451245","trial","","40","500","6712","images/stimuli/spore_stims/simple_15_A_a.gif","images/stimuli/spore_stims/simple_04_A_b.gif","forced_long","","11","simple_dissimilar","images/stimuli/spore_stims/simple_04_A_b.gif","","","","",""
"","null","html-keyboard-response","140","609860","0.0-31.0-0.1","SS1618006451245","","","null","","","","","","<p><img src= images/blank.png width =""600"" height = ""600"" style=""position:fixed;top:50%; left:50%; transform: translate(-50%, -50%); border:5px solid black"">","","","","","","","",""
"","615","sequential-stimulus-presentation-old","141","610986","0.0-31.0-1.1","SS1618006451245","trial","","40","500","1115","images/stimuli/spore_stims/simple_15_A_a.gif","images/stimuli/spore_stims/simple_04_A_b.gif","forced_long","","11","simple_dissimilar","images/stimuli/spore_stims/simple_04_A_b.gif","","","","",""
"","null","html-keyboard-response","142","612020","0.0-31.0-0.2","SS1618006451245","","","null","","","","","","<p><img src= images/blank.png width =""600"" height = ""600"" style=""position:fixed;top:50%; left:50%; transform: translate(-50%, -50%); border:5px solid black"">","","","","","","","",""
"","713","sequential-stimulus-presentation-old","143","613247","0.0-31.0-1.2","SS1618006451245","trial","","40","500","1213","images/stimuli/spore_stims/simple_15_A_a.gif","images/stimuli/spore_stims/simple_04_A_b.gif","forced_long","","11","simple_dissimilar","images/stimuli/spore_stims/simple_04_A_b.gif","","","","",""
"","null","html-keyboard-response","144","614271","0.0-31.0-0.3","SS1618006451245","","","null","","","","","","<p><img src= images/blank.png width =""600"" height = ""600"" style=""position:fixed;top:50%; left:50%; transform: translate(-50%, -50%); border:5px solid black"">","","","","","","","",""
"","461","sequential-stimulus-presentation-old","145","615245","0.0-31.0-1.3","SS1618006451245","trial","","40","500","961","images/stimuli/spore_stims/simple_15_A_a.gif","images/stimuli/spore_stims/simple_04_A_b.gif","forced_long","","11","simple_dissimilar","images/stimuli/spore_stims/simple_04_A_b.gif","","","","",""
"","null","html-keyboard-response","146","616264","0.0-31.0-0.4","SS1618006451245","","","null","","","","","","<p><img src= images/blank.png width =""600"" height = ""600"" style=""position:fixed;top:50%; left:50%; transform: translate(-50%, -50%); border:5px solid black"">","","","","","","","",""
"","329","sequential-stimulus-presentation-old","147","617104","0.0-31.0-1.4","SS1618006451245","trial","","40","500","829","images/stimuli/spore_stims/simple_15_A_a.gif","images/stimuli/spore_stims/simple_04_A_b.gif","forced_long","","11","simple_dissimilar","images/stimuli/spore_stims/simple_04_A_b.gif","","","","",""
"[{""page_index"":0,""viewing_time"":10321}]","10321","instructions","148","627428","0.0-32.0","SS1618006451245","instructions","","","","","","","","","","","","","","","",""
"","10866","survey-likert","149","638298","0.0-33.0","SS1618006451245","similarity_question","","","","","","","","","","","","{""Q0"":2}","[0]","","images/stimuli/spore_stims/simple_01_A_b.gif","images/stimuli/spore_stims/simple_07_A_a.gif"
"","5144","survey-likert","150","643449","0.0-34.0","SS1618006451245","similarity_question","","","","","","","","","","","","{""Q0"":4}","[0]","","images/stimuli/spore_stims/simple_15_A_a.gif","images/stimuli/spore_stims/simple_04_A_b.gif"
"","9579","survey-likert","151","653034","0.0-35.0","SS1618006451245","similarity_question","","","","","","","","","","","","{""Q0"":2}","[0]","","images/stimuli/spore_stims/complex_02_A_a.gif","images/stimuli/spore_stims/complex_06_A_b.gif"
"","4028","survey-likert","152","657069","0.0-36.0","SS1618006451245","similarity_question","","","","","","","","","","","","{""Q0"":4}","[0]","","images/stimuli/spore_stims/simple_13_A_a.gif","images/stimuli/spore_stims/simple_05_A_b.gif"
"","9303","survey-likert","153","666376","0.0-37.0","SS1618006451245","similarity_question","","","","","","","","","","","","{""Q0"":3}","[0]","","images/stimuli/spore_stims/complex_13_A_a.gif","images/stimuli/spore_stims/complex_09_A_b.gif"
"","7045","survey-likert","154","673426","0.0-38.0","SS1618006451245","similarity_question","","","","","","","","","","","","{""Q0"":0}","[0]","","images/stimuli/spore_stims/complex_12_A_a.gif","images/stimuli/spore_stims/complex_02_A_b.gif"
"","4600","survey-likert","155","678032","0.0-39.0","SS1618006451245","similarity_question","","","","","","","","","","","","{""Q0"":2}","[0]","","images/stimuli/spore_stims/simple_07_A_b.gif","images/stimuli/spore_stims/simple_03_A_a.gif"
"","5301","survey-likert","156","683341","0.0-40.0","SS1618006451245","similarity_question","","","","","","","","","","","","{""Q0"":1}","[0]","","images/stimuli/spore_stims/complex_16_A_b.gif","images/stimuli/spore_stims/complex_15_A_a.gif"
"","9257","survey-likert","157","692604","0.0-41.0","SS1618006451245","similarity_question","","","","","","","","","","","","{""Q0"":0}","[0]","","images/stimuli/spore_stims/complex_18_A_a.gif","images/stimuli/spore_stims/complex_11_A_b.gif"
"","5235","survey-likert","158","697844","0.0-42.0","SS1618006451245","similarity_question","","","","","","","","","","","","{""Q0"":4}","[0]","","images/stimuli/spore_stims/simple_10_A_b.gif","images/stimuli/spore_stims/simple_09_A_a.gif"
"","3821","survey-likert","159","701671","0.0-43.0","SS1618006451245","similarity_question","","","","","","","","","","","","{""Q0"":2}","[0]","","images/stimuli/spore_stims/simple_20_A_a.gif","images/stimuli/spore_stims/simple_13_A_b.gif"
"","7670","survey-likert","160","709347","0.0-44.0","SS1618006451245","similarity_question","","","","","","","","","","","","{""Q0"":1}","[0]","","images/stimuli/spore_stims/complex_18_A_b.gif","images/stimuli/spore_stims/complex_07_A_a.gif"
"[{""page_index"":0,""viewing_time"":6769}]","6769","instructions","161","716121","0.0-45.0","SS1618006451245","instructions","","","","","","","","","","","","","","","",""
"","5288","survey-likert","162","721414","0.0-46.0","SS1618006451245","","","","","","","","","images/stimuli/spore_stims/complex_16_A_b.gif","","","","{""Q0"":5}","[0]","","",""
"","2854","survey-likert","163","724276","0.0-47.0","SS1618006451245","","","","","","","","","images/stimuli/spore_stims/simple_07_A_a.gif","","","","{""Q0"":1}","[0]","","",""
"","3536","survey-likert","164","727818","0.0-48.0","SS1618006451245","","","","","","","","","images/stimuli/spore_stims/simple_15_A_a.gif","","","","{""Q0"":0}","[0]","","",""
"","3433","survey-likert","165","731257","0.0-49.0","SS1618006451245","","","","","","","","","images/stimuli/spore_stims/complex_13_A_a.gif","","","","{""Q0"":4}","[0]","","",""
"","2905","survey-likert","166","734168","0.0-50.0","SS1618006451245","","","","","","","","","images/stimuli/spore_stims/complex_02_A_a.gif","","","","{""Q0"":4}","[0]","","",""
"","8795","survey-likert","167","742968","0.0-51.0","SS1618006451245","","","","","","","","","images/stimuli/spore_stims/complex_11_A_b.gif","","","","{""Q0"":3}","[0]","","",""
"","3509","survey-likert","168","746483","0.0-52.0","SS1618006451245","","","","","","","","","images/stimuli/spore_stims/simple_13_A_b.gif","","","","{""Q0"":1}","[0]","","",""
"","6957","survey-likert","169","753444","0.0-53.0","SS1618006451245","","","","","","","","","images/stimuli/spore_stims/complex_18_A_b.gif","","","","{""Q0"":5}","[0]","","",""
"","3479","survey-likert","170","756930","0.0-54.0","SS1618006451245","","","","","","","","","images/stimuli/spore_stims/simple_13_A_a.gif","","","","{""Q0"":1}","[0]","","",""
"","4439","survey-likert","171","761375","0.0-55.0","SS1618006451245","","","","","","","","","images/stimuli/spore_stims/simple_09_A_a.gif","","","","{""Q0"":0}","[0]","","",""
"","1842","survey-likert","172","763222","0.0-56.0","SS1618006451245","","","","","","","","","images/stimuli/spore_stims/simple_03_A_a.gif","","","","{""Q0"":0}","[0]","","",""
"","2215","survey-likert","173","765443","0.0-57.0","SS1618006451245","","","","","","","","","images/stimuli/spore_stims/complex_12_A_a.gif","","","","{""Q0"":6}","[0]","","",""
"[{""page_index"":0,""viewing_time"":3643}]","3643","instructions","174","769092","0.0-58.0","SS1618006451245","instructions","","","","","","","","","","","","","","","",""
"","3300","demog-age","175","772399","0.0-59.0","SS1618006451245","","","","","","","","","","","","","{""age"":""23""}","","","",""
"","4330","demog-ethnic-US","176","776736","0.0-60.0","SS1618006451245","","","","","","","","","","","","","{""ethnicity"":[""White""]}","[0]","","",""
"","21495","demog-gender-and-education","177","798237","0.0-61.0","SS1618006451245","","","","","","","","","","","","","{""gender"":""Female"",""education"":""High school diploma""}","[0,1]","","",""
"","17576","survey-text","178","815821","0.0-62.0","SS1618006451245","feedback","","","","","","","","","","","","{""Q0"":""nah, it was cool""}","","","",""
"[{""page_index"":0,""viewing_time"":4028}]","4028","instructions","179","819853","0.0-63.0","SS1618006451245","instructions","","","","","","","","","","","","","","","",""
