"view_history","rt","trial_type","trial_index","time_elapsed","internal_node_id","subject","stimulus_type","trial_stimulus","key_press","minimum_viewing_duration","trial_looking_time","block_deviant","block_background","exposure_type","stimulus","block_number","block_type","stimulus_displayed","responses","question_order","math_correct_answer","stimulus_left","stimulus_right"
"[{""page_index"":0,""viewing_time"":44147.484999999506}]","44148.025000000416","instructions","0","44149","0.0-0.0","SS1618365668549","","","","","","","","","","","","","","","","",""
"[{""page_index"":0,""viewing_time"":16615.434999999707},{""page_index"":1,""viewing_time"":6046.11499999919}]","22661.729999999807","instructions","1","68815","0.0-1.0","SS1618365668549","instructions","","","","","","","","","","","","","","","",""
"","41842.06499999891","sequential-stimulus-presentation-old","2","111161","0.0-2.0","SS1618365668549","","","40","500","42342.06499999891","null","null","self_paced","","","","","","","","",""
"","16921.555000000808","sequential-stimulus-presentation-old","3","128583","0.0-3.0","SS1618365668549","","","40","500","17421.555000000808","null","null","self_paced","","","","","","","","",""
"[{""page_index"":0,""viewing_time"":47831.32000000114}]","47831.51499999984","instructions","4","176415","0.0-4.0","SS1618365668549","instructions","","","","","","","","","","","","","","","",""
"","7087.469999998575","sequential-stimulus-presentation-old","5","188504","0.0-5.0","SS1618365668549","","","40","500","7587.469999998575","null","null","forced_long","","","","","","","","",""
"","7455.870000001596","sequential-stimulus-presentation-old","6","196023","0.0-6.0","SS1618365668549","","","40","50","7505.870000001596","null","null","forced_long","","","","","","","","",""
"[{""page_index"":0,""viewing_time"":6467.309999999998}]","6467.459999999846","instructions","7","202491","0.0-7.0","SS1618365668549","instructions","","","","","","","","","","","","","","","",""
"[{""page_index"":0,""viewing_time"":16063.059999998572},{""page_index"":1,""viewing_time"":17191.990000001184},{""page_index"":2,""viewing_time"":10705.574999999953},{""page_index"":3,""viewing_time"":2033.0500000000175},{""page_index"":4,""viewing_time"":1383.9049999987474}]","47377.735000000015","instructions","8","249869","0.0-8.0","SS1618365668549","instructions","","","","","","","","","","","","","","","",""
"","null","html-keyboard-response","9","250993","0.0-9.0-0.0","SS1618365668549","","","null","","","","","","<p><img src= images/blank.png width =""600"" height = ""600"" style=""position:fixed;top:50%; left:50%; transform: translate(-50%, -50%); border:5px solid black"">","","","","","","","",""
"","6224.03500000108","sequential-stimulus-presentation-old","10","257719","0.0-9.0-1.0","SS1618365668549","trial","","40","500","6724.03500000108","images/stimuli/spore_stims/complex_05_A_a.gif","images/stimuli/spore_stims/complex_01_A_b.gif","self_paced","","0","complex_dissimilar","images/stimuli/spore_stims/complex_01_A_b.gif","","","","",""
"","null","html-keyboard-response","11","258919","0.0-9.0-0.1","SS1618365668549","","","null","","","","","","<p><img src= images/blank.png width =""600"" height = ""600"" style=""position:fixed;top:50%; left:50%; transform: translate(-50%, -50%); border:5px solid black"">","","","","","","","",""
"","5065.520000000077","sequential-stimulus-presentation-old","12","264487","0.0-9.0-1.1","SS1618365668549","trial","","40","500","5565.520000000077","images/stimuli/spore_stims/complex_05_A_a.gif","images/stimuli/spore_stims/complex_01_A_b.gif","self_paced","","0","complex_dissimilar","images/stimuli/spore_stims/complex_01_A_b.gif","","","","",""
"","null","html-keyboard-response","13","265434","0.0-9.0-0.2","SS1618365668549","","","null","","","","","","<p><img src= images/blank.png width =""600"" height = ""600"" style=""position:fixed;top:50%; left:50%; transform: translate(-50%, -50%); border:5px solid black"">","","","","","","","",""
"","3317.1700000002747","sequential-stimulus-presentation-old","14","269255","0.0-9.0-1.2","SS1618365668549","trial","","40","500","3817.1700000002747","images/stimuli/spore_stims/complex_05_A_a.gif","images/stimuli/spore_stims/complex_01_A_b.gif","self_paced","","0","complex_dissimilar","images/stimuli/spore_stims/complex_01_A_b.gif","","","","",""
"","null","html-keyboard-response","15","270213","0.0-9.0-0.3","SS1618365668549","","","null","","","","","","<p><img src= images/blank.png width =""600"" height = ""600"" style=""position:fixed;top:50%; left:50%; transform: translate(-50%, -50%); border:5px solid black"">","","","","","","","",""
"","3721.70000000007","sequential-stimulus-presentation-old","16","274439","0.0-9.0-1.3","SS1618365668549","trial","","40","500","4221.70000000007","images/stimuli/spore_stims/complex_05_A_a.gif","images/stimuli/spore_stims/complex_01_A_b.gif","self_paced","","0","complex_dissimilar","images/stimuli/spore_stims/complex_01_A_b.gif","","","","",""
"","null","html-keyboard-response","17","275584","0.0-9.0-0.4","SS1618365668549","","","null","","","","","","<p><img src= images/blank.png width =""600"" height = ""600"" style=""position:fixed;top:50%; left:50%; transform: translate(-50%, -50%); border:5px solid black"">","","","","","","","",""
"","4223.270000000426","sequential-stimulus-presentation-old","18","280311","0.0-9.0-1.4","SS1618365668549","trial","","40","500","4723.270000000426","images/stimuli/spore_stims/complex_05_A_a.gif","images/stimuli/spore_stims/complex_01_A_b.gif","self_paced","","0","complex_dissimilar","images/stimuli/spore_stims/complex_01_A_b.gif","","","","",""
"","5358.5800000000745","survey-multi-choice","19","285672","0.0-10.0","SS1618365668549","math_question","","","","","","","","","","","","{""Q0"":""12""}","[0]","12","",""
"","null","html-keyboard-response","20","286793","0.0-11.0-0.0","SS1618365668549","","","null","","","","","","<p><img src= images/blank.png width =""600"" height = ""600"" style=""position:fixed;top:50%; left:50%; transform: translate(-50%, -50%); border:5px solid black"">","","","","","","","",""
"","1267.9550000011805","sequential-stimulus-presentation-old","21","293064","0.0-11.0-1.0","SS1618365668549","trial","","40","500","1767.9550000011805","images/stimuli/spore_stims/complex_06_A_b.gif","images/stimuli/spore_stims/complex_02_A_a.gif","forced_long","","1","complex_dissimilar","images/stimuli/spore_stims/complex_02_A_a.gif","","","","",""
"","null","html-keyboard-response","22","294052","0.0-11.0-0.1","SS1618365668549","","","null","","","","","","<p><img src= images/blank.png width =""600"" height = ""600"" style=""position:fixed;top:50%; left:50%; transform: translate(-50%, -50%); border:5px solid black"">","","","","","","","",""
"","17547.27500000084","sequential-stimulus-presentation-old","23","312103","0.0-11.0-1.1","SS1618365668549","trial","","40","500","18047.27500000084","images/stimuli/spore_stims/complex_06_A_b.gif","images/stimuli/spore_stims/complex_02_A_a.gif","forced_long","","1","complex_dissimilar","images/stimuli/spore_stims/complex_02_A_a.gif","","","","",""
"","null","html-keyboard-response","24","313203","0.0-11.0-0.2","SS1618365668549","","","null","","","","","","<p><img src= images/blank.png width =""600"" height = ""600"" style=""position:fixed;top:50%; left:50%; transform: translate(-50%, -50%); border:5px solid black"">","","","","","","","",""
"","2976.2449999998207","sequential-stimulus-presentation-old","25","316695","0.0-11.0-1.2","SS1618365668549","trial","","40","500","3476.2449999998207","images/stimuli/spore_stims/complex_06_A_b.gif","images/stimuli/spore_stims/complex_02_A_a.gif","forced_long","","1","complex_dissimilar","images/stimuli/spore_stims/complex_02_A_a.gif","","","","",""
"","null","html-keyboard-response","26","317655","0.0-11.0-0.3","SS1618365668549","","","null","","","","","","<p><img src= images/blank.png width =""600"" height = ""600"" style=""position:fixed;top:50%; left:50%; transform: translate(-50%, -50%); border:5px solid black"">","","","","","","","",""
"","4009.825000001001","sequential-stimulus-presentation-old","27","322168","0.0-11.0-1.3","SS1618365668549","trial","","40","500","4509.825000001001","images/stimuli/spore_stims/complex_06_A_b.gif","images/stimuli/spore_stims/complex_02_A_a.gif","forced_long","","1","complex_dissimilar","images/stimuli/spore_stims/complex_02_A_a.gif","","","","",""
"","null","html-keyboard-response","28","323372","0.0-11.0-0.4","SS1618365668549","","","null","","","","","","<p><img src= images/blank.png width =""600"" height = ""600"" style=""position:fixed;top:50%; left:50%; transform: translate(-50%, -50%); border:5px solid black"">","","","","","","","",""
"","1524.825000000419","sequential-stimulus-presentation-old","29","325399","0.0-11.0-1.4","SS1618365668549","trial","","40","500","2024.825000000419","images/stimuli/spore_stims/complex_06_A_b.gif","images/stimuli/spore_stims/complex_02_A_a.gif","forced_long","","1","complex_dissimilar","images/stimuli/spore_stims/complex_02_A_a.gif","","","","",""
"","null","html-keyboard-response","30","326640","0.0-11.0-0.5","SS1618365668549","","","null","","","","","","<p><img src= images/blank.png width =""600"" height = ""600"" style=""position:fixed;top:50%; left:50%; transform: translate(-50%, -50%); border:5px solid black"">","","","","","","","",""
"","2352.75","sequential-stimulus-presentation-old","31","329495","0.0-11.0-1.5","SS1618365668549","trial","","40","500","2852.75","images/stimuli/spore_stims/complex_06_A_b.gif","images/stimuli/spore_stims/complex_02_A_a.gif","forced_long","","1","complex_dissimilar","images/stimuli/spore_stims/complex_02_A_a.gif","","","","",""
"","3353.735000000568","survey-multi-choice","32","332851","0.0-12.0","SS1618365668549","math_question","","","","","","","","","","","","{""Q0"":""8""}","[0]","8","",""
"","null","html-keyboard-response","33","334117","0.0-13.0-0.0","SS1618365668549","","","null","","","","","","<p><img src= images/blank.png width =""600"" height = ""600"" style=""position:fixed;top:50%; left:50%; transform: translate(-50%, -50%); border:5px solid black"">","","","","","","","",""
"","2776.2249999996275","sequential-stimulus-presentation-old","34","341896","0.0-13.0-1.0","SS1618365668549","trial","","40","500","3276.2249999996275","images/stimuli/spore_stims/complex_16_A_a.gif","images/stimuli/spore_stims/complex_15_A_b.gif","forced_long","","2","complex_dissimilar","images/stimuli/spore_stims/complex_15_A_b.gif","","","","",""
"","null","html-keyboard-response","35","343071","0.0-13.0-0.1","SS1618365668549","","","null","","","","","","<p><img src= images/blank.png width =""600"" height = ""600"" style=""position:fixed;top:50%; left:50%; transform: translate(-50%, -50%); border:5px solid black"">","","","","","","","",""
"","5681.10999999952","sequential-stimulus-presentation-old","36","349256","0.0-13.0-1.1","SS1618365668549","trial","","40","500","6181.10999999952","images/stimuli/spore_stims/complex_16_A_a.gif","images/stimuli/spore_stims/complex_15_A_b.gif","forced_long","","2","complex_dissimilar","images/stimuli/spore_stims/complex_15_A_b.gif","","","","",""
"","null","html-keyboard-response","37","350434","0.0-13.0-0.2","SS1618365668549","","","null","","","","","","<p><img src= images/blank.png width =""600"" height = ""600"" style=""position:fixed;top:50%; left:50%; transform: translate(-50%, -50%); border:5px solid black"">","","","","","","","",""
"","2814.5999999996857","sequential-stimulus-presentation-old","38","353751","0.0-13.0-1.2","SS1618365668549","trial","","40","500","3314.5999999996857","images/stimuli/spore_stims/complex_16_A_a.gif","images/stimuli/spore_stims/complex_15_A_b.gif","forced_long","","2","complex_dissimilar","images/stimuli/spore_stims/complex_15_A_b.gif","","","","",""
"","null","html-keyboard-response","39","354687","0.0-13.0-0.3","SS1618365668549","","","null","","","","","","<p><img src= images/blank.png width =""600"" height = ""600"" style=""position:fixed;top:50%; left:50%; transform: translate(-50%, -50%); border:5px solid black"">","","","","","","","",""
"","9472.750000000815","sequential-stimulus-presentation-old","40","364663","0.0-13.0-1.3","SS1618365668549","trial","","40","500","9972.750000000815","images/stimuli/spore_stims/complex_16_A_a.gif","images/stimuli/spore_stims/complex_15_A_b.gif","forced_long","","2","complex_dissimilar","images/stimuli/spore_stims/complex_16_A_a.gif","","","","",""
"","null","html-keyboard-response","41","365881","0.0-13.0-0.4","SS1618365668549","","","null","","","","","","<p><img src= images/blank.png width =""600"" height = ""600"" style=""position:fixed;top:50%; left:50%; transform: translate(-50%, -50%); border:5px solid black"">","","","","","","","",""
"","3046.915000000794","sequential-stimulus-presentation-old","42","369431","0.0-13.0-1.4","SS1618365668549","trial","","40","500","3546.915000000794","images/stimuli/spore_stims/complex_16_A_a.gif","images/stimuli/spore_stims/complex_15_A_b.gif","forced_long","","2","complex_dissimilar","images/stimuli/spore_stims/complex_15_A_b.gif","","","","",""
"","null","html-keyboard-response","43","370275","0.0-13.0-0.5","SS1618365668549","","","null","","","","","","<p><img src= images/blank.png width =""600"" height = ""600"" style=""position:fixed;top:50%; left:50%; transform: translate(-50%, -50%); border:5px solid black"">","","","","","","","",""
"","2412.6750000013853","sequential-stimulus-presentation-old","44","373191","0.0-13.0-1.5","SS1618365668549","trial","","40","500","2912.6750000013853","images/stimuli/spore_stims/complex_16_A_a.gif","images/stimuli/spore_stims/complex_15_A_b.gif","forced_long","","2","complex_dissimilar","images/stimuli/spore_stims/complex_16_A_a.gif","","","","",""
"","6976.899999999674","survey-multi-choice","45","380169","0.0-14.0","SS1618365668549","math_question","","","","","","","","","","","","{""Q0"":""12""}","[0]","12","",""
"","null","html-keyboard-response","46","381416","0.0-15.0-0.0","SS1618365668549","","","null","","","","","","<p><img src= images/blank.png width =""600"" height = ""600"" style=""position:fixed;top:50%; left:50%; transform: translate(-50%, -50%); border:5px solid black"">","","","","","","","",""
"","3158.9400000011665","sequential-stimulus-presentation-old","47","385079","0.0-15.0-1.0","SS1618365668549","trial","","40","500","3658.9400000011665","images/stimuli/spore_stims/complex_09_A_b.gif","images/stimuli/spore_stims/complex_18_A_a.gif","self_paced","","3","complex_dissimilar","images/stimuli/spore_stims/complex_18_A_a.gif","","","","",""
"","null","html-keyboard-response","48","386095","0.0-15.0-0.1","SS1618365668549","","","null","","","","","","<p><img src= images/blank.png width =""600"" height = ""600"" style=""position:fixed;top:50%; left:50%; transform: translate(-50%, -50%); border:5px solid black"">","","","","","","","",""
"","3345.400000000198","sequential-stimulus-presentation-old","49","389943","0.0-15.0-1.1","SS1618365668549","trial","","40","500","3845.400000000198","images/stimuli/spore_stims/complex_09_A_b.gif","images/stimuli/spore_stims/complex_18_A_a.gif","self_paced","","3","complex_dissimilar","images/stimuli/spore_stims/complex_18_A_a.gif","","","","",""
"","null","html-keyboard-response","50","390912","0.0-15.0-0.2","SS1618365668549","","","null","","","","","","<p><img src= images/blank.png width =""600"" height = ""600"" style=""position:fixed;top:50%; left:50%; transform: translate(-50%, -50%); border:5px solid black"">","","","","","","","",""
"","4944.414999999979","sequential-stimulus-presentation-old","51","396359","0.0-15.0-1.2","SS1618365668549","trial","","40","500","5444.414999999979","images/stimuli/spore_stims/complex_09_A_b.gif","images/stimuli/spore_stims/complex_18_A_a.gif","self_paced","","3","complex_dissimilar","images/stimuli/spore_stims/complex_18_A_a.gif","","","","",""
"","null","html-keyboard-response","52","397234","0.0-15.0-0.3","SS1618365668549","","","null","","","","","","<p><img src= images/blank.png width =""600"" height = ""600"" style=""position:fixed;top:50%; left:50%; transform: translate(-50%, -50%); border:5px solid black"">","","","","","","","",""
"","4270.115000001213","sequential-stimulus-presentation-old","53","402007","0.0-15.0-1.3","SS1618365668549","trial","","40","500","4770.115000001213","images/stimuli/spore_stims/complex_09_A_b.gif","images/stimuli/spore_stims/complex_18_A_a.gif","self_paced","","3","complex_dissimilar","images/stimuli/spore_stims/complex_18_A_a.gif","","","","",""
"","null","html-keyboard-response","54","403249","0.0-15.0-0.4","SS1618365668549","","","null","","","","","","<p><img src= images/blank.png width =""600"" height = ""600"" style=""position:fixed;top:50%; left:50%; transform: translate(-50%, -50%); border:5px solid black"">","","","","","","","",""
"","6862.605000000272","sequential-stimulus-presentation-old","55","410615","0.0-15.0-1.4","SS1618365668549","trial","","40","500","7362.605000000272","images/stimuli/spore_stims/complex_09_A_b.gif","images/stimuli/spore_stims/complex_18_A_a.gif","self_paced","","3","complex_dissimilar","images/stimuli/spore_stims/complex_09_A_b.gif","","","","",""
"","2959.655000000552","survey-multi-choice","56","413577","0.0-16.0","SS1618365668549","math_question","","","","","","","","","","","","{""Q0"":""5""}","[0]","5","",""
"","null","html-keyboard-response","57","414590","0.0-17.0-0.0","SS1618365668549","","","null","","","","","","<p><img src= images/blank.png width =""600"" height = ""600"" style=""position:fixed;top:50%; left:50%; transform: translate(-50%, -50%); border:5px solid black"">","","","","","","","",""
"","3474.720000000205","sequential-stimulus-presentation-old","58","418567","0.0-17.0-1.0","SS1618365668549","trial","","40","500","3974.720000000205","images/stimuli/spore_stims/simple_11_A_b.gif","images/stimuli/spore_stims/simple_02_A_a.gif","self_paced","","4","simple_dissimilar","images/stimuli/spore_stims/simple_02_A_a.gif","","","","",""
"","null","html-keyboard-response","59","419605","0.0-17.0-0.1","SS1618365668549","","","null","","","","","","<p><img src= images/blank.png width =""600"" height = ""600"" style=""position:fixed;top:50%; left:50%; transform: translate(-50%, -50%); border:5px solid black"">","","","","","","","",""
"","6985.680000001623","sequential-stimulus-presentation-old","60","427095","0.0-17.0-1.1","SS1618365668549","trial","","40","500","7485.680000001623","images/stimuli/spore_stims/simple_11_A_b.gif","images/stimuli/spore_stims/simple_02_A_a.gif","self_paced","","4","simple_dissimilar","images/stimuli/spore_stims/simple_11_A_b.gif","","","","",""
"","null","html-keyboard-response","61","427999","0.0-17.0-0.2","SS1618365668549","","","null","","","","","","<p><img src= images/blank.png width =""600"" height = ""600"" style=""position:fixed;top:50%; left:50%; transform: translate(-50%, -50%); border:5px solid black"">","","","","","","","",""
"","8993.77000000095","sequential-stimulus-presentation-old","62","437495","0.0-17.0-1.2","SS1618365668549","trial","","40","500","9493.77000000095","images/stimuli/spore_stims/simple_11_A_b.gif","images/stimuli/spore_stims/simple_02_A_a.gif","self_paced","","4","simple_dissimilar","images/stimuli/spore_stims/simple_02_A_a.gif","","","","",""
"","null","html-keyboard-response","63","438330","0.0-17.0-0.3","SS1618365668549","","","null","","","","","","<p><img src= images/blank.png width =""600"" height = ""600"" style=""position:fixed;top:50%; left:50%; transform: translate(-50%, -50%); border:5px solid black"">","","","","","","","",""
"","1350.4950000005774","sequential-stimulus-presentation-old","64","440183","0.0-17.0-1.3","SS1618365668549","trial","","40","500","1850.4950000005774","images/stimuli/spore_stims/simple_11_A_b.gif","images/stimuli/spore_stims/simple_02_A_a.gif","self_paced","","4","simple_dissimilar","images/stimuli/spore_stims/simple_02_A_a.gif","","","","",""
"","2586.049999999872","survey-multi-choice","65","442770","0.0-18.0","SS1618365668549","math_question","","","","","","","","","","","","{""Q0"":""18""}","[0]","18","",""
"","null","html-keyboard-response","66","443705","0.0-19.0-0.0","SS1618365668549","","","null","","","","","","<p><img src= images/blank.png width =""600"" height = ""600"" style=""position:fixed;top:50%; left:50%; transform: translate(-50%, -50%); border:5px solid black"">","","","","","","","",""
"","4457.094999999739","sequential-stimulus-presentation-old","67","453624","0.0-19.0-1.0","SS1618365668549","trial","","40","500","4957.094999999739","images/stimuli/spore_stims/simple_03_A_a.gif","images/stimuli/spore_stims/simple_06_A_b.gif","forced_long","","5","simple_dissimilar","images/stimuli/spore_stims/simple_06_A_b.gif","","","","",""
"","null","html-keyboard-response","68","454616","0.0-19.0-0.1","SS1618365668549","","","null","","","","","","<p><img src= images/blank.png width =""600"" height = ""600"" style=""position:fixed;top:50%; left:50%; transform: translate(-50%, -50%); border:5px solid black"">","","","","","","","",""
"","1287.9300000004005","sequential-stimulus-presentation-old","69","456407","0.0-19.0-1.1","SS1618365668549","trial","","40","500","1787.9300000004005","images/stimuli/spore_stims/simple_03_A_a.gif","images/stimuli/spore_stims/simple_06_A_b.gif","forced_long","","5","simple_dissimilar","images/stimuli/spore_stims/simple_06_A_b.gif","","","","",""
"","null","html-keyboard-response","70","457611","0.0-19.0-0.2","SS1618365668549","","","null","","","","","","<p><img src= images/blank.png width =""600"" height = ""600"" style=""position:fixed;top:50%; left:50%; transform: translate(-50%, -50%); border:5px solid black"">","","","","","","","",""
"","1876.8350000009523","sequential-stimulus-presentation-old","71","459991","0.0-19.0-1.2","SS1618365668549","trial","","40","500","2376.8350000009523","images/stimuli/spore_stims/simple_03_A_a.gif","images/stimuli/spore_stims/simple_06_A_b.gif","forced_long","","5","simple_dissimilar","images/stimuli/spore_stims/simple_06_A_b.gif","","","","",""
"","null","html-keyboard-response","72","460899","0.0-19.0-0.3","SS1618365668549","","","null","","","","","","<p><img src= images/blank.png width =""600"" height = ""600"" style=""position:fixed;top:50%; left:50%; transform: translate(-50%, -50%); border:5px solid black"">","","","","","","","",""
"","3677.1449999996694","sequential-stimulus-presentation-old","73","465079","0.0-19.0-1.3","SS1618365668549","trial","","40","500","4177.144999999669","images/stimuli/spore_stims/simple_03_A_a.gif","images/stimuli/spore_stims/simple_06_A_b.gif","forced_long","","5","simple_dissimilar","images/stimuli/spore_stims/simple_03_A_a.gif","","","","",""
"","null","html-keyboard-response","74","466345","0.0-19.0-0.4","SS1618365668549","","","null","","","","","","<p><img src= images/blank.png width =""600"" height = ""600"" style=""position:fixed;top:50%; left:50%; transform: translate(-50%, -50%); border:5px solid black"">","","","","","","","",""
"","966.8050000000512","sequential-stimulus-presentation-old","75","467815","0.0-19.0-1.4","SS1618365668549","trial","","40","500","1466.8050000000512","images/stimuli/spore_stims/simple_03_A_a.gif","images/stimuli/spore_stims/simple_06_A_b.gif","forced_long","","5","simple_dissimilar","images/stimuli/spore_stims/simple_06_A_b.gif","","","","",""
"","null","html-keyboard-response","76","468979","0.0-19.0-0.5","SS1618365668549","","","null","","","","","","<p><img src= images/blank.png width =""600"" height = ""600"" style=""position:fixed;top:50%; left:50%; transform: translate(-50%, -50%); border:5px solid black"">","","","","","","","",""
"","1149.6249999981374","sequential-stimulus-presentation-old","77","470631","0.0-19.0-1.5","SS1618365668549","trial","","40","500","1649.6249999981374","images/stimuli/spore_stims/simple_03_A_a.gif","images/stimuli/spore_stims/simple_06_A_b.gif","forced_long","","5","simple_dissimilar","images/stimuli/spore_stims/simple_06_A_b.gif","","","","",""
"","2775.340000000142","survey-multi-choice","78","473409","0.0-20.0","SS1618365668549","math_question","","","","","","","","","","","","{""Q0"":""6""}","[0]","6","",""
"","null","html-keyboard-response","79","474481","0.0-21.0-0.0","SS1618365668549","","","null","","","","","","<p><img src= images/blank.png width =""600"" height = ""600"" style=""position:fixed;top:50%; left:50%; transform: translate(-50%, -50%); border:5px solid black"">","","","","","","","",""
"","1481.6499999997322","sequential-stimulus-presentation-old","80","480968","0.0-21.0-1.0","SS1618365668549","trial","","40","500","1981.6499999997322","images/stimuli/spore_stims/simple_06_A_a.gif","images/stimuli/spore_stims/simple_14_A_b.gif","forced_long","","6","simple_dissimilar","images/stimuli/spore_stims/simple_14_A_b.gif","","","","",""
"","null","html-keyboard-response","81","482070","0.0-21.0-0.1","SS1618365668549","","","null","","","","","","<p><img src= images/blank.png width =""600"" height = ""600"" style=""position:fixed;top:50%; left:50%; transform: translate(-50%, -50%); border:5px solid black"">","","","","","","","",""
"","2954.7349999992875","sequential-stimulus-presentation-old","82","485527","0.0-21.0-1.1","SS1618365668549","trial","","40","500","3454.7349999992875","images/stimuli/spore_stims/simple_06_A_a.gif","images/stimuli/spore_stims/simple_14_A_b.gif","forced_long","","6","simple_dissimilar","images/stimuli/spore_stims/simple_14_A_b.gif","","","","",""
"","null","html-keyboard-response","83","486552","0.0-21.0-0.2","SS1618365668549","","","null","","","","","","<p><img src= images/blank.png width =""600"" height = ""600"" style=""position:fixed;top:50%; left:50%; transform: translate(-50%, -50%); border:5px solid black"">","","","","","","","",""
"","1212.2999999992317","sequential-stimulus-presentation-old","84","488279","0.0-21.0-1.2","SS1618365668549","trial","","40","500","1712.2999999992317","images/stimuli/spore_stims/simple_06_A_a.gif","images/stimuli/spore_stims/simple_14_A_b.gif","forced_long","","6","simple_dissimilar","images/stimuli/spore_stims/simple_14_A_b.gif","","","","",""
"","null","html-keyboard-response","85","489102","0.0-21.0-0.3","SS1618365668549","","","null","","","","","","<p><img src= images/blank.png width =""600"" height = ""600"" style=""position:fixed;top:50%; left:50%; transform: translate(-50%, -50%); border:5px solid black"">","","","","","","","",""
"","2357.3799999994226","sequential-stimulus-presentation-old","86","491975","0.0-21.0-1.3","SS1618365668549","trial","","40","500","2857.3799999994226","images/stimuli/spore_stims/simple_06_A_a.gif","images/stimuli/spore_stims/simple_14_A_b.gif","forced_long","","6","simple_dissimilar","images/stimuli/spore_stims/simple_14_A_b.gif","","","","",""
"","null","html-keyboard-response","87","492952","0.0-21.0-0.4","SS1618365668549","","","null","","","","","","<p><img src= images/blank.png width =""600"" height = ""600"" style=""position:fixed;top:50%; left:50%; transform: translate(-50%, -50%); border:5px solid black"">","","","","","","","",""
"","3544.5600000002305","sequential-stimulus-presentation-old","88","496999","0.0-21.0-1.4","SS1618365668549","trial","","40","500","4044.5600000002305","images/stimuli/spore_stims/simple_06_A_a.gif","images/stimuli/spore_stims/simple_14_A_b.gif","forced_long","","6","simple_dissimilar","images/stimuli/spore_stims/simple_14_A_b.gif","","","","",""
"","null","html-keyboard-response","89","498245","0.0-21.0-0.5","SS1618365668549","","","null","","","","","","<p><img src= images/blank.png width =""600"" height = ""600"" style=""position:fixed;top:50%; left:50%; transform: translate(-50%, -50%); border:5px solid black"">","","","","","","","",""
"","924.269999999553","sequential-stimulus-presentation-old","90","499672","0.0-21.0-1.5","SS1618365668549","trial","","40","500","1424.269999999553","images/stimuli/spore_stims/simple_06_A_a.gif","images/stimuli/spore_stims/simple_14_A_b.gif","forced_long","","6","simple_dissimilar","images/stimuli/spore_stims/simple_06_A_a.gif","","","","",""
"","3241.8899999993155","survey-multi-choice","91","502916","0.0-22.0","SS1618365668549","math_question","","","","","","","","","","","","{""Q0"":""5""}","[0]","5","",""
"","null","html-keyboard-response","92","504158","0.0-23.0-0.0","SS1618365668549","","","null","","","","","","<p><img src= images/blank.png width =""600"" height = ""600"" style=""position:fixed;top:50%; left:50%; transform: translate(-50%, -50%); border:5px solid black"">","","","","","","","",""
"","1781.009999998787","sequential-stimulus-presentation-old","93","505992","0.0-23.0-1.0","SS1618365668549","trial","","40","500","2281.009999998787","images/stimuli/spore_stims/simple_18_A_b.gif","images/stimuli/spore_stims/simple_09_A_a.gif","forced_short","","7","simple_dissimilar","images/stimuli/spore_stims/simple_09_A_a.gif","","","","",""
"","null","html-keyboard-response","94","507267","0.0-23.0-0.1","SS1618365668549","","","null","","","","","","<p><img src= images/blank.png width =""600"" height = ""600"" style=""position:fixed;top:50%; left:50%; transform: translate(-50%, -50%); border:5px solid black"">","","","","","","","",""
"","2461.1700000004494","sequential-stimulus-presentation-old","95","510232","0.0-23.0-1.1","SS1618365668549","trial","","40","500","2961.1700000004494","images/stimuli/spore_stims/simple_18_A_b.gif","images/stimuli/spore_stims/simple_09_A_a.gif","forced_short","","7","simple_dissimilar","images/stimuli/spore_stims/simple_09_A_a.gif","","","","",""
"","null","html-keyboard-response","96","511486","0.0-23.0-0.2","SS1618365668549","","","null","","","","","","<p><img src= images/blank.png width =""600"" height = ""600"" style=""position:fixed;top:50%; left:50%; transform: translate(-50%, -50%); border:5px solid black"">","","","","","","","",""
"","1188.8700000017416","sequential-stimulus-presentation-old","97","513191","0.0-23.0-1.2","SS1618365668549","trial","","40","500","1688.8700000017416","images/stimuli/spore_stims/simple_18_A_b.gif","images/stimuli/spore_stims/simple_09_A_a.gif","forced_short","","7","simple_dissimilar","images/stimuli/spore_stims/simple_09_A_a.gif","","","","",""
"","null","html-keyboard-response","98","514083","0.0-23.0-0.3","SS1618365668549","","","null","","","","","","<p><img src= images/blank.png width =""600"" height = ""600"" style=""position:fixed;top:50%; left:50%; transform: translate(-50%, -50%); border:5px solid black"">","","","","","","","",""
"","908.4949999996461","sequential-stimulus-presentation-old","99","515495","0.0-23.0-1.3","SS1618365668549","trial","","40","500","1408.494999999646","images/stimuli/spore_stims/simple_18_A_b.gif","images/stimuli/spore_stims/simple_09_A_a.gif","forced_short","","7","simple_dissimilar","images/stimuli/spore_stims/simple_09_A_a.gif","","","","",""
"","null","html-keyboard-response","100","516747","0.0-23.0-0.4","SS1618365668549","","","null","","","","","","<p><img src= images/blank.png width =""600"" height = ""600"" style=""position:fixed;top:50%; left:50%; transform: translate(-50%, -50%); border:5px solid black"">","","","","","","","",""
"","3987.869999999006","sequential-stimulus-presentation-old","101","521239","0.0-23.0-1.4","SS1618365668549","trial","","40","500","4487.869999999006","images/stimuli/spore_stims/simple_18_A_b.gif","images/stimuli/spore_stims/simple_09_A_a.gif","forced_short","","7","simple_dissimilar","images/stimuli/spore_stims/simple_18_A_b.gif","","","","",""
"","4056.7100000007777","survey-multi-choice","102","525298","0.0-24.0","SS1618365668549","math_question","","","","","","","","","","","","{""Q0"":""8""}","[0]","8","",""
"","null","html-keyboard-response","103","526135","0.0-25.0-0.0","SS1618365668549","","","null","","","","","","<p><img src= images/blank.png width =""600"" height = ""600"" style=""position:fixed;top:50%; left:50%; transform: translate(-50%, -50%); border:5px solid black"">","","","","","","","",""
"","2770.3099999999395","sequential-stimulus-presentation-old","104","528967","0.0-25.0-1.0","SS1618365668549","trial","","40","500","3270.3099999999395","images/stimuli/spore_stims/complex_04_A_a.gif","images/stimuli/spore_stims/complex_12_A_b.gif","forced_short","","8","complex_dissimilar","images/stimuli/spore_stims/complex_12_A_b.gif","","","","",""
"","null","html-keyboard-response","105","529908","0.0-25.0-0.1","SS1618365668549","","","null","","","","","","<p><img src= images/blank.png width =""600"" height = ""600"" style=""position:fixed;top:50%; left:50%; transform: translate(-50%, -50%); border:5px solid black"">","","","","","","","",""
"","4844.080000000773","sequential-stimulus-presentation-old","106","535255","0.0-25.0-1.1","SS1618365668549","trial","","40","500","5344.080000000773","images/stimuli/spore_stims/complex_04_A_a.gif","images/stimuli/spore_stims/complex_12_A_b.gif","forced_short","","8","complex_dissimilar","images/stimuli/spore_stims/complex_12_A_b.gif","","","","",""
"","null","html-keyboard-response","107","536287","0.0-25.0-0.2","SS1618365668549","","","null","","","","","","<p><img src= images/blank.png width =""600"" height = ""600"" style=""position:fixed;top:50%; left:50%; transform: translate(-50%, -50%); border:5px solid black"">","","","","","","","",""
"","1646.8499999992782","sequential-stimulus-presentation-old","108","538439","0.0-25.0-1.2","SS1618365668549","trial","","40","500","2146.849999999278","images/stimuli/spore_stims/complex_04_A_a.gif","images/stimuli/spore_stims/complex_12_A_b.gif","forced_short","","8","complex_dissimilar","images/stimuli/spore_stims/complex_12_A_b.gif","","","","",""
"","null","html-keyboard-response","109","539434","0.0-25.0-0.3","SS1618365668549","","","null","","","","","","<p><img src= images/blank.png width =""600"" height = ""600"" style=""position:fixed;top:50%; left:50%; transform: translate(-50%, -50%); border:5px solid black"">","","","","","","","",""
"","3941.440000000526","sequential-stimulus-presentation-old","110","543879","0.0-25.0-1.3","SS1618365668549","trial","","40","500","4441.440000000526","images/stimuli/spore_stims/complex_04_A_a.gif","images/stimuli/spore_stims/complex_12_A_b.gif","forced_short","","8","complex_dissimilar","images/stimuli/spore_stims/complex_04_A_a.gif","","","","",""
"","null","html-keyboard-response","111","544893","0.0-25.0-0.4","SS1618365668549","","","null","","","","","","<p><img src= images/blank.png width =""600"" height = ""600"" style=""position:fixed;top:50%; left:50%; transform: translate(-50%, -50%); border:5px solid black"">","","","","","","","",""
"","850.8650000003399","sequential-stimulus-presentation-old","112","546247","0.0-25.0-1.4","SS1618365668549","trial","","40","500","1350.86500000034","images/stimuli/spore_stims/complex_04_A_a.gif","images/stimuli/spore_stims/complex_12_A_b.gif","forced_short","","8","complex_dissimilar","images/stimuli/spore_stims/complex_12_A_b.gif","","","","",""
"","null","html-keyboard-response","113","547321","0.0-25.0-0.5","SS1618365668549","","","null","","","","","","<p><img src= images/blank.png width =""600"" height = ""600"" style=""position:fixed;top:50%; left:50%; transform: translate(-50%, -50%); border:5px solid black"">","","","","","","","",""
"","118.34499999892432","sequential-stimulus-presentation-old","114","547943","0.0-25.0-1.5","SS1618365668549","trial","","40","500","618.3449999989243","images/stimuli/spore_stims/complex_04_A_a.gif","images/stimuli/spore_stims/complex_12_A_b.gif","forced_short","","8","complex_dissimilar","images/stimuli/spore_stims/complex_12_A_b.gif","","","","",""
"","2989.20999999973","survey-multi-choice","115","550933","0.0-26.0","SS1618365668549","math_question","","","","","","","","","","","","{""Q0"":""9""}","[0]","9","",""
"","null","html-keyboard-response","116","552204","0.0-27.0-0.0","SS1618365668549","","","null","","","","","","<p><img src= images/blank.png width =""600"" height = ""600"" style=""position:fixed;top:50%; left:50%; transform: translate(-50%, -50%); border:5px solid black"">","","","","","","","",""
"","2134.200000000419","sequential-stimulus-presentation-old","117","554391","0.0-27.0-1.0","SS1618365668549","trial","","40","500","2634.200000000419","images/stimuli/spore_stims/complex_03_A_b.gif","images/stimuli/spore_stims/complex_01_A_a.gif","forced_short","","9","complex_dissimilar","images/stimuli/spore_stims/complex_01_A_a.gif","","","","",""
"","null","html-keyboard-response","118","555405","0.0-27.0-0.1","SS1618365668549","","","null","","","","","","<p><img src= images/blank.png width =""600"" height = ""600"" style=""position:fixed;top:50%; left:50%; transform: translate(-50%, -50%); border:5px solid black"">","","","","","","","",""
"","4322.210000000312","sequential-stimulus-presentation-old","119","560231","0.0-27.0-1.1","SS1618365668549","trial","","40","500","4822.210000000312","images/stimuli/spore_stims/complex_03_A_b.gif","images/stimuli/spore_stims/complex_01_A_a.gif","forced_short","","9","complex_dissimilar","images/stimuli/spore_stims/complex_01_A_a.gif","","","","",""
"","null","html-keyboard-response","120","561258","0.0-27.0-0.2","SS1618365668549","","","null","","","","","","<p><img src= images/blank.png width =""600"" height = ""600"" style=""position:fixed;top:50%; left:50%; transform: translate(-50%, -50%); border:5px solid black"">","","","","","","","",""
"","4214.019999999437","sequential-stimulus-presentation-old","121","565975","0.0-27.0-1.2","SS1618365668549","trial","","40","500","4714.019999999437","images/stimuli/spore_stims/complex_03_A_b.gif","images/stimuli/spore_stims/complex_01_A_a.gif","forced_short","","9","complex_dissimilar","images/stimuli/spore_stims/complex_03_A_b.gif","","","","",""
"","null","html-keyboard-response","122","567102","0.0-27.0-0.3","SS1618365668549","","","null","","","","","","<p><img src= images/blank.png width =""600"" height = ""600"" style=""position:fixed;top:50%; left:50%; transform: translate(-50%, -50%); border:5px solid black"">","","","","","","","",""
"","1665.079999998794","sequential-stimulus-presentation-old","123","569271","0.0-27.0-1.3","SS1618365668549","trial","","40","500","2165.079999998794","images/stimuli/spore_stims/complex_03_A_b.gif","images/stimuli/spore_stims/complex_01_A_a.gif","forced_short","","9","complex_dissimilar","images/stimuli/spore_stims/complex_01_A_a.gif","","","","",""
"","3086.04999999993","survey-multi-choice","124","572360","0.0-28.0","SS1618365668549","math_question","","","","","","","","","","","","{""Q0"":""11""}","[0]","11","",""
"","null","html-keyboard-response","125","573646","0.0-29.0-0.0","SS1618365668549","","","null","","","","","","<p><img src= images/blank.png width =""600"" height = ""600"" style=""position:fixed;top:50%; left:50%; transform: translate(-50%, -50%); border:5px solid black"">","","","","","","","",""
"","1507.9349999995902","sequential-stimulus-presentation-old","126","575208","0.0-29.0-1.0","SS1618365668549","trial","","40","500","2007.9349999995902","images/stimuli/spore_stims/simple_04_A_b.gif","images/stimuli/spore_stims/simple_12_A_a.gif","forced_short","","10","simple_dissimilar","images/stimuli/spore_stims/simple_12_A_a.gif","","","","",""
"","null","html-keyboard-response","127","576436","0.0-29.0-0.1","SS1618365668549","","","null","","","","","","<p><img src= images/blank.png width =""600"" height = ""600"" style=""position:fixed;top:50%; left:50%; transform: translate(-50%, -50%); border:5px solid black"">","","","","","","","",""
"","2746.4550000004238","sequential-stimulus-presentation-old","128","579687","0.0-29.0-1.1","SS1618365668549","trial","","40","500","3246.4550000004238","images/stimuli/spore_stims/simple_04_A_b.gif","images/stimuli/spore_stims/simple_12_A_a.gif","forced_short","","10","simple_dissimilar","images/stimuli/spore_stims/simple_12_A_a.gif","","","","",""
"","null","html-keyboard-response","129","580659","0.0-29.0-0.2","SS1618365668549","","","null","","","","","","<p><img src= images/blank.png width =""600"" height = ""600"" style=""position:fixed;top:50%; left:50%; transform: translate(-50%, -50%); border:5px solid black"">","","","","","","","",""
"","1466.734999999986","sequential-stimulus-presentation-old","130","582631","0.0-29.0-1.2","SS1618365668549","trial","","40","500","1966.734999999986","images/stimuli/spore_stims/simple_04_A_b.gif","images/stimuli/spore_stims/simple_12_A_a.gif","forced_short","","10","simple_dissimilar","images/stimuli/spore_stims/simple_12_A_a.gif","","","","",""
"","null","html-keyboard-response","131","583755","0.0-29.0-0.3","SS1618365668549","","","null","","","","","","<p><img src= images/blank.png width =""600"" height = ""600"" style=""position:fixed;top:50%; left:50%; transform: translate(-50%, -50%); border:5px solid black"">","","","","","","","",""
"","787.4099999989849","sequential-stimulus-presentation-old","132","585047","0.0-29.0-1.3","SS1618365668549","trial","","40","500","1287.4099999989849","images/stimuli/spore_stims/simple_04_A_b.gif","images/stimuli/spore_stims/simple_12_A_a.gif","forced_short","","10","simple_dissimilar","images/stimuli/spore_stims/simple_12_A_a.gif","","","","",""
"","null","html-keyboard-response","133","585987","0.0-29.0-0.4","SS1618365668549","","","null","","","","","","<p><img src= images/blank.png width =""600"" height = ""600"" style=""position:fixed;top:50%; left:50%; transform: translate(-50%, -50%); border:5px solid black"">","","","","","","","",""
"","431.89999999967404","sequential-stimulus-presentation-old","134","586935","0.0-29.0-1.4","SS1618365668549","trial","","40","500","931.899999999674","images/stimuli/spore_stims/simple_04_A_b.gif","images/stimuli/spore_stims/simple_12_A_a.gif","forced_short","","10","simple_dissimilar","images/stimuli/spore_stims/simple_12_A_a.gif","","","","",""
"","null","html-keyboard-response","135","587999","0.0-29.0-0.5","SS1618365668549","","","null","","","","","","<p><img src= images/blank.png width =""600"" height = ""600"" style=""position:fixed;top:50%; left:50%; transform: translate(-50%, -50%); border:5px solid black"">","","","","","","","",""
"","849.1349999984959","sequential-stimulus-presentation-old","136","589351","0.0-29.0-1.5","SS1618365668549","trial","","40","500","1349.134999998496","images/stimuli/spore_stims/simple_04_A_b.gif","images/stimuli/spore_stims/simple_12_A_a.gif","forced_short","","10","simple_dissimilar","images/stimuli/spore_stims/simple_12_A_a.gif","","","","",""
"","5961.735000000801","survey-multi-choice","137","595315","0.0-30.0","SS1618365668549","math_question","","","","","","","","","","","","{""Q0"":""12""}","[0]","12","",""
"","null","html-keyboard-response","138","596152","0.0-31.0-0.0","SS1618365668549","","","null","","","","","","<p><img src= images/blank.png width =""600"" height = ""600"" style=""position:fixed;top:50%; left:50%; transform: translate(-50%, -50%); border:5px solid black"">","","","","","","","",""
"","2071.099999999162","sequential-stimulus-presentation-old","139","598727","0.0-31.0-1.0","SS1618365668549","trial","","40","500","2571.099999999162","images/stimuli/spore_stims/simple_15_A_b.gif","images/stimuli/spore_stims/simple_07_A_a.gif","self_paced","","11","simple_dissimilar","images/stimuli/spore_stims/simple_07_A_a.gif","","","","",""
"","null","html-keyboard-response","140","599744","0.0-31.0-0.1","SS1618365668549","","","null","","","","","","<p><img src= images/blank.png width =""600"" height = ""600"" style=""position:fixed;top:50%; left:50%; transform: translate(-50%, -50%); border:5px solid black"">","","","","","","","",""
"","2276.4449999995995","sequential-stimulus-presentation-old","141","602535","0.0-31.0-1.1","SS1618365668549","trial","","40","500","2776.4449999995995","images/stimuli/spore_stims/simple_15_A_b.gif","images/stimuli/spore_stims/simple_07_A_a.gif","self_paced","","11","simple_dissimilar","images/stimuli/spore_stims/simple_07_A_a.gif","","","","",""
"","null","html-keyboard-response","142","603747","0.0-31.0-0.2","SS1618365668549","","","null","","","","","","<p><img src= images/blank.png width =""600"" height = ""600"" style=""position:fixed;top:50%; left:50%; transform: translate(-50%, -50%); border:5px solid black"">","","","","","","","",""
"","2955.345000000205","sequential-stimulus-presentation-old","143","607207","0.0-31.0-1.2","SS1618365668549","trial","","40","500","3455.345000000205","images/stimuli/spore_stims/simple_15_A_b.gif","images/stimuli/spore_stims/simple_07_A_a.gif","self_paced","","11","simple_dissimilar","images/stimuli/spore_stims/simple_15_A_b.gif","","","","",""
"","null","html-keyboard-response","144","608305","0.0-31.0-0.3","SS1618365668549","","","null","","","","","","<p><img src= images/blank.png width =""600"" height = ""600"" style=""position:fixed;top:50%; left:50%; transform: translate(-50%, -50%); border:5px solid black"">","","","","","","","",""
"","5661.035000000964","sequential-stimulus-presentation-old","145","614471","0.0-31.0-1.3","SS1618365668549","trial","","40","500","6161.035000000964","images/stimuli/spore_stims/simple_15_A_b.gif","images/stimuli/spore_stims/simple_07_A_a.gif","self_paced","","11","simple_dissimilar","images/stimuli/spore_stims/simple_07_A_a.gif","","","","",""
"","null","html-keyboard-response","146","615541","0.0-31.0-0.4","SS1618365668549","","","null","","","","","","<p><img src= images/blank.png width =""600"" height = ""600"" style=""position:fixed;top:50%; left:50%; transform: translate(-50%, -50%); border:5px solid black"">","","","","","","","",""
"","4038.6800000015646","sequential-stimulus-presentation-old","147","620087","0.0-31.0-1.4","SS1618365668549","trial","","40","500","4538.680000001565","images/stimuli/spore_stims/simple_15_A_b.gif","images/stimuli/spore_stims/simple_07_A_a.gif","self_paced","","11","simple_dissimilar","images/stimuli/spore_stims/simple_15_A_b.gif","","","","",""
"[{""page_index"":0,""viewing_time"":7002.029999999679}]","7002.20499999891","instructions","148","627091","0.0-32.0","SS1618365668549","instructions","","","","","","","","","","","","","","","",""
"","9225.77000000095","survey-likert","149","636319","0.0-33.0","SS1618365668549","similarity_question","","","","","","","","","","","","{""Q0"":3}","[0]","","images/stimuli/spore_stims/simple_12_A_a.gif","images/stimuli/spore_stims/simple_04_A_b.gif"
"","14799.940000000759","survey-likert","150","651122","0.0-34.0","SS1618365668549","similarity_question","","","","","","","","","","","","{""Q0"":1}","[0]","","images/stimuli/spore_stims/complex_03_A_b.gif","images/stimuli/spore_stims/complex_01_A_a.gif"
"","14992.44999999972","survey-likert","151","666117","0.0-35.0","SS1618365668549","similarity_question","","","","","","","","","","","","{""Q0"":3}","[0]","","images/stimuli/spore_stims/simple_02_A_a.gif","images/stimuli/spore_stims/simple_11_A_b.gif"
"","6580.58499999973","survey-likert","152","672701","0.0-36.0","SS1618365668549","similarity_question","","","","","","","","","","","","{""Q0"":4}","[0]","","images/stimuli/spore_stims/simple_06_A_b.gif","images/stimuli/spore_stims/simple_03_A_a.gif"
"","10766.760000000475","survey-likert","153","683470","0.0-37.0","SS1618365668549","similarity_question","","","","","","","","","","","","{""Q0"":4}","[0]","","images/stimuli/spore_stims/complex_09_A_b.gif","images/stimuli/spore_stims/complex_18_A_a.gif"
"","15977.000000000698","survey-likert","154","699449","0.0-38.0","SS1618365668549","similarity_question","","","","","","","","","","","","{""Q0"":3}","[0]","","images/stimuli/spore_stims/complex_02_A_a.gif","images/stimuli/spore_stims/complex_06_A_b.gif"
"","9898.834999999963","survey-likert","155","709351","0.0-39.0","SS1618365668549","similarity_question","","","","","","","","","","","","{""Q0"":1}","[0]","","images/stimuli/spore_stims/complex_16_A_a.gif","images/stimuli/spore_stims/complex_15_A_b.gif"
"","4318.935000001104","survey-likert","156","713673","0.0-40.0","SS1618365668549","similarity_question","","","","","","","","","","","","{""Q0"":5}","[0]","","images/stimuli/spore_stims/complex_05_A_a.gif","images/stimuli/spore_stims/complex_01_A_b.gif"
"","3170.920000000391","survey-likert","157","716846","0.0-41.0","SS1618365668549","similarity_question","","","","","","","","","","","","{""Q0"":3}","[0]","","images/stimuli/spore_stims/simple_06_A_a.gif","images/stimuli/spore_stims/simple_14_A_b.gif"
"","4455.484999998589","survey-likert","158","721304","0.0-42.0","SS1618365668549","similarity_question","","","","","","","","","","","","{""Q0"":2}","[0]","","images/stimuli/spore_stims/simple_18_A_b.gif","images/stimuli/spore_stims/simple_09_A_a.gif"
"","5843.839999999618","survey-likert","159","727150","0.0-43.0","SS1618365668549","similarity_question","","","","","","","","","","","","{""Q0"":1}","[0]","","images/stimuli/spore_stims/complex_04_A_a.gif","images/stimuli/spore_stims/complex_12_A_b.gif"
"","3823.3150000014575","survey-likert","160","730976","0.0-44.0","SS1618365668549","similarity_question","","","","","","","","","","","","{""Q0"":3}","[0]","","images/stimuli/spore_stims/simple_07_A_a.gif","images/stimuli/spore_stims/simple_15_A_b.gif"
"[{""page_index"":0,""viewing_time"":12327.334999999963}]","12327.49499999953","instructions","161","743306","0.0-45.0","SS1618365668549","instructions","","","","","","","","","","","","","","","",""
"","5769.2049999986775","survey-likert","162","749078","0.0-46.0","SS1618365668549","","","","","","","","","images/stimuli/spore_stims/complex_12_A_b.gif","","","","{""Q0"":5}","[0]","","",""
"","5447.790000000154","survey-likert","163","754528","0.0-47.0","SS1618365668549","","","","","","","","","images/stimuli/spore_stims/complex_01_A_a.gif","","","","{""Q0"":3}","[0]","","",""
"","9629.979999999632","survey-likert","164","764160","0.0-48.0","SS1618365668549","","","","","","","","","images/stimuli/spore_stims/complex_05_A_a.gif","","","","{""Q0"":2}","[0]","","",""
"","5031.065000001108","survey-likert","165","769195","0.0-49.0","SS1618365668549","","","","","","","","","images/stimuli/spore_stims/simple_15_A_b.gif","","","","{""Q0"":0}","[0]","","",""
"","5936.92499999993","survey-likert","166","775134","0.0-50.0","SS1618365668549","","","","","","","","","images/stimuli/spore_stims/complex_02_A_a.gif","","","","{""Q0"":4}","[0]","","",""
"","5363.610000000335","survey-likert","167","780501","0.0-51.0","SS1618365668549","","","","","","","","","images/stimuli/spore_stims/complex_09_A_b.gif","","","","{""Q0"":4}","[0]","","",""
"","3010.8600000003353","survey-likert","168","783514","0.0-52.0","SS1618365668549","","","","","","","","","images/stimuli/spore_stims/simple_11_A_b.gif","","","","{""Q0"":0}","[0]","","",""
"","2238.335000000079","survey-likert","169","785755","0.0-53.0","SS1618365668549","","","","","","","","","images/stimuli/spore_stims/simple_09_A_a.gif","","","","{""Q0"":0}","[0]","","",""
"","2006.5249999989755","survey-likert","170","787764","0.0-54.0","SS1618365668549","","","","","","","","","images/stimuli/spore_stims/simple_12_A_a.gif","","","","{""Q0"":0}","[0]","","",""
"","2706.2999999998137","survey-likert","171","790473","0.0-55.0","SS1618365668549","","","","","","","","","images/stimuli/spore_stims/simple_06_A_b.gif","","","","{""Q0"":0}","[0]","","",""
"","4871.790000000969","survey-likert","172","795347","0.0-56.0","SS1618365668549","","","","","","","","","images/stimuli/spore_stims/simple_14_A_b.gif","","","","{""Q0"":1}","[0]","","",""
"","5059.94500000088","survey-likert","173","800409","0.0-57.0","SS1618365668549","","","","","","","","","images/stimuli/spore_stims/complex_15_A_b.gif","","","","{""Q0"":5}","[0]","","",""
"[{""page_index"":0,""viewing_time"":2182.4699999997392}]","2182.639999999199","instructions","174","802595","0.0-58.0","SS1618365668549","instructions","","","","","","","","","","","","","","","",""
"","3263.5450000015553","demog-age","175","805861","0.0-59.0","SS1618365668549","","","","","","","","","","","","","{""age"":""21""}","","","",""
"","16836.319999998435","demog-ethnic-US","176","822701","0.0-60.0","SS1618365668549","","","","","","","","","","","","","{""ethnicity"":[""Hispanic or Latino""]}","[0]","","",""
"","17640.57499999937","demog-gender-and-education","177","840345","0.0-61.0","SS1618365668549","","","","","","","","","","","","","{""gender"":""Male"",""education"":""High school diploma""}","[0,1]","","",""
"","33462.15000000119","survey-text","178","873811","0.0-62.0","SS1618365668549","feedback","","","","","","","","","","","","{""Q0"":""everything went alright""}","","","",""
"[{""page_index"":0,""viewing_time"":3470.3449999997392}]","3470.519999998971","instructions","179","877283","0.0-63.0","SS1618365668549","instructions","","","","","","","","","","","","","","","",""
