"view_history","rt","trial_type","trial_index","time_elapsed","internal_node_id","subject","stimulus_type","trial_stimulus","key_press","minimum_viewing_duration","trial_looking_time","block_deviant","block_background","exposure_type","stimulus","block_number","block_type","stimulus_displayed","responses","question_order","math_correct_answer","stimulus_left","stimulus_right"
"[{""page_index"":0,""viewing_time"":13346}]","13347","instructions","0","13347","0.0-0.0","SS1618435636673","","","","","","","","","","","","","","","","",""
"[{""page_index"":0,""viewing_time"":17315},{""page_index"":1,""viewing_time"":13553}]","30868","instructions","1","46216","0.0-1.0","SS1618435636673","instructions","","","","","","","","","","","","","","","",""
"","4780","sequential-stimulus-presentation-old","2","51498","0.0-2.0","SS1618435636673","","","40","500","5280","null","null","self_paced","","","","","","","","",""
"","3835","sequential-stimulus-presentation-old","3","55835","0.0-3.0","SS1618435636673","","","40","500","4335","null","null","self_paced","","","","","","","","",""
"[{""page_index"":0,""viewing_time"":18106}]","18107","instructions","4","73943","0.0-4.0","SS1618435636673","instructions","","","","","","","","","","","","","","","",""
"","3530","sequential-stimulus-presentation-old","5","82475","0.0-5.0","SS1618435636673","","","40","500","4030","null","null","forced_long","","","","","","","","",""
"","4256","sequential-stimulus-presentation-old","6","86794","0.0-6.0","SS1618435636673","","","40","50","4306","null","null","forced_long","","","","","","","","",""
"[{""page_index"":0,""viewing_time"":3345}]","3345","instructions","7","90140","0.0-7.0","SS1618435636673","instructions","","","","","","","","","","","","","","","",""
"[{""page_index"":0,""viewing_time"":22633},{""page_index"":1,""viewing_time"":5587},{""page_index"":2,""viewing_time"":5136},{""page_index"":3,""viewing_time"":1318},{""page_index"":4,""viewing_time"":1022}]","35696","instructions","8","125838","0.0-8.0","SS1618435636673","instructions","","","","","","","","","","","","","","","",""
"","null","html-keyboard-response","9","127000","0.0-9.0-0.0","SS1618435636673","","","null","","","","","","<p><img src= images/blank.png width =""600"" height = ""600"" style=""position:fixed;top:50%; left:50%; transform: translate(-50%, -50%); border:5px solid black"">","","","","","","","",""
"","820","sequential-stimulus-presentation-old","10","127872","0.0-9.0-1.0","SS1618435636673","trial","","40","500","1320","images/stimuli/spore_stims/complex_18_A_a.gif","images/stimuli/spore_stims/complex_07_A_b.gif","forced_short","","0","complex_dissimilar","images/stimuli/spore_stims/complex_07_A_b.gif","","","","",""
"","null","html-keyboard-response","11","128972","0.0-9.0-0.1","SS1618435636673","","","null","","","","","","<p><img src= images/blank.png width =""600"" height = ""600"" style=""position:fixed;top:50%; left:50%; transform: translate(-50%, -50%); border:5px solid black"">","","","","","","","",""
"","4812","sequential-stimulus-presentation-old","12","134286","0.0-9.0-1.1","SS1618435636673","trial","","40","500","5312","images/stimuli/spore_stims/complex_18_A_a.gif","images/stimuli/spore_stims/complex_07_A_b.gif","forced_short","","0","complex_dissimilar","images/stimuli/spore_stims/complex_18_A_a.gif","","","","",""
"","null","html-keyboard-response","13","135141","0.0-9.0-0.2","SS1618435636673","","","null","","","","","","<p><img src= images/blank.png width =""600"" height = ""600"" style=""position:fixed;top:50%; left:50%; transform: translate(-50%, -50%); border:5px solid black"">","","","","","","","",""
"","43420","sequential-stimulus-presentation-old","14","179064","0.0-9.0-1.2","SS1618435636673","trial","","40","500","43920","images/stimuli/spore_stims/complex_18_A_a.gif","images/stimuli/spore_stims/complex_07_A_b.gif","forced_short","","0","complex_dissimilar","images/stimuli/spore_stims/complex_07_A_b.gif","","","","",""
"","null","html-keyboard-response","15","180337","0.0-9.0-0.3","SS1618435636673","","","null","","","","","","<p><img src= images/blank.png width =""600"" height = ""600"" style=""position:fixed;top:50%; left:50%; transform: translate(-50%, -50%); border:5px solid black"">","","","","","","","",""
"","2305","sequential-stimulus-presentation-old","16","183144","0.0-9.0-1.3","SS1618435636673","trial","","40","500","2805","images/stimuli/spore_stims/complex_18_A_a.gif","images/stimuli/spore_stims/complex_07_A_b.gif","forced_short","","0","complex_dissimilar","images/stimuli/spore_stims/complex_07_A_b.gif","","","","",""
"","2735","survey-multi-choice","17","185879","0.0-10.0","SS1618435636673","math_question","","","","","","","","","","","","{""Q0"":""10""}","[0]","10","",""
"","null","html-keyboard-response","18","186869","0.0-11.0-0.0","SS1618435636673","","","null","","","","","","<p><img src= images/blank.png width =""600"" height = ""600"" style=""position:fixed;top:50%; left:50%; transform: translate(-50%, -50%); border:5px solid black"">","","","","","","","",""
"","2438","sequential-stimulus-presentation-old","19","189359","0.0-11.0-1.0","SS1618435636673","trial","","40","500","2938","images/stimuli/spore_stims/simple_06_A_b.gif","images/stimuli/spore_stims/simple_18_A_a.gif","forced_short","","1","simple_dissimilar","images/stimuli/spore_stims/simple_18_A_a.gif","","","","",""
"","null","html-keyboard-response","20","190435","0.0-11.0-0.1","SS1618435636673","","","null","","","","","","<p><img src= images/blank.png width =""600"" height = ""600"" style=""position:fixed;top:50%; left:50%; transform: translate(-50%, -50%); border:5px solid black"">","","","","","","","",""
"","2101","sequential-stimulus-presentation-old","21","193039","0.0-11.0-1.1","SS1618435636673","trial","","40","500","2601","images/stimuli/spore_stims/simple_06_A_b.gif","images/stimuli/spore_stims/simple_18_A_a.gif","forced_short","","1","simple_dissimilar","images/stimuli/spore_stims/simple_18_A_a.gif","","","","",""
"","null","html-keyboard-response","22","194179","0.0-11.0-0.2","SS1618435636673","","","null","","","","","","<p><img src= images/blank.png width =""600"" height = ""600"" style=""position:fixed;top:50%; left:50%; transform: translate(-50%, -50%); border:5px solid black"">","","","","","","","",""
"","2096","sequential-stimulus-presentation-old","23","196778","0.0-11.0-1.2","SS1618435636673","trial","","40","500","2596","images/stimuli/spore_stims/simple_06_A_b.gif","images/stimuli/spore_stims/simple_18_A_a.gif","forced_short","","1","simple_dissimilar","images/stimuli/spore_stims/simple_18_A_a.gif","","","","",""
"","null","html-keyboard-response","24","197631","0.0-11.0-0.3","SS1618435636673","","","null","","","","","","<p><img src= images/blank.png width =""600"" height = ""600"" style=""position:fixed;top:50%; left:50%; transform: translate(-50%, -50%); border:5px solid black"">","","","","","","","",""
"","1955","sequential-stimulus-presentation-old","25","200088","0.0-11.0-1.3","SS1618435636673","trial","","40","500","2455","images/stimuli/spore_stims/simple_06_A_b.gif","images/stimuli/spore_stims/simple_18_A_a.gif","forced_short","","1","simple_dissimilar","images/stimuli/spore_stims/simple_18_A_a.gif","","","","",""
"","null","html-keyboard-response","26","201284","0.0-11.0-0.4","SS1618435636673","","","null","","","","","","<p><img src= images/blank.png width =""600"" height = ""600"" style=""position:fixed;top:50%; left:50%; transform: translate(-50%, -50%); border:5px solid black"">","","","","","","","",""
"","1702","sequential-stimulus-presentation-old","27","203487","0.0-11.0-1.4","SS1618435636673","trial","","40","500","2202","images/stimuli/spore_stims/simple_06_A_b.gif","images/stimuli/spore_stims/simple_18_A_a.gif","forced_short","","1","simple_dissimilar","images/stimuli/spore_stims/simple_06_A_b.gif","","","","",""
"","2473","survey-multi-choice","28","205962","0.0-12.0","SS1618435636673","math_question","","","","","","","","","","","","{""Q0"":""14""}","[0]","14","",""
"","null","html-keyboard-response","29","207131","0.0-13.0-0.0","SS1618435636673","","","null","","","","","","<p><img src= images/blank.png width =""600"" height = ""600"" style=""position:fixed;top:50%; left:50%; transform: translate(-50%, -50%); border:5px solid black"">","","","","","","","",""
"","800","sequential-stimulus-presentation-old","30","207982","0.0-13.0-1.0","SS1618435636673","trial","","40","500","1300","images/stimuli/spore_stims/complex_03_A_b.gif","images/stimuli/spore_stims/complex_08_A_a.gif","forced_short","","2","complex_dissimilar","images/stimuli/spore_stims/complex_08_A_a.gif","","","","",""
"","null","html-keyboard-response","31","209093","0.0-13.0-0.1","SS1618435636673","","","null","","","","","","<p><img src= images/blank.png width =""600"" height = ""600"" style=""position:fixed;top:50%; left:50%; transform: translate(-50%, -50%); border:5px solid black"">","","","","","","","",""
"","2028","sequential-stimulus-presentation-old","32","211625","0.0-13.0-1.1","SS1618435636673","trial","","40","500","2528","images/stimuli/spore_stims/complex_03_A_b.gif","images/stimuli/spore_stims/complex_08_A_a.gif","forced_short","","2","complex_dissimilar","images/stimuli/spore_stims/complex_08_A_a.gif","","","","",""
"","null","html-keyboard-response","33","212547","0.0-13.0-0.2","SS1618435636673","","","null","","","","","","<p><img src= images/blank.png width =""600"" height = ""600"" style=""position:fixed;top:50%; left:50%; transform: translate(-50%, -50%); border:5px solid black"">","","","","","","","",""
"","701","sequential-stimulus-presentation-old","34","213750","0.0-13.0-1.2","SS1618435636673","trial","","40","500","1201","images/stimuli/spore_stims/complex_03_A_b.gif","images/stimuli/spore_stims/complex_08_A_a.gif","forced_short","","2","complex_dissimilar","images/stimuli/spore_stims/complex_08_A_a.gif","","","","",""
"","null","html-keyboard-response","35","214811","0.0-13.0-0.3","SS1618435636673","","","null","","","","","","<p><img src= images/blank.png width =""600"" height = ""600"" style=""position:fixed;top:50%; left:50%; transform: translate(-50%, -50%); border:5px solid black"">","","","","","","","",""
"","1641","sequential-stimulus-presentation-old","36","216954","0.0-13.0-1.3","SS1618435636673","trial","","40","500","2141","images/stimuli/spore_stims/complex_03_A_b.gif","images/stimuli/spore_stims/complex_08_A_a.gif","forced_short","","2","complex_dissimilar","images/stimuli/spore_stims/complex_08_A_a.gif","","","","",""
"","null","html-keyboard-response","37","217787","0.0-13.0-0.4","SS1618435636673","","","null","","","","","","<p><img src= images/blank.png width =""600"" height = ""600"" style=""position:fixed;top:50%; left:50%; transform: translate(-50%, -50%); border:5px solid black"">","","","","","","","",""
"","874","sequential-stimulus-presentation-old","38","219168","0.0-13.0-1.4","SS1618435636673","trial","","40","500","1374","images/stimuli/spore_stims/complex_03_A_b.gif","images/stimuli/spore_stims/complex_08_A_a.gif","forced_short","","2","complex_dissimilar","images/stimuli/spore_stims/complex_08_A_a.gif","","","","",""
"","11251","survey-multi-choice","39","230421","0.0-14.0","SS1618435636673","math_question","","","","","","","","","","","","{""Q0"":""12""}","[0]","12","",""
"","null","html-keyboard-response","40","231342","0.0-15.0-0.0","SS1618435636673","","","null","","","","","","<p><img src= images/blank.png width =""600"" height = ""600"" style=""position:fixed;top:50%; left:50%; transform: translate(-50%, -50%); border:5px solid black"">","","","","","","","",""
"","1214","sequential-stimulus-presentation-old","41","233058","0.0-15.0-1.0","SS1618435636673","trial","","40","500","1714","images/stimuli/spore_stims/simple_11_A_a.gif","images/stimuli/spore_stims/simple_09_A_b.gif","self_paced","","3","simple_dissimilar","images/stimuli/spore_stims/simple_09_A_b.gif","","","","",""
"","null","html-keyboard-response","42","234137","0.0-15.0-0.1","SS1618435636673","","","null","","","","","","<p><img src= images/blank.png width =""600"" height = ""600"" style=""position:fixed;top:50%; left:50%; transform: translate(-50%, -50%); border:5px solid black"">","","","","","","","",""
"","345","sequential-stimulus-presentation-old","43","234983","0.0-15.0-1.1","SS1618435636673","trial","","40","500","845","images/stimuli/spore_stims/simple_11_A_a.gif","images/stimuli/spore_stims/simple_09_A_b.gif","self_paced","","3","simple_dissimilar","images/stimuli/spore_stims/simple_09_A_b.gif","","","","",""
"","null","html-keyboard-response","44","235859","0.0-15.0-0.2","SS1618435636673","","","null","","","","","","<p><img src= images/blank.png width =""600"" height = ""600"" style=""position:fixed;top:50%; left:50%; transform: translate(-50%, -50%); border:5px solid black"">","","","","","","","",""
"","717","sequential-stimulus-presentation-old","45","237078","0.0-15.0-1.2","SS1618435636673","trial","","40","500","1217","images/stimuli/spore_stims/simple_11_A_a.gif","images/stimuli/spore_stims/simple_09_A_b.gif","self_paced","","3","simple_dissimilar","images/stimuli/spore_stims/simple_11_A_a.gif","","","","",""
"","null","html-keyboard-response","46","238151","0.0-15.0-0.3","SS1618435636673","","","null","","","","","","<p><img src= images/blank.png width =""600"" height = ""600"" style=""position:fixed;top:50%; left:50%; transform: translate(-50%, -50%); border:5px solid black"">","","","","","","","",""
"","494","sequential-stimulus-presentation-old","47","239147","0.0-15.0-1.3","SS1618435636673","trial","","40","500","994","images/stimuli/spore_stims/simple_11_A_a.gif","images/stimuli/spore_stims/simple_09_A_b.gif","self_paced","","3","simple_dissimilar","images/stimuli/spore_stims/simple_09_A_b.gif","","","","",""
"","null","html-keyboard-response","48","240384","0.0-15.0-0.4","SS1618435636673","","","null","","","","","","<p><img src= images/blank.png width =""600"" height = ""600"" style=""position:fixed;top:50%; left:50%; transform: translate(-50%, -50%); border:5px solid black"">","","","","","","","",""
"","584","sequential-stimulus-presentation-old","49","241475","0.0-15.0-1.4","SS1618435636673","trial","","40","500","1084","images/stimuli/spore_stims/simple_11_A_a.gif","images/stimuli/spore_stims/simple_09_A_b.gif","self_paced","","3","simple_dissimilar","images/stimuli/spore_stims/simple_11_A_a.gif","","","","",""
"","null","html-keyboard-response","50","242584","0.0-15.0-0.5","SS1618435636673","","","null","","","","","","<p><img src= images/blank.png width =""600"" height = ""600"" style=""position:fixed;top:50%; left:50%; transform: translate(-50%, -50%); border:5px solid black"">","","","","","","","",""
"","973","sequential-stimulus-presentation-old","51","244061","0.0-15.0-1.5","SS1618435636673","trial","","40","500","1473","images/stimuli/spore_stims/simple_11_A_a.gif","images/stimuli/spore_stims/simple_09_A_b.gif","self_paced","","3","simple_dissimilar","images/stimuli/spore_stims/simple_09_A_b.gif","","","","",""
"","1979","survey-multi-choice","52","246041","0.0-16.0","SS1618435636673","math_question","","","","","","","","","","","","{""Q0"":""8""}","[0]","8","",""
"","null","html-keyboard-response","53","247264","0.0-17.0-0.0","SS1618435636673","","","null","","","","","","<p><img src= images/blank.png width =""600"" height = ""600"" style=""position:fixed;top:50%; left:50%; transform: translate(-50%, -50%); border:5px solid black"">","","","","","","","",""
"","1155","sequential-stimulus-presentation-old","54","253421","0.0-17.0-1.0","SS1618435636673","trial","","40","500","1655","images/stimuli/spore_stims/simple_19_A_b.gif","images/stimuli/spore_stims/simple_16_A_a.gif","forced_long","","4","simple_dissimilar","images/stimuli/spore_stims/simple_16_A_a.gif","","","","",""
"","null","html-keyboard-response","55","254474","0.0-17.0-0.1","SS1618435636673","","","null","","","","","","<p><img src= images/blank.png width =""600"" height = ""600"" style=""position:fixed;top:50%; left:50%; transform: translate(-50%, -50%); border:5px solid black"">","","","","","","","",""
"","6770","sequential-stimulus-presentation-old","56","261746","0.0-17.0-1.1","SS1618435636673","trial","","40","500","7270","images/stimuli/spore_stims/simple_19_A_b.gif","images/stimuli/spore_stims/simple_16_A_a.gif","forced_long","","4","simple_dissimilar","images/stimuli/spore_stims/simple_16_A_a.gif","","","","",""
"","null","html-keyboard-response","57","262779","0.0-17.0-0.2","SS1618435636673","","","null","","","","","","<p><img src= images/blank.png width =""600"" height = ""600"" style=""position:fixed;top:50%; left:50%; transform: translate(-50%, -50%); border:5px solid black"">","","","","","","","",""
"","459","sequential-stimulus-presentation-old","58","263739","0.0-17.0-1.2","SS1618435636673","trial","","40","500","959","images/stimuli/spore_stims/simple_19_A_b.gif","images/stimuli/spore_stims/simple_16_A_a.gif","forced_long","","4","simple_dissimilar","images/stimuli/spore_stims/simple_16_A_a.gif","","","","",""
"","null","html-keyboard-response","59","264618","0.0-17.0-0.3","SS1618435636673","","","null","","","","","","<p><img src= images/blank.png width =""600"" height = ""600"" style=""position:fixed;top:50%; left:50%; transform: translate(-50%, -50%); border:5px solid black"">","","","","","","","",""
"","209","sequential-stimulus-presentation-old","60","265329","0.0-17.0-1.3","SS1618435636673","trial","","40","500","709","images/stimuli/spore_stims/simple_19_A_b.gif","images/stimuli/spore_stims/simple_16_A_a.gif","forced_long","","4","simple_dissimilar","images/stimuli/spore_stims/simple_16_A_a.gif","","","","",""
"","null","html-keyboard-response","61","266532","0.0-17.0-0.4","SS1618435636673","","","null","","","","","","<p><img src= images/blank.png width =""600"" height = ""600"" style=""position:fixed;top:50%; left:50%; transform: translate(-50%, -50%); border:5px solid black"">","","","","","","","",""
"","119","sequential-stimulus-presentation-old","62","267151","0.0-17.0-1.4","SS1618435636673","trial","","40","500","619","images/stimuli/spore_stims/simple_19_A_b.gif","images/stimuli/spore_stims/simple_16_A_a.gif","forced_long","","4","simple_dissimilar","images/stimuli/spore_stims/simple_16_A_a.gif","","","","",""
"","4945","survey-multi-choice","63","272098","0.0-18.0","SS1618435636673","math_question","","","","","","","","","","","","{""Q0"":""15""}","[0]","15","",""
"","null","html-keyboard-response","64","273303","0.0-19.0-0.0","SS1618435636673","","","null","","","","","","<p><img src= images/blank.png width =""600"" height = ""600"" style=""position:fixed;top:50%; left:50%; transform: translate(-50%, -50%); border:5px solid black"">","","","","","","","",""
"","781","sequential-stimulus-presentation-old","65","274592","0.0-19.0-1.0","SS1618435636673","trial","","40","500","1281","images/stimuli/spore_stims/simple_17_A_a.gif","images/stimuli/spore_stims/simple_13_A_b.gif","self_paced","","5","simple_dissimilar","images/stimuli/spore_stims/simple_13_A_b.gif","","","","",""
"","null","html-keyboard-response","66","275450","0.0-19.0-0.1","SS1618435636673","","","null","","","","","","<p><img src= images/blank.png width =""600"" height = ""600"" style=""position:fixed;top:50%; left:50%; transform: translate(-50%, -50%); border:5px solid black"">","","","","","","","",""
"","15599","sequential-stimulus-presentation-old","67","291554","0.0-19.0-1.1","SS1618435636673","trial","","40","500","16099","images/stimuli/spore_stims/simple_17_A_a.gif","images/stimuli/spore_stims/simple_13_A_b.gif","self_paced","","5","simple_dissimilar","images/stimuli/spore_stims/simple_13_A_b.gif","","","","",""
"","null","html-keyboard-response","68","292854","0.0-19.0-0.2","SS1618435636673","","","null","","","","","","<p><img src= images/blank.png width =""600"" height = ""600"" style=""position:fixed;top:50%; left:50%; transform: translate(-50%, -50%); border:5px solid black"">","","","","","","","",""
"","1265","sequential-stimulus-presentation-old","69","294622","0.0-19.0-1.2","SS1618435636673","trial","","40","500","1765","images/stimuli/spore_stims/simple_17_A_a.gif","images/stimuli/spore_stims/simple_13_A_b.gif","self_paced","","5","simple_dissimilar","images/stimuli/spore_stims/simple_13_A_b.gif","","","","",""
"","null","html-keyboard-response","70","295776","0.0-19.0-0.3","SS1618435636673","","","null","","","","","","<p><img src= images/blank.png width =""600"" height = ""600"" style=""position:fixed;top:50%; left:50%; transform: translate(-50%, -50%); border:5px solid black"">","","","","","","","",""
"","641","sequential-stimulus-presentation-old","71","296918","0.0-19.0-1.3","SS1618435636673","trial","","40","500","1141","images/stimuli/spore_stims/simple_17_A_a.gif","images/stimuli/spore_stims/simple_13_A_b.gif","self_paced","","5","simple_dissimilar","images/stimuli/spore_stims/simple_17_A_a.gif","","","","",""
"","2976","survey-multi-choice","72","299895","0.0-20.0","SS1618435636673","math_question","","","","","","","","","","","","{""Q0"":""12""}","[0]","12","",""
"","null","html-keyboard-response","73","301025","0.0-21.0-0.0","SS1618435636673","","","null","","","","","","<p><img src= images/blank.png width =""600"" height = ""600"" style=""position:fixed;top:50%; left:50%; transform: translate(-50%, -50%); border:5px solid black"">","","","","","","","",""
"","13453","sequential-stimulus-presentation-old","74","319482","0.0-21.0-1.0","SS1618435636673","trial","","40","500","13953","images/stimuli/spore_stims/simple_12_A_b.gif","images/stimuli/spore_stims/simple_13_A_a.gif","forced_long","","6","simple_dissimilar","images/stimuli/spore_stims/simple_13_A_a.gif","","","","",""
"","null","html-keyboard-response","75","320620","0.0-21.0-0.1","SS1618435636673","","","null","","","","","","<p><img src= images/blank.png width =""600"" height = ""600"" style=""position:fixed;top:50%; left:50%; transform: translate(-50%, -50%); border:5px solid black"">","","","","","","","",""
"","494","sequential-stimulus-presentation-old","76","321621","0.0-21.0-1.1","SS1618435636673","trial","","40","500","994","images/stimuli/spore_stims/simple_12_A_b.gif","images/stimuli/spore_stims/simple_13_A_a.gif","forced_long","","6","simple_dissimilar","images/stimuli/spore_stims/simple_12_A_b.gif","","","","",""
"","null","html-keyboard-response","77","322610","0.0-21.0-0.2","SS1618435636673","","","null","","","","","","<p><img src= images/blank.png width =""600"" height = ""600"" style=""position:fixed;top:50%; left:50%; transform: translate(-50%, -50%); border:5px solid black"">","","","","","","","",""
"","356","sequential-stimulus-presentation-old","78","323469","0.0-21.0-1.2","SS1618435636673","trial","","40","500","856","images/stimuli/spore_stims/simple_12_A_b.gif","images/stimuli/spore_stims/simple_13_A_a.gif","forced_long","","6","simple_dissimilar","images/stimuli/spore_stims/simple_13_A_a.gif","","","","",""
"","null","html-keyboard-response","79","324531","0.0-21.0-0.3","SS1618435636673","","","null","","","","","","<p><img src= images/blank.png width =""600"" height = ""600"" style=""position:fixed;top:50%; left:50%; transform: translate(-50%, -50%); border:5px solid black"">","","","","","","","",""
"","203","sequential-stimulus-presentation-old","80","325236","0.0-21.0-1.3","SS1618435636673","trial","","40","500","703","images/stimuli/spore_stims/simple_12_A_b.gif","images/stimuli/spore_stims/simple_13_A_a.gif","forced_long","","6","simple_dissimilar","images/stimuli/spore_stims/simple_13_A_a.gif","","","","",""
"","null","html-keyboard-response","81","326460","0.0-21.0-0.4","SS1618435636673","","","null","","","","","","<p><img src= images/blank.png width =""600"" height = ""600"" style=""position:fixed;top:50%; left:50%; transform: translate(-50%, -50%); border:5px solid black"">","","","","","","","",""
"","159","sequential-stimulus-presentation-old","82","327119","0.0-21.0-1.4","SS1618435636673","trial","","40","500","659","images/stimuli/spore_stims/simple_12_A_b.gif","images/stimuli/spore_stims/simple_13_A_a.gif","forced_long","","6","simple_dissimilar","images/stimuli/spore_stims/simple_13_A_a.gif","","","","",""
"","null","html-keyboard-response","83","328371","0.0-21.0-0.5","SS1618435636673","","","null","","","","","","<p><img src= images/blank.png width =""600"" height = ""600"" style=""position:fixed;top:50%; left:50%; transform: translate(-50%, -50%); border:5px solid black"">","","","","","","","",""
"","222","sequential-stimulus-presentation-old","84","329093","0.0-21.0-1.5","SS1618435636673","trial","","40","500","722","images/stimuli/spore_stims/simple_12_A_b.gif","images/stimuli/spore_stims/simple_13_A_a.gif","forced_long","","6","simple_dissimilar","images/stimuli/spore_stims/simple_13_A_a.gif","","","","",""
"","3019","survey-multi-choice","85","332114","0.0-22.0","SS1618435636673","math_question","","","","","","","","","","","","{""Q0"":""4""}","[0]","4","",""
"","null","html-keyboard-response","86","333000","0.0-23.0-0.0","SS1618435636673","","","null","","","","","","<p><img src= images/blank.png width =""600"" height = ""600"" style=""position:fixed;top:50%; left:50%; transform: translate(-50%, -50%); border:5px solid black"">","","","","","","","",""
"","5551","sequential-stimulus-presentation-old","87","343554","0.0-23.0-1.0","SS1618435636673","trial","","40","500","6051","images/stimuli/spore_stims/complex_16_A_b.gif","images/stimuli/spore_stims/complex_09_A_a.gif","forced_long","","7","complex_dissimilar","images/stimuli/spore_stims/complex_09_A_a.gif","","","","",""
"","null","html-keyboard-response","88","344639","0.0-23.0-0.1","SS1618435636673","","","null","","","","","","<p><img src= images/blank.png width =""600"" height = ""600"" style=""position:fixed;top:50%; left:50%; transform: translate(-50%, -50%); border:5px solid black"">","","","","","","","",""
"","542","sequential-stimulus-presentation-old","89","345682","0.0-23.0-1.1","SS1618435636673","trial","","40","500","1042","images/stimuli/spore_stims/complex_16_A_b.gif","images/stimuli/spore_stims/complex_09_A_a.gif","forced_long","","7","complex_dissimilar","images/stimuli/spore_stims/complex_16_A_b.gif","","","","",""
"","null","html-keyboard-response","90","346861","0.0-23.0-0.2","SS1618435636673","","","null","","","","","","<p><img src= images/blank.png width =""600"" height = ""600"" style=""position:fixed;top:50%; left:50%; transform: translate(-50%, -50%); border:5px solid black"">","","","","","","","",""
"","423","sequential-stimulus-presentation-old","91","347786","0.0-23.0-1.2","SS1618435636673","trial","","40","500","923","images/stimuli/spore_stims/complex_16_A_b.gif","images/stimuli/spore_stims/complex_09_A_a.gif","forced_long","","7","complex_dissimilar","images/stimuli/spore_stims/complex_09_A_a.gif","","","","",""
"","null","html-keyboard-response","92","348912","0.0-23.0-0.3","SS1618435636673","","","null","","","","","","<p><img src= images/blank.png width =""600"" height = ""600"" style=""position:fixed;top:50%; left:50%; transform: translate(-50%, -50%); border:5px solid black"">","","","","","","","",""
"","207","sequential-stimulus-presentation-old","93","349620","0.0-23.0-1.3","SS1618435636673","trial","","40","500","707","images/stimuli/spore_stims/complex_16_A_b.gif","images/stimuli/spore_stims/complex_09_A_a.gif","forced_long","","7","complex_dissimilar","images/stimuli/spore_stims/complex_16_A_b.gif","","","","",""
"","null","html-keyboard-response","94","350828","0.0-23.0-0.4","SS1618435636673","","","null","","","","","","<p><img src= images/blank.png width =""600"" height = ""600"" style=""position:fixed;top:50%; left:50%; transform: translate(-50%, -50%); border:5px solid black"">","","","","","","","",""
"","1039","sequential-stimulus-presentation-old","95","352367","0.0-23.0-1.4","SS1618435636673","trial","","40","500","1539","images/stimuli/spore_stims/complex_16_A_b.gif","images/stimuli/spore_stims/complex_09_A_a.gif","forced_long","","7","complex_dissimilar","images/stimuli/spore_stims/complex_09_A_a.gif","","","","",""
"","2365","survey-multi-choice","96","354734","0.0-24.0","SS1618435636673","math_question","","","","","","","","","","","","{""Q0"":""10""}","[0]","10","",""
"","null","html-keyboard-response","97","355889","0.0-25.0-0.0","SS1618435636673","","","null","","","","","","<p><img src= images/blank.png width =""600"" height = ""600"" style=""position:fixed;top:50%; left:50%; transform: translate(-50%, -50%); border:5px solid black"">","","","","","","","",""
"","2337","sequential-stimulus-presentation-old","98","358728","0.0-25.0-1.0","SS1618435636673","trial","","40","500","2837","images/stimuli/spore_stims/complex_08_A_b.gif","images/stimuli/spore_stims/complex_01_A_a.gif","self_paced","","8","complex_dissimilar","images/stimuli/spore_stims/complex_01_A_a.gif","","","","",""
"","null","html-keyboard-response","99","359918","0.0-25.0-0.1","SS1618435636673","","","null","","","","","","<p><img src= images/blank.png width =""600"" height = ""600"" style=""position:fixed;top:50%; left:50%; transform: translate(-50%, -50%); border:5px solid black"">","","","","","","","",""
"","423","sequential-stimulus-presentation-old","100","360841","0.0-25.0-1.1","SS1618435636673","trial","","40","500","923","images/stimuli/spore_stims/complex_08_A_b.gif","images/stimuli/spore_stims/complex_01_A_a.gif","self_paced","","8","complex_dissimilar","images/stimuli/spore_stims/complex_01_A_a.gif","","","","",""
"","null","html-keyboard-response","101","361715","0.0-25.0-0.2","SS1618435636673","","","null","","","","","","<p><img src= images/blank.png width =""600"" height = ""600"" style=""position:fixed;top:50%; left:50%; transform: translate(-50%, -50%); border:5px solid black"">","","","","","","","",""
"","155","sequential-stimulus-presentation-old","102","362382","0.0-25.0-1.2","SS1618435636673","trial","","40","500","655","images/stimuli/spore_stims/complex_08_A_b.gif","images/stimuli/spore_stims/complex_01_A_a.gif","self_paced","","8","complex_dissimilar","images/stimuli/spore_stims/complex_01_A_a.gif","","","","",""
"","null","html-keyboard-response","103","363590","0.0-25.0-0.3","SS1618435636673","","","null","","","","","","<p><img src= images/blank.png width =""600"" height = ""600"" style=""position:fixed;top:50%; left:50%; transform: translate(-50%, -50%); border:5px solid black"">","","","","","","","",""
"","284","sequential-stimulus-presentation-old","104","364376","0.0-25.0-1.3","SS1618435636673","trial","","40","500","784","images/stimuli/spore_stims/complex_08_A_b.gif","images/stimuli/spore_stims/complex_01_A_a.gif","self_paced","","8","complex_dissimilar","images/stimuli/spore_stims/complex_01_A_a.gif","","","","",""
"","null","html-keyboard-response","105","365191","0.0-25.0-0.4","SS1618435636673","","","null","","","","","","<p><img src= images/blank.png width =""600"" height = ""600"" style=""position:fixed;top:50%; left:50%; transform: translate(-50%, -50%); border:5px solid black"">","","","","","","","",""
"","389","sequential-stimulus-presentation-old","106","366088","0.0-25.0-1.4","SS1618435636673","trial","","40","500","889","images/stimuli/spore_stims/complex_08_A_b.gif","images/stimuli/spore_stims/complex_01_A_a.gif","self_paced","","8","complex_dissimilar","images/stimuli/spore_stims/complex_01_A_a.gif","","","","",""
"","null","html-keyboard-response","107","366912","0.0-25.0-0.5","SS1618435636673","","","null","","","","","","<p><img src= images/blank.png width =""600"" height = ""600"" style=""position:fixed;top:50%; left:50%; transform: translate(-50%, -50%); border:5px solid black"">","","","","","","","",""
"","171","sequential-stimulus-presentation-old","108","367585","0.0-25.0-1.5","SS1618435636673","trial","","40","500","671","images/stimuli/spore_stims/complex_08_A_b.gif","images/stimuli/spore_stims/complex_01_A_a.gif","self_paced","","8","complex_dissimilar","images/stimuli/spore_stims/complex_01_A_a.gif","","","","",""
"","2068","survey-multi-choice","109","369656","0.0-26.0","SS1618435636673","math_question","","","","","","","","","","","","{""Q0"":""13""}","[0]","13","",""
"","null","html-keyboard-response","110","370557","0.0-27.0-0.0","SS1618435636673","","","null","","","","","","<p><img src= images/blank.png width =""600"" height = ""600"" style=""position:fixed;top:50%; left:50%; transform: translate(-50%, -50%); border:5px solid black"">","","","","","","","",""
"","791","sequential-stimulus-presentation-old","111","371400","0.0-27.0-1.0","SS1618435636673","trial","","40","500","1291","images/stimuli/spore_stims/simple_18_A_b.gif","images/stimuli/spore_stims/simple_14_A_a.gif","forced_short","","9","simple_dissimilar","images/stimuli/spore_stims/simple_14_A_a.gif","","","","",""
"","null","html-keyboard-response","112","372531","0.0-27.0-0.1","SS1618435636673","","","null","","","","","","<p><img src= images/blank.png width =""600"" height = ""600"" style=""position:fixed;top:50%; left:50%; transform: translate(-50%, -50%); border:5px solid black"">","","","","","","","",""
"","154","sequential-stimulus-presentation-old","113","373187","0.0-27.0-1.1","SS1618435636673","trial","","40","500","654","images/stimuli/spore_stims/simple_18_A_b.gif","images/stimuli/spore_stims/simple_14_A_a.gif","forced_short","","9","simple_dissimilar","images/stimuli/spore_stims/simple_14_A_a.gif","","","","",""
"","null","html-keyboard-response","114","374027","0.0-27.0-0.2","SS1618435636673","","","null","","","","","","<p><img src= images/blank.png width =""600"" height = ""600"" style=""position:fixed;top:50%; left:50%; transform: translate(-50%, -50%); border:5px solid black"">","","","","","","","",""
"","410","sequential-stimulus-presentation-old","115","374938","0.0-27.0-1.2","SS1618435636673","trial","","40","500","910","images/stimuli/spore_stims/simple_18_A_b.gif","images/stimuli/spore_stims/simple_14_A_a.gif","forced_short","","9","simple_dissimilar","images/stimuli/spore_stims/simple_14_A_a.gif","","","","",""
"","null","html-keyboard-response","116","375897","0.0-27.0-0.3","SS1618435636673","","","null","","","","","","<p><img src= images/blank.png width =""600"" height = ""600"" style=""position:fixed;top:50%; left:50%; transform: translate(-50%, -50%); border:5px solid black"">","","","","","","","",""
"","113","sequential-stimulus-presentation-old","117","376517","0.0-27.0-1.3","SS1618435636673","trial","","40","500","613","images/stimuli/spore_stims/simple_18_A_b.gif","images/stimuli/spore_stims/simple_14_A_a.gif","forced_short","","9","simple_dissimilar","images/stimuli/spore_stims/simple_14_A_a.gif","","","","",""
"","14470","survey-multi-choice","118","390989","0.0-28.0","SS1618435636673","math_question","","","","","","","","","","","","{""Q0"":""11""}","[0]","11","",""
"","null","html-keyboard-response","119","392008","0.0-29.0-0.0","SS1618435636673","","","null","","","","","","<p><img src= images/blank.png width =""600"" height = ""600"" style=""position:fixed;top:50%; left:50%; transform: translate(-50%, -50%); border:5px solid black"">","","","","","","","",""
"","9943","sequential-stimulus-presentation-old","120","402453","0.0-29.0-1.0","SS1618435636673","trial","","40","500","10443","images/stimuli/spore_stims/complex_01_A_b.gif","images/stimuli/spore_stims/complex_03_A_a.gif","self_paced","","10","complex_dissimilar","images/stimuli/spore_stims/complex_03_A_a.gif","","","","",""
"","null","html-keyboard-response","121","403388","0.0-29.0-0.1","SS1618435636673","","","null","","","","","","<p><img src= images/blank.png width =""600"" height = ""600"" style=""position:fixed;top:50%; left:50%; transform: translate(-50%, -50%); border:5px solid black"">","","","","","","","",""
"","269","sequential-stimulus-presentation-old","122","404161","0.0-29.0-1.1","SS1618435636673","trial","","40","500","769","images/stimuli/spore_stims/complex_01_A_b.gif","images/stimuli/spore_stims/complex_03_A_a.gif","self_paced","","10","complex_dissimilar","images/stimuli/spore_stims/complex_03_A_a.gif","","","","",""
"","null","html-keyboard-response","123","405031","0.0-29.0-0.2","SS1618435636673","","","null","","","","","","<p><img src= images/blank.png width =""600"" height = ""600"" style=""position:fixed;top:50%; left:50%; transform: translate(-50%, -50%); border:5px solid black"">","","","","","","","",""
"","234","sequential-stimulus-presentation-old","124","405766","0.0-29.0-1.2","SS1618435636673","trial","","40","500","734","images/stimuli/spore_stims/complex_01_A_b.gif","images/stimuli/spore_stims/complex_03_A_a.gif","self_paced","","10","complex_dissimilar","images/stimuli/spore_stims/complex_03_A_a.gif","","","","",""
"","null","html-keyboard-response","125","406735","0.0-29.0-0.3","SS1618435636673","","","null","","","","","","<p><img src= images/blank.png width =""600"" height = ""600"" style=""position:fixed;top:50%; left:50%; transform: translate(-50%, -50%); border:5px solid black"">","","","","","","","",""
"","1268","sequential-stimulus-presentation-old","126","408523","0.0-29.0-1.3","SS1618435636673","trial","","40","500","1768","images/stimuli/spore_stims/complex_01_A_b.gif","images/stimuli/spore_stims/complex_03_A_a.gif","self_paced","","10","complex_dissimilar","images/stimuli/spore_stims/complex_03_A_a.gif","","","","",""
"","null","html-keyboard-response","127","409340","0.0-29.0-0.4","SS1618435636673","","","null","","","","","","<p><img src= images/blank.png width =""600"" height = ""600"" style=""position:fixed;top:50%; left:50%; transform: translate(-50%, -50%); border:5px solid black"">","","","","","","","",""
"","2430","sequential-stimulus-presentation-old","128","412272","0.0-29.0-1.4","SS1618435636673","trial","","40","500","2930","images/stimuli/spore_stims/complex_01_A_b.gif","images/stimuli/spore_stims/complex_03_A_a.gif","self_paced","","10","complex_dissimilar","images/stimuli/spore_stims/complex_03_A_a.gif","","","","",""
"","1457","survey-multi-choice","129","413731","0.0-30.0","SS1618435636673","math_question","","","","","","","","","","","","{""Q0"":""9""}","[0]","9","",""
"","null","html-keyboard-response","130","414927","0.0-31.0-0.0","SS1618435636673","","","null","","","","","","<p><img src= images/blank.png width =""600"" height = ""600"" style=""position:fixed;top:50%; left:50%; transform: translate(-50%, -50%); border:5px solid black"">","","","","","","","",""
"","189","sequential-stimulus-presentation-old","131","420118","0.0-31.0-1.0","SS1618435636673","trial","","40","500","689","images/stimuli/spore_stims/complex_11_A_a.gif","images/stimuli/spore_stims/complex_18_A_b.gif","forced_long","","11","complex_dissimilar","images/stimuli/spore_stims/complex_18_A_b.gif","","","","",""
"","null","html-keyboard-response","132","421348","0.0-31.0-0.1","SS1618435636673","","","null","","","","","","<p><img src= images/blank.png width =""600"" height = ""600"" style=""position:fixed;top:50%; left:50%; transform: translate(-50%, -50%); border:5px solid black"">","","","","","","","",""
"","540","sequential-stimulus-presentation-old","133","422395","0.0-31.0-1.1","SS1618435636673","trial","","40","500","1040","images/stimuli/spore_stims/complex_11_A_a.gif","images/stimuli/spore_stims/complex_18_A_b.gif","forced_long","","11","complex_dissimilar","images/stimuli/spore_stims/complex_18_A_b.gif","","","","",""
"","null","html-keyboard-response","134","423613","0.0-31.0-0.2","SS1618435636673","","","null","","","","","","<p><img src= images/blank.png width =""600"" height = ""600"" style=""position:fixed;top:50%; left:50%; transform: translate(-50%, -50%); border:5px solid black"">","","","","","","","",""
"","112","sequential-stimulus-presentation-old","135","424231","0.0-31.0-1.2","SS1618435636673","trial","","40","500","612","images/stimuli/spore_stims/complex_11_A_a.gif","images/stimuli/spore_stims/complex_18_A_b.gif","forced_long","","11","complex_dissimilar","images/stimuli/spore_stims/complex_11_A_a.gif","","","","",""
"","null","html-keyboard-response","136","425496","0.0-31.0-0.3","SS1618435636673","","","null","","","","","","<p><img src= images/blank.png width =""600"" height = ""600"" style=""position:fixed;top:50%; left:50%; transform: translate(-50%, -50%); border:5px solid black"">","","","","","","","",""
"","201","sequential-stimulus-presentation-old","137","426199","0.0-31.0-1.3","SS1618435636673","trial","","40","500","701","images/stimuli/spore_stims/complex_11_A_a.gif","images/stimuli/spore_stims/complex_18_A_b.gif","forced_long","","11","complex_dissimilar","images/stimuli/spore_stims/complex_18_A_b.gif","","","","",""
"[{""page_index"":0,""viewing_time"":4917}]","4917","instructions","138","431116","0.0-32.0","SS1618435636673","instructions","","","","","","","","","","","","","","","",""
"","4361","survey-likert","139","435479","0.0-33.0","SS1618435636673","similarity_question","","","","","","","","","","","","{""Q0"":4}","[0]","","images/stimuli/spore_stims/simple_19_A_b.gif","images/stimuli/spore_stims/simple_16_A_a.gif"
"","3639","survey-likert","140","439126","0.0-34.0","SS1618435636673","similarity_question","","","","","","","","","","","","{""Q0"":1}","[0]","","images/stimuli/spore_stims/complex_11_A_a.gif","images/stimuli/spore_stims/complex_18_A_b.gif"
"","2356","survey-likert","141","441490","0.0-35.0","SS1618435636673","similarity_question","","","","","","","","","","","","{""Q0"":0}","[0]","","images/stimuli/spore_stims/complex_03_A_a.gif","images/stimuli/spore_stims/complex_01_A_b.gif"
"","1689","survey-likert","142","443185","0.0-36.0","SS1618435636673","similarity_question","","","","","","","","","","","","{""Q0"":0}","[0]","","images/stimuli/spore_stims/complex_18_A_a.gif","images/stimuli/spore_stims/complex_07_A_b.gif"
"","1829","survey-likert","143","445020","0.0-37.0","SS1618435636673","similarity_question","","","","","","","","","","","","{""Q0"":4}","[0]","","images/stimuli/spore_stims/simple_09_A_b.gif","images/stimuli/spore_stims/simple_11_A_a.gif"
"","2972","survey-likert","144","448000","0.0-38.0","SS1618435636673","similarity_question","","","","","","","","","","","","{""Q0"":5}","[0]","","images/stimuli/spore_stims/simple_13_A_a.gif","images/stimuli/spore_stims/simple_12_A_b.gif"
"","1767","survey-likert","145","449776","0.0-39.0","SS1618435636673","similarity_question","","","","","","","","","","","","{""Q0"":0}","[0]","","images/stimuli/spore_stims/complex_16_A_b.gif","images/stimuli/spore_stims/complex_09_A_a.gif"
"","4430","survey-likert","146","454216","0.0-40.0","SS1618435636673","similarity_question","","","","","","","","","","","","{""Q0"":4}","[0]","","images/stimuli/spore_stims/simple_14_A_a.gif","images/stimuli/spore_stims/simple_18_A_b.gif"
"","1167","survey-likert","147","455391","0.0-41.0","SS1618435636673","similarity_question","","","","","","","","","","","","{""Q0"":4}","[0]","","images/stimuli/spore_stims/simple_06_A_b.gif","images/stimuli/spore_stims/simple_18_A_a.gif"
"","2179","survey-likert","148","457577","0.0-42.0","SS1618435636673","similarity_question","","","","","","","","","","","","{""Q0"":0}","[0]","","images/stimuli/spore_stims/complex_08_A_b.gif","images/stimuli/spore_stims/complex_01_A_a.gif"
"","2263","survey-likert","149","459853","0.0-43.0","SS1618435636673","similarity_question","","","","","","","","","","","","{""Q0"":6}","[0]","","images/stimuli/spore_stims/simple_17_A_a.gif","images/stimuli/spore_stims/simple_13_A_b.gif"
"","2679","survey-likert","150","462539","0.0-44.0","SS1618435636673","similarity_question","","","","","","","","","","","","{""Q0"":1}","[0]","","images/stimuli/spore_stims/complex_03_A_b.gif","images/stimuli/spore_stims/complex_08_A_a.gif"
"[{""page_index"":0,""viewing_time"":3575}]","3576","instructions","151","466124","0.0-45.0","SS1618435636673","instructions","","","","","","","","","","","","","","","",""
"","2685","survey-likert","152","468812","0.0-46.0","SS1618435636673","","","","","","","","","images/stimuli/spore_stims/simple_12_A_b.gif","","","","{""Q0"":0}","[0]","","",""
"","3182","survey-likert","153","472004","0.0-47.0","SS1618435636673","","","","","","","","","images/stimuli/spore_stims/complex_01_A_a.gif","","","","{""Q0"":5}","[0]","","",""
"","2194","survey-likert","154","474205","0.0-48.0","SS1618435636673","","","","","","","","","images/stimuli/spore_stims/complex_11_A_a.gif","","","","{""Q0"":6}","[0]","","",""
"","1368","survey-likert","155","475582","0.0-49.0","SS1618435636673","","","","","","","","","images/stimuli/spore_stims/simple_16_A_a.gif","","","","{""Q0"":0}","[0]","","",""
"","2893","survey-likert","156","478482","0.0-50.0","SS1618435636673","","","","","","","","","images/stimuli/spore_stims/complex_03_A_b.gif","","","","{""Q0"":5}","[0]","","",""
"","1412","survey-likert","157","479902","0.0-51.0","SS1618435636673","","","","","","","","","images/stimuli/spore_stims/complex_03_A_a.gif","","","","{""Q0"":5}","[0]","","",""
"","1711","survey-likert","158","481621","0.0-52.0","SS1618435636673","","","","","","","","","images/stimuli/spore_stims/simple_13_A_b.gif","","","","{""Q0"":0}","[0]","","",""
"","1541","survey-likert","159","483170","0.0-53.0","SS1618435636673","","","","","","","","","images/stimuli/spore_stims/complex_16_A_b.gif","","","","{""Q0"":6}","[0]","","",""
"","1597","survey-likert","160","484775","0.0-54.0","SS1618435636673","","","","","","","","","images/stimuli/spore_stims/complex_18_A_a.gif","","","","{""Q0"":6}","[0]","","",""
"","1467","survey-likert","161","486249","0.0-55.0","SS1618435636673","","","","","","","","","images/stimuli/spore_stims/simple_06_A_b.gif","","","","{""Q0"":0}","[0]","","",""
"","1643","survey-likert","162","487899","0.0-56.0","SS1618435636673","","","","","","","","","images/stimuli/spore_stims/simple_18_A_b.gif","","","","{""Q0"":0}","[0]","","",""
"","1219","survey-likert","163","489124","0.0-57.0","SS1618435636673","","","","","","","","","images/stimuli/spore_stims/simple_11_A_a.gif","","","","{""Q0"":0}","[0]","","",""
"[{""page_index"":0,""viewing_time"":1670}]","1670","instructions","164","490800","0.0-58.0","SS1618435636673","instructions","","","","","","","","","","","","","","","",""
"","2554","demog-age","165","493357","0.0-59.0","SS1618435636673","","","","","","","","","","","","","{""age"":""20""}","","","",""
"","5288","demog-ethnic-US","166","498649","0.0-60.0","SS1618435636673","","","","","","","","","","","","","{""ethnicity"":[""White""]}","[0]","","",""
"","10027","demog-gender-and-education","167","508685","0.0-61.0","SS1618435636673","","","","","","","","","","","","","{""gender"":""Male"",""education"":""High school diploma""}","[0,1]","","",""
"","9798","survey-text","168","518494","0.0-62.0","SS1618435636673","feedback","","","","","","","","","","","","{""Q0"":""No issue""}","","","",""
"[{""page_index"":0,""viewing_time"":1166}]","1166","instructions","169","519664","0.0-63.0","SS1618435636673","instructions","","","","","","","","","","","","","","","",""
