"view_history","rt","trial_type","trial_index","time_elapsed","internal_node_id","subject","stimulus_type","trial_stimulus","key_press","minimum_viewing_duration","trial_looking_time","block_deviant","block_background","exposure_type","stimulus","block_number","block_type","stimulus_displayed","responses","question_order","math_correct_answer","stimulus_left","stimulus_right"
"[{""page_index"":0,""viewing_time"":391745.1549999969}]","391745.3449999957","instructions","0","391746","0.0-0.0","SS1618435637291","","","","","","","","","","","","","","","","",""
"[{""page_index"":0,""viewing_time"":12742.545000000973},{""page_index"":1,""viewing_time"":5812.120000002324}]","18554.775000004156","instructions","1","412304","0.0-1.0","SS1618435637291","instructions","","","","","","","","","","","","","","","",""
"","11782.57499999745","sequential-stimulus-presentation-old","2","424589","0.0-2.0","SS1618435637291","","","40","500","12282.57499999745","null","null","self_paced","","","","","","","","",""
"","19662.954999999783","sequential-stimulus-presentation-old","3","444753","0.0-3.0","SS1618435637291","","","40","500","20162.954999999783","null","null","self_paced","","","","","","","","",""
"[{""page_index"":0,""viewing_time"":2672.1899999974994}]","2672.324999999546","instructions","4","447426","0.0-4.0","SS1618435637291","instructions","","","","","","","","","","","","","","","",""
"","1266.7600000058883","sequential-stimulus-presentation-old","5","453695","0.0-5.0","SS1618435637291","","","40","500","1766.7600000058883","null","null","forced_long","","","","","","","","",""
"","6370.360000000801","sequential-stimulus-presentation-old","6","460118","0.0-6.0","SS1618435637291","","","40","50","6420.360000000801","null","null","forced_long","","","","","","","","",""
"[{""page_index"":0,""viewing_time"":1729.5000000012806}]","1729.6149999965564","instructions","7","461848","0.0-7.0","SS1618435637291","instructions","","","","","","","","","","","","","","","",""
"[{""page_index"":0,""viewing_time"":4615.170000004582},{""page_index"":1,""viewing_time"":19766.465000000608},{""page_index"":2,""viewing_time"":8692.074999999022},{""page_index"":3,""viewing_time"":2485.7499999998254},{""page_index"":4,""viewing_time"":1117.6849999974365}]","36677.28999999963","instructions","8","498526","0.0-8.0","SS1618435637291","instructions","","","","","","","","","","","","","","","",""
"","null","html-keyboard-response","9","499647","0.0-9.0-0.0","SS1618435637291","","","null","","","","","","<p><img src= images/blank.png width =""600"" height = ""600"" style=""position:fixed;top:50%; left:50%; transform: translate(-50%, -50%); border:5px solid black"">","","","","","","","",""
"","599.0100000053644","sequential-stimulus-presentation-old","10","505249","0.0-9.0-1.0","SS1618435637291","trial","","40","500","1099.0100000053644","images/stimuli/spore_stims/complex_06_A_a.gif","images/stimuli/spore_stims/complex_20_A_b.gif","forced_long","","0","complex_dissimilar","images/stimuli/spore_stims/complex_20_A_b.gif","","","","",""
"","null","html-keyboard-response","11","506469","0.0-9.0-0.1","SS1618435637291","","","null","","","","","","<p><img src= images/blank.png width =""600"" height = ""600"" style=""position:fixed;top:50%; left:50%; transform: translate(-50%, -50%); border:5px solid black"">","","","","","","","",""
"","862.4199999976554","sequential-stimulus-presentation-old","12","507833","0.0-9.0-1.1","SS1618435637291","trial","","40","500","1362.4199999976554","images/stimuli/spore_stims/complex_06_A_a.gif","images/stimuli/spore_stims/complex_20_A_b.gif","forced_long","","0","complex_dissimilar","images/stimuli/spore_stims/complex_20_A_b.gif","","","","",""
"","null","html-keyboard-response","13","508969","0.0-9.0-0.2","SS1618435637291","","","null","","","","","","<p><img src= images/blank.png width =""600"" height = ""600"" style=""position:fixed;top:50%; left:50%; transform: translate(-50%, -50%); border:5px solid black"">","","","","","","","",""
"","8928.619999998831","sequential-stimulus-presentation-old","14","518400","0.0-9.0-1.2","SS1618435637291","trial","","40","500","9428.619999998831","images/stimuli/spore_stims/complex_06_A_a.gif","images/stimuli/spore_stims/complex_20_A_b.gif","forced_long","","0","complex_dissimilar","images/stimuli/spore_stims/complex_20_A_b.gif","","","","",""
"","null","html-keyboard-response","15","519434","0.0-9.0-0.3","SS1618435637291","","","null","","","","","","<p><img src= images/blank.png width =""600"" height = ""600"" style=""position:fixed;top:50%; left:50%; transform: translate(-50%, -50%); border:5px solid black"">","","","","","","","",""
"","15931.535000003409","sequential-stimulus-presentation-old","16","535868","0.0-9.0-1.3","SS1618435637291","trial","","40","500","16431.53500000341","images/stimuli/spore_stims/complex_06_A_a.gif","images/stimuli/spore_stims/complex_20_A_b.gif","forced_long","","0","complex_dissimilar","images/stimuli/spore_stims/complex_20_A_b.gif","","","","",""
"","4659.189999998547","survey-multi-choice","17","540529","0.0-10.0","SS1618435637291","math_question","","","","","","","","","","","","{""Q0"":""12""}","[0]","12","",""
"","null","html-keyboard-response","18","541725","0.0-11.0-0.0","SS1618435637291","","","null","","","","","","<p><img src= images/blank.png width =""600"" height = ""600"" style=""position:fixed;top:50%; left:50%; transform: translate(-50%, -50%); border:5px solid black"">","","","","","","","",""
"","5908.975000005681","sequential-stimulus-presentation-old","19","548137","0.0-11.0-1.0","SS1618435637291","trial","","40","500","6408.975000005681","images/stimuli/spore_stims/simple_20_A_b.gif","images/stimuli/spore_stims/simple_12_A_a.gif","self_paced","","1","simple_dissimilar","images/stimuli/spore_stims/simple_12_A_a.gif","","","","",""
"","null","html-keyboard-response","20","549141","0.0-11.0-0.1","SS1618435637291","","","null","","","","","","<p><img src= images/blank.png width =""600"" height = ""600"" style=""position:fixed;top:50%; left:50%; transform: translate(-50%, -50%); border:5px solid black"">","","","","","","","",""
"","6144.749999999534","sequential-stimulus-presentation-old","21","555788","0.0-11.0-1.1","SS1618435637291","trial","","40","500","6644.749999999534","images/stimuli/spore_stims/simple_20_A_b.gif","images/stimuli/spore_stims/simple_12_A_a.gif","self_paced","","1","simple_dissimilar","images/stimuli/spore_stims/simple_12_A_a.gif","","","","",""
"","null","html-keyboard-response","22","556665","0.0-11.0-0.2","SS1618435637291","","","null","","","","","","<p><img src= images/blank.png width =""600"" height = ""600"" style=""position:fixed;top:50%; left:50%; transform: translate(-50%, -50%); border:5px solid black"">","","","","","","","",""
"","6081.020000005141","sequential-stimulus-presentation-old","23","563249","0.0-11.0-1.2","SS1618435637291","trial","","40","500","6581.020000005141","images/stimuli/spore_stims/simple_20_A_b.gif","images/stimuli/spore_stims/simple_12_A_a.gif","self_paced","","1","simple_dissimilar","images/stimuli/spore_stims/simple_12_A_a.gif","","","","",""
"","null","html-keyboard-response","24","564417","0.0-11.0-0.3","SS1618435637291","","","null","","","","","","<p><img src= images/blank.png width =""600"" height = ""600"" style=""position:fixed;top:50%; left:50%; transform: translate(-50%, -50%); border:5px solid black"">","","","","","","","",""
"","9941.344999999274","sequential-stimulus-presentation-old","25","574862","0.0-11.0-1.3","SS1618435637291","trial","","40","500","10441.344999999274","images/stimuli/spore_stims/simple_20_A_b.gif","images/stimuli/spore_stims/simple_12_A_a.gif","self_paced","","1","simple_dissimilar","images/stimuli/spore_stims/simple_20_A_b.gif","","","","",""
"","null","html-keyboard-response","26","575781","0.0-11.0-0.4","SS1618435637291","","","null","","","","","","<p><img src= images/blank.png width =""600"" height = ""600"" style=""position:fixed;top:50%; left:50%; transform: translate(-50%, -50%); border:5px solid black"">","","","","","","","",""
"","5095.744999998715","sequential-stimulus-presentation-old","27","581381","0.0-11.0-1.4","SS1618435637291","trial","","40","500","5595.744999998715","images/stimuli/spore_stims/simple_20_A_b.gif","images/stimuli/spore_stims/simple_12_A_a.gif","self_paced","","1","simple_dissimilar","images/stimuli/spore_stims/simple_12_A_a.gif","","","","",""
"","null","html-keyboard-response","28","582594","0.0-11.0-0.5","SS1618435637291","","","null","","","","","","<p><img src= images/blank.png width =""600"" height = ""600"" style=""position:fixed;top:50%; left:50%; transform: translate(-50%, -50%); border:5px solid black"">","","","","","","","",""
"","4944.139999999665","sequential-stimulus-presentation-old","29","588041","0.0-11.0-1.5","SS1618435637291","trial","","40","500","5444.139999999665","images/stimuli/spore_stims/simple_20_A_b.gif","images/stimuli/spore_stims/simple_12_A_a.gif","self_paced","","1","simple_dissimilar","images/stimuli/spore_stims/simple_12_A_a.gif","","","","",""
"","2825.5149999967543","survey-multi-choice","30","590868","0.0-12.0","SS1618435637291","math_question","","","","","","","","","","","","{""Q0"":""16""}","[0]","16","",""
"","null","html-keyboard-response","31","592112","0.0-13.0-0.0","SS1618435637291","","","null","","","","","","<p><img src= images/blank.png width =""600"" height = ""600"" style=""position:fixed;top:50%; left:50%; transform: translate(-50%, -50%); border:5px solid black"">","","","","","","","",""
"","3392.9549999956507","sequential-stimulus-presentation-old","32","600508","0.0-13.0-1.0","SS1618435637291","trial","","40","500","3892.9549999956507","images/stimuli/spore_stims/simple_16_A_b.gif","images/stimuli/spore_stims/simple_15_A_a.gif","forced_long","","2","simple_dissimilar","images/stimuli/spore_stims/simple_15_A_a.gif","","","","",""
"","null","html-keyboard-response","33","601494","0.0-13.0-0.1","SS1618435637291","","","null","","","","","","<p><img src= images/blank.png width =""600"" height = ""600"" style=""position:fixed;top:50%; left:50%; transform: translate(-50%, -50%); border:5px solid black"">","","","","","","","",""
"","9596.235000004526","sequential-stimulus-presentation-old","34","611592","0.0-13.0-1.1","SS1618435637291","trial","","40","500","10096.235000004526","images/stimuli/spore_stims/simple_16_A_b.gif","images/stimuli/spore_stims/simple_15_A_a.gif","forced_long","","2","simple_dissimilar","images/stimuli/spore_stims/simple_15_A_a.gif","","","","",""
"","null","html-keyboard-response","35","612876","0.0-13.0-0.2","SS1618435637291","","","null","","","","","","<p><img src= images/blank.png width =""600"" height = ""600"" style=""position:fixed;top:50%; left:50%; transform: translate(-50%, -50%); border:5px solid black"">","","","","","","","",""
"","8361.42000000109","sequential-stimulus-presentation-old","36","621741","0.0-13.0-1.2","SS1618435637291","trial","","40","500","8861.42000000109","images/stimuli/spore_stims/simple_16_A_b.gif","images/stimuli/spore_stims/simple_15_A_a.gif","forced_long","","2","simple_dissimilar","images/stimuli/spore_stims/simple_15_A_a.gif","","","","",""
"","null","html-keyboard-response","37","622968","0.0-13.0-0.3","SS1618435637291","","","null","","","","","","<p><img src= images/blank.png width =""600"" height = ""600"" style=""position:fixed;top:50%; left:50%; transform: translate(-50%, -50%); border:5px solid black"">","","","","","","","",""
"","9392.175000000745","sequential-stimulus-presentation-old","38","632863","0.0-13.0-1.3","SS1618435637291","trial","","40","500","9892.175000000745","images/stimuli/spore_stims/simple_16_A_b.gif","images/stimuli/spore_stims/simple_15_A_a.gif","forced_long","","2","simple_dissimilar","images/stimuli/spore_stims/simple_15_A_a.gif","","","","",""
"","2941.7749999992084","survey-multi-choice","39","635806","0.0-14.0","SS1618435637291","math_question","","","","","","","","","","","","{""Q0"":""3""}","[0]","3","",""
"","null","html-keyboard-response","40","637019","0.0-15.0-0.0","SS1618435637291","","","null","","","","","","<p><img src= images/blank.png width =""600"" height = ""600"" style=""position:fixed;top:50%; left:50%; transform: translate(-50%, -50%); border:5px solid black"">","","","","","","","",""
"","12462.549999996554","sequential-stimulus-presentation-old","41","649984","0.0-15.0-1.0","SS1618435637291","trial","","40","500","12962.549999996554","images/stimuli/spore_stims/complex_14_A_b.gif","images/stimuli/spore_stims/complex_02_A_a.gif","self_paced","","3","complex_dissimilar","images/stimuli/spore_stims/complex_02_A_a.gif","","","","",""
"","null","html-keyboard-response","42","651112","0.0-15.0-0.1","SS1618435637291","","","null","","","","","","<p><img src= images/blank.png width =""600"" height = ""600"" style=""position:fixed;top:50%; left:50%; transform: translate(-50%, -50%); border:5px solid black"">","","","","","","","",""
"","9391.779999998049","sequential-stimulus-presentation-old","43","661006","0.0-15.0-1.1","SS1618435637291","trial","","40","500","9891.779999998049","images/stimuli/spore_stims/complex_14_A_b.gif","images/stimuli/spore_stims/complex_02_A_a.gif","self_paced","","3","complex_dissimilar","images/stimuli/spore_stims/complex_02_A_a.gif","","","","",""
"","null","html-keyboard-response","44","662227","0.0-15.0-0.2","SS1618435637291","","","null","","","","","","<p><img src= images/blank.png width =""600"" height = ""600"" style=""position:fixed;top:50%; left:50%; transform: translate(-50%, -50%); border:5px solid black"">","","","","","","","",""
"","8151.474999998813","sequential-stimulus-presentation-old","45","670881","0.0-15.0-1.2","SS1618435637291","trial","","40","500","8651.474999998813","images/stimuli/spore_stims/complex_14_A_b.gif","images/stimuli/spore_stims/complex_02_A_a.gif","self_paced","","3","complex_dissimilar","images/stimuli/spore_stims/complex_14_A_b.gif","","","","",""
"","null","html-keyboard-response","46","672074","0.0-15.0-0.3","SS1618435637291","","","null","","","","","","<p><img src= images/blank.png width =""600"" height = ""600"" style=""position:fixed;top:50%; left:50%; transform: translate(-50%, -50%); border:5px solid black"">","","","","","","","",""
"","6564.924999998882","sequential-stimulus-presentation-old","47","679143","0.0-15.0-1.3","SS1618435637291","trial","","40","500","7064.924999998882","images/stimuli/spore_stims/complex_14_A_b.gif","images/stimuli/spore_stims/complex_02_A_a.gif","self_paced","","3","complex_dissimilar","images/stimuli/spore_stims/complex_02_A_a.gif","","","","",""
"","null","html-keyboard-response","48","679963","0.0-15.0-0.4","SS1618435637291","","","null","","","","","","<p><img src= images/blank.png width =""600"" height = ""600"" style=""position:fixed;top:50%; left:50%; transform: translate(-50%, -50%); border:5px solid black"">","","","","","","","",""
"","8461.470000001951","sequential-stimulus-presentation-old","49","688927","0.0-15.0-1.4","SS1618435637291","trial","","40","500","8961.470000001951","images/stimuli/spore_stims/complex_14_A_b.gif","images/stimuli/spore_stims/complex_02_A_a.gif","self_paced","","3","complex_dissimilar","images/stimuli/spore_stims/complex_14_A_b.gif","","","","",""
"","2703.2499999987194","survey-multi-choice","50","691631","0.0-16.0","SS1618435637291","math_question","","","","","","","","","","","","{""Q0"":""6""}","[0]","6","",""
"","null","html-keyboard-response","51","692528","0.0-17.0-0.0","SS1618435637291","","","null","","","","","","<p><img src= images/blank.png width =""600"" height = ""600"" style=""position:fixed;top:50%; left:50%; transform: translate(-50%, -50%); border:5px solid black"">","","","","","","","",""
"","838.2750000017695","sequential-stimulus-presentation-old","52","698370","0.0-17.0-1.0","SS1618435637291","trial","","40","500","1338.2750000017695","images/stimuli/spore_stims/complex_01_A_b.gif","images/stimuli/spore_stims/complex_07_A_a.gif","forced_long","","4","complex_dissimilar","images/stimuli/spore_stims/complex_07_A_a.gif","","","","",""
"","null","html-keyboard-response","53","699270","0.0-17.0-0.1","SS1618435637291","","","null","","","","","","<p><img src= images/blank.png width =""600"" height = ""600"" style=""position:fixed;top:50%; left:50%; transform: translate(-50%, -50%); border:5px solid black"">","","","","","","","",""
"","8470.29499999911","sequential-stimulus-presentation-old","54","708242","0.0-17.0-1.1","SS1618435637291","trial","","40","500","8970.29499999911","images/stimuli/spore_stims/complex_01_A_b.gif","images/stimuli/spore_stims/complex_07_A_a.gif","forced_long","","4","complex_dissimilar","images/stimuli/spore_stims/complex_01_A_b.gif","","","","",""
"","null","html-keyboard-response","55","709226","0.0-17.0-0.2","SS1618435637291","","","null","","","","","","<p><img src= images/blank.png width =""600"" height = ""600"" style=""position:fixed;top:50%; left:50%; transform: translate(-50%, -50%); border:5px solid black"">","","","","","","","",""
"","14501.150000003632","sequential-stimulus-presentation-old","56","724230","0.0-17.0-1.2","SS1618435637291","trial","","40","500","15001.150000003632","images/stimuli/spore_stims/complex_01_A_b.gif","images/stimuli/spore_stims/complex_07_A_a.gif","forced_long","","4","complex_dissimilar","images/stimuli/spore_stims/complex_07_A_a.gif","","","","",""
"","null","html-keyboard-response","57","725334","0.0-17.0-0.3","SS1618435637291","","","null","","","","","","<p><img src= images/blank.png width =""600"" height = ""600"" style=""position:fixed;top:50%; left:50%; transform: translate(-50%, -50%); border:5px solid black"">","","","","","","","",""
"","11187.610000000917","sequential-stimulus-presentation-old","58","737024","0.0-17.0-1.3","SS1618435637291","trial","","40","500","11687.610000000917","images/stimuli/spore_stims/complex_01_A_b.gif","images/stimuli/spore_stims/complex_07_A_a.gif","forced_long","","4","complex_dissimilar","images/stimuli/spore_stims/complex_07_A_a.gif","","","","",""
"","2543.564999999944","survey-multi-choice","59","739570","0.0-18.0","SS1618435637291","math_question","","","","","","","","","","","","{""Q0"":""11""}","[0]","11","",""
"","null","html-keyboard-response","60","740472","0.0-19.0-0.0","SS1618435637291","","","null","","","","","","<p><img src= images/blank.png width =""600"" height = ""600"" style=""position:fixed;top:50%; left:50%; transform: translate(-50%, -50%); border:5px solid black"">","","","","","","","",""
"","687.5750000036787","sequential-stimulus-presentation-old","61","741213","0.0-19.0-1.0","SS1618435637291","trial","","40","500","1187.5750000036787","images/stimuli/spore_stims/simple_03_A_b.gif","images/stimuli/spore_stims/simple_04_A_a.gif","forced_short","","5","simple_dissimilar","images/stimuli/spore_stims/simple_04_A_a.gif","","","","",""
"","null","html-keyboard-response","62","742494","0.0-19.0-0.1","SS1618435637291","","","null","","","","","","<p><img src= images/blank.png width =""600"" height = ""600"" style=""position:fixed;top:50%; left:50%; transform: translate(-50%, -50%); border:5px solid black"">","","","","","","","",""
"","12908.605000004172","sequential-stimulus-presentation-old","63","755905","0.0-19.0-1.1","SS1618435637291","trial","","40","500","13408.605000004172","images/stimuli/spore_stims/simple_03_A_b.gif","images/stimuli/spore_stims/simple_04_A_a.gif","forced_short","","5","simple_dissimilar","images/stimuli/spore_stims/simple_04_A_a.gif","","","","",""
"","null","html-keyboard-response","64","757107","0.0-19.0-0.2","SS1618435637291","","","null","","","","","","<p><img src= images/blank.png width =""600"" height = ""600"" style=""position:fixed;top:50%; left:50%; transform: translate(-50%, -50%); border:5px solid black"">","","","","","","","",""
"","11006.460000004154","sequential-stimulus-presentation-old","65","768616","0.0-19.0-1.2","SS1618435637291","trial","","40","500","11506.460000004154","images/stimuli/spore_stims/simple_03_A_b.gif","images/stimuli/spore_stims/simple_04_A_a.gif","forced_short","","5","simple_dissimilar","images/stimuli/spore_stims/simple_04_A_a.gif","","","","",""
"","null","html-keyboard-response","66","769482","0.0-19.0-0.3","SS1618435637291","","","null","","","","","","<p><img src= images/blank.png width =""600"" height = ""600"" style=""position:fixed;top:50%; left:50%; transform: translate(-50%, -50%); border:5px solid black"">","","","","","","","",""
"","5378.98999999743","sequential-stimulus-presentation-old","67","775364","0.0-19.0-1.3","SS1618435637291","trial","","40","500","5878.98999999743","images/stimuli/spore_stims/simple_03_A_b.gif","images/stimuli/spore_stims/simple_04_A_a.gif","forced_short","","5","simple_dissimilar","images/stimuli/spore_stims/simple_04_A_a.gif","","","","",""
"","null","html-keyboard-response","68","776520","0.0-19.0-0.4","SS1618435637291","","","null","","","","","","<p><img src= images/blank.png width =""600"" height = ""600"" style=""position:fixed;top:50%; left:50%; transform: translate(-50%, -50%); border:5px solid black"">","","","","","","","",""
"","11127.66499999992","sequential-stimulus-presentation-old","69","788151","0.0-19.0-1.4","SS1618435637291","trial","","40","500","11627.66499999992","images/stimuli/spore_stims/simple_03_A_b.gif","images/stimuli/spore_stims/simple_04_A_a.gif","forced_short","","5","simple_dissimilar","images/stimuli/spore_stims/simple_04_A_a.gif","","","","",""
"","6320.755000000703","survey-multi-choice","70","794473","0.0-20.0","SS1618435637291","math_question","","","","","","","","","","","","{""Q0"":""11""}","[0]","11","",""
"","null","html-keyboard-response","71","795662","0.0-21.0-0.0","SS1618435637291","","","null","","","","","","<p><img src= images/blank.png width =""600"" height = ""600"" style=""position:fixed;top:50%; left:50%; transform: translate(-50%, -50%); border:5px solid black"">","","","","","","","",""
"","728.8749999934807","sequential-stimulus-presentation-old","72","796444","0.0-21.0-1.0","SS1618435637291","trial","","40","500","1228.8749999934807","images/stimuli/spore_stims/complex_19_A_a.gif","images/stimuli/spore_stims/complex_17_A_b.gif","forced_short","","6","complex_dissimilar","images/stimuli/spore_stims/complex_17_A_b.gif","","","","",""
"","null","html-keyboard-response","73","797685","0.0-21.0-0.1","SS1618435637291","","","null","","","","","","<p><img src= images/blank.png width =""600"" height = ""600"" style=""position:fixed;top:50%; left:50%; transform: translate(-50%, -50%); border:5px solid black"">","","","","","","","",""
"","13773.90999999619","sequential-stimulus-presentation-old","74","811962","0.0-21.0-1.1","SS1618435637291","trial","","40","500","14273.90999999619","images/stimuli/spore_stims/complex_19_A_a.gif","images/stimuli/spore_stims/complex_17_A_b.gif","forced_short","","6","complex_dissimilar","images/stimuli/spore_stims/complex_17_A_b.gif","","","","",""
"","null","html-keyboard-response","75","813066","0.0-21.0-0.2","SS1618435637291","","","null","","","","","","<p><img src= images/blank.png width =""600"" height = ""600"" style=""position:fixed;top:50%; left:50%; transform: translate(-50%, -50%); border:5px solid black"">","","","","","","","",""
"","6084.530000000028","sequential-stimulus-presentation-old","76","819655","0.0-21.0-1.2","SS1618435637291","trial","","40","500","6584.530000000028","images/stimuli/spore_stims/complex_19_A_a.gif","images/stimuli/spore_stims/complex_17_A_b.gif","forced_short","","6","complex_dissimilar","images/stimuli/spore_stims/complex_17_A_b.gif","","","","",""
"","null","html-keyboard-response","77","820481","0.0-21.0-0.3","SS1618435637291","","","null","","","","","","<p><img src= images/blank.png width =""600"" height = ""600"" style=""position:fixed;top:50%; left:50%; transform: translate(-50%, -50%); border:5px solid black"">","","","","","","","",""
"","3096.5700000015786","sequential-stimulus-presentation-old","78","824080","0.0-21.0-1.3","SS1618435637291","trial","","40","500","3596.5700000015786","images/stimuli/spore_stims/complex_19_A_a.gif","images/stimuli/spore_stims/complex_17_A_b.gif","forced_short","","6","complex_dissimilar","images/stimuli/spore_stims/complex_17_A_b.gif","","","","",""
"","null","html-keyboard-response","79","825307","0.0-21.0-0.4","SS1618435637291","","","null","","","","","","<p><img src= images/blank.png width =""600"" height = ""600"" style=""position:fixed;top:50%; left:50%; transform: translate(-50%, -50%); border:5px solid black"">","","","","","","","",""
"","10893.615000000806","sequential-stimulus-presentation-old","80","836705","0.0-21.0-1.4","SS1618435637291","trial","","40","500","11393.615000000806","images/stimuli/spore_stims/complex_19_A_a.gif","images/stimuli/spore_stims/complex_17_A_b.gif","forced_short","","6","complex_dissimilar","images/stimuli/spore_stims/complex_17_A_b.gif","","","","",""
"","5526.954999994021","survey-multi-choice","81","842234","0.0-22.0","SS1618435637291","math_question","","","","","","","","","","","","{""Q0"":""12""}","[0]","12","",""
"","null","html-keyboard-response","82","843395","0.0-23.0-0.0","SS1618435637291","","","null","","","","","","<p><img src= images/blank.png width =""600"" height = ""600"" style=""position:fixed;top:50%; left:50%; transform: translate(-50%, -50%); border:5px solid black"">","","","","","","","",""
"","13267.875000005006","sequential-stimulus-presentation-old","83","857165","0.0-23.0-1.0","SS1618435637291","trial","","40","500","13767.875000005006","images/stimuli/spore_stims/simple_19_A_a.gif","images/stimuli/spore_stims/simple_10_A_b.gif","self_paced","","7","simple_dissimilar","images/stimuli/spore_stims/simple_10_A_b.gif","","","","",""
"","null","html-keyboard-response","84","858356","0.0-23.0-0.1","SS1618435637291","","","null","","","","","","<p><img src= images/blank.png width =""600"" height = ""600"" style=""position:fixed;top:50%; left:50%; transform: translate(-50%, -50%); border:5px solid black"">","","","","","","","",""
"","7345.509999999078","sequential-stimulus-presentation-old","85","866204","0.0-23.0-1.1","SS1618435637291","trial","","40","500","7845.509999999078","images/stimuli/spore_stims/simple_19_A_a.gif","images/stimuli/spore_stims/simple_10_A_b.gif","self_paced","","7","simple_dissimilar","images/stimuli/spore_stims/simple_10_A_b.gif","","","","",""
"","null","html-keyboard-response","86","867173","0.0-23.0-0.2","SS1618435637291","","","null","","","","","","<p><img src= images/blank.png width =""600"" height = ""600"" style=""position:fixed;top:50%; left:50%; transform: translate(-50%, -50%); border:5px solid black"">","","","","","","","",""
"","8135.354999998584","sequential-stimulus-presentation-old","87","875811","0.0-23.0-1.2","SS1618435637291","trial","","40","500","8635.354999998584","images/stimuli/spore_stims/simple_19_A_a.gif","images/stimuli/spore_stims/simple_10_A_b.gif","self_paced","","7","simple_dissimilar","images/stimuli/spore_stims/simple_19_A_a.gif","","","","",""
"","null","html-keyboard-response","88","876925","0.0-23.0-0.3","SS1618435637291","","","null","","","","","","<p><img src= images/blank.png width =""600"" height = ""600"" style=""position:fixed;top:50%; left:50%; transform: translate(-50%, -50%); border:5px solid black"">","","","","","","","",""
"","8415.440000004251","sequential-stimulus-presentation-old","89","885843","0.0-23.0-1.3","SS1618435637291","trial","","40","500","8915.440000004251","images/stimuli/spore_stims/simple_19_A_a.gif","images/stimuli/spore_stims/simple_10_A_b.gif","self_paced","","7","simple_dissimilar","images/stimuli/spore_stims/simple_10_A_b.gif","","","","",""
"","null","html-keyboard-response","90","887020","0.0-23.0-0.4","SS1618435637291","","","null","","","","","","<p><img src= images/blank.png width =""600"" height = ""600"" style=""position:fixed;top:50%; left:50%; transform: translate(-50%, -50%); border:5px solid black"">","","","","","","","",""
"","878.0750000006519","sequential-stimulus-presentation-old","91","888402","0.0-23.0-1.4","SS1618435637291","trial","","40","500","1378.075000000652","images/stimuli/spore_stims/simple_19_A_a.gif","images/stimuli/spore_stims/simple_10_A_b.gif","self_paced","","7","simple_dissimilar","images/stimuli/spore_stims/simple_10_A_b.gif","","","","",""
"","null","html-keyboard-response","92","889343","0.0-23.0-0.5","SS1618435637291","","","null","","","","","","<p><img src= images/blank.png width =""600"" height = ""600"" style=""position:fixed;top:50%; left:50%; transform: translate(-50%, -50%); border:5px solid black"">","","","","","","","",""
"","15086.845000005327","sequential-stimulus-presentation-old","93","904932","0.0-23.0-1.5","SS1618435637291","trial","","40","500","15586.845000005327","images/stimuli/spore_stims/simple_19_A_a.gif","images/stimuli/spore_stims/simple_10_A_b.gif","self_paced","","7","simple_dissimilar","images/stimuli/spore_stims/simple_19_A_a.gif","","","","",""
"","2361.700000001234","survey-multi-choice","94","907295","0.0-24.0","SS1618435637291","math_question","","","","","","","","","","","","{""Q0"":""9""}","[0]","9","",""
"","null","html-keyboard-response","95","908263","0.0-25.0-0.0","SS1618435637291","","","null","","","","","","<p><img src= images/blank.png width =""600"" height = ""600"" style=""position:fixed;top:50%; left:50%; transform: translate(-50%, -50%); border:5px solid black"">","","","","","","","",""
"","1373.6449999997858","sequential-stimulus-presentation-old","96","909690","0.0-25.0-1.0","SS1618435637291","trial","","40","500","1873.6449999997858","images/stimuli/spore_stims/simple_07_A_b.gif","images/stimuli/spore_stims/simple_16_A_a.gif","forced_short","","8","simple_dissimilar","images/stimuli/spore_stims/simple_16_A_a.gif","","","","",""
"","null","html-keyboard-response","97","910708","0.0-25.0-0.1","SS1618435637291","","","null","","","","","","<p><img src= images/blank.png width =""600"" height = ""600"" style=""position:fixed;top:50%; left:50%; transform: translate(-50%, -50%); border:5px solid black"">","","","","","","","",""
"","62510.82500000484","sequential-stimulus-presentation-old","98","973723","0.0-25.0-1.1","SS1618435637291","trial","","40","500","63010.82500000484","images/stimuli/spore_stims/simple_07_A_b.gif","images/stimuli/spore_stims/simple_16_A_a.gif","forced_short","","8","simple_dissimilar","images/stimuli/spore_stims/simple_16_A_a.gif","","","","",""
"","null","html-keyboard-response","99","974718","0.0-25.0-0.2","SS1618435637291","","","null","","","","","","<p><img src= images/blank.png width =""600"" height = ""600"" style=""position:fixed;top:50%; left:50%; transform: translate(-50%, -50%); border:5px solid black"">","","","","","","","",""
"","26928.074999996228","sequential-stimulus-presentation-old","100","1002149","0.0-25.0-1.2","SS1618435637291","trial","","40","500","27428.074999996228","images/stimuli/spore_stims/simple_07_A_b.gif","images/stimuli/spore_stims/simple_16_A_a.gif","forced_short","","8","simple_dissimilar","images/stimuli/spore_stims/simple_16_A_a.gif","","","","",""
"","null","html-keyboard-response","101","1003338","0.0-25.0-0.3","SS1618435637291","","","null","","","","","","<p><img src= images/blank.png width =""600"" height = ""600"" style=""position:fixed;top:50%; left:50%; transform: translate(-50%, -50%); border:5px solid black"">","","","","","","","",""
"","21140.44000000297","sequential-stimulus-presentation-old","102","1024982","0.0-25.0-1.3","SS1618435637291","trial","","40","500","21640.44000000297","images/stimuli/spore_stims/simple_07_A_b.gif","images/stimuli/spore_stims/simple_16_A_a.gif","forced_short","","8","simple_dissimilar","images/stimuli/spore_stims/simple_07_A_b.gif","","","","",""
"","null","html-keyboard-response","103","1026010","0.0-25.0-0.4","SS1618435637291","","","null","","","","","","<p><img src= images/blank.png width =""600"" height = ""600"" style=""position:fixed;top:50%; left:50%; transform: translate(-50%, -50%); border:5px solid black"">","","","","","","","",""
"","84460.61499999638","sequential-stimulus-presentation-old","104","1110974","0.0-25.0-1.4","SS1618435637291","trial","","40","500","84960.61499999638","images/stimuli/spore_stims/simple_07_A_b.gif","images/stimuli/spore_stims/simple_16_A_a.gif","forced_short","","8","simple_dissimilar","images/stimuli/spore_stims/simple_07_A_b.gif","","","","",""
"","null","html-keyboard-response","105","1111991","0.0-25.0-0.5","SS1618435637291","","","null","","","","","","<p><img src= images/blank.png width =""600"" height = ""600"" style=""position:fixed;top:50%; left:50%; transform: translate(-50%, -50%); border:5px solid black"">","","","","","","","",""
"","571.1000000010245","sequential-stimulus-presentation-old","106","1113065","0.0-25.0-1.5","SS1618435637291","trial","","40","500","1071.1000000010245","images/stimuli/spore_stims/simple_07_A_b.gif","images/stimuli/spore_stims/simple_16_A_a.gif","forced_short","","8","simple_dissimilar","images/stimuli/spore_stims/simple_16_A_a.gif","","","","",""
"","2148.025000002235","survey-multi-choice","107","1115215","0.0-26.0","SS1618435637291","math_question","","","","","","","","","","","","{""Q0"":""16""}","[0]","16","",""
"","null","html-keyboard-response","108","1116286","0.0-27.0-0.0","SS1618435637291","","","null","","","","","","<p><img src= images/blank.png width =""600"" height = ""600"" style=""position:fixed;top:50%; left:50%; transform: translate(-50%, -50%); border:5px solid black"">","","","","","","","",""
"","498.26500000199303","sequential-stimulus-presentation-old","109","1116839","0.0-27.0-1.0","SS1618435637291","trial","","40","500","998.265000001993","images/stimuli/spore_stims/complex_09_A_a.gif","images/stimuli/spore_stims/complex_11_A_b.gif","forced_short","","9","complex_dissimilar","images/stimuli/spore_stims/complex_11_A_b.gif","","","","",""
"","null","html-keyboard-response","110","1117727","0.0-27.0-0.1","SS1618435637291","","","null","","","","","","<p><img src= images/blank.png width =""600"" height = ""600"" style=""position:fixed;top:50%; left:50%; transform: translate(-50%, -50%); border:5px solid black"">","","","","","","","",""
"","1176.514999999199","sequential-stimulus-presentation-old","111","1119406","0.0-27.0-1.1","SS1618435637291","trial","","40","500","1676.514999999199","images/stimuli/spore_stims/complex_09_A_a.gif","images/stimuli/spore_stims/complex_11_A_b.gif","forced_short","","9","complex_dissimilar","images/stimuli/spore_stims/complex_11_A_b.gif","","","","",""
"","null","html-keyboard-response","112","1120353","0.0-27.0-0.2","SS1618435637291","","","null","","","","","","<p><img src= images/blank.png width =""600"" height = ""600"" style=""position:fixed;top:50%; left:50%; transform: translate(-50%, -50%); border:5px solid black"">","","","","","","","",""
"","3154.544999997597","sequential-stimulus-presentation-old","113","1124010","0.0-27.0-1.2","SS1618435637291","trial","","40","500","3654.544999997597","images/stimuli/spore_stims/complex_09_A_a.gif","images/stimuli/spore_stims/complex_11_A_b.gif","forced_short","","9","complex_dissimilar","images/stimuli/spore_stims/complex_11_A_b.gif","","","","",""
"","null","html-keyboard-response","114","1124917","0.0-27.0-0.3","SS1618435637291","","","null","","","","","","<p><img src= images/blank.png width =""600"" height = ""600"" style=""position:fixed;top:50%; left:50%; transform: translate(-50%, -50%); border:5px solid black"">","","","","","","","",""
"","4171.904999995604","sequential-stimulus-presentation-old","115","1129592","0.0-27.0-1.3","SS1618435637291","trial","","40","500","4671.904999995604","images/stimuli/spore_stims/complex_09_A_a.gif","images/stimuli/spore_stims/complex_11_A_b.gif","forced_short","","9","complex_dissimilar","images/stimuli/spore_stims/complex_11_A_b.gif","","","","",""
"","null","html-keyboard-response","116","1130770","0.0-27.0-0.4","SS1618435637291","","","null","","","","","","<p><img src= images/blank.png width =""600"" height = ""600"" style=""position:fixed;top:50%; left:50%; transform: translate(-50%, -50%); border:5px solid black"">","","","","","","","",""
"","10819.28000000352","sequential-stimulus-presentation-old","117","1142092","0.0-27.0-1.4","SS1618435637291","trial","","40","500","11319.28000000352","images/stimuli/spore_stims/complex_09_A_a.gif","images/stimuli/spore_stims/complex_11_A_b.gif","forced_short","","9","complex_dissimilar","images/stimuli/spore_stims/complex_11_A_b.gif","","","","",""
"","2714.1149999951012","survey-multi-choice","118","1144808","0.0-28.0","SS1618435637291","math_question","","","","","","","","","","","","{""Q0"":""9""}","[0]","9","",""
"","null","html-keyboard-response","119","1145628","0.0-29.0-0.0","SS1618435637291","","","null","","","","","","<p><img src= images/blank.png width =""600"" height = ""600"" style=""position:fixed;top:50%; left:50%; transform: translate(-50%, -50%); border:5px solid black"">","","","","","","","",""
"","3311.114999996964","sequential-stimulus-presentation-old","120","1149442","0.0-29.0-1.0","SS1618435637291","trial","","40","500","3811.114999996964","images/stimuli/spore_stims/complex_02_A_b.gif","images/stimuli/spore_stims/complex_10_A_a.gif","self_paced","","10","complex_dissimilar","images/stimuli/spore_stims/complex_10_A_a.gif","","","","",""
"","null","html-keyboard-response","121","1150310","0.0-29.0-0.1","SS1618435637291","","","null","","","","","","<p><img src= images/blank.png width =""600"" height = ""600"" style=""position:fixed;top:50%; left:50%; transform: translate(-50%, -50%); border:5px solid black"">","","","","","","","",""
"","24676.32500000042","sequential-stimulus-presentation-old","122","1175489","0.0-29.0-1.1","SS1618435637291","trial","","40","500","25176.32500000042","images/stimuli/spore_stims/complex_02_A_b.gif","images/stimuli/spore_stims/complex_10_A_a.gif","self_paced","","10","complex_dissimilar","images/stimuli/spore_stims/complex_10_A_a.gif","","","","",""
"","null","html-keyboard-response","123","1176352","0.0-29.0-0.2","SS1618435637291","","","null","","","","","","<p><img src= images/blank.png width =""600"" height = ""600"" style=""position:fixed;top:50%; left:50%; transform: translate(-50%, -50%); border:5px solid black"">","","","","","","","",""
"","11171.910000004573","sequential-stimulus-presentation-old","124","1188027","0.0-29.0-1.2","SS1618435637291","trial","","40","500","11671.910000004573","images/stimuli/spore_stims/complex_02_A_b.gif","images/stimuli/spore_stims/complex_10_A_a.gif","self_paced","","10","complex_dissimilar","images/stimuli/spore_stims/complex_10_A_a.gif","","","","",""
"","null","html-keyboard-response","125","1189115","0.0-29.0-0.3","SS1618435637291","","","null","","","","","","<p><img src= images/blank.png width =""600"" height = ""600"" style=""position:fixed;top:50%; left:50%; transform: translate(-50%, -50%); border:5px solid black"">","","","","","","","",""
"","16832.9850000008","sequential-stimulus-presentation-old","126","1206450","0.0-29.0-1.3","SS1618435637291","trial","","40","500","17332.9850000008","images/stimuli/spore_stims/complex_02_A_b.gif","images/stimuli/spore_stims/complex_10_A_a.gif","self_paced","","10","complex_dissimilar","images/stimuli/spore_stims/complex_10_A_a.gif","","","","",""
"","2196.0650000039022","survey-multi-choice","127","1208648","0.0-30.0","SS1618435637291","math_question","","","","","","","","","","","","{""Q0"":""17""}","[0]","17","",""
"","null","html-keyboard-response","128","1209579","0.0-31.0-0.0","SS1618435637291","","","null","","","","","","<p><img src= images/blank.png width =""600"" height = ""600"" style=""position:fixed;top:50%; left:50%; transform: translate(-50%, -50%); border:5px solid black"">","","","","","","","",""
"","1785.4200000001583","sequential-stimulus-presentation-old","129","1216370","0.0-31.0-1.0","SS1618435637291","trial","","40","500","2285.4200000001583","images/stimuli/spore_stims/simple_06_A_b.gif","images/stimuli/spore_stims/simple_08_A_a.gif","forced_long","","11","simple_dissimilar","images/stimuli/spore_stims/simple_08_A_a.gif","","","","",""
"","null","html-keyboard-response","130","1217464","0.0-31.0-0.1","SS1618435637291","","","null","","","","","","<p><img src= images/blank.png width =""600"" height = ""600"" style=""position:fixed;top:50%; left:50%; transform: translate(-50%, -50%); border:5px solid black"">","","","","","","","",""
"","18647.725000002654","sequential-stimulus-presentation-old","131","1236616","0.0-31.0-1.1","SS1618435637291","trial","","40","500","19147.725000002654","images/stimuli/spore_stims/simple_06_A_b.gif","images/stimuli/spore_stims/simple_08_A_a.gif","forced_long","","11","simple_dissimilar","images/stimuli/spore_stims/simple_06_A_b.gif","","","","",""
"","null","html-keyboard-response","132","1237430","0.0-31.0-0.2","SS1618435637291","","","null","","","","","","<p><img src= images/blank.png width =""600"" height = ""600"" style=""position:fixed;top:50%; left:50%; transform: translate(-50%, -50%); border:5px solid black"">","","","","","","","",""
"","12643.134999998612","sequential-stimulus-presentation-old","133","1250577","0.0-31.0-1.2","SS1618435637291","trial","","40","500","13143.134999998612","images/stimuli/spore_stims/simple_06_A_b.gif","images/stimuli/spore_stims/simple_08_A_a.gif","forced_long","","11","simple_dissimilar","images/stimuli/spore_stims/simple_08_A_a.gif","","","","",""
"","null","html-keyboard-response","134","1251479","0.0-31.0-0.3","SS1618435637291","","","null","","","","","","<p><img src= images/blank.png width =""600"" height = ""600"" style=""position:fixed;top:50%; left:50%; transform: translate(-50%, -50%); border:5px solid black"">","","","","","","","",""
"","13763.310000002151","sequential-stimulus-presentation-old","135","1265745","0.0-31.0-1.3","SS1618435637291","trial","","40","500","14263.310000002151","images/stimuli/spore_stims/simple_06_A_b.gif","images/stimuli/spore_stims/simple_08_A_a.gif","forced_long","","11","simple_dissimilar","images/stimuli/spore_stims/simple_08_A_a.gif","","","","",""
"","null","html-keyboard-response","136","1267031","0.0-31.0-0.4","SS1618435637291","","","null","","","","","","<p><img src= images/blank.png width =""600"" height = ""600"" style=""position:fixed;top:50%; left:50%; transform: translate(-50%, -50%); border:5px solid black"">","","","","","","","",""
"","2079.575000003446","sequential-stimulus-presentation-old","137","1269615","0.0-31.0-1.4","SS1618435637291","trial","","40","500","2579.575000003446","images/stimuli/spore_stims/simple_06_A_b.gif","images/stimuli/spore_stims/simple_08_A_a.gif","forced_long","","11","simple_dissimilar","images/stimuli/spore_stims/simple_08_A_a.gif","","","","",""
"","null","html-keyboard-response","138","1270915","0.0-31.0-0.5","SS1618435637291","","","null","","","","","","<p><img src= images/blank.png width =""600"" height = ""600"" style=""position:fixed;top:50%; left:50%; transform: translate(-50%, -50%); border:5px solid black"">","","","","","","","",""
"","9332.625000002794","sequential-stimulus-presentation-old","139","1280752","0.0-31.0-1.5","SS1618435637291","trial","","40","500","9832.625000002794","images/stimuli/spore_stims/simple_06_A_b.gif","images/stimuli/spore_stims/simple_08_A_a.gif","forced_long","","11","simple_dissimilar","images/stimuli/spore_stims/simple_06_A_b.gif","","","","",""
"[{""page_index"":0,""viewing_time"":3668.964999997057}]","3669.3949999972247","instructions","140","1284423","0.0-32.0","SS1618435637291","instructions","","","","","","","","","","","","","","","",""
"","5187.910000000382","survey-likert","141","1289615","0.0-33.0","SS1618435637291","similarity_question","","","","","","","","","","","","{""Q0"":4}","[0]","","images/stimuli/spore_stims/complex_10_A_a.gif","images/stimuli/spore_stims/complex_02_A_b.gif"
"","2130.164999995148","survey-likert","142","1291749","0.0-34.0","SS1618435637291","similarity_question","","","","","","","","","","","","{""Q0"":5}","[0]","","images/stimuli/spore_stims/simple_15_A_a.gif","images/stimuli/spore_stims/simple_16_A_b.gif"
"","2612.939999999013","survey-likert","143","1294368","0.0-35.0","SS1618435637291","similarity_question","","","","","","","","","","","","{""Q0"":3}","[0]","","images/stimuli/spore_stims/simple_16_A_a.gif","images/stimuli/spore_stims/simple_07_A_b.gif"
"","2819.7700000018813","survey-likert","144","1297195","0.0-36.0","SS1618435637291","similarity_question","","","","","","","","","","","","{""Q0"":2}","[0]","","images/stimuli/spore_stims/complex_14_A_b.gif","images/stimuli/spore_stims/complex_02_A_a.gif"
"","2074.3549999969546","survey-likert","145","1299275","0.0-37.0","SS1618435637291","similarity_question","","","","","","","","","","","","{""Q0"":5}","[0]","","images/stimuli/spore_stims/simple_19_A_a.gif","images/stimuli/spore_stims/simple_10_A_b.gif"
"","2516.91500000027","survey-likert","146","1301797","0.0-38.0","SS1618435637291","similarity_question","","","","","","","","","","","","{""Q0"":3}","[0]","","images/stimuli/spore_stims/complex_20_A_b.gif","images/stimuli/spore_stims/complex_06_A_a.gif"
"","2381.050000003539","survey-likert","147","1304185","0.0-39.0","SS1618435637291","similarity_question","","","","","","","","","","","","{""Q0"":4}","[0]","","images/stimuli/spore_stims/simple_08_A_a.gif","images/stimuli/spore_stims/simple_06_A_b.gif"
"","2458.560000006575","survey-likert","148","1306649","0.0-40.0","SS1618435637291","similarity_question","","","","","","","","","","","","{""Q0"":1}","[0]","","images/stimuli/spore_stims/complex_07_A_a.gif","images/stimuli/spore_stims/complex_01_A_b.gif"
"","2109.0699999984354","survey-likert","149","1308763","0.0-41.0","SS1618435637291","similarity_question","","","","","","","","","","","","{""Q0"":1}","[0]","","images/stimuli/spore_stims/complex_19_A_a.gif","images/stimuli/spore_stims/complex_17_A_b.gif"
"","2789.8299999942537","survey-likert","150","1311559","0.0-42.0","SS1618435637291","similarity_question","","","","","","","","","","","","{""Q0"":2}","[0]","","images/stimuli/spore_stims/simple_04_A_a.gif","images/stimuli/spore_stims/simple_03_A_b.gif"
"","1699.3000000002794","survey-likert","151","1313263","0.0-43.0","SS1618435637291","similarity_question","","","","","","","","","","","","{""Q0"":1}","[0]","","images/stimuli/spore_stims/complex_11_A_b.gif","images/stimuli/spore_stims/complex_09_A_a.gif"
"","1518.66999999783","survey-likert","152","1314789","0.0-44.0","SS1618435637291","similarity_question","","","","","","","","","","","","{""Q0"":2}","[0]","","images/stimuli/spore_stims/simple_12_A_a.gif","images/stimuli/spore_stims/simple_20_A_b.gif"
"[{""page_index"":0,""viewing_time"":2379.675000003772}]","2379.91999999946","instructions","153","1317173","0.0-45.0","SS1618435637291","instructions","","","","","","","","","","","","","","","",""
"","4119.819999999832","survey-likert","154","1321296","0.0-46.0","SS1618435637291","","","","","","","","","images/stimuli/spore_stims/simple_15_A_a.gif","","","","{""Q0"":0}","[0]","","",""
"","3281.60999999824","survey-likert","155","1324583","0.0-47.0","SS1618435637291","","","","","","","","","images/stimuli/spore_stims/complex_01_A_b.gif","","","","{""Q0"":4}","[0]","","",""
"","2086.8300000003073","survey-likert","156","1326675","0.0-48.0","SS1618435637291","","","","","","","","","images/stimuli/spore_stims/complex_11_A_b.gif","","","","{""Q0"":5}","[0]","","",""
"","2153.115000000922","survey-likert","157","1328833","0.0-49.0","SS1618435637291","","","","","","","","","images/stimuli/spore_stims/simple_04_A_a.gif","","","","{""Q0"":1}","[0]","","",""
"","1564.3300000012387","survey-likert","158","1330403","0.0-50.0","SS1618435637291","","","","","","","","","images/stimuli/spore_stims/complex_10_A_a.gif","","","","{""Q0"":3}","[0]","","",""
"","2177.1399999996647","survey-likert","159","1332585","0.0-51.0","SS1618435637291","","","","","","","","","images/stimuli/spore_stims/complex_17_A_b.gif","","","","{""Q0"":5}","[0]","","",""
"","1390.480000001844","survey-likert","160","1333980","0.0-52.0","SS1618435637291","","","","","","","","","images/stimuli/spore_stims/simple_10_A_b.gif","","","","{""Q0"":0}","[0]","","",""
"","1367.4749999991618","survey-likert","161","1335353","0.0-53.0","SS1618435637291","","","","","","","","","images/stimuli/spore_stims/simple_20_A_b.gif","","","","{""Q0"":1}","[0]","","",""
"","1254.0450000015553","survey-likert","162","1336613","0.0-54.0","SS1618435637291","","","","","","","","","images/stimuli/spore_stims/simple_08_A_a.gif","","","","{""Q0"":0}","[0]","","",""
"","1874.7749999964144","survey-likert","163","1338493","0.0-55.0","SS1618435637291","","","","","","","","","images/stimuli/spore_stims/complex_14_A_b.gif","","","","{""Q0"":4}","[0]","","",""
"","2550.02499999688","survey-likert","164","1341049","0.0-56.0","SS1618435637291","","","","","","","","","images/stimuli/spore_stims/complex_20_A_b.gif","","","","{""Q0"":6}","[0]","","",""
"","2988.725000002887","survey-likert","165","1344044","0.0-57.0","SS1618435637291","","","","","","","","","images/stimuli/spore_stims/simple_07_A_b.gif","","","","{""Q0"":0}","[0]","","",""
"[{""page_index"":0,""viewing_time"":2070.7600000023376}]","2070.9050000004936","instructions","166","1346119","0.0-58.0","SS1618435637291","instructions","","","","","","","","","","","","","","","",""
"","2122.3549999995157","demog-age","167","1348245","0.0-59.0","SS1618435637291","","","","","","","","","","","","","{""age"":""19""}","","","",""
"","5337.104999998817","demog-ethnic-US","168","1353589","0.0-60.0","SS1618435637291","","","","","","","","","","","","","{""ethnicity"":[""White""]}","[0]","","",""
"","18546.500000003958","demog-gender-and-education","169","1372141","0.0-61.0","SS1618435637291","","","","","","","","","","","","","{""gender"":""Male"",""education"":""Bachelor's Degree""}","[0,1]","","",""
"","18918.100000002654","survey-text","170","1391066","0.0-62.0","SS1618435637291","feedback","","","","","","","","","","","","{""Q0"":""All were good""}","","","",""
"[{""page_index"":0,""viewing_time"":1088.1900000020396}]","1088.3350000001956","instructions","171","1392158","0.0-63.0","SS1618435637291","instructions","","","","","","","","","","","","","","","",""
