"view_history","rt","trial_type","trial_index","time_elapsed","internal_node_id","subject","stimulus_type","trial_stimulus","key_press","minimum_viewing_duration","trial_looking_time","block_deviant","block_background","exposure_type","stimulus","block_number","block_type","stimulus_displayed","responses","question_order","math_correct_answer","stimulus_left","stimulus_right"
"[{""page_index"":0,""viewing_time"":37896.05999994092}]","37896.309999981895","instructions","0","37897","0.0-0.0","SS1618364994293","","","","","","","","","","","","","","","","",""
"[{""page_index"":0,""viewing_time"":15760.56500012055},{""page_index"":1,""viewing_time"":8515.979999909177}]","24276.72000019811","instructions","1","64176","0.0-1.0","SS1618364994293","instructions","","","","","","","","","","","","","","","",""
"","9740.709999809042","sequential-stimulus-presentation-old","2","74426","0.0-2.0","SS1618364994293","","","40","500","10240.709999809042","null","null","self_paced","","","","","","","","",""
"","8496.805000118911","sequential-stimulus-presentation-old","3","83434","0.0-3.0","SS1618364994293","","","40","500","8996.805000118911","null","null","self_paced","","","","","","","","",""
"[{""page_index"":0,""viewing_time"":17453.179999953136}]","17453.35999992676","instructions","4","100888","0.0-4.0","SS1618364994293","instructions","","","","","","","","","","","","","","","",""
"","5240.750000113621","sequential-stimulus-presentation-old","5","111130","0.0-5.0","SS1618364994293","","","40","500","5740.750000113621","null","null","forced_long","","","","","","","","",""
"","5090.109999990091","sequential-stimulus-presentation-old","6","116273","0.0-6.0","SS1618364994293","","","40","50","5140.109999990091","null","null","forced_long","","","","","","","","",""
"[{""page_index"":0,""viewing_time"":10080.119999824092}]","10080.28499991633","instructions","7","126354","0.0-7.0","SS1618364994293","instructions","","","","","","","","","","","","","","","",""
"[{""page_index"":0,""viewing_time"":13403.949999948964},{""page_index"":1,""viewing_time"":15053.915000054985},{""page_index"":2,""viewing_time"":7912.775000091642},{""page_index"":3,""viewing_time"":1548.3149997889996},{""page_index"":4,""viewing_time"":3033.3300000056624}]","40952.42500002496","instructions","8","167307","0.0-8.0","SS1618364994293","instructions","","","","","","","","","","","","","","","",""
"","null","html-keyboard-response","9","168141","0.0-9.0-0.0","SS1618364994293","","","null","","","","","","<p><img src= images/blank.png width =""600"" height = ""600"" style=""position:fixed;top:50%; left:50%; transform: translate(-50%, -50%); border:5px solid black"">","","","","","","","",""
"","32717.88499993272","sequential-stimulus-presentation-old","10","201362","0.0-9.0-1.0","SS1618364994293","trial","","40","500","33217.88499993272","images/stimuli/spore_stims/complex_19_A_a.gif","images/stimuli/spore_stims/complex_07_A_b.gif","self_paced","","0","complex_dissimilar","images/stimuli/spore_stims/complex_07_A_b.gif","","","","",""
"","null","html-keyboard-response","11","202359","0.0-9.0-0.1","SS1618364994293","","","null","","","","","","<p><img src= images/blank.png width =""600"" height = ""600"" style=""position:fixed;top:50%; left:50%; transform: translate(-50%, -50%); border:5px solid black"">","","","","","","","",""
"","14205.62499994412","sequential-stimulus-presentation-old","12","217066","0.0-9.0-1.1","SS1618364994293","trial","","40","500","14705.62499994412","images/stimuli/spore_stims/complex_19_A_a.gif","images/stimuli/spore_stims/complex_07_A_b.gif","self_paced","","0","complex_dissimilar","images/stimuli/spore_stims/complex_07_A_b.gif","","","","",""
"","null","html-keyboard-response","13","217969","0.0-9.0-0.2","SS1618364994293","","","null","","","","","","<p><img src= images/blank.png width =""600"" height = ""600"" style=""position:fixed;top:50%; left:50%; transform: translate(-50%, -50%); border:5px solid black"">","","","","","","","",""
"","9258.564999792725","sequential-stimulus-presentation-old","14","227730","0.0-9.0-1.2","SS1618364994293","trial","","40","500","9758.564999792725","images/stimuli/spore_stims/complex_19_A_a.gif","images/stimuli/spore_stims/complex_07_A_b.gif","self_paced","","0","complex_dissimilar","images/stimuli/spore_stims/complex_07_A_b.gif","","","","",""
"","null","html-keyboard-response","15","228781","0.0-9.0-0.3","SS1618364994293","","","null","","","","","","<p><img src= images/blank.png width =""600"" height = ""600"" style=""position:fixed;top:50%; left:50%; transform: translate(-50%, -50%); border:5px solid black"">","","","","","","","",""
"","9782.789999851957","sequential-stimulus-presentation-old","16","239066","0.0-9.0-1.3","SS1618364994293","trial","","40","500","10282.789999851957","images/stimuli/spore_stims/complex_19_A_a.gif","images/stimuli/spore_stims/complex_07_A_b.gif","self_paced","","0","complex_dissimilar","images/stimuli/spore_stims/complex_07_A_b.gif","","","","",""
"","null","html-keyboard-response","17","240087","0.0-9.0-0.4","SS1618364994293","","","null","","","","","","<p><img src= images/blank.png width =""600"" height = ""600"" style=""position:fixed;top:50%; left:50%; transform: translate(-50%, -50%); border:5px solid black"">","","","","","","","",""
"","9370.140000013635","sequential-stimulus-presentation-old","18","249970","0.0-9.0-1.4","SS1618364994293","trial","","40","500","9870.140000013635","images/stimuli/spore_stims/complex_19_A_a.gif","images/stimuli/spore_stims/complex_07_A_b.gif","self_paced","","0","complex_dissimilar","images/stimuli/spore_stims/complex_07_A_b.gif","","","","",""
"","4271.15000016056","survey-multi-choice","19","254243","0.0-10.0","SS1618364994293","math_question","","","","","","","","","","","","{""Q0"":""11""}","[0]","11","",""
"","null","html-keyboard-response","20","255265","0.0-11.0-0.0","SS1618364994293","","","null","","","","","","<p><img src= images/blank.png width =""600"" height = ""600"" style=""position:fixed;top:50%; left:50%; transform: translate(-50%, -50%); border:5px solid black"">","","","","","","","",""
"","16658.360000001267","sequential-stimulus-presentation-old","21","272426","0.0-11.0-1.0","SS1618364994293","trial","","40","500","17158.360000001267","images/stimuli/spore_stims/complex_14_A_a.gif","images/stimuli/spore_stims/complex_18_A_b.gif","self_paced","","1","complex_dissimilar","images/stimuli/spore_stims/complex_18_A_b.gif","","","","",""
"","null","html-keyboard-response","22","273390","0.0-11.0-0.1","SS1618364994293","","","null","","","","","","<p><img src= images/blank.png width =""600"" height = ""600"" style=""position:fixed;top:50%; left:50%; transform: translate(-50%, -50%); border:5px solid black"">","","","","","","","",""
"","17006.485000019893","sequential-stimulus-presentation-old","23","290898","0.0-11.0-1.1","SS1618364994293","trial","","40","500","17506.485000019893","images/stimuli/spore_stims/complex_14_A_a.gif","images/stimuli/spore_stims/complex_18_A_b.gif","self_paced","","1","complex_dissimilar","images/stimuli/spore_stims/complex_18_A_b.gif","","","","",""
"","null","html-keyboard-response","24","291877","0.0-11.0-0.2","SS1618364994293","","","null","","","","","","<p><img src= images/blank.png width =""600"" height = ""600"" style=""position:fixed;top:50%; left:50%; transform: translate(-50%, -50%); border:5px solid black"">","","","","","","","",""
"","11847.494999878109","sequential-stimulus-presentation-old","25","304226","0.0-11.0-1.2","SS1618364994293","trial","","40","500","12347.494999878109","images/stimuli/spore_stims/complex_14_A_a.gif","images/stimuli/spore_stims/complex_18_A_b.gif","self_paced","","1","complex_dissimilar","images/stimuli/spore_stims/complex_18_A_b.gif","","","","",""
"","null","html-keyboard-response","26","305347","0.0-11.0-0.3","SS1618364994293","","","null","","","","","","<p><img src= images/blank.png width =""600"" height = ""600"" style=""position:fixed;top:50%; left:50%; transform: translate(-50%, -50%); border:5px solid black"">","","","","","","","",""
"","10030.250000068918","sequential-stimulus-presentation-old","27","315890","0.0-11.0-1.3","SS1618364994293","trial","","40","500","10530.250000068918","images/stimuli/spore_stims/complex_14_A_a.gif","images/stimuli/spore_stims/complex_18_A_b.gif","self_paced","","1","complex_dissimilar","images/stimuli/spore_stims/complex_18_A_b.gif","","","","",""
"","null","html-keyboard-response","28","317066","0.0-11.0-0.4","SS1618364994293","","","null","","","","","","<p><img src= images/blank.png width =""600"" height = ""600"" style=""position:fixed;top:50%; left:50%; transform: translate(-50%, -50%); border:5px solid black"">","","","","","","","",""
"","11537.705000024289","sequential-stimulus-presentation-old","29","329106","0.0-11.0-1.4","SS1618364994293","trial","","40","500","12037.705000024289","images/stimuli/spore_stims/complex_14_A_a.gif","images/stimuli/spore_stims/complex_18_A_b.gif","self_paced","","1","complex_dissimilar","images/stimuli/spore_stims/complex_18_A_b.gif","","","","",""
"","3479.350000154227","survey-multi-choice","30","332586","0.0-12.0","SS1618364994293","math_question","","","","","","","","","","","","{""Q0"":""13""}","[0]","13","",""
"","null","html-keyboard-response","31","333419","0.0-13.0-0.0","SS1618364994293","","","null","","","","","","<p><img src= images/blank.png width =""600"" height = ""600"" style=""position:fixed;top:50%; left:50%; transform: translate(-50%, -50%); border:5px solid black"">","","","","","","","",""
"","18487.7400000114","sequential-stimulus-presentation-old","32","352409","0.0-13.0-1.0","SS1618364994293","trial","","40","500","18987.7400000114","images/stimuli/spore_stims/simple_16_A_b.gif","images/stimuli/spore_stims/simple_15_A_a.gif","self_paced","","2","simple_dissimilar","images/stimuli/spore_stims/simple_15_A_a.gif","","","","",""
"","null","html-keyboard-response","33","353576","0.0-13.0-0.1","SS1618364994293","","","null","","","","","","<p><img src= images/blank.png width =""600"" height = ""600"" style=""position:fixed;top:50%; left:50%; transform: translate(-50%, -50%); border:5px solid black"">","","","","","","","",""
"","16410.42000008747","sequential-stimulus-presentation-old","34","370489","0.0-13.0-1.1","SS1618364994293","trial","","40","500","16910.42000008747","images/stimuli/spore_stims/simple_16_A_b.gif","images/stimuli/spore_stims/simple_15_A_a.gif","self_paced","","2","simple_dissimilar","images/stimuli/spore_stims/simple_15_A_a.gif","","","","",""
"","null","html-keyboard-response","35","371326","0.0-13.0-0.2","SS1618364994293","","","null","","","","","","<p><img src= images/blank.png width =""600"" height = ""600"" style=""position:fixed;top:50%; left:50%; transform: translate(-50%, -50%); border:5px solid black"">","","","","","","","",""
"","4324.079999933019","sequential-stimulus-presentation-old","36","376161","0.0-13.0-1.2","SS1618364994293","trial","","40","500","4824.079999933019","images/stimuli/spore_stims/simple_16_A_b.gif","images/stimuli/spore_stims/simple_15_A_a.gif","self_paced","","2","simple_dissimilar","images/stimuli/spore_stims/simple_15_A_a.gif","","","","",""
"","null","html-keyboard-response","37","377258","0.0-13.0-0.3","SS1618364994293","","","null","","","","","","<p><img src= images/blank.png width =""600"" height = ""600"" style=""position:fixed;top:50%; left:50%; transform: translate(-50%, -50%); border:5px solid black"">","","","","","","","",""
"","2232.510000001639","sequential-stimulus-presentation-old","38","379993","0.0-13.0-1.3","SS1618364994293","trial","","40","500","2732.510000001639","images/stimuli/spore_stims/simple_16_A_b.gif","images/stimuli/spore_stims/simple_15_A_a.gif","self_paced","","2","simple_dissimilar","images/stimuli/spore_stims/simple_15_A_a.gif","","","","",""
"","3901.900000171736","survey-multi-choice","39","383896","0.0-14.0","SS1618364994293","math_question","","","","","","","","","","","","{""Q0"":""6""}","[0]","6","",""
"","null","html-keyboard-response","40","385081","0.0-15.0-0.0","SS1618364994293","","","null","","","","","","<p><img src= images/blank.png width =""600"" height = ""600"" style=""position:fixed;top:50%; left:50%; transform: translate(-50%, -50%); border:5px solid black"">","","","","","","","",""
"","8013.474999926984","sequential-stimulus-presentation-old","41","398097","0.0-15.0-1.0","SS1618364994293","trial","","40","500","8513.474999926984","images/stimuli/spore_stims/simple_15_A_b.gif","images/stimuli/spore_stims/simple_08_A_a.gif","forced_long","","3","simple_dissimilar","images/stimuli/spore_stims/simple_08_A_a.gif","","","","",""
"","null","html-keyboard-response","42","399071","0.0-15.0-0.1","SS1618364994293","","","null","","","","","","<p><img src= images/blank.png width =""600"" height = ""600"" style=""position:fixed;top:50%; left:50%; transform: translate(-50%, -50%); border:5px solid black"">","","","","","","","",""
"","17819.31499997154","sequential-stimulus-presentation-old","43","417393","0.0-15.0-1.1","SS1618364994293","trial","","40","500","18319.31499997154","images/stimuli/spore_stims/simple_15_A_b.gif","images/stimuli/spore_stims/simple_08_A_a.gif","forced_long","","3","simple_dissimilar","images/stimuli/spore_stims/simple_08_A_a.gif","","","","",""
"","null","html-keyboard-response","44","418571","0.0-15.0-0.2","SS1618364994293","","","null","","","","","","<p><img src= images/blank.png width =""600"" height = ""600"" style=""position:fixed;top:50%; left:50%; transform: translate(-50%, -50%); border:5px solid black"">","","","","","","","",""
"","13767.535000108182","sequential-stimulus-presentation-old","45","432841","0.0-15.0-1.2","SS1618364994293","trial","","40","500","14267.535000108182","images/stimuli/spore_stims/simple_15_A_b.gif","images/stimuli/spore_stims/simple_08_A_a.gif","forced_long","","3","simple_dissimilar","images/stimuli/spore_stims/simple_15_A_b.gif","","","","",""
"","null","html-keyboard-response","46","434079","0.0-15.0-0.3","SS1618364994293","","","null","","","","","","<p><img src= images/blank.png width =""600"" height = ""600"" style=""position:fixed;top:50%; left:50%; transform: translate(-50%, -50%); border:5px solid black"">","","","","","","","",""
"","6587.240000022575","sequential-stimulus-presentation-old","47","441169","0.0-15.0-1.3","SS1618364994293","trial","","40","500","7087.240000022575","images/stimuli/spore_stims/simple_15_A_b.gif","images/stimuli/spore_stims/simple_08_A_a.gif","forced_long","","3","simple_dissimilar","images/stimuli/spore_stims/simple_08_A_a.gif","","","","",""
"","3248.460000148043","survey-multi-choice","48","444418","0.0-16.0","SS1618364994293","math_question","","","","","","","","","","","","{""Q0"":""11""}","[0]","11","",""
"","null","html-keyboard-response","49","445367","0.0-17.0-0.0","SS1618364994293","","","null","","","","","","<p><img src= images/blank.png width =""600"" height = ""600"" style=""position:fixed;top:50%; left:50%; transform: translate(-50%, -50%); border:5px solid black"">","","","","","","","",""
"","7017.260000109673","sequential-stimulus-presentation-old","50","452449","0.0-17.0-1.0","SS1618364994293","trial","","40","500","7517.260000109673","images/stimuli/spore_stims/complex_12_A_b.gif","images/stimuli/spore_stims/complex_11_A_a.gif","forced_short","","4","complex_dissimilar","images/stimuli/spore_stims/complex_11_A_a.gif","","","","",""
"","null","html-keyboard-response","51","453634","0.0-17.0-0.1","SS1618364994293","","","null","","","","","","<p><img src= images/blank.png width =""600"" height = ""600"" style=""position:fixed;top:50%; left:50%; transform: translate(-50%, -50%); border:5px solid black"">","","","","","","","",""
"","16631.855000043288","sequential-stimulus-presentation-old","52","470769","0.0-17.0-1.1","SS1618364994293","trial","","40","500","17131.855000043288","images/stimuli/spore_stims/complex_12_A_b.gif","images/stimuli/spore_stims/complex_11_A_a.gif","forced_short","","4","complex_dissimilar","images/stimuli/spore_stims/complex_12_A_b.gif","","","","",""
"","null","html-keyboard-response","53","471595","0.0-17.0-0.2","SS1618364994293","","","null","","","","","","<p><img src= images/blank.png width =""600"" height = ""600"" style=""position:fixed;top:50%; left:50%; transform: translate(-50%, -50%); border:5px solid black"">","","","","","","","",""
"","17943.59999988228","sequential-stimulus-presentation-old","54","490041","0.0-17.0-1.2","SS1618364994293","trial","","40","500","18443.59999988228","images/stimuli/spore_stims/complex_12_A_b.gif","images/stimuli/spore_stims/complex_11_A_a.gif","forced_short","","4","complex_dissimilar","images/stimuli/spore_stims/complex_11_A_a.gif","","","","",""
"","null","html-keyboard-response","55","491127","0.0-17.0-0.3","SS1618364994293","","","null","","","","","","<p><img src= images/blank.png width =""600"" height = ""600"" style=""position:fixed;top:50%; left:50%; transform: translate(-50%, -50%); border:5px solid black"">","","","","","","","",""
"","14628.935000160709","sequential-stimulus-presentation-old","56","506265","0.0-17.0-1.3","SS1618364994293","trial","","40","500","15128.935000160709","images/stimuli/spore_stims/complex_12_A_b.gif","images/stimuli/spore_stims/complex_11_A_a.gif","forced_short","","4","complex_dissimilar","images/stimuli/spore_stims/complex_11_A_a.gif","","","","",""
"","null","html-keyboard-response","57","507449","0.0-17.0-0.4","SS1618364994293","","","null","","","","","","<p><img src= images/blank.png width =""600"" height = ""600"" style=""position:fixed;top:50%; left:50%; transform: translate(-50%, -50%); border:5px solid black"">","","","","","","","",""
"","8720.949999988079","sequential-stimulus-presentation-old","58","516673","0.0-17.0-1.4","SS1618364994293","trial","","40","500","9220.949999988079","images/stimuli/spore_stims/complex_12_A_b.gif","images/stimuli/spore_stims/complex_11_A_a.gif","forced_short","","4","complex_dissimilar","images/stimuli/spore_stims/complex_12_A_b.gif","","","","",""
"","null","html-keyboard-response","59","517812","0.0-17.0-0.5","SS1618364994293","","","null","","","","","","<p><img src= images/blank.png width =""600"" height = ""600"" style=""position:fixed;top:50%; left:50%; transform: translate(-50%, -50%); border:5px solid black"">","","","","","","","",""
"","1887.0599998626858","sequential-stimulus-presentation-old","60","520201","0.0-17.0-1.5","SS1618364994293","trial","","40","500","2387.059999862686","images/stimuli/spore_stims/complex_12_A_b.gif","images/stimuli/spore_stims/complex_11_A_a.gif","forced_short","","4","complex_dissimilar","images/stimuli/spore_stims/complex_11_A_a.gif","","","","",""
"","3449.849999975413","survey-multi-choice","61","523653","0.0-18.0","SS1618364994293","math_question","","","","","","","","","","","","{""Q0"":""15""}","[0]","15","",""
"","null","html-keyboard-response","62","524779","0.0-19.0-0.0","SS1618364994293","","","null","","","","","","<p><img src= images/blank.png width =""600"" height = ""600"" style=""position:fixed;top:50%; left:50%; transform: translate(-50%, -50%); border:5px solid black"">","","","","","","","",""
"","12631.575000006706","sequential-stimulus-presentation-old","63","537913","0.0-19.0-1.0","SS1618364994293","trial","","40","500","13131.575000006706","images/stimuli/spore_stims/simple_14_A_a.gif","images/stimuli/spore_stims/simple_12_A_b.gif","self_paced","","5","simple_dissimilar","images/stimuli/spore_stims/simple_12_A_b.gif","","","","",""
"","null","html-keyboard-response","64","538746","0.0-19.0-0.1","SS1618364994293","","","null","","","","","","<p><img src= images/blank.png width =""600"" height = ""600"" style=""position:fixed;top:50%; left:50%; transform: translate(-50%, -50%); border:5px solid black"">","","","","","","","",""
"","16088.874999899417","sequential-stimulus-presentation-old","65","555338","0.0-19.0-1.1","SS1618364994293","trial","","40","500","16588.874999899417","images/stimuli/spore_stims/simple_14_A_a.gif","images/stimuli/spore_stims/simple_12_A_b.gif","self_paced","","5","simple_dissimilar","images/stimuli/spore_stims/simple_14_A_a.gif","","","","",""
"","null","html-keyboard-response","66","556383","0.0-19.0-0.2","SS1618364994293","","","null","","","","","","<p><img src= images/blank.png width =""600"" height = ""600"" style=""position:fixed;top:50%; left:50%; transform: translate(-50%, -50%); border:5px solid black"">","","","","","","","",""
"","4644.444999983534","sequential-stimulus-presentation-old","67","561529","0.0-19.0-1.2","SS1618364994293","trial","","40","500","5144.444999983534","images/stimuli/spore_stims/simple_14_A_a.gif","images/stimuli/spore_stims/simple_12_A_b.gif","self_paced","","5","simple_dissimilar","images/stimuli/spore_stims/simple_12_A_b.gif","","","","",""
"","null","html-keyboard-response","68","562489","0.0-19.0-0.3","SS1618364994293","","","null","","","","","","<p><img src= images/blank.png width =""600"" height = ""600"" style=""position:fixed;top:50%; left:50%; transform: translate(-50%, -50%); border:5px solid black"">","","","","","","","",""
"","1480.5399999022484","sequential-stimulus-presentation-old","69","564473","0.0-19.0-1.3","SS1618364994293","trial","","40","500","1980.5399999022484","images/stimuli/spore_stims/simple_14_A_a.gif","images/stimuli/spore_stims/simple_12_A_b.gif","self_paced","","5","simple_dissimilar","images/stimuli/spore_stims/simple_12_A_b.gif","","","","",""
"","null","html-keyboard-response","70","565704","0.0-19.0-0.4","SS1618364994293","","","null","","","","","","<p><img src= images/blank.png width =""600"" height = ""600"" style=""position:fixed;top:50%; left:50%; transform: translate(-50%, -50%); border:5px solid black"">","","","","","","","",""
"","1418.9049999695271","sequential-stimulus-presentation-old","71","567625","0.0-19.0-1.4","SS1618364994293","trial","","40","500","1918.9049999695271","images/stimuli/spore_stims/simple_14_A_a.gif","images/stimuli/spore_stims/simple_12_A_b.gif","self_paced","","5","simple_dissimilar","images/stimuli/spore_stims/simple_14_A_a.gif","","","","",""
"","3019.289999967441","survey-multi-choice","72","570646","0.0-20.0","SS1618364994293","math_question","","","","","","","","","","","","{""Q0"":""15""}","[0]","15","",""
"","null","html-keyboard-response","73","571668","0.0-21.0-0.0","SS1618364994293","","","null","","","","","","<p><img src= images/blank.png width =""600"" height = ""600"" style=""position:fixed;top:50%; left:50%; transform: translate(-50%, -50%); border:5px solid black"">","","","","","","","",""
"","6280.945000005886","sequential-stimulus-presentation-old","74","578001","0.0-21.0-1.0","SS1618364994293","trial","","40","500","6780.945000005886","images/stimuli/spore_stims/complex_01_A_b.gif","images/stimuli/spore_stims/complex_20_A_a.gif","forced_short","","6","complex_dissimilar","images/stimuli/spore_stims/complex_20_A_a.gif","","","","",""
"","null","html-keyboard-response","75","579208","0.0-21.0-0.1","SS1618364994293","","","null","","","","","","<p><img src= images/blank.png width =""600"" height = ""600"" style=""position:fixed;top:50%; left:50%; transform: translate(-50%, -50%); border:5px solid black"">","","","","","","","",""
"","8074.449999956414","sequential-stimulus-presentation-old","76","587785","0.0-21.0-1.1","SS1618364994293","trial","","40","500","8574.449999956414","images/stimuli/spore_stims/complex_01_A_b.gif","images/stimuli/spore_stims/complex_20_A_a.gif","forced_short","","6","complex_dissimilar","images/stimuli/spore_stims/complex_01_A_b.gif","","","","",""
"","null","html-keyboard-response","77","588881","0.0-21.0-0.2","SS1618364994293","","","null","","","","","","<p><img src= images/blank.png width =""600"" height = ""600"" style=""position:fixed;top:50%; left:50%; transform: translate(-50%, -50%); border:5px solid black"">","","","","","","","",""
"","10433.884999947622","sequential-stimulus-presentation-old","78","599817","0.0-21.0-1.2","SS1618364994293","trial","","40","500","10933.884999947622","images/stimuli/spore_stims/complex_01_A_b.gif","images/stimuli/spore_stims/complex_20_A_a.gif","forced_short","","6","complex_dissimilar","images/stimuli/spore_stims/complex_20_A_a.gif","","","","",""
"","null","html-keyboard-response","79","601036","0.0-21.0-0.3","SS1618364994293","","","null","","","","","","<p><img src= images/blank.png width =""600"" height = ""600"" style=""position:fixed;top:50%; left:50%; transform: translate(-50%, -50%); border:5px solid black"">","","","","","","","",""
"","6086.27500012517","sequential-stimulus-presentation-old","80","607633","0.0-21.0-1.3","SS1618364994293","trial","","40","500","6586.27500012517","images/stimuli/spore_stims/complex_01_A_b.gif","images/stimuli/spore_stims/complex_20_A_a.gif","forced_short","","6","complex_dissimilar","images/stimuli/spore_stims/complex_20_A_a.gif","","","","",""
"","null","html-keyboard-response","81","608463","0.0-21.0-0.4","SS1618364994293","","","null","","","","","","<p><img src= images/blank.png width =""600"" height = ""600"" style=""position:fixed;top:50%; left:50%; transform: translate(-50%, -50%); border:5px solid black"">","","","","","","","",""
"","1073.3950000721961","sequential-stimulus-presentation-old","82","610049","0.0-21.0-1.4","SS1618364994293","trial","","40","500","1573.3950000721961","images/stimuli/spore_stims/complex_01_A_b.gif","images/stimuli/spore_stims/complex_20_A_a.gif","forced_short","","6","complex_dissimilar","images/stimuli/spore_stims/complex_20_A_a.gif","","","","",""
"","null","html-keyboard-response","83","610861","0.0-21.0-0.5","SS1618364994293","","","null","","","","","","<p><img src= images/blank.png width =""600"" height = ""600"" style=""position:fixed;top:50%; left:50%; transform: translate(-50%, -50%); border:5px solid black"">","","","","","","","",""
"","1449.4399998802692","sequential-stimulus-presentation-old","84","612817","0.0-21.0-1.5","SS1618364994293","trial","","40","500","1949.4399998802692","images/stimuli/spore_stims/complex_01_A_b.gif","images/stimuli/spore_stims/complex_20_A_a.gif","forced_short","","6","complex_dissimilar","images/stimuli/spore_stims/complex_20_A_a.gif","","","","",""
"","4243.179999990389","survey-multi-choice","85","617062","0.0-22.0","SS1618364994293","math_question","","","","","","","","","","","","{""Q0"":""5""}","[0]","5","",""
"","null","html-keyboard-response","86","618270","0.0-23.0-0.0","SS1618364994293","","","null","","","","","","<p><img src= images/blank.png width =""600"" height = ""600"" style=""position:fixed;top:50%; left:50%; transform: translate(-50%, -50%); border:5px solid black"">","","","","","","","",""
"","4664.044999983162","sequential-stimulus-presentation-old","87","627937","0.0-23.0-1.0","SS1618364994293","trial","","40","500","5164.044999983162","images/stimuli/spore_stims/complex_10_A_a.gif","images/stimuli/spore_stims/complex_17_A_b.gif","forced_long","","7","complex_dissimilar","images/stimuli/spore_stims/complex_17_A_b.gif","","","","",""
"","null","html-keyboard-response","88","628854","0.0-23.0-0.1","SS1618364994293","","","null","","","","","","<p><img src= images/blank.png width =""600"" height = ""600"" style=""position:fixed;top:50%; left:50%; transform: translate(-50%, -50%); border:5px solid black"">","","","","","","","",""
"","12674.875000026077","sequential-stimulus-presentation-old","89","642041","0.0-23.0-1.1","SS1618364994293","trial","","40","500","13174.875000026077","images/stimuli/spore_stims/complex_10_A_a.gif","images/stimuli/spore_stims/complex_17_A_b.gif","forced_long","","7","complex_dissimilar","images/stimuli/spore_stims/complex_10_A_a.gif","","","","",""
"","null","html-keyboard-response","90","643053","0.0-23.0-0.2","SS1618364994293","","","null","","","","","","<p><img src= images/blank.png width =""600"" height = ""600"" style=""position:fixed;top:50%; left:50%; transform: translate(-50%, -50%); border:5px solid black"">","","","","","","","",""
"","7437.954999972135","sequential-stimulus-presentation-old","91","651001","0.0-23.0-1.2","SS1618364994293","trial","","40","500","7937.954999972135","images/stimuli/spore_stims/complex_10_A_a.gif","images/stimuli/spore_stims/complex_17_A_b.gif","forced_long","","7","complex_dissimilar","images/stimuli/spore_stims/complex_17_A_b.gif","","","","",""
"","null","html-keyboard-response","92","652192","0.0-23.0-0.3","SS1618364994293","","","null","","","","","","<p><img src= images/blank.png width =""600"" height = ""600"" style=""position:fixed;top:50%; left:50%; transform: translate(-50%, -50%); border:5px solid black"">","","","","","","","",""
"","2394.109999993816","sequential-stimulus-presentation-old","93","655089","0.0-23.0-1.3","SS1618364994293","trial","","40","500","2894.109999993816","images/stimuli/spore_stims/complex_10_A_a.gif","images/stimuli/spore_stims/complex_17_A_b.gif","forced_long","","7","complex_dissimilar","images/stimuli/spore_stims/complex_10_A_a.gif","","","","",""
"","4139.064999995753","survey-multi-choice","94","659230","0.0-24.0","SS1618364994293","math_question","","","","","","","","","","","","{""Q0"":""7""}","[0]","7","",""
"","null","html-keyboard-response","95","660066","0.0-25.0-0.0","SS1618364994293","","","null","","","","","","<p><img src= images/blank.png width =""600"" height = ""600"" style=""position:fixed;top:50%; left:50%; transform: translate(-50%, -50%); border:5px solid black"">","","","","","","","",""
"","2804.8800001852214","sequential-stimulus-presentation-old","96","667873","0.0-25.0-1.0","SS1618364994293","trial","","40","500","3304.8800001852214","images/stimuli/spore_stims/complex_19_A_b.gif","images/stimuli/spore_stims/complex_05_A_a.gif","forced_long","","8","complex_dissimilar","images/stimuli/spore_stims/complex_05_A_a.gif","","","","",""
"","null","html-keyboard-response","97","669080","0.0-25.0-0.1","SS1618364994293","","","null","","","","","","<p><img src= images/blank.png width =""600"" height = ""600"" style=""position:fixed;top:50%; left:50%; transform: translate(-50%, -50%); border:5px solid black"">","","","","","","","",""
"","7608.554999809712","sequential-stimulus-presentation-old","98","677201","0.0-25.0-1.1","SS1618364994293","trial","","40","500","8108.554999809712","images/stimuli/spore_stims/complex_19_A_b.gif","images/stimuli/spore_stims/complex_05_A_a.gif","forced_long","","8","complex_dissimilar","images/stimuli/spore_stims/complex_05_A_a.gif","","","","",""
"","null","html-keyboard-response","99","678356","0.0-25.0-0.2","SS1618364994293","","","null","","","","","","<p><img src= images/blank.png width =""600"" height = ""600"" style=""position:fixed;top:50%; left:50%; transform: translate(-50%, -50%); border:5px solid black"">","","","","","","","",""
"","3254.315000027418","sequential-stimulus-presentation-old","100","682113","0.0-25.0-1.2","SS1618364994293","trial","","40","500","3754.315000027418","images/stimuli/spore_stims/complex_19_A_b.gif","images/stimuli/spore_stims/complex_05_A_a.gif","forced_long","","8","complex_dissimilar","images/stimuli/spore_stims/complex_05_A_a.gif","","","","",""
"","null","html-keyboard-response","101","683375","0.0-25.0-0.3","SS1618364994293","","","null","","","","","","<p><img src= images/blank.png width =""600"" height = ""600"" style=""position:fixed;top:50%; left:50%; transform: translate(-50%, -50%); border:5px solid black"">","","","","","","","",""
"","1449.565000133589","sequential-stimulus-presentation-old","102","685337","0.0-25.0-1.3","SS1618364994293","trial","","40","500","1949.565000133589","images/stimuli/spore_stims/complex_19_A_b.gif","images/stimuli/spore_stims/complex_05_A_a.gif","forced_long","","8","complex_dissimilar","images/stimuli/spore_stims/complex_05_A_a.gif","","","","",""
"","3350.099999923259","survey-multi-choice","103","688689","0.0-26.0","SS1618364994293","math_question","","","","","","","","","","","","{""Q0"":""11""}","[0]","11","",""
"","null","html-keyboard-response","104","689815","0.0-27.0-0.0","SS1618364994293","","","null","","","","","","<p><img src= images/blank.png width =""600"" height = ""600"" style=""position:fixed;top:50%; left:50%; transform: translate(-50%, -50%); border:5px solid black"">","","","","","","","",""
"","8218.145000049844","sequential-stimulus-presentation-old","105","698097","0.0-27.0-1.0","SS1618364994293","trial","","40","500","8718.145000049844","images/stimuli/spore_stims/simple_13_A_a.gif","images/stimuli/spore_stims/simple_09_A_b.gif","forced_short","","9","simple_dissimilar","images/stimuli/spore_stims/simple_09_A_b.gif","","","","",""
"","null","html-keyboard-response","106","698981","0.0-27.0-0.1","SS1618364994293","","","null","","","","","","<p><img src= images/blank.png width =""600"" height = ""600"" style=""position:fixed;top:50%; left:50%; transform: translate(-50%, -50%); border:5px solid black"">","","","","","","","",""
"","1548.86500001885","sequential-stimulus-presentation-old","107","701033","0.0-27.0-1.1","SS1618364994293","trial","","40","500","2048.86500001885","images/stimuli/spore_stims/simple_13_A_a.gif","images/stimuli/spore_stims/simple_09_A_b.gif","forced_short","","9","simple_dissimilar","images/stimuli/spore_stims/simple_09_A_b.gif","","","","",""
"","null","html-keyboard-response","108","702325","0.0-27.0-0.2","SS1618364994293","","","null","","","","","","<p><img src= images/blank.png width =""600"" height = ""600"" style=""position:fixed;top:50%; left:50%; transform: translate(-50%, -50%); border:5px solid black"">","","","","","","","",""
"","867.6500001456589","sequential-stimulus-presentation-old","109","703705","0.0-27.0-1.2","SS1618364994293","trial","","40","500","1367.6500001456589","images/stimuli/spore_stims/simple_13_A_a.gif","images/stimuli/spore_stims/simple_09_A_b.gif","forced_short","","9","simple_dissimilar","images/stimuli/spore_stims/simple_09_A_b.gif","","","","",""
"","null","html-keyboard-response","110","704968","0.0-27.0-0.3","SS1618364994293","","","null","","","","","","<p><img src= images/blank.png width =""600"" height = ""600"" style=""position:fixed;top:50%; left:50%; transform: translate(-50%, -50%); border:5px solid black"">","","","","","","","",""
"","537.2450000140816","sequential-stimulus-presentation-old","111","706017","0.0-27.0-1.3","SS1618364994293","trial","","40","500","1037.2450000140816","images/stimuli/spore_stims/simple_13_A_a.gif","images/stimuli/spore_stims/simple_09_A_b.gif","forced_short","","9","simple_dissimilar","images/stimuli/spore_stims/simple_09_A_b.gif","","","","",""
"","null","html-keyboard-response","112","707045","0.0-27.0-0.4","SS1618364994293","","","null","","","","","","<p><img src= images/blank.png width =""600"" height = ""600"" style=""position:fixed;top:50%; left:50%; transform: translate(-50%, -50%); border:5px solid black"">","","","","","","","",""
"","2117.6100000739098","sequential-stimulus-presentation-old","113","709666","0.0-27.0-1.4","SS1618364994293","trial","","40","500","2617.6100000739098","images/stimuli/spore_stims/simple_13_A_a.gif","images/stimuli/spore_stims/simple_09_A_b.gif","forced_short","","9","simple_dissimilar","images/stimuli/spore_stims/simple_13_A_a.gif","","","","",""
"","null","html-keyboard-response","114","710521","0.0-27.0-0.5","SS1618364994293","","","null","","","","","","<p><img src= images/blank.png width =""600"" height = ""600"" style=""position:fixed;top:50%; left:50%; transform: translate(-50%, -50%); border:5px solid black"">","","","","","","","",""
"","1242.2050000168383","sequential-stimulus-presentation-old","115","712265","0.0-27.0-1.5","SS1618364994293","trial","","40","500","1742.2050000168383","images/stimuli/spore_stims/simple_13_A_a.gif","images/stimuli/spore_stims/simple_09_A_b.gif","forced_short","","9","simple_dissimilar","images/stimuli/spore_stims/simple_13_A_a.gif","","","","",""
"","2588.9449999667704","survey-multi-choice","116","714856","0.0-28.0","SS1618364994293","math_question","","","","","","","","","","","","{""Q0"":""8""}","[0]","8","",""
"","null","html-keyboard-response","117","715789","0.0-29.0-0.0","SS1618364994293","","","null","","","","","","<p><img src= images/blank.png width =""600"" height = ""600"" style=""position:fixed;top:50%; left:50%; transform: translate(-50%, -50%); border:5px solid black"">","","","","","","","",""
"","3982.0550000295043","sequential-stimulus-presentation-old","118","719826","0.0-29.0-1.0","SS1618364994293","trial","","40","500","4482.055000029504","images/stimuli/spore_stims/simple_18_A_b.gif","images/stimuli/spore_stims/simple_02_A_a.gif","forced_short","","10","simple_dissimilar","images/stimuli/spore_stims/simple_02_A_a.gif","","","","",""
"","null","html-keyboard-response","119","720654","0.0-29.0-0.1","SS1618364994293","","","null","","","","","","<p><img src= images/blank.png width =""600"" height = ""600"" style=""position:fixed;top:50%; left:50%; transform: translate(-50%, -50%); border:5px solid black"">","","","","","","","",""
"","5965.105000184849","sequential-stimulus-presentation-old","120","727121","0.0-29.0-1.1","SS1618364994293","trial","","40","500","6465.105000184849","images/stimuli/spore_stims/simple_18_A_b.gif","images/stimuli/spore_stims/simple_02_A_a.gif","forced_short","","10","simple_dissimilar","images/stimuli/spore_stims/simple_18_A_b.gif","","","","",""
"","null","html-keyboard-response","121","728361","0.0-29.0-0.2","SS1618364994293","","","null","","","","","","<p><img src= images/blank.png width =""600"" height = ""600"" style=""position:fixed;top:50%; left:50%; transform: translate(-50%, -50%); border:5px solid black"">","","","","","","","",""
"","3234.2000000644475","sequential-stimulus-presentation-old","122","732097","0.0-29.0-1.2","SS1618364994293","trial","","40","500","3734.2000000644475","images/stimuli/spore_stims/simple_18_A_b.gif","images/stimuli/spore_stims/simple_02_A_a.gif","forced_short","","10","simple_dissimilar","images/stimuli/spore_stims/simple_02_A_a.gif","","","","",""
"","null","html-keyboard-response","123","733109","0.0-29.0-0.3","SS1618364994293","","","null","","","","","","<p><img src= images/blank.png width =""600"" height = ""600"" style=""position:fixed;top:50%; left:50%; transform: translate(-50%, -50%); border:5px solid black"">","","","","","","","",""
"","3021.8750000931323","sequential-stimulus-presentation-old","124","736633","0.0-29.0-1.3","SS1618364994293","trial","","40","500","3521.8750000931323","images/stimuli/spore_stims/simple_18_A_b.gif","images/stimuli/spore_stims/simple_02_A_a.gif","forced_short","","10","simple_dissimilar","images/stimuli/spore_stims/simple_02_A_a.gif","","","","",""
"","null","html-keyboard-response","125","737505","0.0-29.0-0.4","SS1618364994293","","","null","","","","","","<p><img src= images/blank.png width =""600"" height = ""600"" style=""position:fixed;top:50%; left:50%; transform: translate(-50%, -50%); border:5px solid black"">","","","","","","","",""
"","1593.6849999707192","sequential-stimulus-presentation-old","126","739601","0.0-29.0-1.4","SS1618364994293","trial","","40","500","2093.684999970719","images/stimuli/spore_stims/simple_18_A_b.gif","images/stimuli/spore_stims/simple_02_A_a.gif","forced_short","","10","simple_dissimilar","images/stimuli/spore_stims/simple_02_A_a.gif","","","","",""
"","null","html-keyboard-response","127","740814","0.0-29.0-0.5","SS1618364994293","","","null","","","","","","<p><img src= images/blank.png width =""600"" height = ""600"" style=""position:fixed;top:50%; left:50%; transform: translate(-50%, -50%); border:5px solid black"">","","","","","","","",""
"","1180.824999930337","sequential-stimulus-presentation-old","128","742497","0.0-29.0-1.5","SS1618364994293","trial","","40","500","1680.824999930337","images/stimuli/spore_stims/simple_18_A_b.gif","images/stimuli/spore_stims/simple_02_A_a.gif","forced_short","","10","simple_dissimilar","images/stimuli/spore_stims/simple_02_A_a.gif","","","","",""
"","3114.2649999819696","survey-multi-choice","129","745614","0.0-30.0","SS1618364994293","math_question","","","","","","","","","","","","{""Q0"":""11""}","[0]","11","",""
"","null","html-keyboard-response","130","746418","0.0-31.0-0.0","SS1618364994293","","","null","","","","","","<p><img src= images/blank.png width =""600"" height = ""600"" style=""position:fixed;top:50%; left:50%; transform: translate(-50%, -50%); border:5px solid black"">","","","","","","","",""
"","2196.8000000342727","sequential-stimulus-presentation-old","131","753618","0.0-31.0-1.0","SS1618364994293","trial","","40","500","2696.8000000342727","images/stimuli/spore_stims/simple_07_A_a.gif","images/stimuli/spore_stims/simple_20_A_b.gif","forced_long","","11","simple_dissimilar","images/stimuli/spore_stims/simple_20_A_b.gif","","","","",""
"","null","html-keyboard-response","132","754467","0.0-31.0-0.1","SS1618364994293","","","null","","","","","","<p><img src= images/blank.png width =""600"" height = ""600"" style=""position:fixed;top:50%; left:50%; transform: translate(-50%, -50%); border:5px solid black"">","","","","","","","",""
"","3000.0249999575317","sequential-stimulus-presentation-old","133","757969","0.0-31.0-1.1","SS1618364994293","trial","","40","500","3500.0249999575317","images/stimuli/spore_stims/simple_07_A_a.gif","images/stimuli/spore_stims/simple_20_A_b.gif","forced_long","","11","simple_dissimilar","images/stimuli/spore_stims/simple_20_A_b.gif","","","","",""
"","null","html-keyboard-response","134","759087","0.0-31.0-0.2","SS1618364994293","","","null","","","","","","<p><img src= images/blank.png width =""600"" height = ""600"" style=""position:fixed;top:50%; left:50%; transform: translate(-50%, -50%); border:5px solid black"">","","","","","","","",""
"","523.8899998366833","sequential-stimulus-presentation-old","135","760113","0.0-31.0-1.2","SS1618364994293","trial","","40","500","1023.8899998366833","images/stimuli/spore_stims/simple_07_A_a.gif","images/stimuli/spore_stims/simple_20_A_b.gif","forced_long","","11","simple_dissimilar","images/stimuli/spore_stims/simple_20_A_b.gif","","","","",""
"","null","html-keyboard-response","136","761197","0.0-31.0-0.3","SS1618364994293","","","null","","","","","","<p><img src= images/blank.png width =""600"" height = ""600"" style=""position:fixed;top:50%; left:50%; transform: translate(-50%, -50%); border:5px solid black"">","","","","","","","",""
"","349.8949999921024","sequential-stimulus-presentation-old","137","762057","0.0-31.0-1.3","SS1618364994293","trial","","40","500","849.8949999921024","images/stimuli/spore_stims/simple_07_A_a.gif","images/stimuli/spore_stims/simple_20_A_b.gif","forced_long","","11","simple_dissimilar","images/stimuli/spore_stims/simple_20_A_b.gif","","","","",""
"[{""page_index"":0,""viewing_time"":8172.309999819845}]","8172.4499999545515","instructions","138","770231","0.0-32.0","SS1618364994293","instructions","","","","","","","","","","","","","","","",""
"","20612.545000156388","survey-likert","139","790846","0.0-33.0","SS1618364994293","similarity_question","","","","","","","","","","","","{""Q0"":1}","[0]","","images/stimuli/spore_stims/complex_07_A_b.gif","images/stimuli/spore_stims/complex_19_A_a.gif"
"","9043.684999924153","survey-likert","140","799894","0.0-34.0","SS1618364994293","similarity_question","","","","","","","","","","","","{""Q0"":0}","[0]","","images/stimuli/spore_stims/complex_01_A_b.gif","images/stimuli/spore_stims/complex_20_A_a.gif"
"","6905.70000000298","survey-likert","141","806804","0.0-35.0","SS1618364994293","similarity_question","","","","","","","","","","","","{""Q0"":5}","[0]","","images/stimuli/spore_stims/simple_12_A_b.gif","images/stimuli/spore_stims/simple_14_A_a.gif"
"","3601.354999933392","survey-likert","142","810409","0.0-36.0","SS1618364994293","similarity_question","","","","","","","","","","","","{""Q0"":5}","[0]","","images/stimuli/spore_stims/simple_09_A_b.gif","images/stimuli/spore_stims/simple_13_A_a.gif"
"","14912.680000066757","survey-likert","143","825325","0.0-37.0","SS1618364994293","similarity_question","","","","","","","","","","","","{""Q0"":2}","[0]","","images/stimuli/spore_stims/complex_14_A_a.gif","images/stimuli/spore_stims/complex_18_A_b.gif"
"","4816.0249998327345","survey-likert","144","830146","0.0-38.0","SS1618364994293","similarity_question","","","","","","","","","","","","{""Q0"":1}","[0]","","images/stimuli/spore_stims/complex_17_A_b.gif","images/stimuli/spore_stims/complex_10_A_a.gif"
"","6639.794999966398","survey-likert","145","836790","0.0-39.0","SS1618364994293","similarity_question","","","","","","","","","","","","{""Q0"":1}","[0]","","images/stimuli/spore_stims/complex_05_A_a.gif","images/stimuli/spore_stims/complex_19_A_b.gif"
"","4586.330000078306","survey-likert","146","841380","0.0-40.0","SS1618364994293","similarity_question","","","","","","","","","","","","{""Q0"":5}","[0]","","images/stimuli/spore_stims/simple_16_A_b.gif","images/stimuli/spore_stims/simple_15_A_a.gif"
"","3551.04500008747","survey-likert","147","844936","0.0-41.0","SS1618364994293","similarity_question","","","","","","","","","","","","{""Q0"":6}","[0]","","images/stimuli/spore_stims/simple_08_A_a.gif","images/stimuli/spore_stims/simple_15_A_b.gif"
"","4589.344999985769","survey-likert","148","849529","0.0-42.0","SS1618364994293","similarity_question","","","","","","","","","","","","{""Q0"":5}","[0]","","images/stimuli/spore_stims/simple_20_A_b.gif","images/stimuli/spore_stims/simple_07_A_a.gif"
"","7828.804999822751","survey-likert","149","857362","0.0-43.0","SS1618364994293","similarity_question","","","","","","","","","","","","{""Q0"":2}","[0]","","images/stimuli/spore_stims/simple_18_A_b.gif","images/stimuli/spore_stims/simple_02_A_a.gif"
"","10932.010000105947","survey-likert","150","868298","0.0-44.0","SS1618364994293","similarity_question","","","","","","","","","","","","{""Q0"":1}","[0]","","images/stimuli/spore_stims/complex_11_A_a.gif","images/stimuli/spore_stims/complex_12_A_b.gif"
"[{""page_index"":0,""viewing_time"":5699.659999925643}]","5699.844999937341","instructions","151","874002","0.0-45.0","SS1618364994293","instructions","","","","","","","","","","","","","","","",""
"","12540.47999996692","survey-likert","152","886545","0.0-46.0","SS1618364994293","","","","","","","","","images/stimuli/spore_stims/complex_12_A_b.gif","","","","{""Q0"":5}","[0]","","",""
"","4051.180000184104","survey-likert","153","890601","0.0-47.0","SS1618364994293","","","","","","","","","images/stimuli/spore_stims/complex_17_A_b.gif","","","","{""Q0"":4}","[0]","","",""
"","3900.984999956563","survey-likert","154","894506","0.0-48.0","SS1618364994293","","","","","","","","","images/stimuli/spore_stims/simple_16_A_b.gif","","","","{""Q0"":1}","[0]","","",""
"","3176.21499998495","survey-likert","155","897687","0.0-49.0","SS1618364994293","","","","","","","","","images/stimuli/spore_stims/simple_20_A_b.gif","","","","{""Q0"":0}","[0]","","",""
"","3318.3150000404567","survey-likert","156","901010","0.0-50.0","SS1618364994293","","","","","","","","","images/stimuli/spore_stims/simple_18_A_b.gif","","","","{""Q0"":0}","[0]","","",""
"","4604.445000179112","survey-likert","157","905619","0.0-51.0","SS1618364994293","","","","","","","","","images/stimuli/spore_stims/complex_19_A_a.gif","","","","{""Q0"":5}","[0]","","",""
"","4061.0800001304597","survey-likert","158","909684","0.0-52.0","SS1618364994293","","","","","","","","","images/stimuli/spore_stims/simple_08_A_a.gif","","","","{""Q0"":0}","[0]","","",""
"","3245.3700001351535","survey-likert","159","912934","0.0-53.0","SS1618364994293","","","","","","","","","images/stimuli/spore_stims/complex_20_A_a.gif","","","","{""Q0"":4}","[0]","","",""
"","9421.955000143498","survey-likert","160","922360","0.0-54.0","SS1618364994293","","","","","","","","","images/stimuli/spore_stims/complex_14_A_a.gif","","","","{""Q0"":4}","[0]","","",""
"","5039.564999984577","survey-likert","161","927403","0.0-55.0","SS1618364994293","","","","","","","","","images/stimuli/spore_stims/complex_19_A_b.gif","","","","{""Q0"":5}","[0]","","",""
"","4181.27500009723","survey-likert","162","931589","0.0-56.0","SS1618364994293","","","","","","","","","images/stimuli/spore_stims/simple_13_A_a.gif","","","","{""Q0"":0}","[0]","","",""
"","4093.0250000674278","survey-likert","163","935686","0.0-57.0","SS1618364994293","","","","","","","","","images/stimuli/spore_stims/simple_14_A_a.gif","","","","{""Q0"":0}","[0]","","",""
"[{""page_index"":0,""viewing_time"":3200.345000019297}]","3200.490000192076","instructions","164","938890","0.0-58.0","SS1618364994293","instructions","","","","","","","","","","","","","","","",""
"","3148.47999997437","demog-age","165","942042","0.0-59.0","SS1618364994293","","","","","","","","","","","","","{""age"":""36""}","","","",""
"","9921.030000085011","demog-ethnic-US","166","951967","0.0-60.0","SS1618364994293","","","","","","","","","","","","","{""ethnicity"":[""White""]}","[0]","","",""
"","6432.280000066385","demog-gender-and-education","167","958404","0.0-61.0","SS1618364994293","","","","","","","","","","","","","{""gender"":""Male"",""education"":""Bachelor's Degree""}","[0,1]","","",""
"","15765.669999876991","survey-text","168","974174","0.0-62.0","SS1618364994293","feedback","","","","","","","","","","","","{""Q0"":""Everything worked fine""}","","","",""
"[{""page_index"":0,""viewing_time"":2290.1549998205155}]","2290.335000026971","instructions","169","976467","0.0-63.0","SS1618364994293","instructions","","","","","","","","","","","","","","","",""
