"view_history","rt","trial_type","trial_index","time_elapsed","internal_node_id","subject","stimulus_type","trial_stimulus","key_press","minimum_viewing_duration","trial_looking_time","block_deviant","block_background","exposure_type","stimulus","block_number","block_type","stimulus_displayed","responses","question_order","math_correct_answer","stimulus_left","stimulus_right"
"[{""page_index"":0,""viewing_time"":2556}]","2556","instructions","0","2557","0.0-0.0","SS1618365500326","","","","","","","","","","","","","","","","",""
"[{""page_index"":0,""viewing_time"":1213},{""page_index"":1,""viewing_time"":12972}]","14185","instructions","1","18747","0.0-1.0","SS1618365500326","instructions","","","","","","","","","","","","","","","",""
"","5347","sequential-stimulus-presentation-old","2","24610","0.0-2.0","SS1618365500326","","","40","500","5847","null","null","self_paced","","","","","","","","",""
"","7884","sequential-stimulus-presentation-old","3","33001","0.0-3.0","SS1618365500326","","","40","500","8384","null","null","self_paced","","","","","","","","",""
"[{""page_index"":0,""viewing_time"":783}]","783","instructions","4","33785","0.0-4.0","SS1618365500326","instructions","","","","","","","","","","","","","","","",""
"","3723","sequential-stimulus-presentation-old","5","42517","0.0-5.0","SS1618365500326","","","40","500","4223","null","null","forced_long","","","","","","","","",""
"","2317","sequential-stimulus-presentation-old","6","44886","0.0-6.0","SS1618365500326","","","40","50","2367","null","null","forced_long","","","","","","","","",""
"[{""page_index"":0,""viewing_time"":748}]","748","instructions","7","45636","0.0-7.0","SS1618365500326","instructions","","","","","","","","","","","","","","","",""
"[{""page_index"":0,""viewing_time"":785},{""page_index"":1,""viewing_time"":616},{""page_index"":2,""viewing_time"":502},{""page_index"":3,""viewing_time"":2191},{""page_index"":4,""viewing_time"":611}]","4705","instructions","8","50341","0.0-8.0","SS1618365500326","instructions","","","","","","","","","","","","","","","",""
"","null","html-keyboard-response","9","51154","0.0-9.0-0.0","SS1618365500326","","","null","","","","","","<p><img src= images/blank.png width =""600"" height = ""600"" style=""position:fixed;top:50%; left:50%; transform: translate(-50%, -50%); border:5px solid black"">","","","","","","","",""
"","3021","sequential-stimulus-presentation-old","10","54235","0.0-9.0-1.0","SS1618365500326","trial","","40","500","3521","images/stimuli/spore_stims/simple_11_A_b.gif","images/stimuli/spore_stims/simple_06_A_a.gif","forced_short","","0","simple_dissimilar","images/stimuli/spore_stims/simple_06_A_a.gif","","","","",""
"","null","html-keyboard-response","11","55307","0.0-9.0-0.1","SS1618365500326","","","null","","","","","","<p><img src= images/blank.png width =""600"" height = ""600"" style=""position:fixed;top:50%; left:50%; transform: translate(-50%, -50%); border:5px solid black"">","","","","","","","",""
"","3554","sequential-stimulus-presentation-old","12","59376","0.0-9.0-1.1","SS1618365500326","trial","","40","500","4054","images/stimuli/spore_stims/simple_11_A_b.gif","images/stimuli/spore_stims/simple_06_A_a.gif","forced_short","","0","simple_dissimilar","images/stimuli/spore_stims/simple_06_A_a.gif","","","","",""
"","null","html-keyboard-response","13","60612","0.0-9.0-0.2","SS1618365500326","","","null","","","","","","<p><img src= images/blank.png width =""600"" height = ""600"" style=""position:fixed;top:50%; left:50%; transform: translate(-50%, -50%); border:5px solid black"">","","","","","","","",""
"","384","sequential-stimulus-presentation-old","14","61508","0.0-9.0-1.2","SS1618365500326","trial","","40","500","884","images/stimuli/spore_stims/simple_11_A_b.gif","images/stimuli/spore_stims/simple_06_A_a.gif","forced_short","","0","simple_dissimilar","images/stimuli/spore_stims/simple_06_A_a.gif","","","","",""
"","null","html-keyboard-response","15","62536","0.0-9.0-0.3","SS1618365500326","","","null","","","","","","<p><img src= images/blank.png width =""600"" height = ""600"" style=""position:fixed;top:50%; left:50%; transform: translate(-50%, -50%); border:5px solid black"">","","","","","","","",""
"","946","sequential-stimulus-presentation-old","16","63994","0.0-9.0-1.3","SS1618365500326","trial","","40","500","1446","images/stimuli/spore_stims/simple_11_A_b.gif","images/stimuli/spore_stims/simple_06_A_a.gif","forced_short","","0","simple_dissimilar","images/stimuli/spore_stims/simple_11_A_b.gif","","","","",""
"","null","html-keyboard-response","17","64943","0.0-9.0-0.4","SS1618365500326","","","null","","","","","","<p><img src= images/blank.png width =""600"" height = ""600"" style=""position:fixed;top:50%; left:50%; transform: translate(-50%, -50%); border:5px solid black"">","","","","","","","",""
"","31","sequential-stimulus-presentation-old","18","65486","0.0-9.0-1.4","SS1618365500326","trial","","40","500","531","images/stimuli/spore_stims/simple_11_A_b.gif","images/stimuli/spore_stims/simple_06_A_a.gif","forced_short","","0","simple_dissimilar","images/stimuli/spore_stims/simple_06_A_a.gif","","","","",""
"","null","html-keyboard-response","19","66649","0.0-9.0-0.5","SS1618365500326","","","null","","","","","","<p><img src= images/blank.png width =""600"" height = ""600"" style=""position:fixed;top:50%; left:50%; transform: translate(-50%, -50%); border:5px solid black"">","","","","","","","",""
"","347","sequential-stimulus-presentation-old","20","67512","0.0-9.0-1.5","SS1618365500326","trial","","40","500","847","images/stimuli/spore_stims/simple_11_A_b.gif","images/stimuli/spore_stims/simple_06_A_a.gif","forced_short","","0","simple_dissimilar","images/stimuli/spore_stims/simple_06_A_a.gif","","","","",""
"","7346","survey-multi-choice","21","74861","0.0-10.0","SS1618365500326","math_question","","","","","","","","","","","","{""Q0"":""17""}","[0]","17","",""
"","null","html-keyboard-response","22","75887","0.0-11.0-0.0","SS1618365500326","","","null","","","","","","<p><img src= images/blank.png width =""600"" height = ""600"" style=""position:fixed;top:50%; left:50%; transform: translate(-50%, -50%); border:5px solid black"">","","","","","","","",""
"","1711","sequential-stimulus-presentation-old","23","78111","0.0-11.0-1.0","SS1618365500326","trial","","40","500","2211","images/stimuli/spore_stims/simple_17_A_a.gif","images/stimuli/spore_stims/simple_18_A_b.gif","self_paced","","1","simple_dissimilar","images/stimuli/spore_stims/simple_18_A_b.gif","","","","",""
"","null","html-keyboard-response","24","79264","0.0-11.0-0.1","SS1618365500326","","","null","","","","","","<p><img src= images/blank.png width =""600"" height = ""600"" style=""position:fixed;top:50%; left:50%; transform: translate(-50%, -50%); border:5px solid black"">","","","","","","","",""
"","714","sequential-stimulus-presentation-old","25","80492","0.0-11.0-1.1","SS1618365500326","trial","","40","500","1214","images/stimuli/spore_stims/simple_17_A_a.gif","images/stimuli/spore_stims/simple_18_A_b.gif","self_paced","","1","simple_dissimilar","images/stimuli/spore_stims/simple_18_A_b.gif","","","","",""
"","null","html-keyboard-response","26","81357","0.0-11.0-0.2","SS1618365500326","","","null","","","","","","<p><img src= images/blank.png width =""600"" height = ""600"" style=""position:fixed;top:50%; left:50%; transform: translate(-50%, -50%); border:5px solid black"">","","","","","","","",""
"","618","sequential-stimulus-presentation-old","27","82491","0.0-11.0-1.2","SS1618365500326","trial","","40","500","1118","images/stimuli/spore_stims/simple_17_A_a.gif","images/stimuli/spore_stims/simple_18_A_b.gif","self_paced","","1","simple_dissimilar","images/stimuli/spore_stims/simple_18_A_b.gif","","","","",""
"","null","html-keyboard-response","28","83610","0.0-11.0-0.3","SS1618365500326","","","null","","","","","","<p><img src= images/blank.png width =""600"" height = ""600"" style=""position:fixed;top:50%; left:50%; transform: translate(-50%, -50%); border:5px solid black"">","","","","","","","",""
"","71","sequential-stimulus-presentation-old","29","84197","0.0-11.0-1.3","SS1618365500326","trial","","40","500","571","images/stimuli/spore_stims/simple_17_A_a.gif","images/stimuli/spore_stims/simple_18_A_b.gif","self_paced","","1","simple_dissimilar","images/stimuli/spore_stims/simple_17_A_a.gif","","","","",""
"","null","html-keyboard-response","30","85187","0.0-11.0-0.4","SS1618365500326","","","null","","","","","","<p><img src= images/blank.png width =""600"" height = ""600"" style=""position:fixed;top:50%; left:50%; transform: translate(-50%, -50%); border:5px solid black"">","","","","","","","",""
"","199","sequential-stimulus-presentation-old","31","85901","0.0-11.0-1.4","SS1618365500326","trial","","40","500","699","images/stimuli/spore_stims/simple_17_A_a.gif","images/stimuli/spore_stims/simple_18_A_b.gif","self_paced","","1","simple_dissimilar","images/stimuli/spore_stims/simple_18_A_b.gif","","","","",""
"","null","html-keyboard-response","32","86986","0.0-11.0-0.5","SS1618365500326","","","null","","","","","","<p><img src= images/blank.png width =""600"" height = ""600"" style=""position:fixed;top:50%; left:50%; transform: translate(-50%, -50%); border:5px solid black"">","","","","","","","",""
"","569","sequential-stimulus-presentation-old","33","88071","0.0-11.0-1.5","SS1618365500326","trial","","40","500","1069","images/stimuli/spore_stims/simple_17_A_a.gif","images/stimuli/spore_stims/simple_18_A_b.gif","self_paced","","1","simple_dissimilar","images/stimuli/spore_stims/simple_18_A_b.gif","","","","",""
"","7598","survey-multi-choice","34","95672","0.0-12.0","SS1618365500326","math_question","","","","","","","","","","","","{""Q0"":""13""}","[0]","13","",""
"","null","html-keyboard-response","35","96597","0.0-13.0-0.0","SS1618365500326","","","null","","","","","","<p><img src= images/blank.png width =""600"" height = ""600"" style=""position:fixed;top:50%; left:50%; transform: translate(-50%, -50%); border:5px solid black"">","","","","","","","",""
"","706","sequential-stimulus-presentation-old","36","102317","0.0-13.0-1.0","SS1618365500326","trial","","40","500","1206","images/stimuli/spore_stims/complex_08_A_a.gif","images/stimuli/spore_stims/complex_10_A_b.gif","forced_long","","2","complex_dissimilar","images/stimuli/spore_stims/complex_10_A_b.gif","","","","",""
"","null","html-keyboard-response","37","103420","0.0-13.0-0.1","SS1618365500326","","","null","","","","","","<p><img src= images/blank.png width =""600"" height = ""600"" style=""position:fixed;top:50%; left:50%; transform: translate(-50%, -50%); border:5px solid black"">","","","","","","","",""
"","411","sequential-stimulus-presentation-old","38","104336","0.0-13.0-1.1","SS1618365500326","trial","","40","500","911","images/stimuli/spore_stims/complex_08_A_a.gif","images/stimuli/spore_stims/complex_10_A_b.gif","forced_long","","2","complex_dissimilar","images/stimuli/spore_stims/complex_08_A_a.gif","","","","",""
"","null","html-keyboard-response","39","105174","0.0-13.0-0.2","SS1618365500326","","","null","","","","","","<p><img src= images/blank.png width =""600"" height = ""600"" style=""position:fixed;top:50%; left:50%; transform: translate(-50%, -50%); border:5px solid black"">","","","","","","","",""
"","778","sequential-stimulus-presentation-old","40","106456","0.0-13.0-1.2","SS1618365500326","trial","","40","500","1278","images/stimuli/spore_stims/complex_08_A_a.gif","images/stimuli/spore_stims/complex_10_A_b.gif","forced_long","","2","complex_dissimilar","images/stimuli/spore_stims/complex_10_A_b.gif","","","","",""
"","null","html-keyboard-response","41","107297","0.0-13.0-0.3","SS1618365500326","","","null","","","","","","<p><img src= images/blank.png width =""600"" height = ""600"" style=""position:fixed;top:50%; left:50%; transform: translate(-50%, -50%); border:5px solid black"">","","","","","","","",""
"","56","sequential-stimulus-presentation-old","42","107860","0.0-13.0-1.3","SS1618365500326","trial","","40","500","556","images/stimuli/spore_stims/complex_08_A_a.gif","images/stimuli/spore_stims/complex_10_A_b.gif","forced_long","","2","complex_dissimilar","images/stimuli/spore_stims/complex_10_A_b.gif","","","","",""
"","null","html-keyboard-response","43","108672","0.0-13.0-0.4","SS1618365500326","","","null","","","","","","<p><img src= images/blank.png width =""600"" height = ""600"" style=""position:fixed;top:50%; left:50%; transform: translate(-50%, -50%); border:5px solid black"">","","","","","","","",""
"","149","sequential-stimulus-presentation-old","44","109334","0.0-13.0-1.4","SS1618365500326","trial","","40","500","649","images/stimuli/spore_stims/complex_08_A_a.gif","images/stimuli/spore_stims/complex_10_A_b.gif","forced_long","","2","complex_dissimilar","images/stimuli/spore_stims/complex_10_A_b.gif","","","","",""
"","null","html-keyboard-response","45","110266","0.0-13.0-0.5","SS1618365500326","","","null","","","","","","<p><img src= images/blank.png width =""600"" height = ""600"" style=""position:fixed;top:50%; left:50%; transform: translate(-50%, -50%); border:5px solid black"">","","","","","","","",""
"","708","sequential-stimulus-presentation-old","46","111478","0.0-13.0-1.5","SS1618365500326","trial","","40","500","1208","images/stimuli/spore_stims/complex_08_A_a.gif","images/stimuli/spore_stims/complex_10_A_b.gif","forced_long","","2","complex_dissimilar","images/stimuli/spore_stims/complex_10_A_b.gif","","","","",""
"","5868","survey-multi-choice","47","117349","0.0-14.0","SS1618365500326","math_question","","","","","","","","","","","","{""Q0"":""14""}","[0]","14","",""
"","null","html-keyboard-response","48","118495","0.0-15.0-0.0","SS1618365500326","","","null","","","","","","<p><img src= images/blank.png width =""600"" height = ""600"" style=""position:fixed;top:50%; left:50%; transform: translate(-50%, -50%); border:5px solid black"">","","","","","","","",""
"","786","sequential-stimulus-presentation-old","49","119346","0.0-15.0-1.0","SS1618365500326","trial","","40","500","1286","images/stimuli/spore_stims/complex_06_A_a.gif","images/stimuli/spore_stims/complex_07_A_b.gif","forced_short","","3","complex_dissimilar","images/stimuli/spore_stims/complex_07_A_b.gif","","","","",""
"","null","html-keyboard-response","50","120439","0.0-15.0-0.1","SS1618365500326","","","null","","","","","","<p><img src= images/blank.png width =""600"" height = ""600"" style=""position:fixed;top:50%; left:50%; transform: translate(-50%, -50%); border:5px solid black"">","","","","","","","",""
"","349","sequential-stimulus-presentation-old","51","121289","0.0-15.0-1.1","SS1618365500326","trial","","40","500","849","images/stimuli/spore_stims/complex_06_A_a.gif","images/stimuli/spore_stims/complex_07_A_b.gif","forced_short","","3","complex_dissimilar","images/stimuli/spore_stims/complex_07_A_b.gif","","","","",""
"","null","html-keyboard-response","52","122187","0.0-15.0-0.2","SS1618365500326","","","null","","","","","","<p><img src= images/blank.png width =""600"" height = ""600"" style=""position:fixed;top:50%; left:50%; transform: translate(-50%, -50%); border:5px solid black"">","","","","","","","",""
"","370","sequential-stimulus-presentation-old","53","123059","0.0-15.0-1.2","SS1618365500326","trial","","40","500","870","images/stimuli/spore_stims/complex_06_A_a.gif","images/stimuli/spore_stims/complex_07_A_b.gif","forced_short","","3","complex_dissimilar","images/stimuli/spore_stims/complex_07_A_b.gif","","","","",""
"","null","html-keyboard-response","54","124299","0.0-15.0-0.3","SS1618365500326","","","null","","","","","","<p><img src= images/blank.png width =""600"" height = ""600"" style=""position:fixed;top:50%; left:50%; transform: translate(-50%, -50%); border:5px solid black"">","","","","","","","",""
"","257","sequential-stimulus-presentation-old","55","125061","0.0-15.0-1.3","SS1618365500326","trial","","40","500","757","images/stimuli/spore_stims/complex_06_A_a.gif","images/stimuli/spore_stims/complex_07_A_b.gif","forced_short","","3","complex_dissimilar","images/stimuli/spore_stims/complex_07_A_b.gif","","","","",""
"","null","html-keyboard-response","56","126203","0.0-15.0-0.4","SS1618365500326","","","null","","","","","","<p><img src= images/blank.png width =""600"" height = ""600"" style=""position:fixed;top:50%; left:50%; transform: translate(-50%, -50%); border:5px solid black"">","","","","","","","",""
"","307","sequential-stimulus-presentation-old","57","127025","0.0-15.0-1.4","SS1618365500326","trial","","40","500","807","images/stimuli/spore_stims/complex_06_A_a.gif","images/stimuli/spore_stims/complex_07_A_b.gif","forced_short","","3","complex_dissimilar","images/stimuli/spore_stims/complex_07_A_b.gif","","","","",""
"","null","html-keyboard-response","58","127860","0.0-15.0-0.5","SS1618365500326","","","null","","","","","","<p><img src= images/blank.png width =""600"" height = ""600"" style=""position:fixed;top:50%; left:50%; transform: translate(-50%, -50%); border:5px solid black"">","","","","","","","",""
"","440","sequential-stimulus-presentation-old","59","128815","0.0-15.0-1.5","SS1618365500326","trial","","40","500","940","images/stimuli/spore_stims/complex_06_A_a.gif","images/stimuli/spore_stims/complex_07_A_b.gif","forced_short","","3","complex_dissimilar","images/stimuli/spore_stims/complex_06_A_a.gif","","","","",""
"","4623","survey-multi-choice","60","133439","0.0-16.0","SS1618365500326","math_question","","","","","","","","","","","","{""Q0"":""11""}","[0]","11","",""
"","null","html-keyboard-response","61","134742","0.0-17.0-0.0","SS1618365500326","","","null","","","","","","<p><img src= images/blank.png width =""600"" height = ""600"" style=""position:fixed;top:50%; left:50%; transform: translate(-50%, -50%); border:5px solid black"">","","","","","","","",""
"","240","sequential-stimulus-presentation-old","62","135500","0.0-17.0-1.0","SS1618365500326","trial","","40","500","740","images/stimuli/spore_stims/simple_02_A_a.gif","images/stimuli/spore_stims/simple_14_A_b.gif","self_paced","","4","simple_dissimilar","images/stimuli/spore_stims/simple_14_A_b.gif","","","","",""
"","null","html-keyboard-response","63","136713","0.0-17.0-0.1","SS1618365500326","","","null","","","","","","<p><img src= images/blank.png width =""600"" height = ""600"" style=""position:fixed;top:50%; left:50%; transform: translate(-50%, -50%); border:5px solid black"">","","","","","","","",""
"","286","sequential-stimulus-presentation-old","64","137505","0.0-17.0-1.1","SS1618365500326","trial","","40","500","786","images/stimuli/spore_stims/simple_02_A_a.gif","images/stimuli/spore_stims/simple_14_A_b.gif","self_paced","","4","simple_dissimilar","images/stimuli/spore_stims/simple_14_A_b.gif","","","","",""
"","null","html-keyboard-response","65","138651","0.0-17.0-0.2","SS1618365500326","","","null","","","","","","<p><img src= images/blank.png width =""600"" height = ""600"" style=""position:fixed;top:50%; left:50%; transform: translate(-50%, -50%); border:5px solid black"">","","","","","","","",""
"","382","sequential-stimulus-presentation-old","66","139549","0.0-17.0-1.2","SS1618365500326","trial","","40","500","882","images/stimuli/spore_stims/simple_02_A_a.gif","images/stimuli/spore_stims/simple_14_A_b.gif","self_paced","","4","simple_dissimilar","images/stimuli/spore_stims/simple_14_A_b.gif","","","","",""
"","null","html-keyboard-response","67","140735","0.0-17.0-0.3","SS1618365500326","","","null","","","","","","<p><img src= images/blank.png width =""600"" height = ""600"" style=""position:fixed;top:50%; left:50%; transform: translate(-50%, -50%); border:5px solid black"">","","","","","","","",""
"","152","sequential-stimulus-presentation-old","68","141400","0.0-17.0-1.3","SS1618365500326","trial","","40","500","652","images/stimuli/spore_stims/simple_02_A_a.gif","images/stimuli/spore_stims/simple_14_A_b.gif","self_paced","","4","simple_dissimilar","images/stimuli/spore_stims/simple_14_A_b.gif","","","","",""
"","null","html-keyboard-response","69","142669","0.0-17.0-0.4","SS1618365500326","","","null","","","","","","<p><img src= images/blank.png width =""600"" height = ""600"" style=""position:fixed;top:50%; left:50%; transform: translate(-50%, -50%); border:5px solid black"">","","","","","","","",""
"","392","sequential-stimulus-presentation-old","70","143572","0.0-17.0-1.4","SS1618365500326","trial","","40","500","892","images/stimuli/spore_stims/simple_02_A_a.gif","images/stimuli/spore_stims/simple_14_A_b.gif","self_paced","","4","simple_dissimilar","images/stimuli/spore_stims/simple_02_A_a.gif","","","","",""
"","3327","survey-multi-choice","71","146902","0.0-18.0","SS1618365500326","math_question","","","","","","","","","","","","{""Q0"":""6""}","[0]","6","",""
"","null","html-keyboard-response","72","147852","0.0-19.0-0.0","SS1618365500326","","","null","","","","","","<p><img src= images/blank.png width =""600"" height = ""600"" style=""position:fixed;top:50%; left:50%; transform: translate(-50%, -50%); border:5px solid black"">","","","","","","","",""
"","22","sequential-stimulus-presentation-old","73","147934","0.0-19.0-1.0","SS1618365500326","trial","","40","500","522","images/stimuli/spore_stims/simple_04_A_b.gif","images/stimuli/spore_stims/simple_13_A_a.gif","forced_short","","5","simple_dissimilar","images/stimuli/spore_stims/simple_13_A_a.gif","","","","",""
"","null","html-keyboard-response","74","149047","0.0-19.0-0.1","SS1618365500326","","","null","","","","","","<p><img src= images/blank.png width =""600"" height = ""600"" style=""position:fixed;top:50%; left:50%; transform: translate(-50%, -50%); border:5px solid black"">","","","","","","","",""
"","129","sequential-stimulus-presentation-old","75","149690","0.0-19.0-1.1","SS1618365500326","trial","","40","500","629","images/stimuli/spore_stims/simple_04_A_b.gif","images/stimuli/spore_stims/simple_13_A_a.gif","forced_short","","5","simple_dissimilar","images/stimuli/spore_stims/simple_04_A_b.gif","","","","",""
"","null","html-keyboard-response","76","150586","0.0-19.0-0.2","SS1618365500326","","","null","","","","","","<p><img src= images/blank.png width =""600"" height = ""600"" style=""position:fixed;top:50%; left:50%; transform: translate(-50%, -50%); border:5px solid black"">","","","","","","","",""
"","142","sequential-stimulus-presentation-old","77","151240","0.0-19.0-1.2","SS1618365500326","trial","","40","500","642","images/stimuli/spore_stims/simple_04_A_b.gif","images/stimuli/spore_stims/simple_13_A_a.gif","forced_short","","5","simple_dissimilar","images/stimuli/spore_stims/simple_13_A_a.gif","","","","",""
"","null","html-keyboard-response","78","152527","0.0-19.0-0.3","SS1618365500326","","","null","","","","","","<p><img src= images/blank.png width =""600"" height = ""600"" style=""position:fixed;top:50%; left:50%; transform: translate(-50%, -50%); border:5px solid black"">","","","","","","","",""
"","40","sequential-stimulus-presentation-old","79","153082","0.0-19.0-1.3","SS1618365500326","trial","","40","500","540","images/stimuli/spore_stims/simple_04_A_b.gif","images/stimuli/spore_stims/simple_13_A_a.gif","forced_short","","5","simple_dissimilar","images/stimuli/spore_stims/simple_13_A_a.gif","","","","",""
"","null","html-keyboard-response","80","154392","0.0-19.0-0.4","SS1618365500326","","","null","","","","","","<p><img src= images/blank.png width =""600"" height = ""600"" style=""position:fixed;top:50%; left:50%; transform: translate(-50%, -50%); border:5px solid black"">","","","","","","","",""
"","60","sequential-stimulus-presentation-old","81","154964","0.0-19.0-1.4","SS1618365500326","trial","","40","500","560","images/stimuli/spore_stims/simple_04_A_b.gif","images/stimuli/spore_stims/simple_13_A_a.gif","forced_short","","5","simple_dissimilar","images/stimuli/spore_stims/simple_13_A_a.gif","","","","",""
"","2901","survey-multi-choice","82","157867","0.0-20.0","SS1618365500326","math_question","","","","","","","","","","","","{""Q0"":""3""}","[0]","3","",""
"","null","html-keyboard-response","83","159143","0.0-21.0-0.0","SS1618365500326","","","null","","","","","","<p><img src= images/blank.png width =""600"" height = ""600"" style=""position:fixed;top:50%; left:50%; transform: translate(-50%, -50%); border:5px solid black"">","","","","","","","",""
"","4145","sequential-stimulus-presentation-old","84","168303","0.0-21.0-1.0","SS1618365500326","trial","","40","500","4645","images/stimuli/spore_stims/complex_14_A_b.gif","images/stimuli/spore_stims/complex_11_A_a.gif","forced_long","","6","complex_dissimilar","images/stimuli/spore_stims/complex_11_A_a.gif","","","","",""
"","null","html-keyboard-response","85","169436","0.0-21.0-0.1","SS1618365500326","","","null","","","","","","<p><img src= images/blank.png width =""600"" height = ""600"" style=""position:fixed;top:50%; left:50%; transform: translate(-50%, -50%); border:5px solid black"">","","","","","","","",""
"","116","sequential-stimulus-presentation-old","86","170066","0.0-21.0-1.1","SS1618365500326","trial","","40","500","616","images/stimuli/spore_stims/complex_14_A_b.gif","images/stimuli/spore_stims/complex_11_A_a.gif","forced_long","","6","complex_dissimilar","images/stimuli/spore_stims/complex_11_A_a.gif","","","","",""
"","null","html-keyboard-response","87","171321","0.0-21.0-0.2","SS1618365500326","","","null","","","","","","<p><img src= images/blank.png width =""600"" height = ""600"" style=""position:fixed;top:50%; left:50%; transform: translate(-50%, -50%); border:5px solid black"">","","","","","","","",""
"","777","sequential-stimulus-presentation-old","88","172610","0.0-21.0-1.2","SS1618365500326","trial","","40","500","1277","images/stimuli/spore_stims/complex_14_A_b.gif","images/stimuli/spore_stims/complex_11_A_a.gif","forced_long","","6","complex_dissimilar","images/stimuli/spore_stims/complex_11_A_a.gif","","","","",""
"","null","html-keyboard-response","89","173623","0.0-21.0-0.3","SS1618365500326","","","null","","","","","","<p><img src= images/blank.png width =""600"" height = ""600"" style=""position:fixed;top:50%; left:50%; transform: translate(-50%, -50%); border:5px solid black"">","","","","","","","",""
"","446","sequential-stimulus-presentation-old","90","174580","0.0-21.0-1.3","SS1618365500326","trial","","40","500","946","images/stimuli/spore_stims/complex_14_A_b.gif","images/stimuli/spore_stims/complex_11_A_a.gif","forced_long","","6","complex_dissimilar","images/stimuli/spore_stims/complex_11_A_a.gif","","","","",""
"","2771","survey-multi-choice","91","177352","0.0-22.0","SS1618365500326","math_question","","","","","","","","","","","","{""Q0"":""5""}","[0]","5","",""
"","null","html-keyboard-response","92","178625","0.0-23.0-0.0","SS1618365500326","","","null","","","","","","<p><img src= images/blank.png width =""600"" height = ""600"" style=""position:fixed;top:50%; left:50%; transform: translate(-50%, -50%); border:5px solid black"">","","","","","","","",""
"","573","sequential-stimulus-presentation-old","93","184212","0.0-23.0-1.0","SS1618365500326","trial","","40","500","1073","images/stimuli/spore_stims/simple_11_A_a.gif","images/stimuli/spore_stims/simple_17_A_b.gif","forced_long","","7","simple_dissimilar","images/stimuli/spore_stims/simple_17_A_b.gif","","","","",""
"","null","html-keyboard-response","94","185496","0.0-23.0-0.1","SS1618365500326","","","null","","","","","","<p><img src= images/blank.png width =""600"" height = ""600"" style=""position:fixed;top:50%; left:50%; transform: translate(-50%, -50%); border:5px solid black"">","","","","","","","",""
"","644","sequential-stimulus-presentation-old","95","186651","0.0-23.0-1.1","SS1618365500326","trial","","40","500","1144","images/stimuli/spore_stims/simple_11_A_a.gif","images/stimuli/spore_stims/simple_17_A_b.gif","forced_long","","7","simple_dissimilar","images/stimuli/spore_stims/simple_17_A_b.gif","","","","",""
"","null","html-keyboard-response","96","187885","0.0-23.0-0.2","SS1618365500326","","","null","","","","","","<p><img src= images/blank.png width =""600"" height = ""600"" style=""position:fixed;top:50%; left:50%; transform: translate(-50%, -50%); border:5px solid black"">","","","","","","","",""
"","447","sequential-stimulus-presentation-old","97","188845","0.0-23.0-1.2","SS1618365500326","trial","","40","500","947","images/stimuli/spore_stims/simple_11_A_a.gif","images/stimuli/spore_stims/simple_17_A_b.gif","forced_long","","7","simple_dissimilar","images/stimuli/spore_stims/simple_17_A_b.gif","","","","",""
"","null","html-keyboard-response","98","190109","0.0-23.0-0.3","SS1618365500326","","","null","","","","","","<p><img src= images/blank.png width =""600"" height = ""600"" style=""position:fixed;top:50%; left:50%; transform: translate(-50%, -50%); border:5px solid black"">","","","","","","","",""
"","317","sequential-stimulus-presentation-old","99","190940","0.0-23.0-1.3","SS1618365500326","trial","","40","500","817","images/stimuli/spore_stims/simple_11_A_a.gif","images/stimuli/spore_stims/simple_17_A_b.gif","forced_long","","7","simple_dissimilar","images/stimuli/spore_stims/simple_11_A_a.gif","","","","",""
"","null","html-keyboard-response","100","191864","0.0-23.0-0.4","SS1618365500326","","","null","","","","","","<p><img src= images/blank.png width =""600"" height = ""600"" style=""position:fixed;top:50%; left:50%; transform: translate(-50%, -50%); border:5px solid black"">","","","","","","","",""
"","351","sequential-stimulus-presentation-old","101","192731","0.0-23.0-1.4","SS1618365500326","trial","","40","500","851","images/stimuli/spore_stims/simple_11_A_a.gif","images/stimuli/spore_stims/simple_17_A_b.gif","forced_long","","7","simple_dissimilar","images/stimuli/spore_stims/simple_11_A_a.gif","","","","",""
"","3483","survey-multi-choice","102","196217","0.0-24.0","SS1618365500326","math_question","","","","","","","","","","","","{""Q0"":""7""}","[0]","7","",""
"","null","html-keyboard-response","103","197103","0.0-25.0-0.0","SS1618365500326","","","null","","","","","","<p><img src= images/blank.png width =""600"" height = ""600"" style=""position:fixed;top:50%; left:50%; transform: translate(-50%, -50%); border:5px solid black"">","","","","","","","",""
"","14319","sequential-stimulus-presentation-old","104","216426","0.0-25.0-1.0","SS1618365500326","trial","","40","500","14819","images/stimuli/spore_stims/simple_05_A_b.gif","images/stimuli/spore_stims/simple_16_A_a.gif","forced_long","","8","simple_dissimilar","images/stimuli/spore_stims/simple_16_A_a.gif","","","","",""
"","null","html-keyboard-response","105","217657","0.0-25.0-0.1","SS1618365500326","","","null","","","","","","<p><img src= images/blank.png width =""600"" height = ""600"" style=""position:fixed;top:50%; left:50%; transform: translate(-50%, -50%); border:5px solid black"">","","","","","","","",""
"","350","sequential-stimulus-presentation-old","106","218524","0.0-25.0-1.1","SS1618365500326","trial","","40","500","850","images/stimuli/spore_stims/simple_05_A_b.gif","images/stimuli/spore_stims/simple_16_A_a.gif","forced_long","","8","simple_dissimilar","images/stimuli/spore_stims/simple_16_A_a.gif","","","","",""
"","null","html-keyboard-response","107","219647","0.0-25.0-0.2","SS1618365500326","","","null","","","","","","<p><img src= images/blank.png width =""600"" height = ""600"" style=""position:fixed;top:50%; left:50%; transform: translate(-50%, -50%); border:5px solid black"">","","","","","","","",""
"","184","sequential-stimulus-presentation-old","108","220343","0.0-25.0-1.2","SS1618365500326","trial","","40","500","684","images/stimuli/spore_stims/simple_05_A_b.gif","images/stimuli/spore_stims/simple_16_A_a.gif","forced_long","","8","simple_dissimilar","images/stimuli/spore_stims/simple_05_A_b.gif","","","","",""
"","null","html-keyboard-response","109","221169","0.0-25.0-0.3","SS1618365500326","","","null","","","","","","<p><img src= images/blank.png width =""600"" height = ""600"" style=""position:fixed;top:50%; left:50%; transform: translate(-50%, -50%); border:5px solid black"">","","","","","","","",""
"","85","sequential-stimulus-presentation-old","110","221762","0.0-25.0-1.3","SS1618365500326","trial","","40","500","585","images/stimuli/spore_stims/simple_05_A_b.gif","images/stimuli/spore_stims/simple_16_A_a.gif","forced_long","","8","simple_dissimilar","images/stimuli/spore_stims/simple_16_A_a.gif","","","","",""
"","null","html-keyboard-response","111","222760","0.0-25.0-0.4","SS1618365500326","","","null","","","","","","<p><img src= images/blank.png width =""600"" height = ""600"" style=""position:fixed;top:50%; left:50%; transform: translate(-50%, -50%); border:5px solid black"">","","","","","","","",""
"","7","sequential-stimulus-presentation-old","112","223276","0.0-25.0-1.4","SS1618365500326","trial","","40","500","507","images/stimuli/spore_stims/simple_05_A_b.gif","images/stimuli/spore_stims/simple_16_A_a.gif","forced_long","","8","simple_dissimilar","images/stimuli/spore_stims/simple_05_A_b.gif","","","","",""
"","2745","survey-multi-choice","113","226024","0.0-26.0","SS1618365500326","math_question","","","","","","","","","","","","{""Q0"":""8""}","[0]","8","",""
"","null","html-keyboard-response","114","227122","0.0-27.0-0.0","SS1618365500326","","","null","","","","","","<p><img src= images/blank.png width =""600"" height = ""600"" style=""position:fixed;top:50%; left:50%; transform: translate(-50%, -50%); border:5px solid black"">","","","","","","","",""
"","612","sequential-stimulus-presentation-old","115","228247","0.0-27.0-1.0","SS1618365500326","trial","","40","500","1112","images/stimuli/spore_stims/complex_12_A_b.gif","images/stimuli/spore_stims/complex_01_A_a.gif","self_paced","","9","complex_dissimilar","images/stimuli/spore_stims/complex_01_A_a.gif","","","","",""
"","null","html-keyboard-response","116","229075","0.0-27.0-0.1","SS1618365500326","","","null","","","","","","<p><img src= images/blank.png width =""600"" height = ""600"" style=""position:fixed;top:50%; left:50%; transform: translate(-50%, -50%); border:5px solid black"">","","","","","","","",""
"","475","sequential-stimulus-presentation-old","117","230063","0.0-27.0-1.1","SS1618365500326","trial","","40","500","975","images/stimuli/spore_stims/complex_12_A_b.gif","images/stimuli/spore_stims/complex_01_A_a.gif","self_paced","","9","complex_dissimilar","images/stimuli/spore_stims/complex_12_A_b.gif","","","","",""
"","null","html-keyboard-response","118","231060","0.0-27.0-0.2","SS1618365500326","","","null","","","","","","<p><img src= images/blank.png width =""600"" height = ""600"" style=""position:fixed;top:50%; left:50%; transform: translate(-50%, -50%); border:5px solid black"">","","","","","","","",""
"","24405","sequential-stimulus-presentation-old","119","255978","0.0-27.0-1.2","SS1618365500326","trial","","40","500","24905","images/stimuli/spore_stims/complex_12_A_b.gif","images/stimuli/spore_stims/complex_01_A_a.gif","self_paced","","9","complex_dissimilar","images/stimuli/spore_stims/complex_01_A_a.gif","","","","",""
"","null","html-keyboard-response","120","257132","0.0-27.0-0.3","SS1618365500326","","","null","","","","","","<p><img src= images/blank.png width =""600"" height = ""600"" style=""position:fixed;top:50%; left:50%; transform: translate(-50%, -50%); border:5px solid black"">","","","","","","","",""
"","147","sequential-stimulus-presentation-old","121","257793","0.0-27.0-1.3","SS1618365500326","trial","","40","500","647","images/stimuli/spore_stims/complex_12_A_b.gif","images/stimuli/spore_stims/complex_01_A_a.gif","self_paced","","9","complex_dissimilar","images/stimuli/spore_stims/complex_12_A_b.gif","","","","",""
"","2881","survey-multi-choice","122","260678","0.0-28.0","SS1618365500326","math_question","","","","","","","","","","","","{""Q0"":""8""}","[0]","8","",""
"","null","html-keyboard-response","123","261635","0.0-29.0-0.0","SS1618365500326","","","null","","","","","","<p><img src= images/blank.png width =""600"" height = ""600"" style=""position:fixed;top:50%; left:50%; transform: translate(-50%, -50%); border:5px solid black"">","","","","","","","",""
"","96","sequential-stimulus-presentation-old","124","261793","0.0-29.0-1.0","SS1618365500326","trial","","40","500","596","images/stimuli/spore_stims/complex_19_A_a.gif","images/stimuli/spore_stims/complex_13_A_b.gif","forced_short","","10","complex_dissimilar","images/stimuli/spore_stims/complex_13_A_b.gif","","","","",""
"","null","html-keyboard-response","125","262801","0.0-29.0-0.1","SS1618365500326","","","null","","","","","","<p><img src= images/blank.png width =""600"" height = ""600"" style=""position:fixed;top:50%; left:50%; transform: translate(-50%, -50%); border:5px solid black"">","","","","","","","",""
"","463","sequential-stimulus-presentation-old","126","263777","0.0-29.0-1.1","SS1618365500326","trial","","40","500","963","images/stimuli/spore_stims/complex_19_A_a.gif","images/stimuli/spore_stims/complex_13_A_b.gif","forced_short","","10","complex_dissimilar","images/stimuli/spore_stims/complex_13_A_b.gif","","","","",""
"","null","html-keyboard-response","127","264961","0.0-29.0-0.2","SS1618365500326","","","null","","","","","","<p><img src= images/blank.png width =""600"" height = ""600"" style=""position:fixed;top:50%; left:50%; transform: translate(-50%, -50%); border:5px solid black"">","","","","","","","",""
"","351","sequential-stimulus-presentation-old","128","265826","0.0-29.0-1.2","SS1618365500326","trial","","40","500","851","images/stimuli/spore_stims/complex_19_A_a.gif","images/stimuli/spore_stims/complex_13_A_b.gif","forced_short","","10","complex_dissimilar","images/stimuli/spore_stims/complex_13_A_b.gif","","","","",""
"","null","html-keyboard-response","129","267078","0.0-29.0-0.3","SS1618365500326","","","null","","","","","","<p><img src= images/blank.png width =""600"" height = ""600"" style=""position:fixed;top:50%; left:50%; transform: translate(-50%, -50%); border:5px solid black"">","","","","","","","",""
"","650","sequential-stimulus-presentation-old","130","268239","0.0-29.0-1.3","SS1618365500326","trial","","40","500","1150","images/stimuli/spore_stims/complex_19_A_a.gif","images/stimuli/spore_stims/complex_13_A_b.gif","forced_short","","10","complex_dissimilar","images/stimuli/spore_stims/complex_13_A_b.gif","","","","",""
"","null","html-keyboard-response","131","269118","0.0-29.0-0.4","SS1618365500326","","","null","","","","","","<p><img src= images/blank.png width =""600"" height = ""600"" style=""position:fixed;top:50%; left:50%; transform: translate(-50%, -50%); border:5px solid black"">","","","","","","","",""
"","130","sequential-stimulus-presentation-old","132","269762","0.0-29.0-1.4","SS1618365500326","trial","","40","500","630","images/stimuli/spore_stims/complex_19_A_a.gif","images/stimuli/spore_stims/complex_13_A_b.gif","forced_short","","10","complex_dissimilar","images/stimuli/spore_stims/complex_19_A_a.gif","","","","",""
"","3086","survey-multi-choice","133","272850","0.0-30.0","SS1618365500326","math_question","","","","","","","","","","","","{""Q0"":""10""}","[0]","10","",""
"","null","html-keyboard-response","134","273941","0.0-31.0-0.0","SS1618365500326","","","null","","","","","","<p><img src= images/blank.png width =""600"" height = ""600"" style=""position:fixed;top:50%; left:50%; transform: translate(-50%, -50%); border:5px solid black"">","","","","","","","",""
"","34","sequential-stimulus-presentation-old","135","274486","0.0-31.0-1.0","SS1618365500326","trial","","40","500","534","images/stimuli/spore_stims/complex_10_A_a.gif","images/stimuli/spore_stims/complex_16_A_b.gif","self_paced","","11","complex_dissimilar","images/stimuli/spore_stims/complex_16_A_b.gif","","","","",""
"","null","html-keyboard-response","136","275510","0.0-31.0-0.1","SS1618365500326","","","null","","","","","","<p><img src= images/blank.png width =""600"" height = ""600"" style=""position:fixed;top:50%; left:50%; transform: translate(-50%, -50%); border:5px solid black"">","","","","","","","",""
"","149","sequential-stimulus-presentation-old","137","276169","0.0-31.0-1.1","SS1618365500326","trial","","40","500","649","images/stimuli/spore_stims/complex_10_A_a.gif","images/stimuli/spore_stims/complex_16_A_b.gif","self_paced","","11","complex_dissimilar","images/stimuli/spore_stims/complex_16_A_b.gif","","","","",""
"","null","html-keyboard-response","138","276989","0.0-31.0-0.2","SS1618365500326","","","null","","","","","","<p><img src= images/blank.png width =""600"" height = ""600"" style=""position:fixed;top:50%; left:50%; transform: translate(-50%, -50%); border:5px solid black"">","","","","","","","",""
"","217","sequential-stimulus-presentation-old","139","277722","0.0-31.0-1.2","SS1618365500326","trial","","40","500","717","images/stimuli/spore_stims/complex_10_A_a.gif","images/stimuli/spore_stims/complex_16_A_b.gif","self_paced","","11","complex_dissimilar","images/stimuli/spore_stims/complex_10_A_a.gif","","","","",""
"","null","html-keyboard-response","140","278624","0.0-31.0-0.3","SS1618365500326","","","null","","","","","","<p><img src= images/blank.png width =""600"" height = ""600"" style=""position:fixed;top:50%; left:50%; transform: translate(-50%, -50%); border:5px solid black"">","","","","","","","",""
"","459","sequential-stimulus-presentation-old","141","279595","0.0-31.0-1.3","SS1618365500326","trial","","40","500","959","images/stimuli/spore_stims/complex_10_A_a.gif","images/stimuli/spore_stims/complex_16_A_b.gif","self_paced","","11","complex_dissimilar","images/stimuli/spore_stims/complex_10_A_a.gif","","","","",""
"[{""page_index"":0,""viewing_time"":6387}]","6387","instructions","142","285985","0.0-32.0","SS1618365500326","instructions","","","","","","","","","","","","","","","",""
"","7489","survey-likert","143","293478","0.0-33.0","SS1618365500326","similarity_question","","","","","","","","","","","","{""Q0"":4}","[0]","","images/stimuli/spore_stims/simple_17_A_a.gif","images/stimuli/spore_stims/simple_18_A_b.gif"
"","18134","survey-likert","144","311616","0.0-34.0","SS1618365500326","similarity_question","","","","","","","","","","","","{""Q0"":2}","[0]","","images/stimuli/spore_stims/complex_08_A_a.gif","images/stimuli/spore_stims/complex_10_A_b.gif"
"","5559","survey-likert","145","317179","0.0-35.0","SS1618365500326","similarity_question","","","","","","","","","","","","{""Q0"":5}","[0]","","images/stimuli/spore_stims/simple_11_A_a.gif","images/stimuli/spore_stims/simple_17_A_b.gif"
"","9482","survey-likert","146","326669","0.0-36.0","SS1618365500326","similarity_question","","","","","","","","","","","","{""Q0"":4}","[0]","","images/stimuli/spore_stims/complex_16_A_b.gif","images/stimuli/spore_stims/complex_10_A_a.gif"
"","4984","survey-likert","147","331658","0.0-37.0","SS1618365500326","similarity_question","","","","","","","","","","","","{""Q0"":3}","[0]","","images/stimuli/spore_stims/simple_04_A_b.gif","images/stimuli/spore_stims/simple_13_A_a.gif"
"","4666","survey-likert","148","336330","0.0-38.0","SS1618365500326","similarity_question","","","","","","","","","","","","{""Q0"":1}","[0]","","images/stimuli/spore_stims/complex_11_A_a.gif","images/stimuli/spore_stims/complex_14_A_b.gif"
"","3466","survey-likert","149","339801","0.0-39.0","SS1618365500326","similarity_question","","","","","","","","","","","","{""Q0"":4}","[0]","","images/stimuli/spore_stims/simple_11_A_b.gif","images/stimuli/spore_stims/simple_06_A_a.gif"
"","2566","survey-likert","150","342372","0.0-40.0","SS1618365500326","similarity_question","","","","","","","","","","","","{""Q0"":3}","[0]","","images/stimuli/spore_stims/simple_14_A_b.gif","images/stimuli/spore_stims/simple_02_A_a.gif"
"","5613","survey-likert","151","347989","0.0-41.0","SS1618365500326","similarity_question","","","","","","","","","","","","{""Q0"":1}","[0]","","images/stimuli/spore_stims/simple_16_A_a.gif","images/stimuli/spore_stims/simple_05_A_b.gif"
"","4549","survey-likert","152","352542","0.0-42.0","SS1618365500326","similarity_question","","","","","","","","","","","","{""Q0"":2}","[0]","","images/stimuli/spore_stims/complex_13_A_b.gif","images/stimuli/spore_stims/complex_19_A_a.gif"
"","3171","survey-likert","153","355717","0.0-43.0","SS1618365500326","similarity_question","","","","","","","","","","","","{""Q0"":2}","[0]","","images/stimuli/spore_stims/complex_07_A_b.gif","images/stimuli/spore_stims/complex_06_A_a.gif"
"","4030","survey-likert","154","359753","0.0-44.0","SS1618365500326","similarity_question","","","","","","","","","","","","{""Q0"":0}","[0]","","images/stimuli/spore_stims/complex_01_A_a.gif","images/stimuli/spore_stims/complex_12_A_b.gif"
"[{""page_index"":0,""viewing_time"":1194}]","1194","instructions","155","360951","0.0-45.0","SS1618365500326","instructions","","","","","","","","","","","","","","","",""
"","5445","survey-likert","156","366400","0.0-46.0","SS1618365500326","","","","","","","","","images/stimuli/spore_stims/simple_06_A_a.gif","","","","{""Q0"":1}","[0]","","",""
"","4481","survey-likert","157","370886","0.0-47.0","SS1618365500326","","","","","","","","","images/stimuli/spore_stims/complex_11_A_a.gif","","","","{""Q0"":4}","[0]","","",""
"","6240","survey-likert","158","377132","0.0-48.0","SS1618365500326","","","","","","","","","images/stimuli/spore_stims/simple_13_A_a.gif","","","","{""Q0"":0}","[0]","","",""
"","2684","survey-likert","159","379825","0.0-49.0","SS1618365500326","","","","","","","","","images/stimuli/spore_stims/complex_12_A_b.gif","","","","{""Q0"":4}","[0]","","",""
"","5457","survey-likert","160","385289","0.0-50.0","SS1618365500326","","","","","","","","","images/stimuli/spore_stims/simple_18_A_b.gif","","","","{""Q0"":2}","[0]","","",""
"","2531","survey-likert","161","387827","0.0-51.0","SS1618365500326","","","","","","","","","images/stimuli/spore_stims/simple_11_A_a.gif","","","","{""Q0"":1}","[0]","","",""
"","2845","survey-likert","162","390677","0.0-52.0","SS1618365500326","","","","","","","","","images/stimuli/spore_stims/complex_10_A_b.gif","","","","{""Q0"":5}","[0]","","",""
"","3487","survey-likert","163","394169","0.0-53.0","SS1618365500326","","","","","","","","","images/stimuli/spore_stims/complex_19_A_a.gif","","","","{""Q0"":6}","[0]","","",""
"","2711","survey-likert","164","396885","0.0-54.0","SS1618365500326","","","","","","","","","images/stimuli/spore_stims/simple_16_A_a.gif","","","","{""Q0"":2}","[0]","","",""
"","2778","survey-likert","165","399668","0.0-55.0","SS1618365500326","","","","","","","","","images/stimuli/spore_stims/simple_14_A_b.gif","","","","{""Q0"":1}","[0]","","",""
"","3771","survey-likert","166","403442","0.0-56.0","SS1618365500326","","","","","","","","","images/stimuli/spore_stims/complex_10_A_a.gif","","","","{""Q0"":5}","[0]","","",""
"","2588","survey-likert","167","406033","0.0-57.0","SS1618365500326","","","","","","","","","images/stimuli/spore_stims/complex_07_A_b.gif","","","","{""Q0"":5}","[0]","","",""
"[{""page_index"":0,""viewing_time"":3673}]","3673","instructions","168","409711","0.0-58.0","SS1618365500326","instructions","","","","","","","","","","","","","","","",""
"","2696","demog-age","169","412414","0.0-59.0","SS1618365500326","","","","","","","","","","","","","{""age"":""22""}","","","",""
"","13430","demog-ethnic-US","170","425851","0.0-60.0","SS1618365500326","","","","","","","","","","","","","{""ethnicity"":[""White""]}","[0]","","",""
"","7047","demog-gender-and-education","171","432902","0.0-61.0","SS1618365500326","","","","","","","","","","","","","{""gender"":""Male"",""education"":""Bachelor's Degree""}","[0,1]","","",""
"","13054","survey-text","172","445962","0.0-62.0","SS1618365500326","feedback","","","","","","","","","","","","{""Q0"":""ni""}","","","",""
"[{""page_index"":0,""viewing_time"":1248}]","1248","instructions","173","447220","0.0-63.0","SS1618365500326","instructions","","","","","","","","","","","","","","","",""
