"view_history","rt","trial_type","trial_index","time_elapsed","internal_node_id","subject","stimulus_type","trial_stimulus","key_press","minimum_viewing_duration","trial_looking_time","block_deviant","block_background","exposure_type","stimulus","block_number","block_type","stimulus_displayed","responses","question_order","math_correct_answer","stimulus_left","stimulus_right"
"[{""page_index"":0,""viewing_time"":3430.9099999954924}]","3431.9399999949383","instructions","0","3435","0.0-0.0","SS1618435688404","","","","","","","","","","","","","","","","",""
"[{""page_index"":0,""viewing_time"":5462.435000008554},{""page_index"":1,""viewing_time"":42700.03499998711}]","48163.02999999607","instructions","1","53601","0.0-1.0","SS1618435688404","instructions","","","","","","","","","","","","","","","",""
"","49761.719999994966","sequential-stimulus-presentation-old","2","103868","0.0-2.0","SS1618435688404","","","40","500","50261.719999994966","null","null","self_paced","","","","","","","","",""
"","6487.894999998389","sequential-stimulus-presentation-old","3","110859","0.0-3.0","SS1618435688404","","","40","500","6987.894999998389","null","null","self_paced","","","","","","","","",""
"[{""page_index"":0,""viewing_time"":14892.284999994445}]","14892.679999989923","instructions","4","125753","0.0-4.0","SS1618435688404","instructions","","","","","","","","","","","","","","","",""
"","402.61499999905936","sequential-stimulus-presentation-old","5","131160","0.0-5.0","SS1618435688404","","","40","500","902.6149999990594","null","null","forced_long","","","","","","","","",""
"","6759.284999992815","sequential-stimulus-presentation-old","6","137974","0.0-6.0","SS1618435688404","","","40","50","6809.284999992815","null","null","forced_long","","","","","","","","",""
"[{""page_index"":0,""viewing_time"":4372.799999997369}]","4373.1450000050245","instructions","7","142349","0.0-7.0","SS1618435688404","instructions","","","","","","","","","","","","","","","",""
"[{""page_index"":0,""viewing_time"":3130.0199999968754},{""page_index"":1,""viewing_time"":4835.9049999999115},{""page_index"":2,""viewing_time"":3604.0550000034273},{""page_index"":3,""viewing_time"":1468.1949999940116},{""page_index"":4,""viewing_time"":831.7600000009406}]","13870.329999990645","instructions","8","156221","0.0-8.0","SS1618435688404","instructions","","","","","","","","","","","","","","","",""
"","null","html-keyboard-response","9","157200","0.0-9.0-0.0","SS1618435688404","","","null","","","","","","<p><img src= images/blank.png width =""600"" height = ""600"" style=""position:fixed;top:50%; left:50%; transform: translate(-50%, -50%); border:5px solid black"">","","","","","","","",""
"","495.3700000041863","sequential-stimulus-presentation-old","10","157753","0.0-9.0-1.0","SS1618435688404","trial","","40","500","995.3700000041863","images/stimuli/spore_stims/complex_13_A_b.gif","images/stimuli/spore_stims/complex_01_A_a.gif","forced_short","","0","complex_dissimilar","images/stimuli/spore_stims/complex_01_A_a.gif","","","","",""
"","null","html-keyboard-response","11","158799","0.0-9.0-0.1","SS1618435688404","","","null","","","","","","<p><img src= images/blank.png width =""600"" height = ""600"" style=""position:fixed;top:50%; left:50%; transform: translate(-50%, -50%); border:5px solid black"">","","","","","","","",""
"","10027.415000004112","sequential-stimulus-presentation-old","12","169333","0.0-9.0-1.1","SS1618435688404","trial","","40","500","10527.415000004112","images/stimuli/spore_stims/complex_13_A_b.gif","images/stimuli/spore_stims/complex_01_A_a.gif","forced_short","","0","complex_dissimilar","images/stimuli/spore_stims/complex_01_A_a.gif","","","","",""
"","null","html-keyboard-response","13","170367","0.0-9.0-0.2","SS1618435688404","","","null","","","","","","<p><img src= images/blank.png width =""600"" height = ""600"" style=""position:fixed;top:50%; left:50%; transform: translate(-50%, -50%); border:5px solid black"">","","","","","","","",""
"","7774.454999991576","sequential-stimulus-presentation-old","14","178646","0.0-9.0-1.2","SS1618435688404","trial","","40","500","8274.454999991576","images/stimuli/spore_stims/complex_13_A_b.gif","images/stimuli/spore_stims/complex_01_A_a.gif","forced_short","","0","complex_dissimilar","images/stimuli/spore_stims/complex_13_A_b.gif","","","","",""
"","null","html-keyboard-response","15","179737","0.0-9.0-0.3","SS1618435688404","","","null","","","","","","<p><img src= images/blank.png width =""600"" height = ""600"" style=""position:fixed;top:50%; left:50%; transform: translate(-50%, -50%); border:5px solid black"">","","","","","","","",""
"","6493.549999999232","sequential-stimulus-presentation-old","16","186735","0.0-9.0-1.3","SS1618435688404","trial","","40","500","6993.549999999232","images/stimuli/spore_stims/complex_13_A_b.gif","images/stimuli/spore_stims/complex_01_A_a.gif","forced_short","","0","complex_dissimilar","images/stimuli/spore_stims/complex_01_A_a.gif","","","","",""
"","null","html-keyboard-response","17","187673","0.0-9.0-0.4","SS1618435688404","","","null","","","","","","<p><img src= images/blank.png width =""600"" height = ""600"" style=""position:fixed;top:50%; left:50%; transform: translate(-50%, -50%); border:5px solid black"">","","","","","","","",""
"","4919.229999999516","sequential-stimulus-presentation-old","18","193098","0.0-9.0-1.4","SS1618435688404","trial","","40","500","5419.229999999516","images/stimuli/spore_stims/complex_13_A_b.gif","images/stimuli/spore_stims/complex_01_A_a.gif","forced_short","","0","complex_dissimilar","images/stimuli/spore_stims/complex_13_A_b.gif","","","","",""
"","7005.18499998725","survey-multi-choice","19","200118","0.0-10.0","SS1618435688404","math_question","","","","","","","","","","","","{""Q0"":""11""}","[0]","11","",""
"","null","html-keyboard-response","20","201096","0.0-11.0-0.0","SS1618435688404","","","null","","","","","","<p><img src= images/blank.png width =""600"" height = ""600"" style=""position:fixed;top:50%; left:50%; transform: translate(-50%, -50%); border:5px solid black"">","","","","","","","",""
"","1069.9249999888707","sequential-stimulus-presentation-old","21","202224","0.0-11.0-1.0","SS1618435688404","trial","","40","500","1569.9249999888707","images/stimuli/spore_stims/simple_05_A_a.gif","images/stimuli/spore_stims/simple_12_A_b.gif","forced_short","","1","simple_dissimilar","images/stimuli/spore_stims/simple_12_A_b.gif","","","","",""
"","null","html-keyboard-response","22","203041","0.0-11.0-0.1","SS1618435688404","","","null","","","","","","<p><img src= images/blank.png width =""600"" height = ""600"" style=""position:fixed;top:50%; left:50%; transform: translate(-50%, -50%); border:5px solid black"">","","","","","","","",""
"","11649.860000004992","sequential-stimulus-presentation-old","23","215196","0.0-11.0-1.1","SS1618435688404","trial","","40","500","12149.860000004992","images/stimuli/spore_stims/simple_05_A_a.gif","images/stimuli/spore_stims/simple_12_A_b.gif","forced_short","","1","simple_dissimilar","images/stimuli/spore_stims/simple_05_A_a.gif","","","","",""
"","null","html-keyboard-response","24","216270","0.0-11.0-0.2","SS1618435688404","","","null","","","","","","<p><img src= images/blank.png width =""600"" height = ""600"" style=""position:fixed;top:50%; left:50%; transform: translate(-50%, -50%); border:5px solid black"">","","","","","","","",""
"","2351.429999995162","sequential-stimulus-presentation-old","25","219127","0.0-11.0-1.2","SS1618435688404","trial","","40","500","2851.429999995162","images/stimuli/spore_stims/simple_05_A_a.gif","images/stimuli/spore_stims/simple_12_A_b.gif","forced_short","","1","simple_dissimilar","images/stimuli/spore_stims/simple_12_A_b.gif","","","","",""
"","null","html-keyboard-response","26","220276","0.0-11.0-0.3","SS1618435688404","","","null","","","","","","<p><img src= images/blank.png width =""600"" height = ""600"" style=""position:fixed;top:50%; left:50%; transform: translate(-50%, -50%); border:5px solid black"">","","","","","","","",""
"","6373.730000006617","sequential-stimulus-presentation-old","27","227155","0.0-11.0-1.3","SS1618435688404","trial","","40","500","6873.730000006617","images/stimuli/spore_stims/simple_05_A_a.gif","images/stimuli/spore_stims/simple_12_A_b.gif","forced_short","","1","simple_dissimilar","images/stimuli/spore_stims/simple_12_A_b.gif","","","","",""
"","null","html-keyboard-response","28","228150","0.0-11.0-0.4","SS1618435688404","","","null","","","","","","<p><img src= images/blank.png width =""600"" height = ""600"" style=""position:fixed;top:50%; left:50%; transform: translate(-50%, -50%); border:5px solid black"">","","","","","","","",""
"","1796.889999997802","sequential-stimulus-presentation-old","29","230455","0.0-11.0-1.4","SS1618435688404","trial","","40","500","2296.889999997802","images/stimuli/spore_stims/simple_05_A_a.gif","images/stimuli/spore_stims/simple_12_A_b.gif","forced_short","","1","simple_dissimilar","images/stimuli/spore_stims/simple_12_A_b.gif","","","","",""
"","null","html-keyboard-response","30","231635","0.0-11.0-0.5","SS1618435688404","","","null","","","","","","<p><img src= images/blank.png width =""600"" height = ""600"" style=""position:fixed;top:50%; left:50%; transform: translate(-50%, -50%); border:5px solid black"">","","","","","","","",""
"","4511.375000001863","sequential-stimulus-presentation-old","31","236654","0.0-11.0-1.5","SS1618435688404","trial","","40","500","5011.375000001863","images/stimuli/spore_stims/simple_05_A_a.gif","images/stimuli/spore_stims/simple_12_A_b.gif","forced_short","","1","simple_dissimilar","images/stimuli/spore_stims/simple_12_A_b.gif","","","","",""
"","6355.779999998049","survey-multi-choice","32","243013","0.0-12.0","SS1618435688404","math_question","","","","","","","","","","","","{""Q0"":""16""}","[0]","16","",""
"","null","html-keyboard-response","33","244307","0.0-13.0-0.0","SS1618435688404","","","null","","","","","","<p><img src= images/blank.png width =""600"" height = ""600"" style=""position:fixed;top:50%; left:50%; transform: translate(-50%, -50%); border:5px solid black"">","","","","","","","",""
"","2222.8199999954086","sequential-stimulus-presentation-old","34","247037","0.0-13.0-1.0","SS1618435688404","trial","","40","500","2722.8199999954086","images/stimuli/spore_stims/simple_11_A_b.gif","images/stimuli/spore_stims/simple_04_A_a.gif","self_paced","","2","simple_dissimilar","images/stimuli/spore_stims/simple_04_A_a.gif","","","","",""
"","null","html-keyboard-response","35","247992","0.0-13.0-0.1","SS1618435688404","","","null","","","","","","<p><img src= images/blank.png width =""600"" height = ""600"" style=""position:fixed;top:50%; left:50%; transform: translate(-50%, -50%); border:5px solid black"">","","","","","","","",""
"","946.5599999966798","sequential-stimulus-presentation-old","36","249445","0.0-13.0-1.1","SS1618435688404","trial","","40","500","1446.5599999966798","images/stimuli/spore_stims/simple_11_A_b.gif","images/stimuli/spore_stims/simple_04_A_a.gif","self_paced","","2","simple_dissimilar","images/stimuli/spore_stims/simple_04_A_a.gif","","","","",""
"","null","html-keyboard-response","37","250645","0.0-13.0-0.2","SS1618435688404","","","null","","","","","","<p><img src= images/blank.png width =""600"" height = ""600"" style=""position:fixed;top:50%; left:50%; transform: translate(-50%, -50%); border:5px solid black"">","","","","","","","",""
"","1424.124999990454","sequential-stimulus-presentation-old","38","252573","0.0-13.0-1.2","SS1618435688404","trial","","40","500","1924.124999990454","images/stimuli/spore_stims/simple_11_A_b.gif","images/stimuli/spore_stims/simple_04_A_a.gif","self_paced","","2","simple_dissimilar","images/stimuli/spore_stims/simple_04_A_a.gif","","","","",""
"","null","html-keyboard-response","39","253765","0.0-13.0-0.3","SS1618435688404","","","null","","","","","","<p><img src= images/blank.png width =""600"" height = ""600"" style=""position:fixed;top:50%; left:50%; transform: translate(-50%, -50%); border:5px solid black"">","","","","","","","",""
"","907.9749999946216","sequential-stimulus-presentation-old","40","255179","0.0-13.0-1.3","SS1618435688404","trial","","40","500","1407.9749999946216","images/stimuli/spore_stims/simple_11_A_b.gif","images/stimuli/spore_stims/simple_04_A_a.gif","self_paced","","2","simple_dissimilar","images/stimuli/spore_stims/simple_04_A_a.gif","","","","",""
"","3854.8099999898113","survey-multi-choice","41","259037","0.0-14.0","SS1618435688404","math_question","","","","","","","","","","","","{""Q0"":""10""}","[0]","10","",""
"","null","html-keyboard-response","42","259945","0.0-15.0-0.0","SS1618435688404","","","null","","","","","","<p><img src= images/blank.png width =""600"" height = ""600"" style=""position:fixed;top:50%; left:50%; transform: translate(-50%, -50%); border:5px solid black"">","","","","","","","",""
"","5502.155000009225","sequential-stimulus-presentation-old","43","265956","0.0-15.0-1.0","SS1618435688404","trial","","40","500","6002.155000009225","images/stimuli/spore_stims/simple_12_A_a.gif","images/stimuli/spore_stims/simple_15_A_b.gif","self_paced","","3","simple_dissimilar","images/stimuli/spore_stims/simple_15_A_b.gif","","","","",""
"","null","html-keyboard-response","44","266872","0.0-15.0-0.1","SS1618435688404","","","null","","","","","","<p><img src= images/blank.png width =""600"" height = ""600"" style=""position:fixed;top:50%; left:50%; transform: translate(-50%, -50%); border:5px solid black"">","","","","","","","",""
"","470.725000006496","sequential-stimulus-presentation-old","45","267848","0.0-15.0-1.1","SS1618435688404","trial","","40","500","970.725000006496","images/stimuli/spore_stims/simple_12_A_a.gif","images/stimuli/spore_stims/simple_15_A_b.gif","self_paced","","3","simple_dissimilar","images/stimuli/spore_stims/simple_15_A_b.gif","","","","",""
"","null","html-keyboard-response","46","269054","0.0-15.0-0.2","SS1618435688404","","","null","","","","","","<p><img src= images/blank.png width =""600"" height = ""600"" style=""position:fixed;top:50%; left:50%; transform: translate(-50%, -50%); border:5px solid black"">","","","","","","","",""
"","6688.060000000405","sequential-stimulus-presentation-old","47","276249","0.0-15.0-1.2","SS1618435688404","trial","","40","500","7188.060000000405","images/stimuli/spore_stims/simple_12_A_a.gif","images/stimuli/spore_stims/simple_15_A_b.gif","self_paced","","3","simple_dissimilar","images/stimuli/spore_stims/simple_12_A_a.gif","","","","",""
"","null","html-keyboard-response","48","277302","0.0-15.0-0.3","SS1618435688404","","","null","","","","","","<p><img src= images/blank.png width =""600"" height = ""600"" style=""position:fixed;top:50%; left:50%; transform: translate(-50%, -50%); border:5px solid black"">","","","","","","","",""
"","1008.1100000097649","sequential-stimulus-presentation-old","49","278817","0.0-15.0-1.3","SS1618435688404","trial","","40","500","1508.110000009765","images/stimuli/spore_stims/simple_12_A_a.gif","images/stimuli/spore_stims/simple_15_A_b.gif","self_paced","","3","simple_dissimilar","images/stimuli/spore_stims/simple_15_A_b.gif","","","","",""
"","null","html-keyboard-response","50","279807","0.0-15.0-0.4","SS1618435688404","","","null","","","","","","<p><img src= images/blank.png width =""600"" height = ""600"" style=""position:fixed;top:50%; left:50%; transform: translate(-50%, -50%); border:5px solid black"">","","","","","","","",""
"","1403.4600000013597","sequential-stimulus-presentation-old","51","281715","0.0-15.0-1.4","SS1618435688404","trial","","40","500","1903.4600000013597","images/stimuli/spore_stims/simple_12_A_a.gif","images/stimuli/spore_stims/simple_15_A_b.gif","self_paced","","3","simple_dissimilar","images/stimuli/spore_stims/simple_12_A_a.gif","","","","",""
"","3521.5900000039255","survey-multi-choice","52","285241","0.0-16.0","SS1618435688404","math_question","","","","","","","","","","","","{""Q0"":""10""}","[0]","10","",""
"","null","html-keyboard-response","53","286280","0.0-17.0-0.0","SS1618435688404","","","null","","","","","","<p><img src= images/blank.png width =""600"" height = ""600"" style=""position:fixed;top:50%; left:50%; transform: translate(-50%, -50%); border:5px solid black"">","","","","","","","",""
"","11594.585000013467","sequential-stimulus-presentation-old","54","298381","0.0-17.0-1.0","SS1618435688404","trial","","40","500","12094.585000013467","images/stimuli/spore_stims/complex_05_A_a.gif","images/stimuli/spore_stims/complex_12_A_b.gif","self_paced","","4","complex_dissimilar","images/stimuli/spore_stims/complex_12_A_b.gif","","","","",""
"","null","html-keyboard-response","55","299206","0.0-17.0-0.1","SS1618435688404","","","null","","","","","","<p><img src= images/blank.png width =""600"" height = ""600"" style=""position:fixed;top:50%; left:50%; transform: translate(-50%, -50%); border:5px solid black"">","","","","","","","",""
"","5215.444999994361","sequential-stimulus-presentation-old","56","304928","0.0-17.0-1.1","SS1618435688404","trial","","40","500","5715.444999994361","images/stimuli/spore_stims/complex_05_A_a.gif","images/stimuli/spore_stims/complex_12_A_b.gif","self_paced","","4","complex_dissimilar","images/stimuli/spore_stims/complex_12_A_b.gif","","","","",""
"","null","html-keyboard-response","57","306230","0.0-17.0-0.2","SS1618435688404","","","null","","","","","","<p><img src= images/blank.png width =""600"" height = ""600"" style=""position:fixed;top:50%; left:50%; transform: translate(-50%, -50%); border:5px solid black"">","","","","","","","",""
"","11263.48500000313","sequential-stimulus-presentation-old","58","318001","0.0-17.0-1.2","SS1618435688404","trial","","40","500","11763.48500000313","images/stimuli/spore_stims/complex_05_A_a.gif","images/stimuli/spore_stims/complex_12_A_b.gif","self_paced","","4","complex_dissimilar","images/stimuli/spore_stims/complex_12_A_b.gif","","","","",""
"","null","html-keyboard-response","59","319173","0.0-17.0-0.3","SS1618435688404","","","null","","","","","","<p><img src= images/blank.png width =""600"" height = ""600"" style=""position:fixed;top:50%; left:50%; transform: translate(-50%, -50%); border:5px solid black"">","","","","","","","",""
"","6066.274999990128","sequential-stimulus-presentation-old","60","325747","0.0-17.0-1.3","SS1618435688404","trial","","40","500","6566.274999990128","images/stimuli/spore_stims/complex_05_A_a.gif","images/stimuli/spore_stims/complex_12_A_b.gif","self_paced","","4","complex_dissimilar","images/stimuli/spore_stims/complex_05_A_a.gif","","","","",""
"","null","html-keyboard-response","61","326733","0.0-17.0-0.4","SS1618435688404","","","null","","","","","","<p><img src= images/blank.png width =""600"" height = ""600"" style=""position:fixed;top:50%; left:50%; transform: translate(-50%, -50%); border:5px solid black"">","","","","","","","",""
"","470.09000000252854","sequential-stimulus-presentation-old","62","327709","0.0-17.0-1.4","SS1618435688404","trial","","40","500","970.0900000025285","images/stimuli/spore_stims/complex_05_A_a.gif","images/stimuli/spore_stims/complex_12_A_b.gif","self_paced","","4","complex_dissimilar","images/stimuli/spore_stims/complex_12_A_b.gif","","","","",""
"","null","html-keyboard-response","63","328662","0.0-17.0-0.5","SS1618435688404","","","null","","","","","","<p><img src= images/blank.png width =""600"" height = ""600"" style=""position:fixed;top:50%; left:50%; transform: translate(-50%, -50%); border:5px solid black"">","","","","","","","",""
"","3773.5949999914737","sequential-stimulus-presentation-old","64","332941","0.0-17.0-1.5","SS1618435688404","trial","","40","500","4273.594999991474","images/stimuli/spore_stims/complex_05_A_a.gif","images/stimuli/spore_stims/complex_12_A_b.gif","self_paced","","4","complex_dissimilar","images/stimuli/spore_stims/complex_05_A_a.gif","","","","",""
"","4244.315000003553","survey-multi-choice","65","337190","0.0-18.0","SS1618435688404","math_question","","","","","","","","","","","","{""Q0"":""9""}","[0]","9","",""
"","null","html-keyboard-response","66","338014","0.0-19.0-0.0","SS1618435688404","","","null","","","","","","<p><img src= images/blank.png width =""600"" height = ""600"" style=""position:fixed;top:50%; left:50%; transform: translate(-50%, -50%); border:5px solid black"">","","","","","","","",""
"","3857.659999994212","sequential-stimulus-presentation-old","67","346879","0.0-19.0-1.0","SS1618435688404","trial","","40","500","4357.659999994212","images/stimuli/spore_stims/simple_09_A_a.gif","images/stimuli/spore_stims/simple_16_A_b.gif","forced_long","","5","simple_dissimilar","images/stimuli/spore_stims/simple_16_A_b.gif","","","","",""
"","null","html-keyboard-response","68","348021","0.0-19.0-0.1","SS1618435688404","","","null","","","","","","<p><img src= images/blank.png width =""600"" height = ""600"" style=""position:fixed;top:50%; left:50%; transform: translate(-50%, -50%); border:5px solid black"">","","","","","","","",""
"","2329.570000001695","sequential-stimulus-presentation-old","69","350856","0.0-19.0-1.1","SS1618435688404","trial","","40","500","2829.570000001695","images/stimuli/spore_stims/simple_09_A_a.gif","images/stimuli/spore_stims/simple_16_A_b.gif","forced_long","","5","simple_dissimilar","images/stimuli/spore_stims/simple_16_A_b.gif","","","","",""
"","null","html-keyboard-response","70","352003","0.0-19.0-0.2","SS1618435688404","","","null","","","","","","<p><img src= images/blank.png width =""600"" height = ""600"" style=""position:fixed;top:50%; left:50%; transform: translate(-50%, -50%); border:5px solid black"">","","","","","","","",""
"","2290.695000003325","sequential-stimulus-presentation-old","71","354798","0.0-19.0-1.2","SS1618435688404","trial","","40","500","2790.695000003325","images/stimuli/spore_stims/simple_09_A_a.gif","images/stimuli/spore_stims/simple_16_A_b.gif","forced_long","","5","simple_dissimilar","images/stimuli/spore_stims/simple_16_A_b.gif","","","","",""
"","null","html-keyboard-response","72","356032","0.0-19.0-0.3","SS1618435688404","","","null","","","","","","<p><img src= images/blank.png width =""600"" height = ""600"" style=""position:fixed;top:50%; left:50%; transform: translate(-50%, -50%); border:5px solid black"">","","","","","","","",""
"","915.6249999941792","sequential-stimulus-presentation-old","73","357455","0.0-19.0-1.3","SS1618435688404","trial","","40","500","1415.6249999941792","images/stimuli/spore_stims/simple_09_A_a.gif","images/stimuli/spore_stims/simple_16_A_b.gif","forced_long","","5","simple_dissimilar","images/stimuli/spore_stims/simple_16_A_b.gif","","","","",""
"","null","html-keyboard-response","74","358443","0.0-19.0-0.4","SS1618435688404","","","null","","","","","","<p><img src= images/blank.png width =""600"" height = ""600"" style=""position:fixed;top:50%; left:50%; transform: translate(-50%, -50%); border:5px solid black"">","","","","","","","",""
"","897.0999999874039","sequential-stimulus-presentation-old","75","359846","0.0-19.0-1.4","SS1618435688404","trial","","40","500","1397.0999999874039","images/stimuli/spore_stims/simple_09_A_a.gif","images/stimuli/spore_stims/simple_16_A_b.gif","forced_long","","5","simple_dissimilar","images/stimuli/spore_stims/simple_16_A_b.gif","","","","",""
"","3760.0099999981467","survey-multi-choice","76","363610","0.0-20.0","SS1618435688404","math_question","","","","","","","","","","","","{""Q0"":""2""}","[0]","2","",""
"","null","html-keyboard-response","77","364567","0.0-21.0-0.0","SS1618435688404","","","null","","","","","","<p><img src= images/blank.png width =""600"" height = ""600"" style=""position:fixed;top:50%; left:50%; transform: translate(-50%, -50%); border:5px solid black"">","","","","","","","",""
"","1520.9449999965727","sequential-stimulus-presentation-old","78","371094","0.0-21.0-1.0","SS1618435688404","trial","","40","500","2020.9449999965727","images/stimuli/spore_stims/complex_15_A_a.gif","images/stimuli/spore_stims/complex_09_A_b.gif","forced_long","","6","complex_dissimilar","images/stimuli/spore_stims/complex_09_A_b.gif","","","","",""
"","null","html-keyboard-response","79","372390","0.0-21.0-0.1","SS1618435688404","","","null","","","","","","<p><img src= images/blank.png width =""600"" height = ""600"" style=""position:fixed;top:50%; left:50%; transform: translate(-50%, -50%); border:5px solid black"">","","","","","","","",""
"","10987.699999997858","sequential-stimulus-presentation-old","80","383886","0.0-21.0-1.1","SS1618435688404","trial","","40","500","11487.699999997858","images/stimuli/spore_stims/complex_15_A_a.gif","images/stimuli/spore_stims/complex_09_A_b.gif","forced_long","","6","complex_dissimilar","images/stimuli/spore_stims/complex_09_A_b.gif","","","","",""
"","null","html-keyboard-response","81","384781","0.0-21.0-0.2","SS1618435688404","","","null","","","","","","<p><img src= images/blank.png width =""600"" height = ""600"" style=""position:fixed;top:50%; left:50%; transform: translate(-50%, -50%); border:5px solid black"">","","","","","","","",""
"","6393.299999996088","sequential-stimulus-presentation-old","82","391684","0.0-21.0-1.2","SS1618435688404","trial","","40","500","6893.299999996088","images/stimuli/spore_stims/complex_15_A_a.gif","images/stimuli/spore_stims/complex_09_A_b.gif","forced_long","","6","complex_dissimilar","images/stimuli/spore_stims/complex_09_A_b.gif","","","","",""
"","null","html-keyboard-response","83","392522","0.0-21.0-0.3","SS1618435688404","","","null","","","","","","<p><img src= images/blank.png width =""600"" height = ""600"" style=""position:fixed;top:50%; left:50%; transform: translate(-50%, -50%); border:5px solid black"">","","","","","","","",""
"","5290.439999997034","sequential-stimulus-presentation-old","84","398320","0.0-21.0-1.3","SS1618435688404","trial","","40","500","5790.439999997034","images/stimuli/spore_stims/complex_15_A_a.gif","images/stimuli/spore_stims/complex_09_A_b.gif","forced_long","","6","complex_dissimilar","images/stimuli/spore_stims/complex_09_A_b.gif","","","","",""
"","null","html-keyboard-response","85","399543","0.0-21.0-0.4","SS1618435688404","","","null","","","","","","<p><img src= images/blank.png width =""600"" height = ""600"" style=""position:fixed;top:50%; left:50%; transform: translate(-50%, -50%); border:5px solid black"">","","","","","","","",""
"","4045.5650000076275","sequential-stimulus-presentation-old","86","404099","0.0-21.0-1.4","SS1618435688404","trial","","40","500","4545.5650000076275","images/stimuli/spore_stims/complex_15_A_a.gif","images/stimuli/spore_stims/complex_09_A_b.gif","forced_long","","6","complex_dissimilar","images/stimuli/spore_stims/complex_09_A_b.gif","","","","",""
"","4257.89999999688","survey-multi-choice","87","408361","0.0-22.0","SS1618435688404","math_question","","","","","","","","","","","","{""Q0"":""8""}","[0]","8","",""
"","null","html-keyboard-response","88","409592","0.0-23.0-0.0","SS1618435688404","","","null","","","","","","<p><img src= images/blank.png width =""600"" height = ""600"" style=""position:fixed;top:50%; left:50%; transform: translate(-50%, -50%); border:5px solid black"">","","","","","","","",""
"","6851.934999998775","sequential-stimulus-presentation-old","89","416955","0.0-23.0-1.0","SS1618435688404","trial","","40","500","7351.934999998775","images/stimuli/spore_stims/complex_03_A_a.gif","images/stimuli/spore_stims/complex_04_A_b.gif","self_paced","","7","complex_dissimilar","images/stimuli/spore_stims/complex_04_A_b.gif","","","","",""
"","null","html-keyboard-response","90","417812","0.0-23.0-0.1","SS1618435688404","","","null","","","","","","<p><img src= images/blank.png width =""600"" height = ""600"" style=""position:fixed;top:50%; left:50%; transform: translate(-50%, -50%); border:5px solid black"">","","","","","","","",""
"","787.5150000036228","sequential-stimulus-presentation-old","91","419107","0.0-23.0-1.1","SS1618435688404","trial","","40","500","1287.5150000036228","images/stimuli/spore_stims/complex_03_A_a.gif","images/stimuli/spore_stims/complex_04_A_b.gif","self_paced","","7","complex_dissimilar","images/stimuli/spore_stims/complex_04_A_b.gif","","","","",""
"","null","html-keyboard-response","92","420023","0.0-23.0-0.2","SS1618435688404","","","null","","","","","","<p><img src= images/blank.png width =""600"" height = ""600"" style=""position:fixed;top:50%; left:50%; transform: translate(-50%, -50%); border:5px solid black"">","","","","","","","",""
"","6209.880000009434","sequential-stimulus-presentation-old","93","426740","0.0-23.0-1.2","SS1618435688404","trial","","40","500","6709.880000009434","images/stimuli/spore_stims/complex_03_A_a.gif","images/stimuli/spore_stims/complex_04_A_b.gif","self_paced","","7","complex_dissimilar","images/stimuli/spore_stims/complex_04_A_b.gif","","","","",""
"","null","html-keyboard-response","94","427555","0.0-23.0-0.3","SS1618435688404","","","null","","","","","","<p><img src= images/blank.png width =""600"" height = ""600"" style=""position:fixed;top:50%; left:50%; transform: translate(-50%, -50%); border:5px solid black"">","","","","","","","",""
"","7763.904999999795","sequential-stimulus-presentation-old","95","435826","0.0-23.0-1.3","SS1618435688404","trial","","40","500","8263.904999999795","images/stimuli/spore_stims/complex_03_A_a.gif","images/stimuli/spore_stims/complex_04_A_b.gif","self_paced","","7","complex_dissimilar","images/stimuli/spore_stims/complex_03_A_a.gif","","","","",""
"","null","html-keyboard-response","96","436783","0.0-23.0-0.4","SS1618435688404","","","null","","","","","","<p><img src= images/blank.png width =""600"" height = ""600"" style=""position:fixed;top:50%; left:50%; transform: translate(-50%, -50%); border:5px solid black"">","","","","","","","",""
"","1932.554999992135","sequential-stimulus-presentation-old","97","439222","0.0-23.0-1.4","SS1618435688404","trial","","40","500","2432.554999992135","images/stimuli/spore_stims/complex_03_A_a.gif","images/stimuli/spore_stims/complex_04_A_b.gif","self_paced","","7","complex_dissimilar","images/stimuli/spore_stims/complex_04_A_b.gif","","","","",""
"","3786.4649999974063","survey-multi-choice","98","443014","0.0-24.0","SS1618435688404","math_question","","","","","","","","","","","","{""Q0"":""3""}","[0]","3","",""
"","null","html-keyboard-response","99","444219","0.0-25.0-0.0","SS1618435688404","","","null","","","","","","<p><img src= images/blank.png width =""600"" height = ""600"" style=""position:fixed;top:50%; left:50%; transform: translate(-50%, -50%); border:5px solid black"">","","","","","","","",""
"","791.1999999923864","sequential-stimulus-presentation-old","100","445067","0.0-25.0-1.0","SS1618435688404","trial","","40","500","1291.1999999923864","images/stimuli/spore_stims/complex_06_A_a.gif","images/stimuli/spore_stims/complex_03_A_b.gif","forced_short","","8","complex_dissimilar","images/stimuli/spore_stims/complex_03_A_b.gif","","","","",""
"","null","html-keyboard-response","101","446140","0.0-25.0-0.1","SS1618435688404","","","null","","","","","","<p><img src= images/blank.png width =""600"" height = ""600"" style=""position:fixed;top:50%; left:50%; transform: translate(-50%, -50%); border:5px solid black"">","","","","","","","",""
"","4732.829999993555","sequential-stimulus-presentation-old","102","451380","0.0-25.0-1.1","SS1618435688404","trial","","40","500","5232.829999993555","images/stimuli/spore_stims/complex_06_A_a.gif","images/stimuli/spore_stims/complex_03_A_b.gif","forced_short","","8","complex_dissimilar","images/stimuli/spore_stims/complex_03_A_b.gif","","","","",""
"","null","html-keyboard-response","103","452472","0.0-25.0-0.2","SS1618435688404","","","null","","","","","","<p><img src= images/blank.png width =""600"" height = ""600"" style=""position:fixed;top:50%; left:50%; transform: translate(-50%, -50%); border:5px solid black"">","","","","","","","",""
"","10885.404999993625","sequential-stimulus-presentation-old","104","463866","0.0-25.0-1.2","SS1618435688404","trial","","40","500","11385.404999993625","images/stimuli/spore_stims/complex_06_A_a.gif","images/stimuli/spore_stims/complex_03_A_b.gif","forced_short","","8","complex_dissimilar","images/stimuli/spore_stims/complex_03_A_b.gif","","","","",""
"","null","html-keyboard-response","105","464705","0.0-25.0-0.3","SS1618435688404","","","null","","","","","","<p><img src= images/blank.png width =""600"" height = ""600"" style=""position:fixed;top:50%; left:50%; transform: translate(-50%, -50%); border:5px solid black"">","","","","","","","",""
"","6584.839999995893","sequential-stimulus-presentation-old","106","471798","0.0-25.0-1.3","SS1618435688404","trial","","40","500","7084.839999995893","images/stimuli/spore_stims/complex_06_A_a.gif","images/stimuli/spore_stims/complex_03_A_b.gif","forced_short","","8","complex_dissimilar","images/stimuli/spore_stims/complex_03_A_b.gif","","","","",""
"","3865.6599999958416","survey-multi-choice","107","475669","0.0-26.0","SS1618435688404","math_question","","","","","","","","","","","","{""Q0"":""9""}","[0]","9","",""
"","null","html-keyboard-response","108","476613","0.0-27.0-0.0","SS1618435688404","","","null","","","","","","<p><img src= images/blank.png width =""600"" height = ""600"" style=""position:fixed;top:50%; left:50%; transform: translate(-50%, -50%); border:5px solid black"">","","","","","","","",""
"","683.2900000008522","sequential-stimulus-presentation-old","109","477353","0.0-27.0-1.0","SS1618435688404","trial","","40","500","1183.2900000008522","images/stimuli/spore_stims/simple_18_A_b.gif","images/stimuli/spore_stims/simple_13_A_a.gif","forced_short","","9","simple_dissimilar","images/stimuli/spore_stims/simple_13_A_a.gif","","","","",""
"","null","html-keyboard-response","110","478528","0.0-27.0-0.1","SS1618435688404","","","null","","","","","","<p><img src= images/blank.png width =""600"" height = ""600"" style=""position:fixed;top:50%; left:50%; transform: translate(-50%, -50%); border:5px solid black"">","","","","","","","",""
"","694.9699999968288","sequential-stimulus-presentation-old","111","479730","0.0-27.0-1.1","SS1618435688404","trial","","40","500","1194.9699999968288","images/stimuli/spore_stims/simple_18_A_b.gif","images/stimuli/spore_stims/simple_13_A_a.gif","forced_short","","9","simple_dissimilar","images/stimuli/spore_stims/simple_18_A_b.gif","","","","",""
"","null","html-keyboard-response","112","480690","0.0-27.0-0.2","SS1618435688404","","","null","","","","","","<p><img src= images/blank.png width =""600"" height = ""600"" style=""position:fixed;top:50%; left:50%; transform: translate(-50%, -50%); border:5px solid black"">","","","","","","","",""
"","1057.4449999985518","sequential-stimulus-presentation-old","113","482255","0.0-27.0-1.2","SS1618435688404","trial","","40","500","1557.4449999985518","images/stimuli/spore_stims/simple_18_A_b.gif","images/stimuli/spore_stims/simple_13_A_a.gif","forced_short","","9","simple_dissimilar","images/stimuli/spore_stims/simple_13_A_a.gif","","","","",""
"","null","html-keyboard-response","114","483150","0.0-27.0-0.3","SS1618435688404","","","null","","","","","","<p><img src= images/blank.png width =""600"" height = ""600"" style=""position:fixed;top:50%; left:50%; transform: translate(-50%, -50%); border:5px solid black"">","","","","","","","",""
"","413.74000000359956","sequential-stimulus-presentation-old","115","484071","0.0-27.0-1.3","SS1618435688404","trial","","40","500","913.7400000035996","images/stimuli/spore_stims/simple_18_A_b.gif","images/stimuli/spore_stims/simple_13_A_a.gif","forced_short","","9","simple_dissimilar","images/stimuli/spore_stims/simple_13_A_a.gif","","","","",""
"","null","html-keyboard-response","116","485337","0.0-27.0-0.4","SS1618435688404","","","null","","","","","","<p><img src= images/blank.png width =""600"" height = ""600"" style=""position:fixed;top:50%; left:50%; transform: translate(-50%, -50%); border:5px solid black"">","","","","","","","",""
"","323.6599999945611","sequential-stimulus-presentation-old","117","486168","0.0-27.0-1.4","SS1618435688404","trial","","40","500","823.6599999945611","images/stimuli/spore_stims/simple_18_A_b.gif","images/stimuli/spore_stims/simple_13_A_a.gif","forced_short","","9","simple_dissimilar","images/stimuli/spore_stims/simple_13_A_a.gif","","","","",""
"","null","html-keyboard-response","118","487194","0.0-27.0-0.5","SS1618435688404","","","null","","","","","","<p><img src= images/blank.png width =""600"" height = ""600"" style=""position:fixed;top:50%; left:50%; transform: translate(-50%, -50%); border:5px solid black"">","","","","","","","",""
"","260.4849999916041","sequential-stimulus-presentation-old","119","487962","0.0-27.0-1.5","SS1618435688404","trial","","40","500","760.4849999916041","images/stimuli/spore_stims/simple_18_A_b.gif","images/stimuli/spore_stims/simple_13_A_a.gif","forced_short","","9","simple_dissimilar","images/stimuli/spore_stims/simple_18_A_b.gif","","","","",""
"","3530.1800000015646","survey-multi-choice","120","491498","0.0-28.0","SS1618435688404","math_question","","","","","","","","","","","","{""Q0"":""9""}","[0]","9","",""
"","null","html-keyboard-response","121","492496","0.0-29.0-0.0","SS1618435688404","","","null","","","","","","<p><img src= images/blank.png width =""600"" height = ""600"" style=""position:fixed;top:50%; left:50%; transform: translate(-50%, -50%); border:5px solid black"">","","","","","","","",""
"","34.01499999745283","sequential-stimulus-presentation-old","122","497538","0.0-29.0-1.0","SS1618435688404","trial","","40","500","534.0149999974528","images/stimuli/spore_stims/complex_01_A_b.gif","images/stimuli/spore_stims/complex_02_A_a.gif","forced_long","","10","complex_dissimilar","images/stimuli/spore_stims/complex_02_A_a.gif","","","","",""
"","null","html-keyboard-response","123","498437","0.0-29.0-0.1","SS1618435688404","","","null","","","","","","<p><img src= images/blank.png width =""600"" height = ""600"" style=""position:fixed;top:50%; left:50%; transform: translate(-50%, -50%); border:5px solid black"">","","","","","","","",""
"","4022.7450000093086","sequential-stimulus-presentation-old","124","502969","0.0-29.0-1.1","SS1618435688404","trial","","40","500","4522.745000009309","images/stimuli/spore_stims/complex_01_A_b.gif","images/stimuli/spore_stims/complex_02_A_a.gif","forced_long","","10","complex_dissimilar","images/stimuli/spore_stims/complex_01_A_b.gif","","","","",""
"","null","html-keyboard-response","125","504080","0.0-29.0-0.2","SS1618435688404","","","null","","","","","","<p><img src= images/blank.png width =""600"" height = ""600"" style=""position:fixed;top:50%; left:50%; transform: translate(-50%, -50%); border:5px solid black"">","","","","","","","",""
"","4538.459999996121","sequential-stimulus-presentation-old","126","509126","0.0-29.0-1.2","SS1618435688404","trial","","40","500","5038.459999996121","images/stimuli/spore_stims/complex_01_A_b.gif","images/stimuli/spore_stims/complex_02_A_a.gif","forced_long","","10","complex_dissimilar","images/stimuli/spore_stims/complex_02_A_a.gif","","","","",""
"","null","html-keyboard-response","127","510332","0.0-29.0-0.3","SS1618435688404","","","null","","","","","","<p><img src= images/blank.png width =""600"" height = ""600"" style=""position:fixed;top:50%; left:50%; transform: translate(-50%, -50%); border:5px solid black"">","","","","","","","",""
"","1077.4600000004284","sequential-stimulus-presentation-old","128","511916","0.0-29.0-1.3","SS1618435688404","trial","","40","500","1577.4600000004284","images/stimuli/spore_stims/complex_01_A_b.gif","images/stimuli/spore_stims/complex_02_A_a.gif","forced_long","","10","complex_dissimilar","images/stimuli/spore_stims/complex_02_A_a.gif","","","","",""
"","null","html-keyboard-response","129","512895","0.0-29.0-0.4","SS1618435688404","","","null","","","","","","<p><img src= images/blank.png width =""600"" height = ""600"" style=""position:fixed;top:50%; left:50%; transform: translate(-50%, -50%); border:5px solid black"">","","","","","","","",""
"","2116.8150000012247","sequential-stimulus-presentation-old","130","515521","0.0-29.0-1.4","SS1618435688404","trial","","40","500","2616.8150000012247","images/stimuli/spore_stims/complex_01_A_b.gif","images/stimuli/spore_stims/complex_02_A_a.gif","forced_long","","10","complex_dissimilar","images/stimuli/spore_stims/complex_01_A_b.gif","","","","",""
"","3242.689999999129","survey-multi-choice","131","518769","0.0-30.0","SS1618435688404","math_question","","","","","","","","","","","","{""Q0"":""13""}","[0]","13","",""
"","null","html-keyboard-response","132","519814","0.0-31.0-0.0","SS1618435688404","","","null","","","","","","<p><img src= images/blank.png width =""600"" height = ""600"" style=""position:fixed;top:50%; left:50%; transform: translate(-50%, -50%); border:5px solid black"">","","","","","","","",""
"","2857.0249999902444","sequential-stimulus-presentation-old","133","527681","0.0-31.0-1.0","SS1618435688404","trial","","40","500","3357.0249999902444","images/stimuli/spore_stims/simple_18_A_a.gif","images/stimuli/spore_stims/simple_02_A_b.gif","forced_long","","11","simple_dissimilar","images/stimuli/spore_stims/simple_02_A_b.gif","","","","",""
"","null","html-keyboard-response","134","528890","0.0-31.0-0.1","SS1618435688404","","","null","","","","","","<p><img src= images/blank.png width =""600"" height = ""600"" style=""position:fixed;top:50%; left:50%; transform: translate(-50%, -50%); border:5px solid black"">","","","","","","","",""
"","1110.224999996717","sequential-stimulus-presentation-old","135","530511","0.0-31.0-1.1","SS1618435688404","trial","","40","500","1610.224999996717","images/stimuli/spore_stims/simple_18_A_a.gif","images/stimuli/spore_stims/simple_02_A_b.gif","forced_long","","11","simple_dissimilar","images/stimuli/spore_stims/simple_18_A_a.gif","","","","",""
"","null","html-keyboard-response","136","531720","0.0-31.0-0.2","SS1618435688404","","","null","","","","","","<p><img src= images/blank.png width =""600"" height = ""600"" style=""position:fixed;top:50%; left:50%; transform: translate(-50%, -50%); border:5px solid black"">","","","","","","","",""
"","578.1100000021979","sequential-stimulus-presentation-old","137","532805","0.0-31.0-1.2","SS1618435688404","trial","","40","500","1078.110000002198","images/stimuli/spore_stims/simple_18_A_a.gif","images/stimuli/spore_stims/simple_02_A_b.gif","forced_long","","11","simple_dissimilar","images/stimuli/spore_stims/simple_18_A_a.gif","","","","",""
"","null","html-keyboard-response","138","534017","0.0-31.0-0.3","SS1618435688404","","","null","","","","","","<p><img src= images/blank.png width =""600"" height = ""600"" style=""position:fixed;top:50%; left:50%; transform: translate(-50%, -50%); border:5px solid black"">","","","","","","","",""
"","442.9800000070827","sequential-stimulus-presentation-old","139","534966","0.0-31.0-1.3","SS1618435688404","trial","","40","500","942.9800000070827","images/stimuli/spore_stims/simple_18_A_a.gif","images/stimuli/spore_stims/simple_02_A_b.gif","forced_long","","11","simple_dissimilar","images/stimuli/spore_stims/simple_02_A_b.gif","","","","",""
"","null","html-keyboard-response","140","535778","0.0-31.0-0.4","SS1618435688404","","","null","","","","","","<p><img src= images/blank.png width =""600"" height = ""600"" style=""position:fixed;top:50%; left:50%; transform: translate(-50%, -50%); border:5px solid black"">","","","","","","","",""
"","2842.285000006086","sequential-stimulus-presentation-old","141","539128","0.0-31.0-1.4","SS1618435688404","trial","","40","500","3342.285000006086","images/stimuli/spore_stims/simple_18_A_a.gif","images/stimuli/spore_stims/simple_02_A_b.gif","forced_long","","11","simple_dissimilar","images/stimuli/spore_stims/simple_02_A_b.gif","","","","",""
"[{""page_index"":0,""viewing_time"":4764.574999993783}]","4764.949999997043","instructions","142","543897","0.0-32.0","SS1618435688404","instructions","","","","","","","","","","","","","","","",""
"","11806.434999991325","survey-likert","143","555710","0.0-33.0","SS1618435688404","similarity_question","","","","","","","","","","","","{""Q0"":4}","[0]","","images/stimuli/spore_stims/complex_02_A_a.gif","images/stimuli/spore_stims/complex_01_A_b.gif"
"","6603.925000003073","survey-likert","144","562325","0.0-34.0","SS1618435688404","similarity_question","","","","","","","","","","","","{""Q0"":2}","[0]","","images/stimuli/spore_stims/simple_11_A_b.gif","images/stimuli/spore_stims/simple_04_A_a.gif"
"","8070.785000003525","survey-likert","145","570409","0.0-35.0","SS1618435688404","similarity_question","","","","","","","","","","","","{""Q0"":4}","[0]","","images/stimuli/spore_stims/simple_13_A_a.gif","images/stimuli/spore_stims/simple_18_A_b.gif"
"","11687.930000000051","survey-likert","146","582110","0.0-36.0","SS1618435688404","similarity_question","","","","","","","","","","","","{""Q0"":4}","[0]","","images/stimuli/spore_stims/simple_16_A_b.gif","images/stimuli/spore_stims/simple_09_A_a.gif"
"","7692.269999999553","survey-likert","147","589813","0.0-37.0","SS1618435688404","similarity_question","","","","","","","","","","","","{""Q0"":2}","[0]","","images/stimuli/spore_stims/simple_05_A_a.gif","images/stimuli/spore_stims/simple_12_A_b.gif"
"","6020.340000002761","survey-likert","148","595845","0.0-38.0","SS1618435688404","similarity_question","","","","","","","","","","","","{""Q0"":4}","[0]","","images/stimuli/spore_stims/complex_01_A_a.gif","images/stimuli/spore_stims/complex_13_A_b.gif"
"","8371.020000005956","survey-likert","149","604229","0.0-39.0","SS1618435688404","similarity_question","","","","","","","","","","","","{""Q0"":4}","[0]","","images/stimuli/spore_stims/complex_05_A_a.gif","images/stimuli/spore_stims/complex_12_A_b.gif"
"","6087.429999999586","survey-likert","150","610329","0.0-40.0","SS1618435688404","similarity_question","","","","","","","","","","","","{""Q0"":2}","[0]","","images/stimuli/spore_stims/simple_12_A_a.gif","images/stimuli/spore_stims/simple_15_A_b.gif"
"","7007.895000002463","survey-likert","151","617349","0.0-41.0","SS1618435688404","similarity_question","","","","","","","","","","","","{""Q0"":1}","[0]","","images/stimuli/spore_stims/complex_04_A_b.gif","images/stimuli/spore_stims/complex_03_A_a.gif"
"","6755.34499999776","survey-likert","152","624118","0.0-42.0","SS1618435688404","similarity_question","","","","","","","","","","","","{""Q0"":0}","[0]","","images/stimuli/spore_stims/complex_09_A_b.gif","images/stimuli/spore_stims/complex_15_A_a.gif"
"","5004.179999988992","survey-likert","153","629134","0.0-43.0","SS1618435688404","similarity_question","","","","","","","","","","","","{""Q0"":1}","[0]","","images/stimuli/spore_stims/complex_06_A_a.gif","images/stimuli/spore_stims/complex_03_A_b.gif"
"","5812.035000009928","survey-likert","154","634958","0.0-44.0","SS1618435688404","similarity_question","","","","","","","","","","","","{""Q0"":2}","[0]","","images/stimuli/spore_stims/simple_02_A_b.gif","images/stimuli/spore_stims/simple_18_A_a.gif"
"[{""page_index"":0,""viewing_time"":5808.329999999842}]","5808.759999999893","instructions","155","640777","0.0-45.0","SS1618435688404","instructions","","","","","","","","","","","","","","","",""
"","7034.31499999715","survey-likert","156","647818","0.0-46.0","SS1618435688404","","","","","","","","","images/stimuli/spore_stims/complex_09_A_b.gif","","","","{""Q0"":2}","[0]","","",""
"","2847.1599999902537","survey-likert","157","650678","0.0-47.0","SS1618435688404","","","","","","","","","images/stimuli/spore_stims/simple_05_A_a.gif","","","","{""Q0"":1}","[0]","","",""
"","4563.945000001695","survey-likert","158","655253","0.0-48.0","SS1618435688404","","","","","","","","","images/stimuli/spore_stims/complex_01_A_b.gif","","","","{""Q0"":2}","[0]","","",""
"","16616.09500000486","survey-likert","159","671880","0.0-49.0","SS1618435688404","","","","","","","","","images/stimuli/spore_stims/simple_16_A_b.gif","","","","{""Q0"":1}","[0]","","",""
"","2700.0149999948917","survey-likert","160","674588","0.0-50.0","SS1618435688404","","","","","","","","","images/stimuli/spore_stims/simple_12_A_a.gif","","","","{""Q0"":1}","[0]","","",""
"","2316.340000004857","survey-likert","161","676912","0.0-51.0","SS1618435688404","","","","","","","","","images/stimuli/spore_stims/simple_13_A_a.gif","","","","{""Q0"":1}","[0]","","",""
"","2600.334999995539","survey-likert","162","679520","0.0-52.0","SS1618435688404","","","","","","","","","images/stimuli/spore_stims/simple_04_A_a.gif","","","","{""Q0"":2}","[0]","","",""
"","2379.6949999959907","survey-likert","163","681908","0.0-53.0","SS1618435688404","","","","","","","","","images/stimuli/spore_stims/simple_18_A_a.gif","","","","{""Q0"":1}","[0]","","",""
"","3688.045000002603","survey-likert","164","685604","0.0-54.0","SS1618435688404","","","","","","","","","images/stimuli/spore_stims/complex_01_A_a.gif","","","","{""Q0"":2}","[0]","","",""
"","6520.449999996345","survey-likert","165","692132","0.0-55.0","SS1618435688404","","","","","","","","","images/stimuli/spore_stims/complex_12_A_b.gif","","","","{""Q0"":4}","[0]","","",""
"","6320.760000002338","survey-likert","166","698460","0.0-56.0","SS1618435688404","","","","","","","","","images/stimuli/spore_stims/complex_06_A_a.gif","","","","{""Q0"":2}","[0]","","",""
"","3419.740000012098","survey-likert","167","701888","0.0-57.0","SS1618435688404","","","","","","","","","images/stimuli/spore_stims/complex_03_A_a.gif","","","","{""Q0"":2}","[0]","","",""
"[{""page_index"":0,""viewing_time"":1756.374999997206}]","1756.729999993695","instructions","168","703652","0.0-58.0","SS1618435688404","instructions","","","","","","","","","","","","","","","",""
"","5474.610000004759","demog-age","169","709132","0.0-59.0","SS1618435688404","","","","","","","","","","","","","{""age"":""32""}","","","",""
"","16377.140000011423","demog-ethnic-US","170","725515","0.0-60.0","SS1618435688404","","","","","","","","","","","","","{""ethnicity"":[""White""]}","[0]","","",""
"","6961.40000000014","demog-gender-and-education","171","732485","0.0-61.0","SS1618435688404","","","","","","","","","","","","","{""gender"":""Female"",""education"":""Bachelor's Degree""}","[0,1]","","",""
"","11225.44999999809","survey-text","172","743719","0.0-62.0","SS1618435688404","feedback","","","","","","","","","","","","{""Q0"":""no problem at all""}","","","",""
"[{""page_index"":0,""viewing_time"":1736.8050000077346}]","1737.0499999960884","instructions","173","745459","0.0-63.0","SS1618435688404","instructions","","","","","","","","","","","","","","","",""
