"view_history","rt","trial_type","trial_index","time_elapsed","internal_node_id","subject","stimulus_type","trial_stimulus","key_press","minimum_viewing_duration","trial_looking_time","block_deviant","block_background","exposure_type","stimulus","block_number","block_type","stimulus_displayed","responses","question_order","math_correct_answer","stimulus_left","stimulus_right"
"[{""page_index"":0,""viewing_time"":36082.83500000107}]","36083.6100000015","instructions","0","36085","0.0-0.0","SS1618435652058","","","","","","","","","","","","","","","","",""
"[{""page_index"":0,""viewing_time"":22500.685000000885},{""page_index"":1,""viewing_time"":7408.965000000535}]","29909.87000000132","instructions","1","68004","0.0-1.0","SS1618435652058","instructions","","","","","","","","","","","","","","","",""
"","14255.7199999992","sequential-stimulus-presentation-old","2","82764","0.0-2.0","SS1618435652058","","","40","500","14755.7199999992","null","null","self_paced","","","","","","","","",""
"","4681.365000000369","sequential-stimulus-presentation-old","3","87947","0.0-3.0","SS1618435652058","","","40","500","5181.365000000369","null","null","self_paced","","","","","","","","",""
"[{""page_index"":0,""viewing_time"":14863.605000000462}]","14863.940000001094","instructions","4","102812","0.0-4.0","SS1618435652058","instructions","","","","","","","","","","","","","","","",""
"","738.1999999997788","sequential-stimulus-presentation-old","5","108559","0.0-5.0","SS1618435652058","","","40","500","1238.1999999997788","null","null","forced_long","","","","","","","","",""
"","3833.9099999993778","sequential-stimulus-presentation-old","6","112446","0.0-6.0","SS1618435652058","","","40","50","3883.9099999993778","null","null","forced_long","","","","","","","","",""
"[{""page_index"":0,""viewing_time"":3112.025000000358}]","3112.215000001015","instructions","7","115559","0.0-7.0","SS1618435652058","instructions","","","","","","","","","","","","","","","",""
"[{""page_index"":0,""viewing_time"":10999.224999999555},{""page_index"":1,""viewing_time"":14290.40500000157},{""page_index"":2,""viewing_time"":7395.774999999063},{""page_index"":3,""viewing_time"":1692.8100000004633},{""page_index"":4,""viewing_time"":1276.754999998957}]","35655.184999999634","instructions","8","151216","0.0-8.0","SS1618435652058","instructions","","","","","","","","","","","","","","","",""
"","null","html-keyboard-response","9","152472","0.0-9.0-0.0","SS1618435652058","","","null","","","","","","<p><img src= images/blank.png width =""600"" height = ""600"" style=""position:fixed;top:50%; left:50%; transform: translate(-50%, -50%); border:5px solid black"">","","","","","","","",""
"","312.0600000002014","sequential-stimulus-presentation-old","10","152853","0.0-9.0-1.0","SS1618435652058","trial","","40","500","812.0600000002014","images/stimuli/spore_stims/complex_14_A_b.gif","images/stimuli/spore_stims/complex_15_A_a.gif","forced_short","","0","complex_dissimilar","images/stimuli/spore_stims/complex_15_A_a.gif","","","","",""
"","null","html-keyboard-response","11","154066","0.0-9.0-0.1","SS1618435652058","","","null","","","","","","<p><img src= images/blank.png width =""600"" height = ""600"" style=""position:fixed;top:50%; left:50%; transform: translate(-50%, -50%); border:5px solid black"">","","","","","","","",""
"","265.71999999939","sequential-stimulus-presentation-old","12","154839","0.0-9.0-1.1","SS1618435652058","trial","","40","500","765.71999999939","images/stimuli/spore_stims/complex_14_A_b.gif","images/stimuli/spore_stims/complex_15_A_a.gif","forced_short","","0","complex_dissimilar","images/stimuli/spore_stims/complex_15_A_a.gif","","","","",""
"","null","html-keyboard-response","13","155756","0.0-9.0-0.2","SS1618435652058","","","null","","","","","","<p><img src= images/blank.png width =""600"" height = ""600"" style=""position:fixed;top:50%; left:50%; transform: translate(-50%, -50%); border:5px solid black"">","","","","","","","",""
"","44.94499999965774","sequential-stimulus-presentation-old","14","156304","0.0-9.0-1.2","SS1618435652058","trial","","40","500","544.9449999996577","images/stimuli/spore_stims/complex_14_A_b.gif","images/stimuli/spore_stims/complex_15_A_a.gif","forced_short","","0","complex_dissimilar","images/stimuli/spore_stims/complex_14_A_b.gif","","","","",""
"","null","html-keyboard-response","15","157382","0.0-9.0-0.3","SS1618435652058","","","null","","","","","","<p><img src= images/blank.png width =""600"" height = ""600"" style=""position:fixed;top:50%; left:50%; transform: translate(-50%, -50%); border:5px solid black"">","","","","","","","",""
"","390.9800000001269","sequential-stimulus-presentation-old","16","158276","0.0-9.0-1.3","SS1618435652058","trial","","40","500","890.9800000001269","images/stimuli/spore_stims/complex_14_A_b.gif","images/stimuli/spore_stims/complex_15_A_a.gif","forced_short","","0","complex_dissimilar","images/stimuli/spore_stims/complex_15_A_a.gif","","","","",""
"","3855.4700000004377","survey-multi-choice","17","162134","0.0-10.0","SS1618435652058","math_question","","","","","","","","","","","","{""Q0"":""4""}","[0]","4","",""
"","null","html-keyboard-response","18","163224","0.0-11.0-0.0","SS1618435652058","","","null","","","","","","<p><img src= images/blank.png width =""600"" height = ""600"" style=""position:fixed;top:50%; left:50%; transform: translate(-50%, -50%); border:5px solid black"">","","","","","","","",""
"","308.1549999988056","sequential-stimulus-presentation-old","19","164054","0.0-11.0-1.0","SS1618435652058","trial","","40","500","808.1549999988056","images/stimuli/spore_stims/simple_19_A_a.gif","images/stimuli/spore_stims/simple_01_A_b.gif","self_paced","","1","simple_dissimilar","images/stimuli/spore_stims/simple_01_A_b.gif","","","","",""
"","null","html-keyboard-response","20","165141","0.0-11.0-0.1","SS1618435652058","","","null","","","","","","<p><img src= images/blank.png width =""600"" height = ""600"" style=""position:fixed;top:50%; left:50%; transform: translate(-50%, -50%); border:5px solid black"">","","","","","","","",""
"","372.26499999995576","sequential-stimulus-presentation-old","21","166018","0.0-11.0-1.1","SS1618435652058","trial","","40","500","872.2649999999558","images/stimuli/spore_stims/simple_19_A_a.gif","images/stimuli/spore_stims/simple_01_A_b.gif","self_paced","","1","simple_dissimilar","images/stimuli/spore_stims/simple_19_A_a.gif","","","","",""
"","null","html-keyboard-response","22","166860","0.0-11.0-0.2","SS1618435652058","","","null","","","","","","<p><img src= images/blank.png width =""600"" height = ""600"" style=""position:fixed;top:50%; left:50%; transform: translate(-50%, -50%); border:5px solid black"">","","","","","","","",""
"","32.69000000000233","sequential-stimulus-presentation-old","23","167396","0.0-11.0-1.2","SS1618435652058","trial","","40","500","532.6900000000023","images/stimuli/spore_stims/simple_19_A_a.gif","images/stimuli/spore_stims/simple_01_A_b.gif","self_paced","","1","simple_dissimilar","images/stimuli/spore_stims/simple_01_A_b.gif","","","","",""
"","null","html-keyboard-response","24","168691","0.0-11.0-0.3","SS1618435652058","","","null","","","","","","<p><img src= images/blank.png width =""600"" height = ""600"" style=""position:fixed;top:50%; left:50%; transform: translate(-50%, -50%); border:5px solid black"">","","","","","","","",""
"","585.085000000603","sequential-stimulus-presentation-old","25","169779","0.0-11.0-1.3","SS1618435652058","trial","","40","500","1085.085000000603","images/stimuli/spore_stims/simple_19_A_a.gif","images/stimuli/spore_stims/simple_01_A_b.gif","self_paced","","1","simple_dissimilar","images/stimuli/spore_stims/simple_01_A_b.gif","","","","",""
"","3966.3849999997183","survey-multi-choice","26","173747","0.0-12.0","SS1618435652058","math_question","","","","","","","","","","","","{""Q0"":""9""}","[0]","9","",""
"","null","html-keyboard-response","27","174854","0.0-13.0-0.0","SS1618435652058","","","null","","","","","","<p><img src= images/blank.png width =""600"" height = ""600"" style=""position:fixed;top:50%; left:50%; transform: translate(-50%, -50%); border:5px solid black"">","","","","","","","",""
"","214.37999999942258","sequential-stimulus-presentation-old","28","180073","0.0-13.0-1.0","SS1618435652058","trial","","40","500","714.3799999994226","images/stimuli/spore_stims/complex_09_A_a.gif","images/stimuli/spore_stims/complex_06_A_b.gif","forced_long","","2","complex_dissimilar","images/stimuli/spore_stims/complex_06_A_b.gif","","","","",""
"","null","html-keyboard-response","29","181330","0.0-13.0-0.1","SS1618435652058","","","null","","","","","","<p><img src= images/blank.png width =""600"" height = ""600"" style=""position:fixed;top:50%; left:50%; transform: translate(-50%, -50%); border:5px solid black"">","","","","","","","",""
"","123.51499999931548","sequential-stimulus-presentation-old","30","181962","0.0-13.0-1.1","SS1618435652058","trial","","40","500","623.5149999993155","images/stimuli/spore_stims/complex_09_A_a.gif","images/stimuli/spore_stims/complex_06_A_b.gif","forced_long","","2","complex_dissimilar","images/stimuli/spore_stims/complex_06_A_b.gif","","","","",""
"","null","html-keyboard-response","31","183067","0.0-13.0-0.2","SS1618435652058","","","null","","","","","","<p><img src= images/blank.png width =""600"" height = ""600"" style=""position:fixed;top:50%; left:50%; transform: translate(-50%, -50%); border:5px solid black"">","","","","","","","",""
"","452.72500000102445","sequential-stimulus-presentation-old","32","184022","0.0-13.0-1.2","SS1618435652058","trial","","40","500","952.7250000010245","images/stimuli/spore_stims/complex_09_A_a.gif","images/stimuli/spore_stims/complex_06_A_b.gif","forced_long","","2","complex_dissimilar","images/stimuli/spore_stims/complex_06_A_b.gif","","","","",""
"","null","html-keyboard-response","33","185257","0.0-13.0-0.3","SS1618435652058","","","null","","","","","","<p><img src= images/blank.png width =""600"" height = ""600"" style=""position:fixed;top:50%; left:50%; transform: translate(-50%, -50%); border:5px solid black"">","","","","","","","",""
"","293.8500000000349","sequential-stimulus-presentation-old","34","186054","0.0-13.0-1.3","SS1618435652058","trial","","40","500","793.8500000000349","images/stimuli/spore_stims/complex_09_A_a.gif","images/stimuli/spore_stims/complex_06_A_b.gif","forced_long","","2","complex_dissimilar","images/stimuli/spore_stims/complex_06_A_b.gif","","","","",""
"","3318.9600000005157","survey-multi-choice","35","189375","0.0-14.0","SS1618435652058","math_question","","","","","","","","","","","","{""Q0"":""7""}","[0]","7","",""
"","null","html-keyboard-response","36","190360","0.0-15.0-0.0","SS1618435652058","","","null","","","","","","<p><img src= images/blank.png width =""600"" height = ""600"" style=""position:fixed;top:50%; left:50%; transform: translate(-50%, -50%); border:5px solid black"">","","","","","","","",""
"","189.09500000154367","sequential-stimulus-presentation-old","37","191053","0.0-15.0-1.0","SS1618435652058","trial","","40","500","689.0950000015437","images/stimuli/spore_stims/complex_11_A_b.gif","images/stimuli/spore_stims/complex_08_A_a.gif","self_paced","","3","complex_dissimilar","images/stimuli/spore_stims/complex_08_A_a.gif","","","","",""
"","null","html-keyboard-response","38","192140","0.0-15.0-0.1","SS1618435652058","","","null","","","","","","<p><img src= images/blank.png width =""600"" height = ""600"" style=""position:fixed;top:50%; left:50%; transform: translate(-50%, -50%); border:5px solid black"">","","","","","","","",""
"","639.7149999993271","sequential-stimulus-presentation-old","39","193283","0.0-15.0-1.1","SS1618435652058","trial","","40","500","1139.7149999993271","images/stimuli/spore_stims/complex_11_A_b.gif","images/stimuli/spore_stims/complex_08_A_a.gif","self_paced","","3","complex_dissimilar","images/stimuli/spore_stims/complex_08_A_a.gif","","","","",""
"","null","html-keyboard-response","40","194268","0.0-15.0-0.2","SS1618435652058","","","null","","","","","","<p><img src= images/blank.png width =""600"" height = ""600"" style=""position:fixed;top:50%; left:50%; transform: translate(-50%, -50%); border:5px solid black"">","","","","","","","",""
"","443.13499999954365","sequential-stimulus-presentation-old","41","195214","0.0-15.0-1.2","SS1618435652058","trial","","40","500","943.1349999995437","images/stimuli/spore_stims/complex_11_A_b.gif","images/stimuli/spore_stims/complex_08_A_a.gif","self_paced","","3","complex_dissimilar","images/stimuli/spore_stims/complex_08_A_a.gif","","","","",""
"","null","html-keyboard-response","42","196349","0.0-15.0-0.3","SS1618435652058","","","null","","","","","","<p><img src= images/blank.png width =""600"" height = ""600"" style=""position:fixed;top:50%; left:50%; transform: translate(-50%, -50%); border:5px solid black"">","","","","","","","",""
"","105.835000000312","sequential-stimulus-presentation-old","43","196968","0.0-15.0-1.3","SS1618435652058","trial","","40","500","605.835000000312","images/stimuli/spore_stims/complex_11_A_b.gif","images/stimuli/spore_stims/complex_08_A_a.gif","self_paced","","3","complex_dissimilar","images/stimuli/spore_stims/complex_08_A_a.gif","","","","",""
"","6141.159999999218","survey-multi-choice","44","203111","0.0-16.0","SS1618435652058","math_question","","","","","","","","","","","","{""Q0"":""13""}","[0]","13","",""
"","null","html-keyboard-response","45","204256","0.0-17.0-0.0","SS1618435652058","","","null","","","","","","<p><img src= images/blank.png width =""600"" height = ""600"" style=""position:fixed;top:50%; left:50%; transform: translate(-50%, -50%); border:5px solid black"">","","","","","","","",""
"","206.2100000002829","sequential-stimulus-presentation-old","46","209466","0.0-17.0-1.0","SS1618435652058","trial","","40","500","706.2100000002829","images/stimuli/spore_stims/simple_13_A_a.gif","images/stimuli/spore_stims/simple_20_A_b.gif","forced_long","","4","simple_dissimilar","images/stimuli/spore_stims/simple_20_A_b.gif","","","","",""
"","null","html-keyboard-response","47","210679","0.0-17.0-0.1","SS1618435652058","","","null","","","","","","<p><img src= images/blank.png width =""600"" height = ""600"" style=""position:fixed;top:50%; left:50%; transform: translate(-50%, -50%); border:5px solid black"">","","","","","","","",""
"","241.41000000055647","sequential-stimulus-presentation-old","48","211426","0.0-17.0-1.1","SS1618435652058","trial","","40","500","741.4100000005565","images/stimuli/spore_stims/simple_13_A_a.gif","images/stimuli/spore_stims/simple_20_A_b.gif","forced_long","","4","simple_dissimilar","images/stimuli/spore_stims/simple_13_A_a.gif","","","","",""
"","null","html-keyboard-response","49","212682","0.0-17.0-0.2","SS1618435652058","","","null","","","","","","<p><img src= images/blank.png width =""600"" height = ""600"" style=""position:fixed;top:50%; left:50%; transform: translate(-50%, -50%); border:5px solid black"">","","","","","","","",""
"","198.44999999989523","sequential-stimulus-presentation-old","50","213384","0.0-17.0-1.2","SS1618435652058","trial","","40","500","698.4499999998952","images/stimuli/spore_stims/simple_13_A_a.gif","images/stimuli/spore_stims/simple_20_A_b.gif","forced_long","","4","simple_dissimilar","images/stimuli/spore_stims/simple_20_A_b.gif","","","","",""
"","null","html-keyboard-response","51","214292","0.0-17.0-0.3","SS1618435652058","","","null","","","","","","<p><img src= images/blank.png width =""600"" height = ""600"" style=""position:fixed;top:50%; left:50%; transform: translate(-50%, -50%); border:5px solid black"">","","","","","","","",""
"","91.57000000050175","sequential-stimulus-presentation-old","52","214894","0.0-17.0-1.3","SS1618435652058","trial","","40","500","591.5700000005018","images/stimuli/spore_stims/simple_13_A_a.gif","images/stimuli/spore_stims/simple_20_A_b.gif","forced_long","","4","simple_dissimilar","images/stimuli/spore_stims/simple_20_A_b.gif","","","","",""
"","null","html-keyboard-response","53","216108","0.0-17.0-0.4","SS1618435652058","","","null","","","","","","<p><img src= images/blank.png width =""600"" height = ""600"" style=""position:fixed;top:50%; left:50%; transform: translate(-50%, -50%); border:5px solid black"">","","","","","","","",""
"","299.8400000015099","sequential-stimulus-presentation-old","54","216912","0.0-17.0-1.4","SS1618435652058","trial","","40","500","799.8400000015099","images/stimuli/spore_stims/simple_13_A_a.gif","images/stimuli/spore_stims/simple_20_A_b.gif","forced_long","","4","simple_dissimilar","images/stimuli/spore_stims/simple_13_A_a.gif","","","","",""
"","null","html-keyboard-response","55","217836","0.0-17.0-0.5","SS1618435652058","","","null","","","","","","<p><img src= images/blank.png width =""600"" height = ""600"" style=""position:fixed;top:50%; left:50%; transform: translate(-50%, -50%); border:5px solid black"">","","","","","","","",""
"","280.0150000002759","sequential-stimulus-presentation-old","56","218620","0.0-17.0-1.5","SS1618435652058","trial","","40","500","780.0150000002759","images/stimuli/spore_stims/simple_13_A_a.gif","images/stimuli/spore_stims/simple_20_A_b.gif","forced_long","","4","simple_dissimilar","images/stimuli/spore_stims/simple_20_A_b.gif","","","","",""
"","3633.144999999786","survey-multi-choice","57","222257","0.0-18.0","SS1618435652058","math_question","","","","","","","","","","","","{""Q0"":""12""}","[0]","12","",""
"","null","html-keyboard-response","58","223264","0.0-19.0-0.0","SS1618435652058","","","null","","","","","","<p><img src= images/blank.png width =""600"" height = ""600"" style=""position:fixed;top:50%; left:50%; transform: translate(-50%, -50%); border:5px solid black"">","","","","","","","",""
"","285.3549999999814","sequential-stimulus-presentation-old","59","223610","0.0-19.0-1.0","SS1618435652058","trial","","40","500","785.3549999999814","images/stimuli/spore_stims/simple_08_A_a.gif","images/stimuli/spore_stims/simple_10_A_b.gif","forced_short","","5","simple_dissimilar","images/stimuli/spore_stims/simple_10_A_b.gif","","","","",""
"","null","html-keyboard-response","60","224892","0.0-19.0-0.1","SS1618435652058","","","null","","","","","","<p><img src= images/blank.png width =""600"" height = ""600"" style=""position:fixed;top:50%; left:50%; transform: translate(-50%, -50%); border:5px solid black"">","","","","","","","",""
"","106.00999999951455","sequential-stimulus-presentation-old","61","225503","0.0-19.0-1.1","SS1618435652058","trial","","40","500","606.0099999995145","images/stimuli/spore_stims/simple_08_A_a.gif","images/stimuli/spore_stims/simple_10_A_b.gif","forced_short","","5","simple_dissimilar","images/stimuli/spore_stims/simple_10_A_b.gif","","","","",""
"","null","html-keyboard-response","62","226817","0.0-19.0-0.2","SS1618435652058","","","null","","","","","","<p><img src= images/blank.png width =""600"" height = ""600"" style=""position:fixed;top:50%; left:50%; transform: translate(-50%, -50%); border:5px solid black"">","","","","","","","",""
"","201.16000000052736","sequential-stimulus-presentation-old","63","227521","0.0-19.0-1.2","SS1618435652058","trial","","40","500","701.1600000005274","images/stimuli/spore_stims/simple_08_A_a.gif","images/stimuli/spore_stims/simple_10_A_b.gif","forced_short","","5","simple_dissimilar","images/stimuli/spore_stims/simple_10_A_b.gif","","","","",""
"","null","html-keyboard-response","64","228663","0.0-19.0-0.3","SS1618435652058","","","null","","","","","","<p><img src= images/blank.png width =""600"" height = ""600"" style=""position:fixed;top:50%; left:50%; transform: translate(-50%, -50%); border:5px solid black"">","","","","","","","",""
"","175.82500000027358","sequential-stimulus-presentation-old","65","229342","0.0-19.0-1.3","SS1618435652058","trial","","40","500","675.8250000002736","images/stimuli/spore_stims/simple_08_A_a.gif","images/stimuli/spore_stims/simple_10_A_b.gif","forced_short","","5","simple_dissimilar","images/stimuli/spore_stims/simple_10_A_b.gif","","","","",""
"","null","html-keyboard-response","66","230443","0.0-19.0-0.4","SS1618435652058","","","null","","","","","","<p><img src= images/blank.png width =""600"" height = ""600"" style=""position:fixed;top:50%; left:50%; transform: translate(-50%, -50%); border:5px solid black"">","","","","","","","",""
"","174.54999999975553","sequential-stimulus-presentation-old","67","231121","0.0-19.0-1.4","SS1618435652058","trial","","40","500","674.5499999997555","images/stimuli/spore_stims/simple_08_A_a.gif","images/stimuli/spore_stims/simple_10_A_b.gif","forced_short","","5","simple_dissimilar","images/stimuli/spore_stims/simple_10_A_b.gif","","","","",""
"","null","html-keyboard-response","68","232385","0.0-19.0-0.5","SS1618435652058","","","null","","","","","","<p><img src= images/blank.png width =""600"" height = ""600"" style=""position:fixed;top:50%; left:50%; transform: translate(-50%, -50%); border:5px solid black"">","","","","","","","",""
"","95.08000000094762","sequential-stimulus-presentation-old","69","232987","0.0-19.0-1.5","SS1618435652058","trial","","40","500","595.0800000009476","images/stimuli/spore_stims/simple_08_A_a.gif","images/stimuli/spore_stims/simple_10_A_b.gif","forced_short","","5","simple_dissimilar","images/stimuli/spore_stims/simple_10_A_b.gif","","","","",""
"","3733.169999999518","survey-multi-choice","70","236722","0.0-20.0","SS1618435652058","math_question","","","","","","","","","","","","{""Q0"":""10""}","[0]","10","",""
"","null","html-keyboard-response","71","237799","0.0-21.0-0.0","SS1618435652058","","","null","","","","","","<p><img src= images/blank.png width =""600"" height = ""600"" style=""position:fixed;top:50%; left:50%; transform: translate(-50%, -50%); border:5px solid black"">","","","","","","","",""
"","885.9350000002596","sequential-stimulus-presentation-old","72","243702","0.0-21.0-1.0","SS1618435652058","trial","","40","500","1385.9350000002596","images/stimuli/spore_stims/complex_06_A_a.gif","images/stimuli/spore_stims/complex_09_A_b.gif","forced_long","","6","complex_dissimilar","images/stimuli/spore_stims/complex_09_A_b.gif","","","","",""
"","null","html-keyboard-response","73","244825","0.0-21.0-0.1","SS1618435652058","","","null","","","","","","<p><img src= images/blank.png width =""600"" height = ""600"" style=""position:fixed;top:50%; left:50%; transform: translate(-50%, -50%); border:5px solid black"">","","","","","","","",""
"","131.8000000010361","sequential-stimulus-presentation-old","74","245460","0.0-21.0-1.1","SS1618435652058","trial","","40","500","631.8000000010361","images/stimuli/spore_stims/complex_06_A_a.gif","images/stimuli/spore_stims/complex_09_A_b.gif","forced_long","","6","complex_dissimilar","images/stimuli/spore_stims/complex_09_A_b.gif","","","","",""
"","null","html-keyboard-response","75","246608","0.0-21.0-0.2","SS1618435652058","","","null","","","","","","<p><img src= images/blank.png width =""600"" height = ""600"" style=""position:fixed;top:50%; left:50%; transform: translate(-50%, -50%); border:5px solid black"">","","","","","","","",""
"","179.85000000044238","sequential-stimulus-presentation-old","76","247297","0.0-21.0-1.2","SS1618435652058","trial","","40","500","679.8500000004424","images/stimuli/spore_stims/complex_06_A_a.gif","images/stimuli/spore_stims/complex_09_A_b.gif","forced_long","","6","complex_dissimilar","images/stimuli/spore_stims/complex_09_A_b.gif","","","","",""
"","null","html-keyboard-response","77","248515","0.0-21.0-0.3","SS1618435652058","","","null","","","","","","<p><img src= images/blank.png width =""600"" height = ""600"" style=""position:fixed;top:50%; left:50%; transform: translate(-50%, -50%); border:5px solid black"">","","","","","","","",""
"","304.2599999989907","sequential-stimulus-presentation-old","78","249323","0.0-21.0-1.3","SS1618435652058","trial","","40","500","804.2599999989907","images/stimuli/spore_stims/complex_06_A_a.gif","images/stimuli/spore_stims/complex_09_A_b.gif","forced_long","","6","complex_dissimilar","images/stimuli/spore_stims/complex_09_A_b.gif","","","","",""
"","4480.220000001282","survey-multi-choice","79","253807","0.0-22.0","SS1618435652058","math_question","","","","","","","","","","","","{""Q0"":""6""}","[0]","6","",""
"","null","html-keyboard-response","80","254804","0.0-23.0-0.0","SS1618435652058","","","null","","","","","","<p><img src= images/blank.png width =""600"" height = ""600"" style=""position:fixed;top:50%; left:50%; transform: translate(-50%, -50%); border:5px solid black"">","","","","","","","",""
"","125.45499999943422","sequential-stimulus-presentation-old","81","255435","0.0-23.0-1.0","SS1618435652058","trial","","40","500","625.4549999994342","images/stimuli/spore_stims/simple_19_A_b.gif","images/stimuli/spore_stims/simple_15_A_a.gif","self_paced","","7","simple_dissimilar","images/stimuli/spore_stims/simple_15_A_a.gif","","","","",""
"","null","html-keyboard-response","82","256633","0.0-23.0-0.1","SS1618435652058","","","null","","","","","","<p><img src= images/blank.png width =""600"" height = ""600"" style=""position:fixed;top:50%; left:50%; transform: translate(-50%, -50%); border:5px solid black"">","","","","","","","",""
"","93.68999999971129","sequential-stimulus-presentation-old","83","257232","0.0-23.0-1.1","SS1618435652058","trial","","40","500","593.6899999997113","images/stimuli/spore_stims/simple_19_A_b.gif","images/stimuli/spore_stims/simple_15_A_a.gif","self_paced","","7","simple_dissimilar","images/stimuli/spore_stims/simple_15_A_a.gif","","","","",""
"","null","html-keyboard-response","84","258417","0.0-23.0-0.2","SS1618435652058","","","null","","","","","","<p><img src= images/blank.png width =""600"" height = ""600"" style=""position:fixed;top:50%; left:50%; transform: translate(-50%, -50%); border:5px solid black"">","","","","","","","",""
"","102.87499999866122","sequential-stimulus-presentation-old","85","259024","0.0-23.0-1.2","SS1618435652058","trial","","40","500","602.8749999986612","images/stimuli/spore_stims/simple_19_A_b.gif","images/stimuli/spore_stims/simple_15_A_a.gif","self_paced","","7","simple_dissimilar","images/stimuli/spore_stims/simple_15_A_a.gif","","","","",""
"","null","html-keyboard-response","86","260247","0.0-23.0-0.3","SS1618435652058","","","null","","","","","","<p><img src= images/blank.png width =""600"" height = ""600"" style=""position:fixed;top:50%; left:50%; transform: translate(-50%, -50%); border:5px solid black"">","","","","","","","",""
"","174.56999999925029","sequential-stimulus-presentation-old","87","260925","0.0-23.0-1.3","SS1618435652058","trial","","40","500","674.5699999992503","images/stimuli/spore_stims/simple_19_A_b.gif","images/stimuli/spore_stims/simple_15_A_a.gif","self_paced","","7","simple_dissimilar","images/stimuli/spore_stims/simple_19_A_b.gif","","","","",""
"","null","html-keyboard-response","88","261968","0.0-23.0-0.4","SS1618435652058","","","null","","","","","","<p><img src= images/blank.png width =""600"" height = ""600"" style=""position:fixed;top:50%; left:50%; transform: translate(-50%, -50%); border:5px solid black"">","","","","","","","",""
"","166.09999999857973","sequential-stimulus-presentation-old","89","262638","0.0-23.0-1.4","SS1618435652058","trial","","40","500","666.0999999985797","images/stimuli/spore_stims/simple_19_A_b.gif","images/stimuli/spore_stims/simple_15_A_a.gif","self_paced","","7","simple_dissimilar","images/stimuli/spore_stims/simple_15_A_a.gif","","","","",""
"","null","html-keyboard-response","90","263644","0.0-23.0-0.5","SS1618435652058","","","null","","","","","","<p><img src= images/blank.png width =""600"" height = ""600"" style=""position:fixed;top:50%; left:50%; transform: translate(-50%, -50%); border:5px solid black"">","","","","","","","",""
"","130.51000000088243","sequential-stimulus-presentation-old","91","264278","0.0-23.0-1.5","SS1618435652058","trial","","40","500","630.5100000008824","images/stimuli/spore_stims/simple_19_A_b.gif","images/stimuli/spore_stims/simple_15_A_a.gif","self_paced","","7","simple_dissimilar","images/stimuli/spore_stims/simple_15_A_a.gif","","","","",""
"","3320.695000000298","survey-multi-choice","92","267601","0.0-24.0","SS1618435652058","math_question","","","","","","","","","","","","{""Q0"":""14""}","[0]","14","",""
"","null","html-keyboard-response","93","268624","0.0-25.0-0.0","SS1618435652058","","","null","","","","","","<p><img src= images/blank.png width =""600"" height = ""600"" style=""position:fixed;top:50%; left:50%; transform: translate(-50%, -50%); border:5px solid black"">","","","","","","","",""
"","268.8550000002724","sequential-stimulus-presentation-old","94","268964","0.0-25.0-1.0","SS1618435652058","trial","","40","500","768.8550000002724","images/stimuli/spore_stims/complex_16_A_a.gif","images/stimuli/spore_stims/complex_07_A_b.gif","forced_short","","8","complex_dissimilar","images/stimuli/spore_stims/complex_07_A_b.gif","","","","",""
"","null","html-keyboard-response","95","270150","0.0-25.0-0.1","SS1618435652058","","","null","","","","","","<p><img src= images/blank.png width =""600"" height = ""600"" style=""position:fixed;top:50%; left:50%; transform: translate(-50%, -50%); border:5px solid black"">","","","","","","","",""
"","38.42000000079861","sequential-stimulus-presentation-old","96","270693","0.0-25.0-1.1","SS1618435652058","trial","","40","500","538.4200000007986","images/stimuli/spore_stims/complex_16_A_a.gif","images/stimuli/spore_stims/complex_07_A_b.gif","forced_short","","8","complex_dissimilar","images/stimuli/spore_stims/complex_07_A_b.gif","","","","",""
"","null","html-keyboard-response","97","271588","0.0-25.0-0.2","SS1618435652058","","","null","","","","","","<p><img src= images/blank.png width =""600"" height = ""600"" style=""position:fixed;top:50%; left:50%; transform: translate(-50%, -50%); border:5px solid black"">","","","","","","","",""
"","104.38499999872874","sequential-stimulus-presentation-old","98","272200","0.0-25.0-1.2","SS1618435652058","trial","","40","500","604.3849999987287","images/stimuli/spore_stims/complex_16_A_a.gif","images/stimuli/spore_stims/complex_07_A_b.gif","forced_short","","8","complex_dissimilar","images/stimuli/spore_stims/complex_07_A_b.gif","","","","",""
"","null","html-keyboard-response","99","273497","0.0-25.0-0.3","SS1618435652058","","","null","","","","","","<p><img src= images/blank.png width =""600"" height = ""600"" style=""position:fixed;top:50%; left:50%; transform: translate(-50%, -50%); border:5px solid black"">","","","","","","","",""
"","162.12000000086846","sequential-stimulus-presentation-old","100","274176","0.0-25.0-1.3","SS1618435652058","trial","","40","500","662.1200000008685","images/stimuli/spore_stims/complex_16_A_a.gif","images/stimuli/spore_stims/complex_07_A_b.gif","forced_short","","8","complex_dissimilar","images/stimuli/spore_stims/complex_07_A_b.gif","","","","",""
"","null","html-keyboard-response","101","275157","0.0-25.0-0.4","SS1618435652058","","","null","","","","","","<p><img src= images/blank.png width =""600"" height = ""600"" style=""position:fixed;top:50%; left:50%; transform: translate(-50%, -50%); border:5px solid black"">","","","","","","","",""
"","125.79999999981374","sequential-stimulus-presentation-old","102","275787","0.0-25.0-1.4","SS1618435652058","trial","","40","500","625.7999999998137","images/stimuli/spore_stims/complex_16_A_a.gif","images/stimuli/spore_stims/complex_07_A_b.gif","forced_short","","8","complex_dissimilar","images/stimuli/spore_stims/complex_16_A_a.gif","","","","",""
"","5962.44999999908","survey-multi-choice","103","281751","0.0-26.0","SS1618435652058","math_question","","","","","","","","","","","","{""Q0"":""13""}","[0]","13","",""
"","null","html-keyboard-response","104","282639","0.0-27.0-0.0","SS1618435652058","","","null","","","","","","<p><img src= images/blank.png width =""600"" height = ""600"" style=""position:fixed;top:50%; left:50%; transform: translate(-50%, -50%); border:5px solid black"">","","","","","","","",""
"","156.6449999990873","sequential-stimulus-presentation-old","105","283301","0.0-27.0-1.0","SS1618435652058","trial","","40","500","656.6449999990873","images/stimuli/spore_stims/complex_05_A_b.gif","images/stimuli/spore_stims/complex_03_A_a.gif","self_paced","","9","complex_dissimilar","images/stimuli/spore_stims/complex_03_A_a.gif","","","","",""
"","null","html-keyboard-response","106","284555","0.0-27.0-0.1","SS1618435652058","","","null","","","","","","<p><img src= images/blank.png width =""600"" height = ""600"" style=""position:fixed;top:50%; left:50%; transform: translate(-50%, -50%); border:5px solid black"">","","","","","","","",""
"","124.32499999884749","sequential-stimulus-presentation-old","107","285192","0.0-27.0-1.1","SS1618435652058","trial","","40","500","624.3249999988475","images/stimuli/spore_stims/complex_05_A_b.gif","images/stimuli/spore_stims/complex_03_A_a.gif","self_paced","","9","complex_dissimilar","images/stimuli/spore_stims/complex_03_A_a.gif","","","","",""
"","null","html-keyboard-response","108","286231","0.0-27.0-0.2","SS1618435652058","","","null","","","","","","<p><img src= images/blank.png width =""600"" height = ""600"" style=""position:fixed;top:50%; left:50%; transform: translate(-50%, -50%); border:5px solid black"">","","","","","","","",""
"","179.18499999906635","sequential-stimulus-presentation-old","109","286914","0.0-27.0-1.2","SS1618435652058","trial","","40","500","679.1849999990663","images/stimuli/spore_stims/complex_05_A_b.gif","images/stimuli/spore_stims/complex_03_A_a.gif","self_paced","","9","complex_dissimilar","images/stimuli/spore_stims/complex_03_A_a.gif","","","","",""
"","null","html-keyboard-response","110","288030","0.0-27.0-0.3","SS1618435652058","","","null","","","","","","<p><img src= images/blank.png width =""600"" height = ""600"" style=""position:fixed;top:50%; left:50%; transform: translate(-50%, -50%); border:5px solid black"">","","","","","","","",""
"","102.73000000056345","sequential-stimulus-presentation-old","111","288637","0.0-27.0-1.3","SS1618435652058","trial","","40","500","602.7300000005635","images/stimuli/spore_stims/complex_05_A_b.gif","images/stimuli/spore_stims/complex_03_A_a.gif","self_paced","","9","complex_dissimilar","images/stimuli/spore_stims/complex_03_A_a.gif","","","","",""
"","null","html-keyboard-response","112","289499","0.0-27.0-0.4","SS1618435652058","","","null","","","","","","<p><img src= images/blank.png width =""600"" height = ""600"" style=""position:fixed;top:50%; left:50%; transform: translate(-50%, -50%); border:5px solid black"">","","","","","","","",""
"","56.370000000228174","sequential-stimulus-presentation-old","113","290060","0.0-27.0-1.4","SS1618435652058","trial","","40","500","556.3700000002282","images/stimuli/spore_stims/complex_05_A_b.gif","images/stimuli/spore_stims/complex_03_A_a.gif","self_paced","","9","complex_dissimilar","images/stimuli/spore_stims/complex_03_A_a.gif","","","","",""
"","null","html-keyboard-response","114","291220","0.0-27.0-0.5","SS1618435652058","","","null","","","","","","<p><img src= images/blank.png width =""600"" height = ""600"" style=""position:fixed;top:50%; left:50%; transform: translate(-50%, -50%); border:5px solid black"">","","","","","","","",""
"","139.97999999992317","sequential-stimulus-presentation-old","115","291864","0.0-27.0-1.5","SS1618435652058","trial","","40","500","639.9799999999232","images/stimuli/spore_stims/complex_05_A_b.gif","images/stimuli/spore_stims/complex_03_A_a.gif","self_paced","","9","complex_dissimilar","images/stimuli/spore_stims/complex_05_A_b.gif","","","","",""
"","3580.4499999994878","survey-multi-choice","116","295448","0.0-28.0","SS1618435652058","math_question","","","","","","","","","","","","{""Q0"":""7""}","[0]","7","",""
"","null","html-keyboard-response","117","296728","0.0-29.0-0.0","SS1618435652058","","","null","","","","","","<p><img src= images/blank.png width =""600"" height = ""600"" style=""position:fixed;top:50%; left:50%; transform: translate(-50%, -50%); border:5px solid black"">","","","","","","","",""
"","296.6500000002561","sequential-stimulus-presentation-old","118","297087","0.0-29.0-1.0","SS1618435652058","trial","","40","500","796.6500000002561","images/stimuli/spore_stims/simple_11_A_b.gif","images/stimuli/spore_stims/simple_14_A_a.gif","forced_short","","10","simple_dissimilar","images/stimuli/spore_stims/simple_14_A_a.gif","","","","",""
"","null","html-keyboard-response","119","298339","0.0-29.0-0.1","SS1618435652058","","","null","","","","","","<p><img src= images/blank.png width =""600"" height = ""600"" style=""position:fixed;top:50%; left:50%; transform: translate(-50%, -50%); border:5px solid black"">","","","","","","","",""
"","93.67500000004657","sequential-stimulus-presentation-old","120","298937","0.0-29.0-1.1","SS1618435652058","trial","","40","500","593.6750000000466","images/stimuli/spore_stims/simple_11_A_b.gif","images/stimuli/spore_stims/simple_14_A_a.gif","forced_short","","10","simple_dissimilar","images/stimuli/spore_stims/simple_14_A_a.gif","","","","",""
"","null","html-keyboard-response","121","300215","0.0-29.0-0.2","SS1618435652058","","","null","","","","","","<p><img src= images/blank.png width =""600"" height = ""600"" style=""position:fixed;top:50%; left:50%; transform: translate(-50%, -50%); border:5px solid black"">","","","","","","","",""
"","82.59499999985565","sequential-stimulus-presentation-old","122","300803","0.0-29.0-1.2","SS1618435652058","trial","","40","500","582.5949999998556","images/stimuli/spore_stims/simple_11_A_b.gif","images/stimuli/spore_stims/simple_14_A_a.gif","forced_short","","10","simple_dissimilar","images/stimuli/spore_stims/simple_14_A_a.gif","","","","",""
"","null","html-keyboard-response","123","301638","0.0-29.0-0.3","SS1618435652058","","","null","","","","","","<p><img src= images/blank.png width =""600"" height = ""600"" style=""position:fixed;top:50%; left:50%; transform: translate(-50%, -50%); border:5px solid black"">","","","","","","","",""
"","196.5249999994412","sequential-stimulus-presentation-old","124","302339","0.0-29.0-1.3","SS1618435652058","trial","","40","500","696.5249999994412","images/stimuli/spore_stims/simple_11_A_b.gif","images/stimuli/spore_stims/simple_14_A_a.gif","forced_short","","10","simple_dissimilar","images/stimuli/spore_stims/simple_14_A_a.gif","","","","",""
"","null","html-keyboard-response","125","303161","0.0-29.0-0.4","SS1618435652058","","","null","","","","","","<p><img src= images/blank.png width =""600"" height = ""600"" style=""position:fixed;top:50%; left:50%; transform: translate(-50%, -50%); border:5px solid black"">","","","","","","","",""
"","77.44499999895925","sequential-stimulus-presentation-old","126","303745","0.0-29.0-1.4","SS1618435652058","trial","","40","500","577.4449999989592","images/stimuli/spore_stims/simple_11_A_b.gif","images/stimuli/spore_stims/simple_14_A_a.gif","forced_short","","10","simple_dissimilar","images/stimuli/spore_stims/simple_14_A_a.gif","","","","",""
"","null","html-keyboard-response","127","304800","0.0-29.0-0.5","SS1618435652058","","","null","","","","","","<p><img src= images/blank.png width =""600"" height = ""600"" style=""position:fixed;top:50%; left:50%; transform: translate(-50%, -50%); border:5px solid black"">","","","","","","","",""
"","64.50000000040745","sequential-stimulus-presentation-old","128","305370","0.0-29.0-1.5","SS1618435652058","trial","","40","500","564.5000000004075","images/stimuli/spore_stims/simple_11_A_b.gif","images/stimuli/spore_stims/simple_14_A_a.gif","forced_short","","10","simple_dissimilar","images/stimuli/spore_stims/simple_11_A_b.gif","","","","",""
"","3743.329999999318","survey-multi-choice","129","309117","0.0-30.0","SS1618435652058","math_question","","","","","","","","","","","","{""Q0"":""10""}","[0]","10","",""
"","null","html-keyboard-response","130","310289","0.0-31.0-0.0","SS1618435652058","","","null","","","","","","<p><img src= images/blank.png width =""600"" height = ""600"" style=""position:fixed;top:50%; left:50%; transform: translate(-50%, -50%); border:5px solid black"">","","","","","","","",""
"","6460.064999999304","sequential-stimulus-presentation-old","131","321753","0.0-31.0-1.0","SS1618435652058","trial","","40","500","6960.064999999304","images/stimuli/spore_stims/simple_06_A_b.gif","images/stimuli/spore_stims/simple_01_A_a.gif","forced_long","","11","simple_dissimilar","images/stimuli/spore_stims/simple_01_A_a.gif","","","","",""
"","null","html-keyboard-response","132","322932","0.0-31.0-0.1","SS1618435652058","","","null","","","","","","<p><img src= images/blank.png width =""600"" height = ""600"" style=""position:fixed;top:50%; left:50%; transform: translate(-50%, -50%); border:5px solid black"">","","","","","","","",""
"","124.33500000042841","sequential-stimulus-presentation-old","133","323563","0.0-31.0-1.1","SS1618435652058","trial","","40","500","624.3350000004284","images/stimuli/spore_stims/simple_06_A_b.gif","images/stimuli/spore_stims/simple_01_A_a.gif","forced_long","","11","simple_dissimilar","images/stimuli/spore_stims/simple_01_A_a.gif","","","","",""
"","null","html-keyboard-response","134","324387","0.0-31.0-0.2","SS1618435652058","","","null","","","","","","<p><img src= images/blank.png width =""600"" height = ""600"" style=""position:fixed;top:50%; left:50%; transform: translate(-50%, -50%); border:5px solid black"">","","","","","","","",""
"","200.87500000046566","sequential-stimulus-presentation-old","135","325104","0.0-31.0-1.2","SS1618435652058","trial","","40","500","700.8750000004657","images/stimuli/spore_stims/simple_06_A_b.gif","images/stimuli/spore_stims/simple_01_A_a.gif","forced_long","","11","simple_dissimilar","images/stimuli/spore_stims/simple_01_A_a.gif","","","","",""
"","null","html-keyboard-response","136","326107","0.0-31.0-0.3","SS1618435652058","","","null","","","","","","<p><img src= images/blank.png width =""600"" height = ""600"" style=""position:fixed;top:50%; left:50%; transform: translate(-50%, -50%); border:5px solid black"">","","","","","","","",""
"","84.48499999940395","sequential-stimulus-presentation-old","137","326696","0.0-31.0-1.3","SS1618435652058","trial","","40","500","584.484999999404","images/stimuli/spore_stims/simple_06_A_b.gif","images/stimuli/spore_stims/simple_01_A_a.gif","forced_long","","11","simple_dissimilar","images/stimuli/spore_stims/simple_01_A_a.gif","","","","",""
"","null","html-keyboard-response","138","327907","0.0-31.0-0.4","SS1618435652058","","","null","","","","","","<p><img src= images/blank.png width =""600"" height = ""600"" style=""position:fixed;top:50%; left:50%; transform: translate(-50%, -50%); border:5px solid black"">","","","","","","","",""
"","77.53500000032363","sequential-stimulus-presentation-old","139","328497","0.0-31.0-1.4","SS1618435652058","trial","","40","500","577.5350000003236","images/stimuli/spore_stims/simple_06_A_b.gif","images/stimuli/spore_stims/simple_01_A_a.gif","forced_long","","11","simple_dissimilar","images/stimuli/spore_stims/simple_01_A_a.gif","","","","",""
"","null","html-keyboard-response","140","329768","0.0-31.0-0.5","SS1618435652058","","","null","","","","","","<p><img src= images/blank.png width =""600"" height = ""600"" style=""position:fixed;top:50%; left:50%; transform: translate(-50%, -50%); border:5px solid black"">","","","","","","","",""
"","132.72500000125729","sequential-stimulus-presentation-old","141","330405","0.0-31.0-1.5","SS1618435652058","trial","","40","500","632.7250000012573","images/stimuli/spore_stims/simple_06_A_b.gif","images/stimuli/spore_stims/simple_01_A_a.gif","forced_long","","11","simple_dissimilar","images/stimuli/spore_stims/simple_01_A_a.gif","","","","",""
"[{""page_index"":0,""viewing_time"":3663.730000000214}]","3663.939999998547","instructions","142","334072","0.0-32.0","SS1618435652058","instructions","","","","","","","","","","","","","","","",""
"","4898.554999999702","survey-likert","143","338977","0.0-33.0","SS1618435652058","similarity_question","","","","","","","","","","","","{""Q0"":4}","[0]","","images/stimuli/spore_stims/complex_08_A_a.gif","images/stimuli/spore_stims/complex_11_A_b.gif"
"","4003.6849999997066","survey-likert","144","342987","0.0-34.0","SS1618435652058","similarity_question","","","","","","","","","","","","{""Q0"":6}","[0]","","images/stimuli/spore_stims/simple_08_A_a.gif","images/stimuli/spore_stims/simple_10_A_b.gif"
"","6119.774999999208","survey-likert","145","349112","0.0-35.0","SS1618435652058","similarity_question","","","","","","","","","","","","{""Q0"":1}","[0]","","images/stimuli/spore_stims/simple_01_A_b.gif","images/stimuli/spore_stims/simple_19_A_a.gif"
"","3794.8200000009383","survey-likert","146","352914","0.0-36.0","SS1618435652058","similarity_question","","","","","","","","","","","","{""Q0"":4}","[0]","","images/stimuli/spore_stims/simple_20_A_b.gif","images/stimuli/spore_stims/simple_13_A_a.gif"
"","4283.910000000091","survey-likert","147","357204","0.0-37.0","SS1618435652058","similarity_question","","","","","","","","","","","","{""Q0"":5}","[0]","","images/stimuli/spore_stims/complex_14_A_b.gif","images/stimuli/spore_stims/complex_15_A_a.gif"
"","3831.71000000037","survey-likert","148","361046","0.0-38.0","SS1618435652058","similarity_question","","","","","","","","","","","","{""Q0"":6}","[0]","","images/stimuli/spore_stims/simple_01_A_a.gif","images/stimuli/spore_stims/simple_06_A_b.gif"
"","4189.8199999995995","survey-likert","149","365241","0.0-39.0","SS1618435652058","similarity_question","","","","","","","","","","","","{""Q0"":6}","[0]","","images/stimuli/spore_stims/complex_09_A_b.gif","images/stimuli/spore_stims/complex_06_A_a.gif"
"","5464.475000000675","survey-likert","150","370711","0.0-40.0","SS1618435652058","similarity_question","","","","","","","","","","","","{""Q0"":5}","[0]","","images/stimuli/spore_stims/complex_05_A_b.gif","images/stimuli/spore_stims/complex_03_A_a.gif"
"","4441.710000000952","survey-likert","151","375158","0.0-41.0","SS1618435652058","similarity_question","","","","","","","","","","","","{""Q0"":6}","[0]","","images/stimuli/spore_stims/complex_06_A_b.gif","images/stimuli/spore_stims/complex_09_A_a.gif"
"","3564.9049999992712","survey-likert","152","378730","0.0-42.0","SS1618435652058","similarity_question","","","","","","","","","","","","{""Q0"":6}","[0]","","images/stimuli/spore_stims/complex_07_A_b.gif","images/stimuli/spore_stims/complex_16_A_a.gif"
"","9050.54999999993","survey-likert","153","387786","0.0-43.0","SS1618435652058","similarity_question","","","","","","","","","","","","{""Q0"":3}","[0]","","images/stimuli/spore_stims/simple_15_A_a.gif","images/stimuli/spore_stims/simple_19_A_b.gif"
"","3390.8700000011013","survey-likert","154","391184","0.0-44.0","SS1618435652058","similarity_question","","","","","","","","","","","","{""Q0"":5}","[0]","","images/stimuli/spore_stims/simple_14_A_a.gif","images/stimuli/spore_stims/simple_11_A_b.gif"
"[{""page_index"":0,""viewing_time"":3789.4149999992806}]","3789.6149999996996","instructions","155","394978","0.0-45.0","SS1618435652058","instructions","","","","","","","","","","","","","","","",""
"","4492.275000000547","survey-likert","156","399475","0.0-46.0","SS1618435652058","","","","","","","","","images/stimuli/spore_stims/complex_06_A_a.gif","","","","{""Q0"":5}","[0]","","",""
"","5295.954999999609","survey-likert","157","404776","0.0-47.0","SS1618435652058","","","","","","","","","images/stimuli/spore_stims/complex_16_A_a.gif","","","","{""Q0"":2}","[0]","","",""
"","7150.615000000456","survey-likert","158","411931","0.0-48.0","SS1618435652058","","","","","","","","","images/stimuli/spore_stims/complex_14_A_b.gif","","","","{""Q0"":2}","[0]","","",""
"","6173.354999998934","survey-likert","159","418110","0.0-49.0","SS1618435652058","","","","","","","","","images/stimuli/spore_stims/complex_05_A_b.gif","","","","{""Q0"":2}","[0]","","",""
"","4012.1400000007125","survey-likert","160","422128","0.0-50.0","SS1618435652058","","","","","","","","","images/stimuli/spore_stims/complex_06_A_b.gif","","","","{""Q0"":5}","[0]","","",""
"","3233.3500000004424","survey-likert","161","425368","0.0-51.0","SS1618435652058","","","","","","","","","images/stimuli/spore_stims/simple_13_A_a.gif","","","","{""Q0"":0}","[0]","","",""
"","2680.915000000852","survey-likert","162","428054","0.0-52.0","SS1618435652058","","","","","","","","","images/stimuli/spore_stims/simple_01_A_a.gif","","","","{""Q0"":0}","[0]","","",""
"","3228.9500000005937","survey-likert","163","431288","0.0-53.0","SS1618435652058","","","","","","","","","images/stimuli/spore_stims/simple_10_A_b.gif","","","","{""Q0"":0}","[0]","","",""
"","2977.925000001036","survey-likert","164","434272","0.0-54.0","SS1618435652058","","","","","","","","","images/stimuli/spore_stims/simple_01_A_b.gif","","","","{""Q0"":0}","[0]","","",""
"","5229.900000000256","survey-likert","165","439510","0.0-55.0","SS1618435652058","","","","","","","","","images/stimuli/spore_stims/complex_11_A_b.gif","","","","{""Q0"":4}","[0]","","",""
"","4664.299999998533","survey-likert","166","444178","0.0-56.0","SS1618435652058","","","","","","","","","images/stimuli/spore_stims/simple_19_A_b.gif","","","","{""Q0"":0}","[0]","","",""
"","3545.8199999993667","survey-likert","167","447729","0.0-57.0","SS1618435652058","","","","","","","","","images/stimuli/spore_stims/simple_14_A_a.gif","","","","{""Q0"":0}","[0]","","",""
"[{""page_index"":0,""viewing_time"":2293.52999999898}]","2293.8699999994715","instructions","168","450027","0.0-58.0","SS1618435652058","instructions","","","","","","","","","","","","","","","",""
"","3315.3149999998277","demog-age","169","453354","0.0-59.0","SS1618435652058","","","","","","","","","","","","","{""age"":""30""}","","","",""
"","2972.109999998822","demog-ethnic-US","170","456337","0.0-60.0","SS1618435652058","","","","","","","","","","","","","{""ethnicity"":[""Asian""]}","[0]","","",""
"","5406.169999998354","demog-gender-and-education","171","461749","0.0-61.0","SS1618435652058","","","","","","","","","","","","","{""gender"":""Female"",""education"":""Master's Degree""}","[0,1]","","",""
"","7914.7400000002235","survey-text","172","469663","0.0-62.0","SS1618435652058","feedback","","","","","","","","","","","","{""Q0"":""no""}","","","",""
"[{""page_index"":0,""viewing_time"":1464.9300000000512}]","1465.1800000010408","instructions","173","471134","0.0-63.0","SS1618435652058","instructions","","","","","","","","","","","","","","","",""
