"view_history","rt","trial_type","trial_index","time_elapsed","internal_node_id","subject","stimulus_type","trial_stimulus","key_press","minimum_viewing_duration","trial_looking_time","block_deviant","block_background","exposure_type","stimulus","block_number","block_type","stimulus_displayed","responses","question_order","math_correct_answer","stimulus_left","stimulus_right"
"[{""page_index"":0,""viewing_time"":3953.640000006999}]","3954.9800000095274","instructions","0","3959","0.0-0.0","SS1618436397626","","","","","","","","","","","","","","","","",""
"[{""page_index"":0,""viewing_time"":27089.78000000934},{""page_index"":1,""viewing_time"":13560.205000001588}]","40650.99000000919","instructions","1","46652","0.0-1.0","SS1618436397626","instructions","","","","","","","","","","","","","","","",""
"","10839.519999994081","sequential-stimulus-presentation-old","2","58009","0.0-2.0","SS1618436397626","","","40","500","11339.519999994081","null","null","self_paced","","","","","","","","",""
"","10390.3100000025","sequential-stimulus-presentation-old","3","68908","0.0-3.0","SS1618436397626","","","40","500","10890.3100000025","null","null","self_paced","","","","","","","","",""
"[{""page_index"":0,""viewing_time"":30826.520000002347}]","30826.939999999013","instructions","4","99726","0.0-4.0","SS1618436397626","instructions","","","","","","","","","","","","","","","",""
"","13031.344999995781","sequential-stimulus-presentation-old","5","117779","0.0-5.0","SS1618436397626","","","40","500","13531.344999995781","null","null","forced_long","","","","","","","","",""
"","14442.934999999125","sequential-stimulus-presentation-old","6","132278","0.0-6.0","SS1618436397626","","","40","50","14492.934999999125","null","null","forced_long","","","","","","","","",""
"[{""page_index"":0,""viewing_time"":10786.694999987958}]","10787.234999996144","instructions","7","143070","0.0-7.0","SS1618436397626","instructions","","","","","","","","","","","","","","","",""
"[{""page_index"":0,""viewing_time"":19544.59499999939},{""page_index"":1,""viewing_time"":33351.98999999557},{""page_index"":2,""viewing_time"":16302.785000007134},{""page_index"":3,""viewing_time"":6205.539999995381},{""page_index"":4,""viewing_time"":5882.140000001527}]","81287.55500000261","instructions","8","224372","0.0-8.0","SS1618436397626","instructions","","","","","","","","","","","","","","","",""
"","null","html-keyboard-response","9","225358","0.0-9.0-0.0","SS1618436397626","","","null","","","","","","<p><img src= images/blank.png width =""600"" height = ""600"" style=""position:fixed;top:50%; left:50%; transform: translate(-50%, -50%); border:5px solid black"">","","","","","","","",""
"","1448.9099999918835","sequential-stimulus-presentation-old","10","231908","0.0-9.0-1.0","SS1618436397626","trial","","40","500","1948.9099999918835","images/stimuli/spore_stims/complex_03_A_b.gif","images/stimuli/spore_stims/complex_20_A_a.gif","forced_long","","0","complex_dissimilar","images/stimuli/spore_stims/complex_20_A_a.gif","","","","",""
"","null","html-keyboard-response","11","232890","0.0-9.0-0.1","SS1618436397626","","","null","","","","","","<p><img src= images/blank.png width =""600"" height = ""600"" style=""position:fixed;top:50%; left:50%; transform: translate(-50%, -50%); border:5px solid black"">","","","","","","","",""
"","14374.934999999823","sequential-stimulus-presentation-old","12","247779","0.0-9.0-1.1","SS1618436397626","trial","","40","500","14874.934999999823","images/stimuli/spore_stims/complex_03_A_b.gif","images/stimuli/spore_stims/complex_20_A_a.gif","forced_long","","0","complex_dissimilar","images/stimuli/spore_stims/complex_20_A_a.gif","","","","",""
"","null","html-keyboard-response","13","248991","0.0-9.0-0.2","SS1618436397626","","","null","","","","","","<p><img src= images/blank.png width =""600"" height = ""600"" style=""position:fixed;top:50%; left:50%; transform: translate(-50%, -50%); border:5px solid black"">","","","","","","","",""
"","14025.68499998597","sequential-stimulus-presentation-old","14","263543","0.0-9.0-1.2","SS1618436397626","trial","","40","500","14525.68499998597","images/stimuli/spore_stims/complex_03_A_b.gif","images/stimuli/spore_stims/complex_20_A_a.gif","forced_long","","0","complex_dissimilar","images/stimuli/spore_stims/complex_20_A_a.gif","","","","",""
"","null","html-keyboard-response","15","264655","0.0-9.0-0.3","SS1618436397626","","","null","","","","","","<p><img src= images/blank.png width =""600"" height = ""600"" style=""position:fixed;top:50%; left:50%; transform: translate(-50%, -50%); border:5px solid black"">","","","","","","","",""
"","13185.854999988806","sequential-stimulus-presentation-old","16","278381","0.0-9.0-1.3","SS1618436397626","trial","","40","500","13685.854999988806","images/stimuli/spore_stims/complex_03_A_b.gif","images/stimuli/spore_stims/complex_20_A_a.gif","forced_long","","0","complex_dissimilar","images/stimuli/spore_stims/complex_20_A_a.gif","","","","",""
"","6914.890000000014","survey-multi-choice","17","285308","0.0-10.0","SS1618436397626","math_question","","","","","","","","","","","","{""Q0"":""3""}","[0]","3","",""
"","null","html-keyboard-response","18","286341","0.0-11.0-0.0","SS1618436397626","","","null","","","","","","<p><img src= images/blank.png width =""600"" height = ""600"" style=""position:fixed;top:50%; left:50%; transform: translate(-50%, -50%); border:5px solid black"">","","","","","","","",""
"","1430.8899999887217","sequential-stimulus-presentation-old","19","287974","0.0-11.0-1.0","SS1618436397626","trial","","40","500","1930.8899999887217","images/stimuli/spore_stims/complex_17_A_b.gif","images/stimuli/spore_stims/complex_13_A_a.gif","forced_short","","1","complex_dissimilar","images/stimuli/spore_stims/complex_13_A_a.gif","","","","",""
"","null","html-keyboard-response","20","289171","0.0-11.0-0.1","SS1618436397626","","","null","","","","","","<p><img src= images/blank.png width =""600"" height = ""600"" style=""position:fixed;top:50%; left:50%; transform: translate(-50%, -50%); border:5px solid black"">","","","","","","","",""
"","11263.24499999464","sequential-stimulus-presentation-old","21","300939","0.0-11.0-1.1","SS1618436397626","trial","","40","500","11763.24499999464","images/stimuli/spore_stims/complex_17_A_b.gif","images/stimuli/spore_stims/complex_13_A_a.gif","forced_short","","1","complex_dissimilar","images/stimuli/spore_stims/complex_13_A_a.gif","","","","",""
"","null","html-keyboard-response","22","302228","0.0-11.0-0.2","SS1618436397626","","","null","","","","","","<p><img src= images/blank.png width =""600"" height = ""600"" style=""position:fixed;top:50%; left:50%; transform: translate(-50%, -50%); border:5px solid black"">","","","","","","","",""
"","9537.509999994654","sequential-stimulus-presentation-old","23","312343","0.0-11.0-1.2","SS1618436397626","trial","","40","500","10037.509999994654","images/stimuli/spore_stims/complex_17_A_b.gif","images/stimuli/spore_stims/complex_13_A_a.gif","forced_short","","1","complex_dissimilar","images/stimuli/spore_stims/complex_17_A_b.gif","","","","",""
"","null","html-keyboard-response","24","313250","0.0-11.0-0.3","SS1618436397626","","","null","","","","","","<p><img src= images/blank.png width =""600"" height = ""600"" style=""position:fixed;top:50%; left:50%; transform: translate(-50%, -50%); border:5px solid black"">","","","","","","","",""
"","9548.569999999017","sequential-stimulus-presentation-old","25","323309","0.0-11.0-1.3","SS1618436397626","trial","","40","500","10048.569999999017","images/stimuli/spore_stims/complex_17_A_b.gif","images/stimuli/spore_stims/complex_13_A_a.gif","forced_short","","1","complex_dissimilar","images/stimuli/spore_stims/complex_13_A_a.gif","","","","",""
"","null","html-keyboard-response","26","324460","0.0-11.0-0.4","SS1618436397626","","","null","","","","","","<p><img src= images/blank.png width =""600"" height = ""600"" style=""position:fixed;top:50%; left:50%; transform: translate(-50%, -50%); border:5px solid black"">","","","","","","","",""
"","8496.86000001384","sequential-stimulus-presentation-old","27","333464","0.0-11.0-1.4","SS1618436397626","trial","","40","500","8996.86000001384","images/stimuli/spore_stims/complex_17_A_b.gif","images/stimuli/spore_stims/complex_13_A_a.gif","forced_short","","1","complex_dissimilar","images/stimuli/spore_stims/complex_17_A_b.gif","","","","",""
"","null","html-keyboard-response","28","334624","0.0-11.0-0.5","SS1618436397626","","","null","","","","","","<p><img src= images/blank.png width =""600"" height = ""600"" style=""position:fixed;top:50%; left:50%; transform: translate(-50%, -50%); border:5px solid black"">","","","","","","","",""
"","10696.765000000596","sequential-stimulus-presentation-old","29","345869","0.0-11.0-1.5","SS1618436397626","trial","","40","500","11196.765000000596","images/stimuli/spore_stims/complex_17_A_b.gif","images/stimuli/spore_stims/complex_13_A_a.gif","forced_short","","1","complex_dissimilar","images/stimuli/spore_stims/complex_13_A_a.gif","","","","",""
"","10037.729999996372","survey-multi-choice","30","355916","0.0-12.0","SS1618436397626","math_question","","","","","","","","","","","","{""Q0"":""18""}","[0]","18","",""
"","null","html-keyboard-response","31","356874","0.0-13.0-0.0","SS1618436397626","","","null","","","","","","<p><img src= images/blank.png width =""600"" height = ""600"" style=""position:fixed;top:50%; left:50%; transform: translate(-50%, -50%); border:5px solid black"">","","","","","","","",""
"","1182.1599999966566","sequential-stimulus-presentation-old","32","358120","0.0-13.0-1.0","SS1618436397626","trial","","40","500","1682.1599999966566","images/stimuli/spore_stims/complex_07_A_a.gif","images/stimuli/spore_stims/complex_20_A_b.gif","forced_short","","2","complex_dissimilar","images/stimuli/spore_stims/complex_20_A_b.gif","","","","",""
"","null","html-keyboard-response","33","359261","0.0-13.0-0.1","SS1618436397626","","","null","","","","","","<p><img src= images/blank.png width =""600"" height = ""600"" style=""position:fixed;top:50%; left:50%; transform: translate(-50%, -50%); border:5px solid black"">","","","","","","","",""
"","11611.52000000584","sequential-stimulus-presentation-old","34","371385","0.0-13.0-1.1","SS1618436397626","trial","","40","500","12111.52000000584","images/stimuli/spore_stims/complex_07_A_a.gif","images/stimuli/spore_stims/complex_20_A_b.gif","forced_short","","2","complex_dissimilar","images/stimuli/spore_stims/complex_20_A_b.gif","","","","",""
"","null","html-keyboard-response","35","372297","0.0-13.0-0.2","SS1618436397626","","","null","","","","","","<p><img src= images/blank.png width =""600"" height = ""600"" style=""position:fixed;top:50%; left:50%; transform: translate(-50%, -50%); border:5px solid black"">","","","","","","","",""
"","11042.654999997467","sequential-stimulus-presentation-old","36","383848","0.0-13.0-1.2","SS1618436397626","trial","","40","500","11542.654999997467","images/stimuli/spore_stims/complex_07_A_a.gif","images/stimuli/spore_stims/complex_20_A_b.gif","forced_short","","2","complex_dissimilar","images/stimuli/spore_stims/complex_20_A_b.gif","","","","",""
"","null","html-keyboard-response","37","385028","0.0-13.0-0.3","SS1618436397626","","","null","","","","","","<p><img src= images/blank.png width =""600"" height = ""600"" style=""position:fixed;top:50%; left:50%; transform: translate(-50%, -50%); border:5px solid black"">","","","","","","","",""
"","10673.110000003362","sequential-stimulus-presentation-old","38","396258","0.0-13.0-1.3","SS1618436397626","trial","","40","500","11173.110000003362","images/stimuli/spore_stims/complex_07_A_a.gif","images/stimuli/spore_stims/complex_20_A_b.gif","forced_short","","2","complex_dissimilar","images/stimuli/spore_stims/complex_20_A_b.gif","","","","",""
"","5167.334999990999","survey-multi-choice","39","401436","0.0-14.0","SS1618436397626","math_question","","","","","","","","","","","","{""Q0"":""8""}","[0]","8","",""
"","null","html-keyboard-response","40","402600","0.0-15.0-0.0","SS1618436397626","","","null","","","","","","<p><img src= images/blank.png width =""600"" height = ""600"" style=""position:fixed;top:50%; left:50%; transform: translate(-50%, -50%); border:5px solid black"">","","","","","","","",""
"","814.5150000054855","sequential-stimulus-presentation-old","41","408427","0.0-15.0-1.0","SS1618436397626","trial","","40","500","1314.5150000054855","images/stimuli/spore_stims/simple_19_A_a.gif","images/stimuli/spore_stims/simple_06_A_b.gif","forced_long","","3","simple_dissimilar","images/stimuli/spore_stims/simple_06_A_b.gif","","","","",""
"","null","html-keyboard-response","42","409590","0.0-15.0-0.1","SS1618436397626","","","null","","","","","","<p><img src= images/blank.png width =""600"" height = ""600"" style=""position:fixed;top:50%; left:50%; transform: translate(-50%, -50%); border:5px solid black"">","","","","","","","",""
"","11488.590000008116","sequential-stimulus-presentation-old","43","421651","0.0-15.0-1.1","SS1618436397626","trial","","40","500","11988.590000008116","images/stimuli/spore_stims/simple_19_A_a.gif","images/stimuli/spore_stims/simple_06_A_b.gif","forced_long","","3","simple_dissimilar","images/stimuli/spore_stims/simple_19_A_a.gif","","","","",""
"","null","html-keyboard-response","44","422997","0.0-15.0-0.2","SS1618436397626","","","null","","","","","","<p><img src= images/blank.png width =""600"" height = ""600"" style=""position:fixed;top:50%; left:50%; transform: translate(-50%, -50%); border:5px solid black"">","","","","","","","",""
"","10012.60000000184","sequential-stimulus-presentation-old","45","433518","0.0-15.0-1.2","SS1618436397626","trial","","40","500","10512.60000000184","images/stimuli/spore_stims/simple_19_A_a.gif","images/stimuli/spore_stims/simple_06_A_b.gif","forced_long","","3","simple_dissimilar","images/stimuli/spore_stims/simple_06_A_b.gif","","","","",""
"","null","html-keyboard-response","46","434503","0.0-15.0-0.3","SS1618436397626","","","null","","","","","","<p><img src= images/blank.png width =""600"" height = ""600"" style=""position:fixed;top:50%; left:50%; transform: translate(-50%, -50%); border:5px solid black"">","","","","","","","",""
"","10006.989999994403","sequential-stimulus-presentation-old","47","445072","0.0-15.0-1.3","SS1618436397626","trial","","40","500","10506.989999994403","images/stimuli/spore_stims/simple_19_A_a.gif","images/stimuli/spore_stims/simple_06_A_b.gif","forced_long","","3","simple_dissimilar","images/stimuli/spore_stims/simple_06_A_b.gif","","","","",""
"","null","html-keyboard-response","48","446291","0.0-15.0-0.4","SS1618436397626","","","null","","","","","","<p><img src= images/blank.png width =""600"" height = ""600"" style=""position:fixed;top:50%; left:50%; transform: translate(-50%, -50%); border:5px solid black"">","","","","","","","",""
"","12291.180000000168","sequential-stimulus-presentation-old","49","459158","0.0-15.0-1.4","SS1618436397626","trial","","40","500","12791.180000000168","images/stimuli/spore_stims/simple_19_A_a.gif","images/stimuli/spore_stims/simple_06_A_b.gif","forced_long","","3","simple_dissimilar","images/stimuli/spore_stims/simple_19_A_a.gif","","","","",""
"","null","html-keyboard-response","50","460223","0.0-15.0-0.5","SS1618436397626","","","null","","","","","","<p><img src= images/blank.png width =""600"" height = ""600"" style=""position:fixed;top:50%; left:50%; transform: translate(-50%, -50%); border:5px solid black"">","","","","","","","",""
"","9781.660000007832","sequential-stimulus-presentation-old","51","470526","0.0-15.0-1.5","SS1618436397626","trial","","40","500","10281.660000007832","images/stimuli/spore_stims/simple_19_A_a.gif","images/stimuli/spore_stims/simple_06_A_b.gif","forced_long","","3","simple_dissimilar","images/stimuli/spore_stims/simple_06_A_b.gif","","","","",""
"","9346.734999999171","survey-multi-choice","52","479878","0.0-16.0","SS1618436397626","math_question","","","","","","","","","","","","{""Q0"":""14""}","[0]","14","",""
"","null","html-keyboard-response","53","481111","0.0-17.0-0.0","SS1618436397626","","","null","","","","","","<p><img src= images/blank.png width =""600"" height = ""600"" style=""position:fixed;top:50%; left:50%; transform: translate(-50%, -50%); border:5px solid black"">","","","","","","","",""
"","13172.0750000095","sequential-stimulus-presentation-old","54","494386","0.0-17.0-1.0","SS1618436397626","trial","","40","500","13672.0750000095","images/stimuli/spore_stims/simple_09_A_b.gif","images/stimuli/spore_stims/simple_16_A_a.gif","forced_short","","4","simple_dissimilar","images/stimuli/spore_stims/simple_16_A_a.gif","","","","",""
"","null","html-keyboard-response","55","495533","0.0-17.0-0.1","SS1618436397626","","","null","","","","","","<p><img src= images/blank.png width =""600"" height = ""600"" style=""position:fixed;top:50%; left:50%; transform: translate(-50%, -50%); border:5px solid black"">","","","","","","","",""
"","8366.519999995944","sequential-stimulus-presentation-old","56","504407","0.0-17.0-1.1","SS1618436397626","trial","","40","500","8866.519999995944","images/stimuli/spore_stims/simple_09_A_b.gif","images/stimuli/spore_stims/simple_16_A_a.gif","forced_short","","4","simple_dissimilar","images/stimuli/spore_stims/simple_16_A_a.gif","","","","",""
"","null","html-keyboard-response","57","505544","0.0-17.0-0.2","SS1618436397626","","","null","","","","","","<p><img src= images/blank.png width =""600"" height = ""600"" style=""position:fixed;top:50%; left:50%; transform: translate(-50%, -50%); border:5px solid black"">","","","","","","","",""
"","7774.6900000056485","sequential-stimulus-presentation-old","58","513825","0.0-17.0-1.2","SS1618436397626","trial","","40","500","8274.690000005648","images/stimuli/spore_stims/simple_09_A_b.gif","images/stimuli/spore_stims/simple_16_A_a.gif","forced_short","","4","simple_dissimilar","images/stimuli/spore_stims/simple_16_A_a.gif","","","","",""
"","null","html-keyboard-response","59","515126","0.0-17.0-0.3","SS1618436397626","","","null","","","","","","<p><img src= images/blank.png width =""600"" height = ""600"" style=""position:fixed;top:50%; left:50%; transform: translate(-50%, -50%); border:5px solid black"">","","","","","","","",""
"","5645.174999997835","sequential-stimulus-presentation-old","60","521309","0.0-17.0-1.3","SS1618436397626","trial","","40","500","6145.174999997835","images/stimuli/spore_stims/simple_09_A_b.gif","images/stimuli/spore_stims/simple_16_A_a.gif","forced_short","","4","simple_dissimilar","images/stimuli/spore_stims/simple_09_A_b.gif","","","","",""
"","null","html-keyboard-response","61","522571","0.0-17.0-0.4","SS1618436397626","","","null","","","","","","<p><img src= images/blank.png width =""600"" height = ""600"" style=""position:fixed;top:50%; left:50%; transform: translate(-50%, -50%); border:5px solid black"">","","","","","","","",""
"","6232.210000001942","sequential-stimulus-presentation-old","62","529331","0.0-17.0-1.4","SS1618436397626","trial","","40","500","6732.210000001942","images/stimuli/spore_stims/simple_09_A_b.gif","images/stimuli/spore_stims/simple_16_A_a.gif","forced_short","","4","simple_dissimilar","images/stimuli/spore_stims/simple_16_A_a.gif","","","","",""
"","null","html-keyboard-response","63","530244","0.0-17.0-0.5","SS1618436397626","","","null","","","","","","<p><img src= images/blank.png width =""600"" height = ""600"" style=""position:fixed;top:50%; left:50%; transform: translate(-50%, -50%); border:5px solid black"">","","","","","","","",""
"","10019.76999999897","sequential-stimulus-presentation-old","64","540813","0.0-17.0-1.5","SS1618436397626","trial","","40","500","10519.76999999897","images/stimuli/spore_stims/simple_09_A_b.gif","images/stimuli/spore_stims/simple_16_A_a.gif","forced_short","","4","simple_dissimilar","images/stimuli/spore_stims/simple_09_A_b.gif","","","","",""
"","5087.449999991804","survey-multi-choice","65","545906","0.0-18.0","SS1618436397626","math_question","","","","","","","","","","","","{""Q0"":""10""}","[0]","10","",""
"","null","html-keyboard-response","66","547163","0.0-19.0-0.0","SS1618436397626","","","null","","","","","","<p><img src= images/blank.png width =""600"" height = ""600"" style=""position:fixed;top:50%; left:50%; transform: translate(-50%, -50%); border:5px solid black"">","","","","","","","",""
"","558.5449999925913","sequential-stimulus-presentation-old","67","552745","0.0-19.0-1.0","SS1618436397626","trial","","40","500","1058.5449999925913","images/stimuli/spore_stims/simple_02_A_a.gif","images/stimuli/spore_stims/simple_12_A_b.gif","forced_long","","5","simple_dissimilar","images/stimuli/spore_stims/simple_12_A_b.gif","","","","",""
"","null","html-keyboard-response","68","553678","0.0-19.0-0.1","SS1618436397626","","","null","","","","","","<p><img src= images/blank.png width =""600"" height = ""600"" style=""position:fixed;top:50%; left:50%; transform: translate(-50%, -50%); border:5px solid black"">","","","","","","","",""
"","11060.24000000616","sequential-stimulus-presentation-old","69","565252","0.0-19.0-1.1","SS1618436397626","trial","","40","500","11560.24000000616","images/stimuli/spore_stims/simple_02_A_a.gif","images/stimuli/spore_stims/simple_12_A_b.gif","forced_long","","5","simple_dissimilar","images/stimuli/spore_stims/simple_02_A_a.gif","","","","",""
"","null","html-keyboard-response","70","566132","0.0-19.0-0.2","SS1618436397626","","","null","","","","","","<p><img src= images/blank.png width =""600"" height = ""600"" style=""position:fixed;top:50%; left:50%; transform: translate(-50%, -50%); border:5px solid black"">","","","","","","","",""
"","8539.544999992358","sequential-stimulus-presentation-old","71","575217","0.0-19.0-1.2","SS1618436397626","trial","","40","500","9039.544999992358","images/stimuli/spore_stims/simple_02_A_a.gif","images/stimuli/spore_stims/simple_12_A_b.gif","forced_long","","5","simple_dissimilar","images/stimuli/spore_stims/simple_02_A_a.gif","","","","",""
"","null","html-keyboard-response","72","576269","0.0-19.0-0.3","SS1618436397626","","","null","","","","","","<p><img src= images/blank.png width =""600"" height = ""600"" style=""position:fixed;top:50%; left:50%; transform: translate(-50%, -50%); border:5px solid black"">","","","","","","","",""
"","8142.840000000433","sequential-stimulus-presentation-old","73","584950","0.0-19.0-1.3","SS1618436397626","trial","","40","500","8642.840000000433","images/stimuli/spore_stims/simple_02_A_a.gif","images/stimuli/spore_stims/simple_12_A_b.gif","forced_long","","5","simple_dissimilar","images/stimuli/spore_stims/simple_12_A_b.gif","","","","",""
"","4286.984999998822","survey-multi-choice","74","589243","0.0-20.0","SS1618436397626","math_question","","","","","","","","","","","","{""Q0"":""4""}","[0]","4","",""
"","null","html-keyboard-response","75","590342","0.0-21.0-0.0","SS1618436397626","","","null","","","","","","<p><img src= images/blank.png width =""600"" height = ""600"" style=""position:fixed;top:50%; left:50%; transform: translate(-50%, -50%); border:5px solid black"">","","","","","","","",""
"","9025.349999996251","sequential-stimulus-presentation-old","76","599898","0.0-21.0-1.0","SS1618436397626","trial","","40","500","9525.349999996251","images/stimuli/spore_stims/simple_14_A_a.gif","images/stimuli/spore_stims/simple_16_A_b.gif","self_paced","","6","simple_dissimilar","images/stimuli/spore_stims/simple_16_A_b.gif","","","","",""
"","null","html-keyboard-response","77","601028","0.0-21.0-0.1","SS1618436397626","","","null","","","","","","<p><img src= images/blank.png width =""600"" height = ""600"" style=""position:fixed;top:50%; left:50%; transform: translate(-50%, -50%); border:5px solid black"">","","","","","","","",""
"","7631.620000000112","sequential-stimulus-presentation-old","78","609254","0.0-21.0-1.1","SS1618436397626","trial","","40","500","8131.620000000112","images/stimuli/spore_stims/simple_14_A_a.gif","images/stimuli/spore_stims/simple_16_A_b.gif","self_paced","","6","simple_dissimilar","images/stimuli/spore_stims/simple_16_A_b.gif","","","","",""
"","null","html-keyboard-response","79","610308","0.0-21.0-0.2","SS1618436397626","","","null","","","","","","<p><img src= images/blank.png width =""600"" height = ""600"" style=""position:fixed;top:50%; left:50%; transform: translate(-50%, -50%); border:5px solid black"">","","","","","","","",""
"","6039.329999999609","sequential-stimulus-presentation-old","80","616857","0.0-21.0-1.2","SS1618436397626","trial","","40","500","6539.329999999609","images/stimuli/spore_stims/simple_14_A_a.gif","images/stimuli/spore_stims/simple_16_A_b.gif","self_paced","","6","simple_dissimilar","images/stimuli/spore_stims/simple_16_A_b.gif","","","","",""
"","null","html-keyboard-response","81","617826","0.0-21.0-0.3","SS1618436397626","","","null","","","","","","<p><img src= images/blank.png width =""600"" height = ""600"" style=""position:fixed;top:50%; left:50%; transform: translate(-50%, -50%); border:5px solid black"">","","","","","","","",""
"","6979.029999987688","sequential-stimulus-presentation-old","82","625381","0.0-21.0-1.3","SS1618436397626","trial","","40","500","7479.029999987688","images/stimuli/spore_stims/simple_14_A_a.gif","images/stimuli/spore_stims/simple_16_A_b.gif","self_paced","","6","simple_dissimilar","images/stimuli/spore_stims/simple_16_A_b.gif","","","","",""
"","null","html-keyboard-response","83","626474","0.0-21.0-0.4","SS1618436397626","","","null","","","","","","<p><img src= images/blank.png width =""600"" height = ""600"" style=""position:fixed;top:50%; left:50%; transform: translate(-50%, -50%); border:5px solid black"">","","","","","","","",""
"","8410.589999999502","sequential-stimulus-presentation-old","84","635407","0.0-21.0-1.4","SS1618436397626","trial","","40","500","8910.589999999502","images/stimuli/spore_stims/simple_14_A_a.gif","images/stimuli/spore_stims/simple_16_A_b.gif","self_paced","","6","simple_dissimilar","images/stimuli/spore_stims/simple_16_A_b.gif","","","","",""
"","null","html-keyboard-response","85","636400","0.0-21.0-0.5","SS1618436397626","","","null","","","","","","<p><img src= images/blank.png width =""600"" height = ""600"" style=""position:fixed;top:50%; left:50%; transform: translate(-50%, -50%); border:5px solid black"">","","","","","","","",""
"","6060.085000004619","sequential-stimulus-presentation-old","86","642986","0.0-21.0-1.5","SS1618436397626","trial","","40","500","6560.085000004619","images/stimuli/spore_stims/simple_14_A_a.gif","images/stimuli/spore_stims/simple_16_A_b.gif","self_paced","","6","simple_dissimilar","images/stimuli/spore_stims/simple_14_A_a.gif","","","","",""
"","4110.699999990175","survey-multi-choice","87","647107","0.0-22.0","SS1618436397626","math_question","","","","","","","","","","","","{""Q0"":""9""}","[0]","9","",""
"","null","html-keyboard-response","88","648149","0.0-23.0-0.0","SS1618436397626","","","null","","","","","","<p><img src= images/blank.png width =""600"" height = ""600"" style=""position:fixed;top:50%; left:50%; transform: translate(-50%, -50%); border:5px solid black"">","","","","","","","",""
"","7964.96000001207","sequential-stimulus-presentation-old","89","656625","0.0-23.0-1.0","SS1618436397626","trial","","40","500","8464.96000001207","images/stimuli/spore_stims/complex_19_A_a.gif","images/stimuli/spore_stims/complex_02_A_b.gif","self_paced","","7","complex_dissimilar","images/stimuli/spore_stims/complex_02_A_b.gif","","","","",""
"","null","html-keyboard-response","90","657754","0.0-23.0-0.1","SS1618436397626","","","null","","","","","","<p><img src= images/blank.png width =""600"" height = ""600"" style=""position:fixed;top:50%; left:50%; transform: translate(-50%, -50%); border:5px solid black"">","","","","","","","",""
"","7524.774999998044","sequential-stimulus-presentation-old","91","665789","0.0-23.0-1.1","SS1618436397626","trial","","40","500","8024.774999998044","images/stimuli/spore_stims/complex_19_A_a.gif","images/stimuli/spore_stims/complex_02_A_b.gif","self_paced","","7","complex_dissimilar","images/stimuli/spore_stims/complex_19_A_a.gif","","","","",""
"","null","html-keyboard-response","92","667010","0.0-23.0-0.2","SS1618436397626","","","null","","","","","","<p><img src= images/blank.png width =""600"" height = ""600"" style=""position:fixed;top:50%; left:50%; transform: translate(-50%, -50%); border:5px solid black"">","","","","","","","",""
"","7327.285000006668","sequential-stimulus-presentation-old","93","674844","0.0-23.0-1.2","SS1618436397626","trial","","40","500","7827.285000006668","images/stimuli/spore_stims/complex_19_A_a.gif","images/stimuli/spore_stims/complex_02_A_b.gif","self_paced","","7","complex_dissimilar","images/stimuli/spore_stims/complex_02_A_b.gif","","","","",""
"","null","html-keyboard-response","94","675708","0.0-23.0-0.3","SS1618436397626","","","null","","","","","","<p><img src= images/blank.png width =""600"" height = ""600"" style=""position:fixed;top:50%; left:50%; transform: translate(-50%, -50%); border:5px solid black"">","","","","","","","",""
"","6385.41499999701","sequential-stimulus-presentation-old","95","682644","0.0-23.0-1.3","SS1618436397626","trial","","40","500","6885.41499999701","images/stimuli/spore_stims/complex_19_A_a.gif","images/stimuli/spore_stims/complex_02_A_b.gif","self_paced","","7","complex_dissimilar","images/stimuli/spore_stims/complex_02_A_b.gif","","","","",""
"","null","html-keyboard-response","96","683958","0.0-23.0-0.4","SS1618436397626","","","null","","","","","","<p><img src= images/blank.png width =""600"" height = ""600"" style=""position:fixed;top:50%; left:50%; transform: translate(-50%, -50%); border:5px solid black"">","","","","","","","",""
"","5562.9250000056345","sequential-stimulus-presentation-old","97","690067","0.0-23.0-1.4","SS1618436397626","trial","","40","500","6062.9250000056345","images/stimuli/spore_stims/complex_19_A_a.gif","images/stimuli/spore_stims/complex_02_A_b.gif","self_paced","","7","complex_dissimilar","images/stimuli/spore_stims/complex_02_A_b.gif","","","","",""
"","3566.320000012638","survey-multi-choice","98","693642","0.0-24.0","SS1618436397626","math_question","","","","","","","","","","","","{""Q0"":""6""}","[0]","6","",""
"","null","html-keyboard-response","99","694891","0.0-25.0-0.0","SS1618436397626","","","null","","","","","","<p><img src= images/blank.png width =""600"" height = ""600"" style=""position:fixed;top:50%; left:50%; transform: translate(-50%, -50%); border:5px solid black"">","","","","","","","",""
"","3991.229999999632","sequential-stimulus-presentation-old","100","699411","0.0-25.0-1.0","SS1618436397626","trial","","40","500","4491.229999999632","images/stimuli/spore_stims/simple_05_A_a.gif","images/stimuli/spore_stims/simple_03_A_b.gif","self_paced","","8","simple_dissimilar","images/stimuli/spore_stims/simple_03_A_b.gif","","","","",""
"","null","html-keyboard-response","101","700513","0.0-25.0-0.1","SS1618436397626","","","null","","","","","","<p><img src= images/blank.png width =""600"" height = ""600"" style=""position:fixed;top:50%; left:50%; transform: translate(-50%, -50%); border:5px solid black"">","","","","","","","",""
"","3364.8399999947287","sequential-stimulus-presentation-old","102","704407","0.0-25.0-1.1","SS1618436397626","trial","","40","500","3864.8399999947287","images/stimuli/spore_stims/simple_05_A_a.gif","images/stimuli/spore_stims/simple_03_A_b.gif","self_paced","","8","simple_dissimilar","images/stimuli/spore_stims/simple_03_A_b.gif","","","","",""
"","null","html-keyboard-response","103","705609","0.0-25.0-0.2","SS1618436397626","","","null","","","","","","<p><img src= images/blank.png width =""600"" height = ""600"" style=""position:fixed;top:50%; left:50%; transform: translate(-50%, -50%); border:5px solid black"">","","","","","","","",""
"","5387.4050000013085","sequential-stimulus-presentation-old","104","711539","0.0-25.0-1.2","SS1618436397626","trial","","40","500","5887.4050000013085","images/stimuli/spore_stims/simple_05_A_a.gif","images/stimuli/spore_stims/simple_03_A_b.gif","self_paced","","8","simple_dissimilar","images/stimuli/spore_stims/simple_05_A_a.gif","","","","",""
"","null","html-keyboard-response","105","712534","0.0-25.0-0.3","SS1618436397626","","","null","","","","","","<p><img src= images/blank.png width =""600"" height = ""600"" style=""position:fixed;top:50%; left:50%; transform: translate(-50%, -50%); border:5px solid black"">","","","","","","","",""
"","4315.159999998286","sequential-stimulus-presentation-old","106","717377","0.0-25.0-1.3","SS1618436397626","trial","","40","500","4815.159999998286","images/stimuli/spore_stims/simple_05_A_a.gif","images/stimuli/spore_stims/simple_03_A_b.gif","self_paced","","8","simple_dissimilar","images/stimuli/spore_stims/simple_03_A_b.gif","","","","",""
"","null","html-keyboard-response","107","718628","0.0-25.0-0.4","SS1618436397626","","","null","","","","","","<p><img src= images/blank.png width =""600"" height = ""600"" style=""position:fixed;top:50%; left:50%; transform: translate(-50%, -50%); border:5px solid black"">","","","","","","","",""
"","5271.989999993821","sequential-stimulus-presentation-old","108","724461","0.0-25.0-1.4","SS1618436397626","trial","","40","500","5771.989999993821","images/stimuli/spore_stims/simple_05_A_a.gif","images/stimuli/spore_stims/simple_03_A_b.gif","self_paced","","8","simple_dissimilar","images/stimuli/spore_stims/simple_05_A_a.gif","","","","",""
"","4670.259999998962","survey-multi-choice","109","729138","0.0-26.0","SS1618436397626","math_question","","","","","","","","","","","","{""Q0"":""10""}","[0]","10","",""
"","null","html-keyboard-response","110","730081","0.0-27.0-0.0","SS1618436397626","","","null","","","","","","<p><img src= images/blank.png width =""600"" height = ""600"" style=""position:fixed;top:50%; left:50%; transform: translate(-50%, -50%); border:5px solid black"">","","","","","","","",""
"","686.3299999968149","sequential-stimulus-presentation-old","111","735787","0.0-27.0-1.0","SS1618436397626","trial","","40","500","1186.3299999968149","images/stimuli/spore_stims/complex_07_A_b.gif","images/stimuli/spore_stims/complex_01_A_a.gif","forced_long","","9","complex_dissimilar","images/stimuli/spore_stims/complex_01_A_a.gif","","","","",""
"","null","html-keyboard-response","112","737105","0.0-27.0-0.1","SS1618436397626","","","null","","","","","","<p><img src= images/blank.png width =""600"" height = ""600"" style=""position:fixed;top:50%; left:50%; transform: translate(-50%, -50%); border:5px solid black"">","","","","","","","",""
"","9565.755000003264","sequential-stimulus-presentation-old","113","747190","0.0-27.0-1.1","SS1618436397626","trial","","40","500","10065.755000003264","images/stimuli/spore_stims/complex_07_A_b.gif","images/stimuli/spore_stims/complex_01_A_a.gif","forced_long","","9","complex_dissimilar","images/stimuli/spore_stims/complex_01_A_a.gif","","","","",""
"","null","html-keyboard-response","114","748473","0.0-27.0-0.2","SS1618436397626","","","null","","","","","","<p><img src= images/blank.png width =""600"" height = ""600"" style=""position:fixed;top:50%; left:50%; transform: translate(-50%, -50%); border:5px solid black"">","","","","","","","",""
"","8128.485000008368","sequential-stimulus-presentation-old","115","757134","0.0-27.0-1.2","SS1618436397626","trial","","40","500","8628.485000008368","images/stimuli/spore_stims/complex_07_A_b.gif","images/stimuli/spore_stims/complex_01_A_a.gif","forced_long","","9","complex_dissimilar","images/stimuli/spore_stims/complex_07_A_b.gif","","","","",""
"","null","html-keyboard-response","116","758221","0.0-27.0-0.3","SS1618436397626","","","null","","","","","","<p><img src= images/blank.png width =""600"" height = ""600"" style=""position:fixed;top:50%; left:50%; transform: translate(-50%, -50%); border:5px solid black"">","","","","","","","",""
"","5715.804999999818","sequential-stimulus-presentation-old","117","764441","0.0-27.0-1.3","SS1618436397626","trial","","40","500","6215.804999999818","images/stimuli/spore_stims/complex_07_A_b.gif","images/stimuli/spore_stims/complex_01_A_a.gif","forced_long","","9","complex_dissimilar","images/stimuli/spore_stims/complex_01_A_a.gif","","","","",""
"","null","html-keyboard-response","118","765525","0.0-27.0-0.4","SS1618436397626","","","null","","","","","","<p><img src= images/blank.png width =""600"" height = ""600"" style=""position:fixed;top:50%; left:50%; transform: translate(-50%, -50%); border:5px solid black"">","","","","","","","",""
"","6109.44999998901","sequential-stimulus-presentation-old","119","772179","0.0-27.0-1.4","SS1618436397626","trial","","40","500","6609.44999998901","images/stimuli/spore_stims/complex_07_A_b.gif","images/stimuli/spore_stims/complex_01_A_a.gif","forced_long","","9","complex_dissimilar","images/stimuli/spore_stims/complex_01_A_a.gif","","","","",""
"","null","html-keyboard-response","120","773374","0.0-27.0-0.5","SS1618436397626","","","null","","","","","","<p><img src= images/blank.png width =""600"" height = ""600"" style=""position:fixed;top:50%; left:50%; transform: translate(-50%, -50%); border:5px solid black"">","","","","","","","",""
"","4962.704999998095","sequential-stimulus-presentation-old","121","778845","0.0-27.0-1.5","SS1618436397626","trial","","40","500","5462.704999998095","images/stimuli/spore_stims/complex_07_A_b.gif","images/stimuli/spore_stims/complex_01_A_a.gif","forced_long","","9","complex_dissimilar","images/stimuli/spore_stims/complex_01_A_a.gif","","","","",""
"","6979.605000000447","survey-multi-choice","122","785831","0.0-28.0","SS1618436397626","math_question","","","","","","","","","","","","{""Q0"":""12""}","[0]","12","",""
"","null","html-keyboard-response","123","786884","0.0-29.0-0.0","SS1618436397626","","","null","","","","","","<p><img src= images/blank.png width =""600"" height = ""600"" style=""position:fixed;top:50%; left:50%; transform: translate(-50%, -50%); border:5px solid black"">","","","","","","","",""
"","6392.379999990226","sequential-stimulus-presentation-old","124","793786","0.0-29.0-1.0","SS1618436397626","trial","","40","500","6892.379999990226","images/stimuli/spore_stims/complex_12_A_a.gif","images/stimuli/spore_stims/complex_08_A_b.gif","self_paced","","10","complex_dissimilar","images/stimuli/spore_stims/complex_08_A_b.gif","","","","",""
"","null","html-keyboard-response","125","794873","0.0-29.0-0.1","SS1618436397626","","","null","","","","","","<p><img src= images/blank.png width =""600"" height = ""600"" style=""position:fixed;top:50%; left:50%; transform: translate(-50%, -50%); border:5px solid black"">","","","","","","","",""
"","5347.164999999222","sequential-stimulus-presentation-old","126","800729","0.0-29.0-1.1","SS1618436397626","trial","","40","500","5847.164999999222","images/stimuli/spore_stims/complex_12_A_a.gif","images/stimuli/spore_stims/complex_08_A_b.gif","self_paced","","10","complex_dissimilar","images/stimuli/spore_stims/complex_08_A_b.gif","","","","",""
"","null","html-keyboard-response","127","801759","0.0-29.0-0.2","SS1618436397626","","","null","","","","","","<p><img src= images/blank.png width =""600"" height = ""600"" style=""position:fixed;top:50%; left:50%; transform: translate(-50%, -50%); border:5px solid black"">","","","","","","","",""
"","3155.3549999953248","sequential-stimulus-presentation-old","128","805442","0.0-29.0-1.2","SS1618436397626","trial","","40","500","3655.3549999953248","images/stimuli/spore_stims/complex_12_A_a.gif","images/stimuli/spore_stims/complex_08_A_b.gif","self_paced","","10","complex_dissimilar","images/stimuli/spore_stims/complex_08_A_b.gif","","","","",""
"","null","html-keyboard-response","129","806604","0.0-29.0-0.3","SS1618436397626","","","null","","","","","","<p><img src= images/blank.png width =""600"" height = ""600"" style=""position:fixed;top:50%; left:50%; transform: translate(-50%, -50%); border:5px solid black"">","","","","","","","",""
"","3681.944999989355","sequential-stimulus-presentation-old","130","810797","0.0-29.0-1.3","SS1618436397626","trial","","40","500","4181.944999989355","images/stimuli/spore_stims/complex_12_A_a.gif","images/stimuli/spore_stims/complex_08_A_b.gif","self_paced","","10","complex_dissimilar","images/stimuli/spore_stims/complex_12_A_a.gif","","","","",""
"","null","html-keyboard-response","131","811626","0.0-29.0-0.4","SS1618436397626","","","null","","","","","","<p><img src= images/blank.png width =""600"" height = ""600"" style=""position:fixed;top:50%; left:50%; transform: translate(-50%, -50%); border:5px solid black"">","","","","","","","",""
"","3639.5400000037625","sequential-stimulus-presentation-old","132","815797","0.0-29.0-1.4","SS1618436397626","trial","","40","500","4139.5400000037625","images/stimuli/spore_stims/complex_12_A_a.gif","images/stimuli/spore_stims/complex_08_A_b.gif","self_paced","","10","complex_dissimilar","images/stimuli/spore_stims/complex_12_A_a.gif","","","","",""
"","5286.210000005667","survey-multi-choice","133","821091","0.0-30.0","SS1618436397626","math_question","","","","","","","","","","","","{""Q0"":""8""}","[0]","8","",""
"","null","html-keyboard-response","134","821948","0.0-31.0-0.0","SS1618436397626","","","null","","","","","","<p><img src= images/blank.png width =""600"" height = ""600"" style=""position:fixed;top:50%; left:50%; transform: translate(-50%, -50%); border:5px solid black"">","","","","","","","",""
"","1303.8050000031944","sequential-stimulus-presentation-old","135","823337","0.0-31.0-1.0","SS1618436397626","trial","","40","500","1803.8050000031944","images/stimuli/spore_stims/simple_07_A_b.gif","images/stimuli/spore_stims/simple_09_A_a.gif","forced_short","","11","simple_dissimilar","images/stimuli/spore_stims/simple_09_A_a.gif","","","","",""
"","null","html-keyboard-response","136","824680","0.0-31.0-0.1","SS1618436397626","","","null","","","","","","<p><img src= images/blank.png width =""600"" height = ""600"" style=""position:fixed;top:50%; left:50%; transform: translate(-50%, -50%); border:5px solid black"">","","","","","","","",""
"","2626.4499999961117","sequential-stimulus-presentation-old","137","827818","0.0-31.0-1.1","SS1618436397626","trial","","40","500","3126.4499999961117","images/stimuli/spore_stims/simple_07_A_b.gif","images/stimuli/spore_stims/simple_09_A_a.gif","forced_short","","11","simple_dissimilar","images/stimuli/spore_stims/simple_09_A_a.gif","","","","",""
"","null","html-keyboard-response","138","828858","0.0-31.0-0.2","SS1618436397626","","","null","","","","","","<p><img src= images/blank.png width =""600"" height = ""600"" style=""position:fixed;top:50%; left:50%; transform: translate(-50%, -50%); border:5px solid black"">","","","","","","","",""
"","3227.8149999910966","sequential-stimulus-presentation-old","139","832624","0.0-31.0-1.2","SS1618436397626","trial","","40","500","3727.8149999910966","images/stimuli/spore_stims/simple_07_A_b.gif","images/stimuli/spore_stims/simple_09_A_a.gif","forced_short","","11","simple_dissimilar","images/stimuli/spore_stims/simple_09_A_a.gif","","","","",""
"","null","html-keyboard-response","140","833735","0.0-31.0-0.3","SS1618436397626","","","null","","","","","","<p><img src= images/blank.png width =""600"" height = ""600"" style=""position:fixed;top:50%; left:50%; transform: translate(-50%, -50%); border:5px solid black"">","","","","","","","",""
"","4292.239999995218","sequential-stimulus-presentation-old","141","838552","0.0-31.0-1.3","SS1618436397626","trial","","40","500","4792.239999995218","images/stimuli/spore_stims/simple_07_A_b.gif","images/stimuli/spore_stims/simple_09_A_a.gif","forced_short","","11","simple_dissimilar","images/stimuli/spore_stims/simple_09_A_a.gif","","","","",""
"[{""page_index"":0,""viewing_time"":10371.044999992591}]","10371.594999989611","instructions","142","848940","0.0-32.0","SS1618436397626","instructions","","","","","","","","","","","","","","","",""
"","9799.239999993006","survey-likert","143","858750","0.0-33.0","SS1618436397626","similarity_question","","","","","","","","","","","","{""Q0"":1}","[0]","","images/stimuli/spore_stims/simple_19_A_a.gif","images/stimuli/spore_stims/simple_06_A_b.gif"
"","7712.180000002263","survey-likert","144","866471","0.0-34.0","SS1618436397626","similarity_question","","","","","","","","","","","","{""Q0"":0}","[0]","","images/stimuli/spore_stims/complex_01_A_a.gif","images/stimuli/spore_stims/complex_07_A_b.gif"
"","10238.169999996899","survey-likert","145","876726","0.0-35.0","SS1618436397626","similarity_question","","","","","","","","","","","","{""Q0"":2}","[0]","","images/stimuli/spore_stims/complex_02_A_b.gif","images/stimuli/spore_stims/complex_19_A_a.gif"
"","9539.380000001984","survey-likert","146","886286","0.0-36.0","SS1618436397626","similarity_question","","","","","","","","","","","","{""Q0"":1}","[0]","","images/stimuli/spore_stims/complex_13_A_a.gif","images/stimuli/spore_stims/complex_17_A_b.gif"
"","9920.00499999267","survey-likert","147","896229","0.0-37.0","SS1618436397626","similarity_question","","","","","","","","","","","","{""Q0"":3}","[0]","","images/stimuli/spore_stims/simple_09_A_b.gif","images/stimuli/spore_stims/simple_16_A_a.gif"
"","9165.035000012722","survey-likert","148","905422","0.0-38.0","SS1618436397626","similarity_question","","","","","","","","","","","","{""Q0"":4}","[0]","","images/stimuli/spore_stims/simple_02_A_a.gif","images/stimuli/spore_stims/simple_12_A_b.gif"
"","9537.28499999852","survey-likert","149","914971","0.0-39.0","SS1618436397626","similarity_question","","","","","","","","","","","","{""Q0"":5}","[0]","","images/stimuli/spore_stims/complex_03_A_b.gif","images/stimuli/spore_stims/complex_20_A_a.gif"
"","9436.399999991409","survey-likert","150","924418","0.0-40.0","SS1618436397626","similarity_question","","","","","","","","","","","","{""Q0"":0}","[0]","","images/stimuli/spore_stims/simple_16_A_b.gif","images/stimuli/spore_stims/simple_14_A_a.gif"
"","10646.414999995613","survey-likert","151","935074","0.0-41.0","SS1618436397626","similarity_question","","","","","","","","","","","","{""Q0"":6}","[0]","","images/stimuli/spore_stims/complex_08_A_b.gif","images/stimuli/spore_stims/complex_12_A_a.gif"
"","12621.229999989737","survey-likert","152","947707","0.0-42.0","SS1618436397626","similarity_question","","","","","","","","","","","","{""Q0"":1}","[0]","","images/stimuli/spore_stims/simple_07_A_b.gif","images/stimuli/spore_stims/simple_09_A_a.gif"
"","10819.734999997308","survey-likert","153","958538","0.0-43.0","SS1618436397626","similarity_question","","","","","","","","","","","","{""Q0"":3}","[0]","","images/stimuli/spore_stims/complex_07_A_a.gif","images/stimuli/spore_stims/complex_20_A_b.gif"
"","11549.1949999996","survey-likert","154","970098","0.0-44.0","SS1618436397626","similarity_question","","","","","","","","","","","","{""Q0"":6}","[0]","","images/stimuli/spore_stims/simple_05_A_a.gif","images/stimuli/spore_stims/simple_03_A_b.gif"
"[{""page_index"":0,""viewing_time"":13903.56000000611}]","13904.049999997369","instructions","155","984009","0.0-45.0","SS1618436397626","instructions","","","","","","","","","","","","","","","",""
"","9896.785000004456","survey-likert","156","993914","0.0-46.0","SS1618436397626","","","","","","","","","images/stimuli/spore_stims/simple_09_A_a.gif","","","","{""Q0"":5}","[0]","","",""
"","8519.974999988219","survey-likert","157","1002444","0.0-47.0","SS1618436397626","","","","","","","","","images/stimuli/spore_stims/simple_16_A_b.gif","","","","{""Q0"":6}","[0]","","",""
"","9484.360000002198","survey-likert","158","1011946","0.0-48.0","SS1618436397626","","","","","","","","","images/stimuli/spore_stims/simple_06_A_b.gif","","","","{""Q0"":0}","[0]","","",""
"","8747.295000008307","survey-likert","159","1020704","0.0-49.0","SS1618436397626","","","","","","","","","images/stimuli/spore_stims/complex_13_A_a.gif","","","","{""Q0"":4}","[0]","","",""
"","7103.71000001044","survey-likert","160","1027816","0.0-50.0","SS1618436397626","","","","","","","","","images/stimuli/spore_stims/simple_12_A_b.gif","","","","{""Q0"":2}","[0]","","",""
"","8854.055000003427","survey-likert","161","1036678","0.0-51.0","SS1618436397626","","","","","","","","","images/stimuli/spore_stims/complex_02_A_b.gif","","","","{""Q0"":5}","[0]","","",""
"","7477.610000001732","survey-likert","162","1044168","0.0-52.0","SS1618436397626","","","","","","","","","images/stimuli/spore_stims/complex_07_A_b.gif","","","","{""Q0"":6}","[0]","","",""
"","8266.845000005327","survey-likert","163","1052446","0.0-53.0","SS1618436397626","","","","","","","","","images/stimuli/spore_stims/simple_03_A_b.gif","","","","{""Q0"":0}","[0]","","",""
"","8228.829999992624","survey-likert","164","1060687","0.0-54.0","SS1618436397626","","","","","","","","","images/stimuli/spore_stims/complex_12_A_a.gif","","","","{""Q0"":3}","[0]","","",""
"","8839.869999996154","survey-likert","165","1069541","0.0-55.0","SS1618436397626","","","","","","","","","images/stimuli/spore_stims/simple_16_A_a.gif","","","","{""Q0"":2}","[0]","","",""
"","9251.210000002058","survey-likert","166","1078803","0.0-56.0","SS1618436397626","","","","","","","","","images/stimuli/spore_stims/complex_20_A_a.gif","","","","{""Q0"":5}","[0]","","",""
"","7659.709999992512","survey-likert","167","1086474","0.0-57.0","SS1618436397626","","","","","","","","","images/stimuli/spore_stims/complex_07_A_a.gif","","","","{""Q0"":4}","[0]","","",""
"[{""page_index"":0,""viewing_time"":9408.19000000204}]","9408.76500000013","instructions","168","1095890","0.0-58.0","SS1618436397626","instructions","","","","","","","","","","","","","","","",""
"","5905.899999997811","demog-age","169","1101890","0.0-59.0","SS1618436397626","","","","","","","","","","","","","{""age"":""25""}","","","",""
"","9548.280000002822","demog-ethnic-US","170","1111506","0.0-60.0","SS1618436397626","","","","","","","","","","","","","{""ethnicity"":[""Black or African American""]}","[0]","","",""
"","19965.66999999038","demog-gender-and-education","171","1131481","0.0-61.0","SS1618436397626","","","","","","","","","","","","","{""gender"":""Female"",""education"":""High school diploma""}","[0,1]","","",""
"","52182.09500001115","survey-text","172","1183672","0.0-62.0","SS1618436397626","feedback","","","","","","","","","","","","{""Q0"":""Thank you for letting me participate! I didn't encounter any issues and there was no lagging in the animations.""}","","","",""
"[{""page_index"":0,""viewing_time"":8387.109999995911}]","8387.625000003027","instructions","173","1192263","0.0-63.0","SS1618436397626","instructions","","","","","","","","","","","","","","","",""
