"view_history","rt","trial_type","trial_index","time_elapsed","internal_node_id","subject","stimulus_type","trial_stimulus","key_press","minimum_viewing_duration","trial_looking_time","block_deviant","block_background","exposure_type","stimulus","block_number","block_type","stimulus_displayed","responses","question_order","math_correct_answer","stimulus_left","stimulus_right"
"[{""page_index"":0,""viewing_time"":68703}]","68703","instructions","0","68709","0.0-0.0","SS1618438527994","","","","","","","","","","","","","","","","",""
"[{""page_index"":0,""viewing_time"":21912},{""page_index"":1,""viewing_time"":9107}]","31019","instructions","1","101750","0.0-1.0","SS1618438527994","instructions","","","","","","","","","","","","","","","",""
"","9141","sequential-stimulus-presentation-old","2","111408","0.0-2.0","SS1618438527994","","","40","500","9641","null","null","self_paced","","","","","","","","",""
"","12751","sequential-stimulus-presentation-old","3","124665","0.0-3.0","SS1618438527994","","","40","500","13251","null","null","self_paced","","","","","","","","",""
"[{""page_index"":0,""viewing_time"":25536}]","25536","instructions","4","150203","0.0-4.0","SS1618438527994","instructions","","","","","","","","","","","","","","","",""
"","4428","sequential-stimulus-presentation-old","5","159647","0.0-5.0","SS1618438527994","","","40","500","4928","null","null","forced_long","","","","","","","","",""
"","5589","sequential-stimulus-presentation-old","6","165305","0.0-6.0","SS1618438527994","","","40","50","5639","null","null","forced_long","","","","","","","","",""
"[{""page_index"":0,""viewing_time"":7363}]","7363","instructions","7","172670","0.0-7.0","SS1618438527994","instructions","","","","","","","","","","","","","","","",""
"[{""page_index"":0,""viewing_time"":18724},{""page_index"":1,""viewing_time"":37174},{""page_index"":2,""viewing_time"":7583},{""page_index"":3,""viewing_time"":1763},{""page_index"":4,""viewing_time"":1578}]","66822","instructions","8","239495","0.0-8.0","SS1618438527994","instructions","","","","","","","","","","","","","","","",""
"","null","html-keyboard-response","9","240783","0.0-9.0-0.0","SS1618438527994","","","null","","","","","","<p><img src= images/blank.png width =""600"" height = ""600"" style=""position:fixed;top:50%; left:50%; transform: translate(-50%, -50%); border:5px solid black"">","","","","","","","",""
"","1053","sequential-stimulus-presentation-old","10","246846","0.0-9.0-1.0","SS1618438527994","trial","","40","500","1553","images/stimuli/spore_stims/simple_12_A_b.gif","images/stimuli/spore_stims/simple_19_A_a.gif","forced_long","","0","simple_dissimilar","images/stimuli/spore_stims/simple_19_A_a.gif","","","","",""
"","null","html-keyboard-response","11","247703","0.0-9.0-0.1","SS1618438527994","","","null","","","","","","<p><img src= images/blank.png width =""600"" height = ""600"" style=""position:fixed;top:50%; left:50%; transform: translate(-50%, -50%); border:5px solid black"">","","","","","","","",""
"","11035","sequential-stimulus-presentation-old","12","259258","0.0-9.0-1.1","SS1618438527994","trial","","40","500","11535","images/stimuli/spore_stims/simple_12_A_b.gif","images/stimuli/spore_stims/simple_19_A_a.gif","forced_long","","0","simple_dissimilar","images/stimuli/spore_stims/simple_19_A_a.gif","","","","",""
"","null","html-keyboard-response","13","260293","0.0-9.0-0.2","SS1618438527994","","","null","","","","","","<p><img src= images/blank.png width =""600"" height = ""600"" style=""position:fixed;top:50%; left:50%; transform: translate(-50%, -50%); border:5px solid black"">","","","","","","","",""
"","8438","sequential-stimulus-presentation-old","14","269250","0.0-9.0-1.2","SS1618438527994","trial","","40","500","8938","images/stimuli/spore_stims/simple_12_A_b.gif","images/stimuli/spore_stims/simple_19_A_a.gif","forced_long","","0","simple_dissimilar","images/stimuli/spore_stims/simple_19_A_a.gif","","","","",""
"","null","html-keyboard-response","15","270262","0.0-9.0-0.3","SS1618438527994","","","null","","","","","","<p><img src= images/blank.png width =""600"" height = ""600"" style=""position:fixed;top:50%; left:50%; transform: translate(-50%, -50%); border:5px solid black"">","","","","","","","",""
"","6384","sequential-stimulus-presentation-old","16","277167","0.0-9.0-1.3","SS1618438527994","trial","","40","500","6884","images/stimuli/spore_stims/simple_12_A_b.gif","images/stimuli/spore_stims/simple_19_A_a.gif","forced_long","","0","simple_dissimilar","images/stimuli/spore_stims/simple_19_A_a.gif","","","","",""
"","4032","survey-multi-choice","17","281203","0.0-10.0","SS1618438527994","math_question","","","","","","","","","","","","{""Q0"":""17""}","[0]","17","",""
"","null","html-keyboard-response","18","282123","0.0-11.0-0.0","SS1618438527994","","","null","","","","","","<p><img src= images/blank.png width =""600"" height = ""600"" style=""position:fixed;top:50%; left:50%; transform: translate(-50%, -50%); border:5px solid black"">","","","","","","","",""
"","1961","sequential-stimulus-presentation-old","19","284144","0.0-11.0-1.0","SS1618438527994","trial","","40","500","2461","images/stimuli/spore_stims/complex_13_A_a.gif","images/stimuli/spore_stims/complex_12_A_b.gif","forced_short","","1","complex_dissimilar","images/stimuli/spore_stims/complex_12_A_b.gif","","","","",""
"","null","html-keyboard-response","20","285002","0.0-11.0-0.1","SS1618438527994","","","null","","","","","","<p><img src= images/blank.png width =""600"" height = ""600"" style=""position:fixed;top:50%; left:50%; transform: translate(-50%, -50%); border:5px solid black"">","","","","","","","",""
"","8884","sequential-stimulus-presentation-old","21","294406","0.0-11.0-1.1","SS1618438527994","trial","","40","500","9384","images/stimuli/spore_stims/complex_13_A_a.gif","images/stimuli/spore_stims/complex_12_A_b.gif","forced_short","","1","complex_dissimilar","images/stimuli/spore_stims/complex_12_A_b.gif","","","","",""
"","null","html-keyboard-response","22","295502","0.0-11.0-0.2","SS1618438527994","","","null","","","","","","<p><img src= images/blank.png width =""600"" height = ""600"" style=""position:fixed;top:50%; left:50%; transform: translate(-50%, -50%); border:5px solid black"">","","","","","","","",""
"","9514","sequential-stimulus-presentation-old","23","305527","0.0-11.0-1.2","SS1618438527994","trial","","40","500","10014","images/stimuli/spore_stims/complex_13_A_a.gif","images/stimuli/spore_stims/complex_12_A_b.gif","forced_short","","1","complex_dissimilar","images/stimuli/spore_stims/complex_12_A_b.gif","","","","",""
"","null","html-keyboard-response","24","306412","0.0-11.0-0.3","SS1618438527994","","","null","","","","","","<p><img src= images/blank.png width =""600"" height = ""600"" style=""position:fixed;top:50%; left:50%; transform: translate(-50%, -50%); border:5px solid black"">","","","","","","","",""
"","9830","sequential-stimulus-presentation-old","25","316762","0.0-11.0-1.3","SS1618438527994","trial","","40","500","10330","images/stimuli/spore_stims/complex_13_A_a.gif","images/stimuli/spore_stims/complex_12_A_b.gif","forced_short","","1","complex_dissimilar","images/stimuli/spore_stims/complex_12_A_b.gif","","","","",""
"","null","html-keyboard-response","26","317591","0.0-11.0-0.4","SS1618438527994","","","null","","","","","","<p><img src= images/blank.png width =""600"" height = ""600"" style=""position:fixed;top:50%; left:50%; transform: translate(-50%, -50%); border:5px solid black"">","","","","","","","",""
"","6449","sequential-stimulus-presentation-old","27","324561","0.0-11.0-1.4","SS1618438527994","trial","","40","500","6949","images/stimuli/spore_stims/complex_13_A_a.gif","images/stimuli/spore_stims/complex_12_A_b.gif","forced_short","","1","complex_dissimilar","images/stimuli/spore_stims/complex_12_A_b.gif","","","","",""
"","null","html-keyboard-response","28","325832","0.0-11.0-0.5","SS1618438527994","","","null","","","","","","<p><img src= images/blank.png width =""600"" height = ""600"" style=""position:fixed;top:50%; left:50%; transform: translate(-50%, -50%); border:5px solid black"">","","","","","","","",""
"","8074","sequential-stimulus-presentation-old","29","334427","0.0-11.0-1.5","SS1618438527994","trial","","40","500","8574","images/stimuli/spore_stims/complex_13_A_a.gif","images/stimuli/spore_stims/complex_12_A_b.gif","forced_short","","1","complex_dissimilar","images/stimuli/spore_stims/complex_12_A_b.gif","","","","",""
"","6814","survey-multi-choice","30","341244","0.0-12.0","SS1618438527994","math_question","","","","","","","","","","","","{""Q0"":""8""}","[0]","8","",""
"","null","html-keyboard-response","31","342362","0.0-13.0-0.0","SS1618438527994","","","null","","","","","","<p><img src= images/blank.png width =""600"" height = ""600"" style=""position:fixed;top:50%; left:50%; transform: translate(-50%, -50%); border:5px solid black"">","","","","","","","",""
"","6157","sequential-stimulus-presentation-old","32","349029","0.0-13.0-1.0","SS1618438527994","trial","","40","500","6657","images/stimuli/spore_stims/complex_04_A_b.gif","images/stimuli/spore_stims/complex_07_A_a.gif","self_paced","","2","complex_dissimilar","images/stimuli/spore_stims/complex_07_A_a.gif","","","","",""
"","null","html-keyboard-response","33","349922","0.0-13.0-0.1","SS1618438527994","","","null","","","","","","<p><img src= images/blank.png width =""600"" height = ""600"" style=""position:fixed;top:50%; left:50%; transform: translate(-50%, -50%); border:5px solid black"">","","","","","","","",""
"","6741","sequential-stimulus-presentation-old","34","357183","0.0-13.0-1.1","SS1618438527994","trial","","40","500","7241","images/stimuli/spore_stims/complex_04_A_b.gif","images/stimuli/spore_stims/complex_07_A_a.gif","self_paced","","2","complex_dissimilar","images/stimuli/spore_stims/complex_07_A_a.gif","","","","",""
"","null","html-keyboard-response","35","358441","0.0-13.0-0.2","SS1618438527994","","","null","","","","","","<p><img src= images/blank.png width =""600"" height = ""600"" style=""position:fixed;top:50%; left:50%; transform: translate(-50%, -50%); border:5px solid black"">","","","","","","","",""
"","8169","sequential-stimulus-presentation-old","36","367129","0.0-13.0-1.2","SS1618438527994","trial","","40","500","8669","images/stimuli/spore_stims/complex_04_A_b.gif","images/stimuli/spore_stims/complex_07_A_a.gif","self_paced","","2","complex_dissimilar","images/stimuli/spore_stims/complex_07_A_a.gif","","","","",""
"","null","html-keyboard-response","37","368132","0.0-13.0-0.3","SS1618438527994","","","null","","","","","","<p><img src= images/blank.png width =""600"" height = ""600"" style=""position:fixed;top:50%; left:50%; transform: translate(-50%, -50%); border:5px solid black"">","","","","","","","",""
"","6949","sequential-stimulus-presentation-old","38","375600","0.0-13.0-1.3","SS1618438527994","trial","","40","500","7449","images/stimuli/spore_stims/complex_04_A_b.gif","images/stimuli/spore_stims/complex_07_A_a.gif","self_paced","","2","complex_dissimilar","images/stimuli/spore_stims/complex_07_A_a.gif","","","","",""
"","null","html-keyboard-response","39","376741","0.0-13.0-0.4","SS1618438527994","","","null","","","","","","<p><img src= images/blank.png width =""600"" height = ""600"" style=""position:fixed;top:50%; left:50%; transform: translate(-50%, -50%); border:5px solid black"">","","","","","","","",""
"","5100","sequential-stimulus-presentation-old","40","382361","0.0-13.0-1.4","SS1618438527994","trial","","40","500","5600","images/stimuli/spore_stims/complex_04_A_b.gif","images/stimuli/spore_stims/complex_07_A_a.gif","self_paced","","2","complex_dissimilar","images/stimuli/spore_stims/complex_07_A_a.gif","","","","",""
"","null","html-keyboard-response","41","383221","0.0-13.0-0.5","SS1618438527994","","","null","","","","","","<p><img src= images/blank.png width =""600"" height = ""600"" style=""position:fixed;top:50%; left:50%; transform: translate(-50%, -50%); border:5px solid black"">","","","","","","","",""
"","7030","sequential-stimulus-presentation-old","42","390765","0.0-13.0-1.5","SS1618438527994","trial","","40","500","7530","images/stimuli/spore_stims/complex_04_A_b.gif","images/stimuli/spore_stims/complex_07_A_a.gif","self_paced","","2","complex_dissimilar","images/stimuli/spore_stims/complex_04_A_b.gif","","","","",""
"","5608","survey-multi-choice","43","396377","0.0-14.0","SS1618438527994","math_question","","","","","","","","","","","","{""Q0"":""7""}","[0]","7","",""
"","null","html-keyboard-response","44","397271","0.0-15.0-0.0","SS1618438527994","","","null","","","","","","<p><img src= images/blank.png width =""600"" height = ""600"" style=""position:fixed;top:50%; left:50%; transform: translate(-50%, -50%); border:5px solid black"">","","","","","","","",""
"","4852","sequential-stimulus-presentation-old","45","402643","0.0-15.0-1.0","SS1618438527994","trial","","40","500","5352","images/stimuli/spore_stims/simple_11_A_b.gif","images/stimuli/spore_stims/simple_03_A_a.gif","self_paced","","3","simple_dissimilar","images/stimuli/spore_stims/simple_03_A_a.gif","","","","",""
"","null","html-keyboard-response","46","403461","0.0-15.0-0.1","SS1618438527994","","","null","","","","","","<p><img src= images/blank.png width =""600"" height = ""600"" style=""position:fixed;top:50%; left:50%; transform: translate(-50%, -50%); border:5px solid black"">","","","","","","","",""
"","7157","sequential-stimulus-presentation-old","47","411137","0.0-15.0-1.1","SS1618438527994","trial","","40","500","7657","images/stimuli/spore_stims/simple_11_A_b.gif","images/stimuli/spore_stims/simple_03_A_a.gif","self_paced","","3","simple_dissimilar","images/stimuli/spore_stims/simple_03_A_a.gif","","","","",""
"","null","html-keyboard-response","48","412311","0.0-15.0-0.2","SS1618438527994","","","null","","","","","","<p><img src= images/blank.png width =""600"" height = ""600"" style=""position:fixed;top:50%; left:50%; transform: translate(-50%, -50%); border:5px solid black"">","","","","","","","",""
"","5814","sequential-stimulus-presentation-old","49","418634","0.0-15.0-1.2","SS1618438527994","trial","","40","500","6314","images/stimuli/spore_stims/simple_11_A_b.gif","images/stimuli/spore_stims/simple_03_A_a.gif","self_paced","","3","simple_dissimilar","images/stimuli/spore_stims/simple_03_A_a.gif","","","","",""
"","null","html-keyboard-response","50","419901","0.0-15.0-0.3","SS1618438527994","","","null","","","","","","<p><img src= images/blank.png width =""600"" height = ""600"" style=""position:fixed;top:50%; left:50%; transform: translate(-50%, -50%); border:5px solid black"">","","","","","","","",""
"","5435","sequential-stimulus-presentation-old","51","425855","0.0-15.0-1.3","SS1618438527994","trial","","40","500","5935","images/stimuli/spore_stims/simple_11_A_b.gif","images/stimuli/spore_stims/simple_03_A_a.gif","self_paced","","3","simple_dissimilar","images/stimuli/spore_stims/simple_03_A_a.gif","","","","",""
"","3808","survey-multi-choice","52","429668","0.0-16.0","SS1618438527994","math_question","","","","","","","","","","","","{""Q0"":""11""}","[0]","11","",""
"","null","html-keyboard-response","53","430941","0.0-17.0-0.0","SS1618438527994","","","null","","","","","","<p><img src= images/blank.png width =""600"" height = ""600"" style=""position:fixed;top:50%; left:50%; transform: translate(-50%, -50%); border:5px solid black"">","","","","","","","",""
"","2056","sequential-stimulus-presentation-old","54","433057","0.0-17.0-1.0","SS1618438527994","trial","","40","500","2556","images/stimuli/spore_stims/simple_18_A_a.gif","images/stimuli/spore_stims/simple_01_A_b.gif","forced_short","","4","simple_dissimilar","images/stimuli/spore_stims/simple_01_A_b.gif","","","","",""
"","null","html-keyboard-response","55","434300","0.0-17.0-0.1","SS1618438527994","","","null","","","","","","<p><img src= images/blank.png width =""600"" height = ""600"" style=""position:fixed;top:50%; left:50%; transform: translate(-50%, -50%); border:5px solid black"">","","","","","","","",""
"","3823","sequential-stimulus-presentation-old","56","438644","0.0-17.0-1.1","SS1618438527994","trial","","40","500","4323","images/stimuli/spore_stims/simple_18_A_a.gif","images/stimuli/spore_stims/simple_01_A_b.gif","forced_short","","4","simple_dissimilar","images/stimuli/spore_stims/simple_18_A_a.gif","","","","",""
"","null","html-keyboard-response","57","439590","0.0-17.0-0.2","SS1618438527994","","","null","","","","","","<p><img src= images/blank.png width =""600"" height = ""600"" style=""position:fixed;top:50%; left:50%; transform: translate(-50%, -50%); border:5px solid black"">","","","","","","","",""
"","5242","sequential-stimulus-presentation-old","58","445351","0.0-17.0-1.2","SS1618438527994","trial","","40","500","5742","images/stimuli/spore_stims/simple_18_A_a.gif","images/stimuli/spore_stims/simple_01_A_b.gif","forced_short","","4","simple_dissimilar","images/stimuli/spore_stims/simple_01_A_b.gif","","","","",""
"","null","html-keyboard-response","59","446571","0.0-17.0-0.3","SS1618438527994","","","null","","","","","","<p><img src= images/blank.png width =""600"" height = ""600"" style=""position:fixed;top:50%; left:50%; transform: translate(-50%, -50%); border:5px solid black"">","","","","","","","",""
"","6138","sequential-stimulus-presentation-old","60","453227","0.0-17.0-1.3","SS1618438527994","trial","","40","500","6638","images/stimuli/spore_stims/simple_18_A_a.gif","images/stimuli/spore_stims/simple_01_A_b.gif","forced_short","","4","simple_dissimilar","images/stimuli/spore_stims/simple_01_A_b.gif","","","","",""
"","10239","survey-multi-choice","61","463469","0.0-18.0","SS1618438527994","math_question","","","","","","","","","","","","{""Q0"":""18""}","[0]","18","",""
"","null","html-keyboard-response","62","464500","0.0-19.0-0.0","SS1618438527994","","","null","","","","","","<p><img src= images/blank.png width =""600"" height = ""600"" style=""position:fixed;top:50%; left:50%; transform: translate(-50%, -50%); border:5px solid black"">","","","","","","","",""
"","2300","sequential-stimulus-presentation-old","63","466860","0.0-19.0-1.0","SS1618438527994","trial","","40","500","2800","images/stimuli/spore_stims/simple_05_A_b.gif","images/stimuli/spore_stims/simple_14_A_a.gif","forced_short","","5","simple_dissimilar","images/stimuli/spore_stims/simple_14_A_a.gif","","","","",""
"","null","html-keyboard-response","64","468010","0.0-19.0-0.1","SS1618438527994","","","null","","","","","","<p><img src= images/blank.png width =""600"" height = ""600"" style=""position:fixed;top:50%; left:50%; transform: translate(-50%, -50%); border:5px solid black"">","","","","","","","",""
"","3755","sequential-stimulus-presentation-old","65","472286","0.0-19.0-1.1","SS1618438527994","trial","","40","500","4255","images/stimuli/spore_stims/simple_05_A_b.gif","images/stimuli/spore_stims/simple_14_A_a.gif","forced_short","","5","simple_dissimilar","images/stimuli/spore_stims/simple_14_A_a.gif","","","","",""
"","null","html-keyboard-response","66","473539","0.0-19.0-0.2","SS1618438527994","","","null","","","","","","<p><img src= images/blank.png width =""600"" height = ""600"" style=""position:fixed;top:50%; left:50%; transform: translate(-50%, -50%); border:5px solid black"">","","","","","","","",""
"","4937","sequential-stimulus-presentation-old","67","478997","0.0-19.0-1.2","SS1618438527994","trial","","40","500","5437","images/stimuli/spore_stims/simple_05_A_b.gif","images/stimuli/spore_stims/simple_14_A_a.gif","forced_short","","5","simple_dissimilar","images/stimuli/spore_stims/simple_14_A_a.gif","","","","",""
"","null","html-keyboard-response","68","479990","0.0-19.0-0.3","SS1618438527994","","","null","","","","","","<p><img src= images/blank.png width =""600"" height = ""600"" style=""position:fixed;top:50%; left:50%; transform: translate(-50%, -50%); border:5px solid black"">","","","","","","","",""
"","4955","sequential-stimulus-presentation-old","69","485465","0.0-19.0-1.3","SS1618438527994","trial","","40","500","5455","images/stimuli/spore_stims/simple_05_A_b.gif","images/stimuli/spore_stims/simple_14_A_a.gif","forced_short","","5","simple_dissimilar","images/stimuli/spore_stims/simple_14_A_a.gif","","","","",""
"","3777","survey-multi-choice","70","489247","0.0-20.0","SS1618438527994","math_question","","","","","","","","","","","","{""Q0"":""6""}","[0]","6","",""
"","null","html-keyboard-response","71","490420","0.0-21.0-0.0","SS1618438527994","","","null","","","","","","<p><img src= images/blank.png width =""600"" height = ""600"" style=""position:fixed;top:50%; left:50%; transform: translate(-50%, -50%); border:5px solid black"">","","","","","","","",""
"","1605","sequential-stimulus-presentation-old","72","497034","0.0-21.0-1.0","SS1618438527994","trial","","40","500","2105","images/stimuli/spore_stims/complex_09_A_a.gif","images/stimuli/spore_stims/complex_20_A_b.gif","forced_long","","6","complex_dissimilar","images/stimuli/spore_stims/complex_20_A_b.gif","","","","",""
"","null","html-keyboard-response","73","498170","0.0-21.0-0.1","SS1618438527994","","","null","","","","","","<p><img src= images/blank.png width =""600"" height = ""600"" style=""position:fixed;top:50%; left:50%; transform: translate(-50%, -50%); border:5px solid black"">","","","","","","","",""
"","5669","sequential-stimulus-presentation-old","74","504358","0.0-21.0-1.1","SS1618438527994","trial","","40","500","6169","images/stimuli/spore_stims/complex_09_A_a.gif","images/stimuli/spore_stims/complex_20_A_b.gif","forced_long","","6","complex_dissimilar","images/stimuli/spore_stims/complex_20_A_b.gif","","","","",""
"","null","html-keyboard-response","75","505580","0.0-21.0-0.2","SS1618438527994","","","null","","","","","","<p><img src= images/blank.png width =""600"" height = ""600"" style=""position:fixed;top:50%; left:50%; transform: translate(-50%, -50%); border:5px solid black"">","","","","","","","",""
"","6390","sequential-stimulus-presentation-old","76","512490","0.0-21.0-1.2","SS1618438527994","trial","","40","500","6890","images/stimuli/spore_stims/complex_09_A_a.gif","images/stimuli/spore_stims/complex_20_A_b.gif","forced_long","","6","complex_dissimilar","images/stimuli/spore_stims/complex_09_A_a.gif","","","","",""
"","null","html-keyboard-response","77","513375","0.0-21.0-0.3","SS1618438527994","","","null","","","","","","<p><img src= images/blank.png width =""600"" height = ""600"" style=""position:fixed;top:50%; left:50%; transform: translate(-50%, -50%); border:5px solid black"">","","","","","","","",""
"","4264","sequential-stimulus-presentation-old","78","518165","0.0-21.0-1.3","SS1618438527994","trial","","40","500","4764","images/stimuli/spore_stims/complex_09_A_a.gif","images/stimuli/spore_stims/complex_20_A_b.gif","forced_long","","6","complex_dissimilar","images/stimuli/spore_stims/complex_09_A_a.gif","","","","",""
"","6452","survey-multi-choice","79","524623","0.0-22.0","SS1618438527994","math_question","","","","","","","","","","","","{""Q0"":""9""}","[0]","9","",""
"","null","html-keyboard-response","80","525509","0.0-23.0-0.0","SS1618438527994","","","null","","","","","","<p><img src= images/blank.png width =""600"" height = ""600"" style=""position:fixed;top:50%; left:50%; transform: translate(-50%, -50%); border:5px solid black"">","","","","","","","",""
"","1457","sequential-stimulus-presentation-old","81","531987","0.0-23.0-1.0","SS1618438527994","trial","","40","500","1957","images/stimuli/spore_stims/simple_19_A_b.gif","images/stimuli/spore_stims/simple_05_A_a.gif","forced_long","","7","simple_dissimilar","images/stimuli/spore_stims/simple_05_A_a.gif","","","","",""
"","null","html-keyboard-response","82","533260","0.0-23.0-0.1","SS1618438527994","","","null","","","","","","<p><img src= images/blank.png width =""600"" height = ""600"" style=""position:fixed;top:50%; left:50%; transform: translate(-50%, -50%); border:5px solid black"">","","","","","","","",""
"","4463","sequential-stimulus-presentation-old","83","538242","0.0-23.0-1.1","SS1618438527994","trial","","40","500","4963","images/stimuli/spore_stims/simple_19_A_b.gif","images/stimuli/spore_stims/simple_05_A_a.gif","forced_long","","7","simple_dissimilar","images/stimuli/spore_stims/simple_19_A_b.gif","","","","",""
"","null","html-keyboard-response","84","539539","0.0-23.0-0.2","SS1618438527994","","","null","","","","","","<p><img src= images/blank.png width =""600"" height = ""600"" style=""position:fixed;top:50%; left:50%; transform: translate(-50%, -50%); border:5px solid black"">","","","","","","","",""
"","3435","sequential-stimulus-presentation-old","85","543494","0.0-23.0-1.2","SS1618438527994","trial","","40","500","3935","images/stimuli/spore_stims/simple_19_A_b.gif","images/stimuli/spore_stims/simple_05_A_a.gif","forced_long","","7","simple_dissimilar","images/stimuli/spore_stims/simple_05_A_a.gif","","","","",""
"","null","html-keyboard-response","86","544539","0.0-23.0-0.3","SS1618438527994","","","null","","","","","","<p><img src= images/blank.png width =""600"" height = ""600"" style=""position:fixed;top:50%; left:50%; transform: translate(-50%, -50%); border:5px solid black"">","","","","","","","",""
"","4509","sequential-stimulus-presentation-old","87","549569","0.0-23.0-1.3","SS1618438527994","trial","","40","500","5009","images/stimuli/spore_stims/simple_19_A_b.gif","images/stimuli/spore_stims/simple_05_A_a.gif","forced_long","","7","simple_dissimilar","images/stimuli/spore_stims/simple_05_A_a.gif","","","","",""
"","null","html-keyboard-response","88","550448","0.0-23.0-0.4","SS1618438527994","","","null","","","","","","<p><img src= images/blank.png width =""600"" height = ""600"" style=""position:fixed;top:50%; left:50%; transform: translate(-50%, -50%); border:5px solid black"">","","","","","","","",""
"","3922","sequential-stimulus-presentation-old","89","554892","0.0-23.0-1.4","SS1618438527994","trial","","40","500","4422","images/stimuli/spore_stims/simple_19_A_b.gif","images/stimuli/spore_stims/simple_05_A_a.gif","forced_long","","7","simple_dissimilar","images/stimuli/spore_stims/simple_05_A_a.gif","","","","",""
"","null","html-keyboard-response","90","555749","0.0-23.0-0.5","SS1618438527994","","","null","","","","","","<p><img src= images/blank.png width =""600"" height = ""600"" style=""position:fixed;top:50%; left:50%; transform: translate(-50%, -50%); border:5px solid black"">","","","","","","","",""
"","3077","sequential-stimulus-presentation-old","91","559345","0.0-23.0-1.5","SS1618438527994","trial","","40","500","3577","images/stimuli/spore_stims/simple_19_A_b.gif","images/stimuli/spore_stims/simple_05_A_a.gif","forced_long","","7","simple_dissimilar","images/stimuli/spore_stims/simple_19_A_b.gif","","","","",""
"","4800","survey-multi-choice","92","564151","0.0-24.0","SS1618438527994","math_question","","","","","","","","","","","","{""Q0"":""8""}","[0]","8","",""
"","null","html-keyboard-response","93","565199","0.0-25.0-0.0","SS1618438527994","","","null","","","","","","<p><img src= images/blank.png width =""600"" height = ""600"" style=""position:fixed;top:50%; left:50%; transform: translate(-50%, -50%); border:5px solid black"">","","","","","","","",""
"","2511","sequential-stimulus-presentation-old","94","568230","0.0-25.0-1.0","SS1618438527994","trial","","40","500","3011","images/stimuli/spore_stims/simple_08_A_a.gif","images/stimuli/spore_stims/simple_13_A_b.gif","self_paced","","8","simple_dissimilar","images/stimuli/spore_stims/simple_13_A_b.gif","","","","",""
"","null","html-keyboard-response","95","569334","0.0-25.0-0.1","SS1618438527994","","","null","","","","","","<p><img src= images/blank.png width =""600"" height = ""600"" style=""position:fixed;top:50%; left:50%; transform: translate(-50%, -50%); border:5px solid black"">","","","","","","","",""
"","2517","sequential-stimulus-presentation-old","96","572375","0.0-25.0-1.1","SS1618438527994","trial","","40","500","3017","images/stimuli/spore_stims/simple_08_A_a.gif","images/stimuli/spore_stims/simple_13_A_b.gif","self_paced","","8","simple_dissimilar","images/stimuli/spore_stims/simple_13_A_b.gif","","","","",""
"","null","html-keyboard-response","97","573348","0.0-25.0-0.2","SS1618438527994","","","null","","","","","","<p><img src= images/blank.png width =""600"" height = ""600"" style=""position:fixed;top:50%; left:50%; transform: translate(-50%, -50%); border:5px solid black"">","","","","","","","",""
"","2655","sequential-stimulus-presentation-old","98","576524","0.0-25.0-1.2","SS1618438527994","trial","","40","500","3155","images/stimuli/spore_stims/simple_08_A_a.gif","images/stimuli/spore_stims/simple_13_A_b.gif","self_paced","","8","simple_dissimilar","images/stimuli/spore_stims/simple_13_A_b.gif","","","","",""
"","null","html-keyboard-response","99","577510","0.0-25.0-0.3","SS1618438527994","","","null","","","","","","<p><img src= images/blank.png width =""600"" height = ""600"" style=""position:fixed;top:50%; left:50%; transform: translate(-50%, -50%); border:5px solid black"">","","","","","","","",""
"","4900","sequential-stimulus-presentation-old","100","582918","0.0-25.0-1.3","SS1618438527994","trial","","40","500","5400","images/stimuli/spore_stims/simple_08_A_a.gif","images/stimuli/spore_stims/simple_13_A_b.gif","self_paced","","8","simple_dissimilar","images/stimuli/spore_stims/simple_13_A_b.gif","","","","",""
"","null","html-keyboard-response","101","583929","0.0-25.0-0.4","SS1618438527994","","","null","","","","","","<p><img src= images/blank.png width =""600"" height = ""600"" style=""position:fixed;top:50%; left:50%; transform: translate(-50%, -50%); border:5px solid black"">","","","","","","","",""
"","1523","sequential-stimulus-presentation-old","102","585970","0.0-25.0-1.4","SS1618438527994","trial","","40","500","2023","images/stimuli/spore_stims/simple_08_A_a.gif","images/stimuli/spore_stims/simple_13_A_b.gif","self_paced","","8","simple_dissimilar","images/stimuli/spore_stims/simple_13_A_b.gif","","","","",""
"","null","html-keyboard-response","103","587155","0.0-25.0-0.5","SS1618438527994","","","null","","","","","","<p><img src= images/blank.png width =""600"" height = ""600"" style=""position:fixed;top:50%; left:50%; transform: translate(-50%, -50%); border:5px solid black"">","","","","","","","",""
"","2311","sequential-stimulus-presentation-old","104","589979","0.0-25.0-1.5","SS1618438527994","trial","","40","500","2811","images/stimuli/spore_stims/simple_08_A_a.gif","images/stimuli/spore_stims/simple_13_A_b.gif","self_paced","","8","simple_dissimilar","images/stimuli/spore_stims/simple_13_A_b.gif","","","","",""
"","5925","survey-multi-choice","105","595912","0.0-26.0","SS1618438527994","math_question","","","","","","","","","","","","{""Q0"":""3""}","[0]","3","",""
"","null","html-keyboard-response","106","596888","0.0-27.0-0.0","SS1618438527994","","","null","","","","","","<p><img src= images/blank.png width =""600"" height = ""600"" style=""position:fixed;top:50%; left:50%; transform: translate(-50%, -50%); border:5px solid black"">","","","","","","","",""
"","6494","sequential-stimulus-presentation-old","107","603902","0.0-27.0-1.0","SS1618438527994","trial","","40","500","6994","images/stimuli/spore_stims/complex_20_A_a.gif","images/stimuli/spore_stims/complex_08_A_b.gif","self_paced","","9","complex_dissimilar","images/stimuli/spore_stims/complex_08_A_b.gif","","","","",""
"","null","html-keyboard-response","108","604748","0.0-27.0-0.1","SS1618438527994","","","null","","","","","","<p><img src= images/blank.png width =""600"" height = ""600"" style=""position:fixed;top:50%; left:50%; transform: translate(-50%, -50%); border:5px solid black"">","","","","","","","",""
"","2279","sequential-stimulus-presentation-old","109","607548","0.0-27.0-1.1","SS1618438527994","trial","","40","500","2779","images/stimuli/spore_stims/complex_20_A_a.gif","images/stimuli/spore_stims/complex_08_A_b.gif","self_paced","","9","complex_dissimilar","images/stimuli/spore_stims/complex_08_A_b.gif","","","","",""
"","null","html-keyboard-response","110","608628","0.0-27.0-0.2","SS1618438527994","","","null","","","","","","<p><img src= images/blank.png width =""600"" height = ""600"" style=""position:fixed;top:50%; left:50%; transform: translate(-50%, -50%); border:5px solid black"">","","","","","","","",""
"","2865","sequential-stimulus-presentation-old","111","612014","0.0-27.0-1.2","SS1618438527994","trial","","40","500","3365","images/stimuli/spore_stims/complex_20_A_a.gif","images/stimuli/spore_stims/complex_08_A_b.gif","self_paced","","9","complex_dissimilar","images/stimuli/spore_stims/complex_08_A_b.gif","","","","",""
"","null","html-keyboard-response","112","613089","0.0-27.0-0.3","SS1618438527994","","","null","","","","","","<p><img src= images/blank.png width =""600"" height = ""600"" style=""position:fixed;top:50%; left:50%; transform: translate(-50%, -50%); border:5px solid black"">","","","","","","","",""
"","3287","sequential-stimulus-presentation-old","113","616895","0.0-27.0-1.3","SS1618438527994","trial","","40","500","3787","images/stimuli/spore_stims/complex_20_A_a.gif","images/stimuli/spore_stims/complex_08_A_b.gif","self_paced","","9","complex_dissimilar","images/stimuli/spore_stims/complex_20_A_a.gif","","","","",""
"","null","html-keyboard-response","114","617788","0.0-27.0-0.4","SS1618438527994","","","null","","","","","","<p><img src= images/blank.png width =""600"" height = ""600"" style=""position:fixed;top:50%; left:50%; transform: translate(-50%, -50%); border:5px solid black"">","","","","","","","",""
"","3425","sequential-stimulus-presentation-old","115","621732","0.0-27.0-1.4","SS1618438527994","trial","","40","500","3925","images/stimuli/spore_stims/complex_20_A_a.gif","images/stimuli/spore_stims/complex_08_A_b.gif","self_paced","","9","complex_dissimilar","images/stimuli/spore_stims/complex_20_A_a.gif","","","","",""
"","4418","survey-multi-choice","116","626157","0.0-28.0","SS1618438527994","math_question","","","","","","","","","","","","{""Q0"":""14""}","[0]","14","",""
"","null","html-keyboard-response","117","627458","0.0-29.0-0.0","SS1618438527994","","","null","","","","","","<p><img src= images/blank.png width =""600"" height = ""600"" style=""position:fixed;top:50%; left:50%; transform: translate(-50%, -50%); border:5px solid black"">","","","","","","","",""
"","1932","sequential-stimulus-presentation-old","118","629451","0.0-29.0-1.0","SS1618438527994","trial","","40","500","2432","images/stimuli/spore_stims/complex_01_A_b.gif","images/stimuli/spore_stims/complex_10_A_a.gif","forced_short","","10","complex_dissimilar","images/stimuli/spore_stims/complex_10_A_a.gif","","","","",""
"","null","html-keyboard-response","119","630508","0.0-29.0-0.1","SS1618438527994","","","null","","","","","","<p><img src= images/blank.png width =""600"" height = ""600"" style=""position:fixed;top:50%; left:50%; transform: translate(-50%, -50%); border:5px solid black"">","","","","","","","",""
"","5046","sequential-stimulus-presentation-old","120","636073","0.0-29.0-1.1","SS1618438527994","trial","","40","500","5546","images/stimuli/spore_stims/complex_01_A_b.gif","images/stimuli/spore_stims/complex_10_A_a.gif","forced_short","","10","complex_dissimilar","images/stimuli/spore_stims/complex_10_A_a.gif","","","","",""
"","null","html-keyboard-response","121","637048","0.0-29.0-0.2","SS1618438527994","","","null","","","","","","<p><img src= images/blank.png width =""600"" height = ""600"" style=""position:fixed;top:50%; left:50%; transform: translate(-50%, -50%); border:5px solid black"">","","","","","","","",""
"","1799","sequential-stimulus-presentation-old","122","639366","0.0-29.0-1.2","SS1618438527994","trial","","40","500","2299","images/stimuli/spore_stims/complex_01_A_b.gif","images/stimuli/spore_stims/complex_10_A_a.gif","forced_short","","10","complex_dissimilar","images/stimuli/spore_stims/complex_10_A_a.gif","","","","",""
"","null","html-keyboard-response","123","640298","0.0-29.0-0.3","SS1618438527994","","","null","","","","","","<p><img src= images/blank.png width =""600"" height = ""600"" style=""position:fixed;top:50%; left:50%; transform: translate(-50%, -50%); border:5px solid black"">","","","","","","","",""
"","4716","sequential-stimulus-presentation-old","124","645524","0.0-29.0-1.3","SS1618438527994","trial","","40","500","5216","images/stimuli/spore_stims/complex_01_A_b.gif","images/stimuli/spore_stims/complex_10_A_a.gif","forced_short","","10","complex_dissimilar","images/stimuli/spore_stims/complex_10_A_a.gif","","","","",""
"","null","html-keyboard-response","125","646738","0.0-29.0-0.4","SS1618438527994","","","null","","","","","","<p><img src= images/blank.png width =""600"" height = ""600"" style=""position:fixed;top:50%; left:50%; transform: translate(-50%, -50%); border:5px solid black"">","","","","","","","",""
"","2736","sequential-stimulus-presentation-old","126","649993","0.0-29.0-1.4","SS1618438527994","trial","","40","500","3236","images/stimuli/spore_stims/complex_01_A_b.gif","images/stimuli/spore_stims/complex_10_A_a.gif","forced_short","","10","complex_dissimilar","images/stimuli/spore_stims/complex_01_A_b.gif","","","","",""
"","4341","survey-multi-choice","127","654339","0.0-30.0","SS1618438527994","math_question","","","","","","","","","","","","{""Q0"":""12""}","[0]","12","",""
"","null","html-keyboard-response","128","655638","0.0-31.0-0.0","SS1618438527994","","","null","","","","","","<p><img src= images/blank.png width =""600"" height = ""600"" style=""position:fixed;top:50%; left:50%; transform: translate(-50%, -50%); border:5px solid black"">","","","","","","","",""
"","1642","sequential-stimulus-presentation-old","129","662300","0.0-31.0-1.0","SS1618438527994","trial","","40","500","2142","images/stimuli/spore_stims/complex_16_A_a.gif","images/stimuli/spore_stims/complex_13_A_b.gif","forced_long","","11","complex_dissimilar","images/stimuli/spore_stims/complex_13_A_b.gif","","","","",""
"","null","html-keyboard-response","130","663548","0.0-31.0-0.1","SS1618438527994","","","null","","","","","","<p><img src= images/blank.png width =""600"" height = ""600"" style=""position:fixed;top:50%; left:50%; transform: translate(-50%, -50%); border:5px solid black"">","","","","","","","",""
"","4265","sequential-stimulus-presentation-old","131","668335","0.0-31.0-1.1","SS1618438527994","trial","","40","500","4765","images/stimuli/spore_stims/complex_16_A_a.gif","images/stimuli/spore_stims/complex_13_A_b.gif","forced_long","","11","complex_dissimilar","images/stimuli/spore_stims/complex_16_A_a.gif","","","","",""
"","null","html-keyboard-response","132","669338","0.0-31.0-0.2","SS1618438527994","","","null","","","","","","<p><img src= images/blank.png width =""600"" height = ""600"" style=""position:fixed;top:50%; left:50%; transform: translate(-50%, -50%); border:5px solid black"">","","","","","","","",""
"","3736","sequential-stimulus-presentation-old","133","673593","0.0-31.0-1.2","SS1618438527994","trial","","40","500","4236","images/stimuli/spore_stims/complex_16_A_a.gif","images/stimuli/spore_stims/complex_13_A_b.gif","forced_long","","11","complex_dissimilar","images/stimuli/spore_stims/complex_13_A_b.gif","","","","",""
"","null","html-keyboard-response","134","674498","0.0-31.0-0.3","SS1618438527994","","","null","","","","","","<p><img src= images/blank.png width =""600"" height = ""600"" style=""position:fixed;top:50%; left:50%; transform: translate(-50%, -50%); border:5px solid black"">","","","","","","","",""
"","2932","sequential-stimulus-presentation-old","135","677950","0.0-31.0-1.3","SS1618438527994","trial","","40","500","3432","images/stimuli/spore_stims/complex_16_A_a.gif","images/stimuli/spore_stims/complex_13_A_b.gif","forced_long","","11","complex_dissimilar","images/stimuli/spore_stims/complex_13_A_b.gif","","","","",""
"","null","html-keyboard-response","136","678898","0.0-31.0-0.4","SS1618438527994","","","null","","","","","","<p><img src= images/blank.png width =""600"" height = ""600"" style=""position:fixed;top:50%; left:50%; transform: translate(-50%, -50%); border:5px solid black"">","","","","","","","",""
"","3503","sequential-stimulus-presentation-old","137","682920","0.0-31.0-1.4","SS1618438527994","trial","","40","500","4003","images/stimuli/spore_stims/complex_16_A_a.gif","images/stimuli/spore_stims/complex_13_A_b.gif","forced_long","","11","complex_dissimilar","images/stimuli/spore_stims/complex_13_A_b.gif","","","","",""
"[{""page_index"":0,""viewing_time"":5027}]","5028","instructions","138","687955","0.0-32.0","SS1618438527994","instructions","","","","","","","","","","","","","","","",""
"","12612","survey-likert","139","700574","0.0-33.0","SS1618438527994","similarity_question","","","","","","","","","","","","{""Q0"":1}","[0]","","images/stimuli/spore_stims/complex_13_A_b.gif","images/stimuli/spore_stims/complex_16_A_a.gif"
"","14134","survey-likert","140","714717","0.0-34.0","SS1618438527994","similarity_question","","","","","","","","","","","","{""Q0"":0}","[0]","","images/stimuli/spore_stims/complex_12_A_b.gif","images/stimuli/spore_stims/complex_13_A_a.gif"
"","11211","survey-likert","141","725935","0.0-35.0","SS1618438527994","similarity_question","","","","","","","","","","","","{""Q0"":2}","[0]","","images/stimuli/spore_stims/complex_20_A_a.gif","images/stimuli/spore_stims/complex_08_A_b.gif"
"","8724","survey-likert","142","734667","0.0-36.0","SS1618438527994","similarity_question","","","","","","","","","","","","{""Q0"":3}","[0]","","images/stimuli/spore_stims/simple_05_A_b.gif","images/stimuli/spore_stims/simple_14_A_a.gif"
"","6387","survey-likert","143","741063","0.0-37.0","SS1618438527994","similarity_question","","","","","","","","","","","","{""Q0"":2}","[0]","","images/stimuli/spore_stims/simple_19_A_b.gif","images/stimuli/spore_stims/simple_05_A_a.gif"
"","6484","survey-likert","144","747555","0.0-38.0","SS1618438527994","similarity_question","","","","","","","","","","","","{""Q0"":3}","[0]","","images/stimuli/spore_stims/simple_01_A_b.gif","images/stimuli/spore_stims/simple_18_A_a.gif"
"","8200","survey-likert","145","755761","0.0-39.0","SS1618438527994","similarity_question","","","","","","","","","","","","{""Q0"":2}","[0]","","images/stimuli/spore_stims/complex_10_A_a.gif","images/stimuli/spore_stims/complex_01_A_b.gif"
"","8888","survey-likert","146","764656","0.0-40.0","SS1618438527994","similarity_question","","","","","","","","","","","","{""Q0"":1}","[0]","","images/stimuli/spore_stims/complex_09_A_a.gif","images/stimuli/spore_stims/complex_20_A_b.gif"
"","5752","survey-likert","147","770416","0.0-41.0","SS1618438527994","similarity_question","","","","","","","","","","","","{""Q0"":3}","[0]","","images/stimuli/spore_stims/simple_11_A_b.gif","images/stimuli/spore_stims/simple_03_A_a.gif"
"","5710","survey-likert","148","776136","0.0-42.0","SS1618438527994","similarity_question","","","","","","","","","","","","{""Q0"":3}","[0]","","images/stimuli/spore_stims/simple_19_A_a.gif","images/stimuli/spore_stims/simple_12_A_b.gif"
"","8277","survey-likert","149","784420","0.0-43.0","SS1618438527994","similarity_question","","","","","","","","","","","","{""Q0"":2}","[0]","","images/stimuli/spore_stims/complex_04_A_b.gif","images/stimuli/spore_stims/complex_07_A_a.gif"
"","11526","survey-likert","150","795954","0.0-44.0","SS1618438527994","similarity_question","","","","","","","","","","","","{""Q0"":3}","[0]","","images/stimuli/spore_stims/simple_08_A_a.gif","images/stimuli/spore_stims/simple_13_A_b.gif"
"[{""page_index"":0,""viewing_time"":5035}]","5036","instructions","151","800997","0.0-45.0","SS1618438527994","instructions","","","","","","","","","","","","","","","",""
"","9670","survey-likert","152","810673","0.0-46.0","SS1618438527994","","","","","","","","","images/stimuli/spore_stims/complex_08_A_b.gif","","","","{""Q0"":3}","[0]","","",""
"","3541","survey-likert","153","814224","0.0-47.0","SS1618438527994","","","","","","","","","images/stimuli/spore_stims/simple_08_A_a.gif","","","","{""Q0"":1}","[0]","","",""
"","5084","survey-likert","154","819316","0.0-48.0","SS1618438527994","","","","","","","","","images/stimuli/spore_stims/simple_01_A_b.gif","","","","{""Q0"":0}","[0]","","",""
"","4487","survey-likert","155","823809","0.0-49.0","SS1618438527994","","","","","","","","","images/stimuli/spore_stims/simple_05_A_b.gif","","","","{""Q0"":0}","[0]","","",""
"","5730","survey-likert","156","829545","0.0-50.0","SS1618438527994","","","","","","","","","images/stimuli/spore_stims/complex_12_A_b.gif","","","","{""Q0"":4}","[0]","","",""
"","4214","survey-likert","157","833769","0.0-51.0","SS1618438527994","","","","","","","","","images/stimuli/spore_stims/complex_07_A_a.gif","","","","{""Q0"":4}","[0]","","",""
"","4915","survey-likert","158","838691","0.0-52.0","SS1618438527994","","","","","","","","","images/stimuli/spore_stims/simple_12_A_b.gif","","","","{""Q0"":0}","[0]","","",""
"","7030","survey-likert","159","845729","0.0-53.0","SS1618438527994","","","","","","","","","images/stimuli/spore_stims/complex_16_A_a.gif","","","","{""Q0"":4}","[0]","","",""
"","6480","survey-likert","160","852218","0.0-54.0","SS1618438527994","","","","","","","","","images/stimuli/spore_stims/complex_20_A_b.gif","","","","{""Q0"":6}","[0]","","",""
"","6811","survey-likert","161","859037","0.0-55.0","SS1618438527994","","","","","","","","","images/stimuli/spore_stims/complex_01_A_b.gif","","","","{""Q0"":2}","[0]","","",""
"","3249","survey-likert","162","862294","0.0-56.0","SS1618438527994","","","","","","","","","images/stimuli/spore_stims/simple_11_A_b.gif","","","","{""Q0"":0}","[0]","","",""
"","2845","survey-likert","163","865147","0.0-57.0","SS1618438527994","","","","","","","","","images/stimuli/spore_stims/simple_05_A_a.gif","","","","{""Q0"":0}","[0]","","",""
"[{""page_index"":0,""viewing_time"":10141}]","10141","instructions","164","875296","0.0-58.0","SS1618438527994","instructions","","","","","","","","","","","","","","","",""
"","3938","demog-age","165","879243","0.0-59.0","SS1618438527994","","","","","","","","","","","","","{""age"":""48""}","","","",""
"","4361","demog-ethnic-US","166","883613","0.0-60.0","SS1618438527994","","","","","","","","","","","","","{""ethnicity"":[""White""]}","[0]","","",""
"","11850","demog-gender-and-education","167","895471","0.0-61.0","SS1618438527994","","","","","","","","","","","","","{""gender"":""Male"",""education"":""Master's Degree""}","[0,1]","","",""
"","115327","survey-text","168","1010808","0.0-62.0","SS1618438527994","feedback","","","","","","","","","","","","{""Q0"":""no issue. I just thought some creatures had a quite \""phallic\"" shape... for babies?...""}","","","",""
"[{""page_index"":0,""viewing_time"":3325}]","3325","instructions","169","1014137","0.0-63.0","SS1618438527994","instructions","","","","","","","","","","","","","","","",""
