"view_history","rt","trial_type","trial_index","time_elapsed","internal_node_id","subject","stimulus_type","trial_stimulus","key_press","minimum_viewing_duration","trial_looking_time","block_deviant","block_background","exposure_type","stimulus","block_number","block_type","stimulus_displayed","responses","question_order","math_correct_answer","stimulus_left","stimulus_right"
"[{""page_index"":0,""viewing_time"":17606.43000015989}]","17607.650000136346","instructions","0","17610","0.0-0.0","SS1618365490907","","","","","","","","","","","","","","","","",""
"[{""page_index"":0,""viewing_time"":12826.550000114366},{""page_index"":1,""viewing_time"":5256.05500000529}]","18082.905000075698","instructions","1","37697","0.0-1.0","SS1618365490907","instructions","","","","","","","","","","","","","","","",""
"","5629.324999870732","sequential-stimulus-presentation-old","2","43830","0.0-2.0","SS1618365490907","","","40","500","6129.324999870732","null","null","self_paced","","","","","","","","",""
"","6614.415000192821","sequential-stimulus-presentation-old","3","50947","0.0-3.0","SS1618365490907","","","40","500","7114.415000192821","null","null","self_paced","","","","","","","","",""
"[{""page_index"":0,""viewing_time"":15868.509999942034}]","15868.950000032783","instructions","4","66818","0.0-4.0","SS1618365490907","instructions","","","","","","","","","","","","","","","",""
"","6499.539999989793","sequential-stimulus-presentation-old","5","78324","0.0-5.0","SS1618365490907","","","40","500","6999.539999989793","null","null","forced_long","","","","","","","","",""
"","4703.334999969229","sequential-stimulus-presentation-old","6","83083","0.0-6.0","SS1618365490907","","","40","50","4753.334999969229","null","null","forced_long","","","","","","","","",""
"[{""page_index"":0,""viewing_time"":3165.410000132397}]","3165.745000122115","instructions","7","86251","0.0-7.0","SS1618365490907","instructions","","","","","","","","","","","","","","","",""
"[{""page_index"":0,""viewing_time"":9250.454999972135},{""page_index"":1,""viewing_time"":11688.020000001416},{""page_index"":2,""viewing_time"":7421.589999925345},{""page_index"":3,""viewing_time"":1809.5050000119954},{""page_index"":4,""viewing_time"":1387.7300000749528}]","31557.664999971166","instructions","8","117811","0.0-8.0","SS1618365490907","instructions","","","","","","","","","","","","","","","",""
"","null","html-keyboard-response","9","118662","0.0-9.0-0.0","SS1618365490907","","","null","","","","","","<p><img src= images/blank.png width =""600"" height = ""600"" style=""position:fixed;top:50%; left:50%; transform: translate(-50%, -50%); border:5px solid black"">","","","","","","","",""
"","1655.640000011772","sequential-stimulus-presentation-old","10","125327","0.0-9.0-1.0","SS1618365490907","trial","","40","500","2155.640000011772","images/stimuli/spore_stims/complex_12_A_b.gif","images/stimuli/spore_stims/complex_08_A_a.gif","forced_long","","0","complex_dissimilar","images/stimuli/spore_stims/complex_08_A_a.gif","","","","",""
"","null","html-keyboard-response","11","126433","0.0-9.0-0.1","SS1618365490907","","","null","","","","","","<p><img src= images/blank.png width =""600"" height = ""600"" style=""position:fixed;top:50%; left:50%; transform: translate(-50%, -50%); border:5px solid black"">","","","","","","","",""
"","7941.9499998912215","sequential-stimulus-presentation-old","12","134880","0.0-9.0-1.1","SS1618365490907","trial","","40","500","8441.949999891222","images/stimuli/spore_stims/complex_12_A_b.gif","images/stimuli/spore_stims/complex_08_A_a.gif","forced_long","","0","complex_dissimilar","images/stimuli/spore_stims/complex_08_A_a.gif","","","","",""
"","null","html-keyboard-response","13","136103","0.0-9.0-0.2","SS1618365490907","","","null","","","","","","<p><img src= images/blank.png width =""600"" height = ""600"" style=""position:fixed;top:50%; left:50%; transform: translate(-50%, -50%); border:5px solid black"">","","","","","","","",""
"","13760.110000148416","sequential-stimulus-presentation-old","14","150369","0.0-9.0-1.2","SS1618365490907","trial","","40","500","14260.110000148416","images/stimuli/spore_stims/complex_12_A_b.gif","images/stimuli/spore_stims/complex_08_A_a.gif","forced_long","","0","complex_dissimilar","images/stimuli/spore_stims/complex_12_A_b.gif","","","","",""
"","null","html-keyboard-response","15","151250","0.0-9.0-0.3","SS1618365490907","","","null","","","","","","<p><img src= images/blank.png width =""600"" height = ""600"" style=""position:fixed;top:50%; left:50%; transform: translate(-50%, -50%); border:5px solid black"">","","","","","","","",""
"","13290.434999857098","sequential-stimulus-presentation-old","16","165050","0.0-9.0-1.3","SS1618365490907","trial","","40","500","13790.434999857098","images/stimuli/spore_stims/complex_12_A_b.gif","images/stimuli/spore_stims/complex_08_A_a.gif","forced_long","","0","complex_dissimilar","images/stimuli/spore_stims/complex_08_A_a.gif","","","","",""
"","null","html-keyboard-response","17","166172","0.0-9.0-0.4","SS1618365490907","","","null","","","","","","<p><img src= images/blank.png width =""600"" height = ""600"" style=""position:fixed;top:50%; left:50%; transform: translate(-50%, -50%); border:5px solid black"">","","","","","","","",""
"","5861.874999944121","sequential-stimulus-presentation-old","18","172542","0.0-9.0-1.4","SS1618365490907","trial","","40","500","6361.874999944121","images/stimuli/spore_stims/complex_12_A_b.gif","images/stimuli/spore_stims/complex_08_A_a.gif","forced_long","","0","complex_dissimilar","images/stimuli/spore_stims/complex_12_A_b.gif","","","","",""
"","5060.855000047013","survey-multi-choice","19","177612","0.0-10.0","SS1618365490907","math_question","","","","","","","","","","","","{""Q0"":""9""}","[0]","9","",""
"","null","html-keyboard-response","20","178787","0.0-11.0-0.0","SS1618365490907","","","null","","","","","","<p><img src= images/blank.png width =""600"" height = ""600"" style=""position:fixed;top:50%; left:50%; transform: translate(-50%, -50%); border:5px solid black"">","","","","","","","",""
"","12596.174999838695","sequential-stimulus-presentation-old","21","191440","0.0-11.0-1.0","SS1618365490907","trial","","40","500","13096.174999838695","images/stimuli/spore_stims/complex_09_A_b.gif","images/stimuli/spore_stims/complex_20_A_a.gif","forced_short","","1","complex_dissimilar","images/stimuli/spore_stims/complex_20_A_a.gif","","","","",""
"","null","html-keyboard-response","22","192720","0.0-11.0-0.1","SS1618365490907","","","null","","","","","","<p><img src= images/blank.png width =""600"" height = ""600"" style=""position:fixed;top:50%; left:50%; transform: translate(-50%, -50%); border:5px solid black"">","","","","","","","",""
"","6518.245000159368","sequential-stimulus-presentation-old","23","199743","0.0-11.0-1.1","SS1618365490907","trial","","40","500","7018.245000159368","images/stimuli/spore_stims/complex_09_A_b.gif","images/stimuli/spore_stims/complex_20_A_a.gif","forced_short","","1","complex_dissimilar","images/stimuli/spore_stims/complex_09_A_b.gif","","","","",""
"","null","html-keyboard-response","24","200604","0.0-11.0-0.2","SS1618365490907","","","null","","","","","","<p><img src= images/blank.png width =""600"" height = ""600"" style=""position:fixed;top:50%; left:50%; transform: translate(-50%, -50%); border:5px solid black"">","","","","","","","",""
"","8144.285000162199","sequential-stimulus-presentation-old","25","209254","0.0-11.0-1.2","SS1618365490907","trial","","40","500","8644.2850001622","images/stimuli/spore_stims/complex_09_A_b.gif","images/stimuli/spore_stims/complex_20_A_a.gif","forced_short","","1","complex_dissimilar","images/stimuli/spore_stims/complex_20_A_a.gif","","","","",""
"","null","html-keyboard-response","26","210284","0.0-11.0-0.3","SS1618365490907","","","null","","","","","","<p><img src= images/blank.png width =""600"" height = ""600"" style=""position:fixed;top:50%; left:50%; transform: translate(-50%, -50%); border:5px solid black"">","","","","","","","",""
"","3780.2000001538545","sequential-stimulus-presentation-old","27","214571","0.0-11.0-1.3","SS1618365490907","trial","","40","500","4280.2000001538545","images/stimuli/spore_stims/complex_09_A_b.gif","images/stimuli/spore_stims/complex_20_A_a.gif","forced_short","","1","complex_dissimilar","images/stimuli/spore_stims/complex_20_A_a.gif","","","","",""
"","null","html-keyboard-response","28","215418","0.0-11.0-0.4","SS1618365490907","","","null","","","","","","<p><img src= images/blank.png width =""600"" height = ""600"" style=""position:fixed;top:50%; left:50%; transform: translate(-50%, -50%); border:5px solid black"">","","","","","","","",""
"","716.0249999724329","sequential-stimulus-presentation-old","29","216642","0.0-11.0-1.4","SS1618365490907","trial","","40","500","1216.0249999724329","images/stimuli/spore_stims/complex_09_A_b.gif","images/stimuli/spore_stims/complex_20_A_a.gif","forced_short","","1","complex_dissimilar","images/stimuli/spore_stims/complex_20_A_a.gif","","","","",""
"","3910.1950000040233","survey-multi-choice","30","220556","0.0-12.0","SS1618365490907","math_question","","","","","","","","","","","","{""Q0"":""10""}","[0]","10","",""
"","null","html-keyboard-response","31","221719","0.0-13.0-0.0","SS1618365490907","","","null","","","","","","<p><img src= images/blank.png width =""600"" height = ""600"" style=""position:fixed;top:50%; left:50%; transform: translate(-50%, -50%); border:5px solid black"">","","","","","","","",""
"","12074.454999994487","sequential-stimulus-presentation-old","32","238802","0.0-13.0-1.0","SS1618365490907","trial","","40","500","12574.454999994487","images/stimuli/spore_stims/simple_10_A_a.gif","images/stimuli/spore_stims/simple_01_A_b.gif","forced_long","","2","simple_dissimilar","images/stimuli/spore_stims/simple_01_A_b.gif","","","","",""
"","null","html-keyboard-response","33","239864","0.0-13.0-0.1","SS1618365490907","","","null","","","","","","<p><img src= images/blank.png width =""600"" height = ""600"" style=""position:fixed;top:50%; left:50%; transform: translate(-50%, -50%); border:5px solid black"">","","","","","","","",""
"","3084.7000000067055","sequential-stimulus-presentation-old","34","243454","0.0-13.0-1.1","SS1618365490907","trial","","40","500","3584.7000000067055","images/stimuli/spore_stims/simple_10_A_a.gif","images/stimuli/spore_stims/simple_01_A_b.gif","forced_long","","2","simple_dissimilar","images/stimuli/spore_stims/simple_01_A_b.gif","","","","",""
"","null","html-keyboard-response","35","244680","0.0-13.0-0.2","SS1618365490907","","","null","","","","","","<p><img src= images/blank.png width =""600"" height = ""600"" style=""position:fixed;top:50%; left:50%; transform: translate(-50%, -50%); border:5px solid black"">","","","","","","","",""
"","4140.864999964833","sequential-stimulus-presentation-old","36","249326","0.0-13.0-1.2","SS1618365490907","trial","","40","500","4640.864999964833","images/stimuli/spore_stims/simple_10_A_a.gif","images/stimuli/spore_stims/simple_01_A_b.gif","forced_long","","2","simple_dissimilar","images/stimuli/spore_stims/simple_01_A_b.gif","","","","",""
"","null","html-keyboard-response","37","250369","0.0-13.0-0.3","SS1618365490907","","","null","","","","","","<p><img src= images/blank.png width =""600"" height = ""600"" style=""position:fixed;top:50%; left:50%; transform: translate(-50%, -50%); border:5px solid black"">","","","","","","","",""
"","1954.135000007227","sequential-stimulus-presentation-old","38","252830","0.0-13.0-1.3","SS1618365490907","trial","","40","500","2454.135000007227","images/stimuli/spore_stims/simple_10_A_a.gif","images/stimuli/spore_stims/simple_01_A_b.gif","forced_long","","2","simple_dissimilar","images/stimuli/spore_stims/simple_01_A_b.gif","","","","",""
"","null","html-keyboard-response","39","253759","0.0-13.0-0.4","SS1618365490907","","","null","","","","","","<p><img src= images/blank.png width =""600"" height = ""600"" style=""position:fixed;top:50%; left:50%; transform: translate(-50%, -50%); border:5px solid black"">","","","","","","","",""
"","2151.7099998891354","sequential-stimulus-presentation-old","40","256415","0.0-13.0-1.4","SS1618365490907","trial","","40","500","2651.7099998891354","images/stimuli/spore_stims/simple_10_A_a.gif","images/stimuli/spore_stims/simple_01_A_b.gif","forced_long","","2","simple_dissimilar","images/stimuli/spore_stims/simple_01_A_b.gif","","","","",""
"","null","html-keyboard-response","41","257424","0.0-13.0-0.5","SS1618365490907","","","null","","","","","","<p><img src= images/blank.png width =""600"" height = ""600"" style=""position:fixed;top:50%; left:50%; transform: translate(-50%, -50%); border:5px solid black"">","","","","","","","",""
"","3388.8649998698384","sequential-stimulus-presentation-old","42","261319","0.0-13.0-1.5","SS1618365490907","trial","","40","500","3888.8649998698384","images/stimuli/spore_stims/simple_10_A_a.gif","images/stimuli/spore_stims/simple_01_A_b.gif","forced_long","","2","simple_dissimilar","images/stimuli/spore_stims/simple_10_A_a.gif","","","","",""
"","3658.640000037849","survey-multi-choice","43","264982","0.0-14.0","SS1618365490907","math_question","","","","","","","","","","","","{""Q0"":""16""}","[0]","16","",""
"","null","html-keyboard-response","44","266278","0.0-15.0-0.0","SS1618365490907","","","null","","","","","","<p><img src= images/blank.png width =""600"" height = ""600"" style=""position:fixed;top:50%; left:50%; transform: translate(-50%, -50%); border:5px solid black"">","","","","","","","",""
"","2341.3249999284744","sequential-stimulus-presentation-old","45","268676","0.0-15.0-1.0","SS1618365490907","trial","","40","500","2841.3249999284744","images/stimuli/spore_stims/simple_06_A_b.gif","images/stimuli/spore_stims/simple_14_A_a.gif","forced_short","","3","simple_dissimilar","images/stimuli/spore_stims/simple_14_A_a.gif","","","","",""
"","null","html-keyboard-response","46","269608","0.0-15.0-0.1","SS1618365490907","","","null","","","","","","<p><img src= images/blank.png width =""600"" height = ""600"" style=""position:fixed;top:50%; left:50%; transform: translate(-50%, -50%); border:5px solid black"">","","","","","","","",""
"","1942.6100000273436","sequential-stimulus-presentation-old","47","272058","0.0-15.0-1.1","SS1618365490907","trial","","40","500","2442.6100000273436","images/stimuli/spore_stims/simple_06_A_b.gif","images/stimuli/spore_stims/simple_14_A_a.gif","forced_short","","3","simple_dissimilar","images/stimuli/spore_stims/simple_14_A_a.gif","","","","",""
"","null","html-keyboard-response","48","273136","0.0-15.0-0.2","SS1618365490907","","","null","","","","","","<p><img src= images/blank.png width =""600"" height = ""600"" style=""position:fixed;top:50%; left:50%; transform: translate(-50%, -50%); border:5px solid black"">","","","","","","","",""
"","68.54499992914498","sequential-stimulus-presentation-old","49","273711","0.0-15.0-1.2","SS1618365490907","trial","","40","500","568.544999929145","images/stimuli/spore_stims/simple_06_A_b.gif","images/stimuli/spore_stims/simple_14_A_a.gif","forced_short","","3","simple_dissimilar","images/stimuli/spore_stims/simple_14_A_a.gif","","","","",""
"","null","html-keyboard-response","50","274961","0.0-15.0-0.3","SS1618365490907","","","null","","","","","","<p><img src= images/blank.png width =""600"" height = ""600"" style=""position:fixed;top:50%; left:50%; transform: translate(-50%, -50%); border:5px solid black"">","","","","","","","",""
"","1090.2950000017881","sequential-stimulus-presentation-old","51","276557","0.0-15.0-1.3","SS1618365490907","trial","","40","500","1590.2950000017881","images/stimuli/spore_stims/simple_06_A_b.gif","images/stimuli/spore_stims/simple_14_A_a.gif","forced_short","","3","simple_dissimilar","images/stimuli/spore_stims/simple_14_A_a.gif","","","","",""
"","null","html-keyboard-response","52","277612","0.0-15.0-0.4","SS1618365490907","","","null","","","","","","<p><img src= images/blank.png width =""600"" height = ""600"" style=""position:fixed;top:50%; left:50%; transform: translate(-50%, -50%); border:5px solid black"">","","","","","","","",""
"","996.1600000970066","sequential-stimulus-presentation-old","53","279113","0.0-15.0-1.4","SS1618365490907","trial","","40","500","1496.1600000970066","images/stimuli/spore_stims/simple_06_A_b.gif","images/stimuli/spore_stims/simple_14_A_a.gif","forced_short","","3","simple_dissimilar","images/stimuli/spore_stims/simple_14_A_a.gif","","","","",""
"","null","html-keyboard-response","54","280320","0.0-15.0-0.5","SS1618365490907","","","null","","","","","","<p><img src= images/blank.png width =""600"" height = ""600"" style=""position:fixed;top:50%; left:50%; transform: translate(-50%, -50%); border:5px solid black"">","","","","","","","",""
"","664.155000122264","sequential-stimulus-presentation-old","55","281488","0.0-15.0-1.5","SS1618365490907","trial","","40","500","1164.155000122264","images/stimuli/spore_stims/simple_06_A_b.gif","images/stimuli/spore_stims/simple_14_A_a.gif","forced_short","","3","simple_dissimilar","images/stimuli/spore_stims/simple_14_A_a.gif","","","","",""
"","4253.724999958649","survey-multi-choice","56","285745","0.0-16.0","SS1618365490907","math_question","","","","","","","","","","","","{""Q0"":""4""}","[0]","4","",""
"","null","html-keyboard-response","57","286883","0.0-17.0-0.0","SS1618365490907","","","null","","","","","","<p><img src= images/blank.png width =""600"" height = ""600"" style=""position:fixed;top:50%; left:50%; transform: translate(-50%, -50%); border:5px solid black"">","","","","","","","",""
"","2610.859999898821","sequential-stimulus-presentation-old","58","289554","0.0-17.0-1.0","SS1618365490907","trial","","40","500","3110.859999898821","images/stimuli/spore_stims/complex_07_A_b.gif","images/stimuli/spore_stims/complex_06_A_a.gif","forced_short","","4","complex_dissimilar","images/stimuli/spore_stims/complex_06_A_a.gif","","","","",""
"","null","html-keyboard-response","59","290612","0.0-17.0-0.1","SS1618365490907","","","null","","","","","","<p><img src= images/blank.png width =""600"" height = ""600"" style=""position:fixed;top:50%; left:50%; transform: translate(-50%, -50%); border:5px solid black"">","","","","","","","",""
"","3918.5500000603497","sequential-stimulus-presentation-old","60","295037","0.0-17.0-1.1","SS1618365490907","trial","","40","500","4418.55000006035","images/stimuli/spore_stims/complex_07_A_b.gif","images/stimuli/spore_stims/complex_06_A_a.gif","forced_short","","4","complex_dissimilar","images/stimuli/spore_stims/complex_06_A_a.gif","","","","",""
"","null","html-keyboard-response","61","296254","0.0-17.0-0.2","SS1618365490907","","","null","","","","","","<p><img src= images/blank.png width =""600"" height = ""600"" style=""position:fixed;top:50%; left:50%; transform: translate(-50%, -50%); border:5px solid black"">","","","","","","","",""
"","55.92499999329448","sequential-stimulus-presentation-old","62","296815","0.0-17.0-1.2","SS1618365490907","trial","","40","500","555.9249999932945","images/stimuli/spore_stims/complex_07_A_b.gif","images/stimuli/spore_stims/complex_06_A_a.gif","forced_short","","4","complex_dissimilar","images/stimuli/spore_stims/complex_06_A_a.gif","","","","",""
"","null","html-keyboard-response","63","297621","0.0-17.0-0.3","SS1618365490907","","","null","","","","","","<p><img src= images/blank.png width =""600"" height = ""600"" style=""position:fixed;top:50%; left:50%; transform: translate(-50%, -50%); border:5px solid black"">","","","","","","","",""
"","123.5750000923872","sequential-stimulus-presentation-old","64","298249","0.0-17.0-1.3","SS1618365490907","trial","","40","500","623.5750000923872","images/stimuli/spore_stims/complex_07_A_b.gif","images/stimuli/spore_stims/complex_06_A_a.gif","forced_short","","4","complex_dissimilar","images/stimuli/spore_stims/complex_06_A_a.gif","","","","",""
"","null","html-keyboard-response","65","299540","0.0-17.0-0.4","SS1618365490907","","","null","","","","","","<p><img src= images/blank.png width =""600"" height = ""600"" style=""position:fixed;top:50%; left:50%; transform: translate(-50%, -50%); border:5px solid black"">","","","","","","","",""
"","126.35000003501773","sequential-stimulus-presentation-old","66","300172","0.0-17.0-1.4","SS1618365490907","trial","","40","500","626.3500000350177","images/stimuli/spore_stims/complex_07_A_b.gif","images/stimuli/spore_stims/complex_06_A_a.gif","forced_short","","4","complex_dissimilar","images/stimuli/spore_stims/complex_06_A_a.gif","","","","",""
"","3475.6100000813603","survey-multi-choice","67","303650","0.0-18.0","SS1618365490907","math_question","","","","","","","","","","","","{""Q0"":""8""}","[0]","8","",""
"","null","html-keyboard-response","68","304911","0.0-19.0-0.0","SS1618365490907","","","null","","","","","","<p><img src= images/blank.png width =""600"" height = ""600"" style=""position:fixed;top:50%; left:50%; transform: translate(-50%, -50%); border:5px solid black"">","","","","","","","",""
"","3908.7000000290573","sequential-stimulus-presentation-old","69","309327","0.0-19.0-1.0","SS1618365490907","trial","","40","500","4408.700000029057","images/stimuli/spore_stims/complex_18_A_b.gif","images/stimuli/spore_stims/complex_01_A_a.gif","self_paced","","5","complex_dissimilar","images/stimuli/spore_stims/complex_01_A_a.gif","","","","",""
"","null","html-keyboard-response","70","310412","0.0-19.0-0.1","SS1618365490907","","","null","","","","","","<p><img src= images/blank.png width =""600"" height = ""600"" style=""position:fixed;top:50%; left:50%; transform: translate(-50%, -50%); border:5px solid black"">","","","","","","","",""
"","3050.0700001139194","sequential-stimulus-presentation-old","71","313968","0.0-19.0-1.1","SS1618365490907","trial","","40","500","3550.0700001139194","images/stimuli/spore_stims/complex_18_A_b.gif","images/stimuli/spore_stims/complex_01_A_a.gif","self_paced","","5","complex_dissimilar","images/stimuli/spore_stims/complex_18_A_b.gif","","","","",""
"","null","html-keyboard-response","72","315257","0.0-19.0-0.2","SS1618365490907","","","null","","","","","","<p><img src= images/blank.png width =""600"" height = ""600"" style=""position:fixed;top:50%; left:50%; transform: translate(-50%, -50%); border:5px solid black"">","","","","","","","",""
"","415.53499992005527","sequential-stimulus-presentation-old","73","316177","0.0-19.0-1.2","SS1618365490907","trial","","40","500","915.5349999200553","images/stimuli/spore_stims/complex_18_A_b.gif","images/stimuli/spore_stims/complex_01_A_a.gif","self_paced","","5","complex_dissimilar","images/stimuli/spore_stims/complex_01_A_a.gif","","","","",""
"","null","html-keyboard-response","74","317327","0.0-19.0-0.3","SS1618365490907","","","null","","","","","","<p><img src= images/blank.png width =""600"" height = ""600"" style=""position:fixed;top:50%; left:50%; transform: translate(-50%, -50%); border:5px solid black"">","","","","","","","",""
"","903.1400000676513","sequential-stimulus-presentation-old","75","318738","0.0-19.0-1.3","SS1618365490907","trial","","40","500","1403.1400000676513","images/stimuli/spore_stims/complex_18_A_b.gif","images/stimuli/spore_stims/complex_01_A_a.gif","self_paced","","5","complex_dissimilar","images/stimuli/spore_stims/complex_01_A_a.gif","","","","",""
"","null","html-keyboard-response","76","320032","0.0-19.0-0.4","SS1618365490907","","","null","","","","","","<p><img src= images/blank.png width =""600"" height = ""600"" style=""position:fixed;top:50%; left:50%; transform: translate(-50%, -50%); border:5px solid black"">","","","","","","","",""
"","2729.7650000546128","sequential-stimulus-presentation-old","77","323267","0.0-19.0-1.4","SS1618365490907","trial","","40","500","3229.7650000546128","images/stimuli/spore_stims/complex_18_A_b.gif","images/stimuli/spore_stims/complex_01_A_a.gif","self_paced","","5","complex_dissimilar","images/stimuli/spore_stims/complex_18_A_b.gif","","","","",""
"","null","html-keyboard-response","78","324221","0.0-19.0-0.5","SS1618365490907","","","null","","","","","","<p><img src= images/blank.png width =""600"" height = ""600"" style=""position:fixed;top:50%; left:50%; transform: translate(-50%, -50%); border:5px solid black"">","","","","","","","",""
"","140.16000018455088","sequential-stimulus-presentation-old","79","324869","0.0-19.0-1.5","SS1618365490907","trial","","40","500","640.1600001845509","images/stimuli/spore_stims/complex_18_A_b.gif","images/stimuli/spore_stims/complex_01_A_a.gif","self_paced","","5","complex_dissimilar","images/stimuli/spore_stims/complex_01_A_a.gif","","","","",""
"","3648.1899998616427","survey-multi-choice","80","328522","0.0-20.0","SS1618365490907","math_question","","","","","","","","","","","","{""Q0"":""5""}","[0]","5","",""
"","null","html-keyboard-response","81","329571","0.0-21.0-0.0","SS1618365490907","","","null","","","","","","<p><img src= images/blank.png width =""600"" height = ""600"" style=""position:fixed;top:50%; left:50%; transform: translate(-50%, -50%); border:5px solid black"">","","","","","","","",""
"","6428.259999956936","sequential-stimulus-presentation-old","82","341009","0.0-21.0-1.0","SS1618365490907","trial","","40","500","6928.259999956936","images/stimuli/spore_stims/complex_10_A_b.gif","images/stimuli/spore_stims/complex_16_A_a.gif","forced_long","","6","complex_dissimilar","images/stimuli/spore_stims/complex_16_A_a.gif","","","","",""
"","null","html-keyboard-response","83","342272","0.0-21.0-0.1","SS1618365490907","","","null","","","","","","<p><img src= images/blank.png width =""600"" height = ""600"" style=""position:fixed;top:50%; left:50%; transform: translate(-50%, -50%); border:5px solid black"">","","","","","","","",""
"","1182.6900001615286","sequential-stimulus-presentation-old","84","343964","0.0-21.0-1.1","SS1618365490907","trial","","40","500","1682.6900001615286","images/stimuli/spore_stims/complex_10_A_b.gif","images/stimuli/spore_stims/complex_16_A_a.gif","forced_long","","6","complex_dissimilar","images/stimuli/spore_stims/complex_16_A_a.gif","","","","",""
"","null","html-keyboard-response","85","345041","0.0-21.0-0.2","SS1618365490907","","","null","","","","","","<p><img src= images/blank.png width =""600"" height = ""600"" style=""position:fixed;top:50%; left:50%; transform: translate(-50%, -50%); border:5px solid black"">","","","","","","","",""
"","1041.884999955073","sequential-stimulus-presentation-old","86","346588","0.0-21.0-1.2","SS1618365490907","trial","","40","500","1541.884999955073","images/stimuli/spore_stims/complex_10_A_b.gif","images/stimuli/spore_stims/complex_16_A_a.gif","forced_long","","6","complex_dissimilar","images/stimuli/spore_stims/complex_16_A_a.gif","","","","",""
"","null","html-keyboard-response","87","347521","0.0-21.0-0.3","SS1618365490907","","","null","","","","","","<p><img src= images/blank.png width =""600"" height = ""600"" style=""position:fixed;top:50%; left:50%; transform: translate(-50%, -50%); border:5px solid black"">","","","","","","","",""
"","3771.32000005804","sequential-stimulus-presentation-old","88","351799","0.0-21.0-1.3","SS1618365490907","trial","","40","500","4271.32000005804","images/stimuli/spore_stims/complex_10_A_b.gif","images/stimuli/spore_stims/complex_16_A_a.gif","forced_long","","6","complex_dissimilar","images/stimuli/spore_stims/complex_10_A_b.gif","","","","",""
"","3888.224999886006","survey-multi-choice","89","355690","0.0-22.0","SS1618365490907","math_question","","","","","","","","","","","","{""Q0"":""10""}","[0]","10","",""
"","null","html-keyboard-response","90","356543","0.0-23.0-0.0","SS1618365490907","","","null","","","","","","<p><img src= images/blank.png width =""600"" height = ""600"" style=""position:fixed;top:50%; left:50%; transform: translate(-50%, -50%); border:5px solid black"">","","","","","","","",""
"","2855.9600000735372","sequential-stimulus-presentation-old","91","359905","0.0-23.0-1.0","SS1618365490907","trial","","40","500","3355.9600000735372","images/stimuli/spore_stims/simple_16_A_b.gif","images/stimuli/spore_stims/simple_06_A_a.gif","self_paced","","7","simple_dissimilar","images/stimuli/spore_stims/simple_06_A_a.gif","","","","",""
"","null","html-keyboard-response","92","361040","0.0-23.0-0.1","SS1618365490907","","","null","","","","","","<p><img src= images/blank.png width =""600"" height = ""600"" style=""position:fixed;top:50%; left:50%; transform: translate(-50%, -50%); border:5px solid black"">","","","","","","","",""
"","1602.7150000445545","sequential-stimulus-presentation-old","93","363149","0.0-23.0-1.1","SS1618365490907","trial","","40","500","2102.7150000445545","images/stimuli/spore_stims/simple_16_A_b.gif","images/stimuli/spore_stims/simple_06_A_a.gif","self_paced","","7","simple_dissimilar","images/stimuli/spore_stims/simple_16_A_b.gif","","","","",""
"","null","html-keyboard-response","94","364132","0.0-23.0-0.2","SS1618365490907","","","null","","","","","","<p><img src= images/blank.png width =""600"" height = ""600"" style=""position:fixed;top:50%; left:50%; transform: translate(-50%, -50%); border:5px solid black"">","","","","","","","",""
"","225.78500001691282","sequential-stimulus-presentation-old","95","364865","0.0-23.0-1.2","SS1618365490907","trial","","40","500","725.7850000169128","images/stimuli/spore_stims/simple_16_A_b.gif","images/stimuli/spore_stims/simple_06_A_a.gif","self_paced","","7","simple_dissimilar","images/stimuli/spore_stims/simple_06_A_a.gif","","","","",""
"","null","html-keyboard-response","96","365868","0.0-23.0-0.3","SS1618365490907","","","null","","","","","","<p><img src= images/blank.png width =""600"" height = ""600"" style=""position:fixed;top:50%; left:50%; transform: translate(-50%, -50%); border:5px solid black"">","","","","","","","",""
"","328.3850001171231","sequential-stimulus-presentation-old","97","366701","0.0-23.0-1.3","SS1618365490907","trial","","40","500","828.3850001171231","images/stimuli/spore_stims/simple_16_A_b.gif","images/stimuli/spore_stims/simple_06_A_a.gif","self_paced","","7","simple_dissimilar","images/stimuli/spore_stims/simple_06_A_a.gif","","","","",""
"","3337.939999997616","survey-multi-choice","98","370043","0.0-24.0","SS1618365490907","math_question","","","","","","","","","","","","{""Q0"":""3""}","[0]","3","",""
"","null","html-keyboard-response","99","371233","0.0-25.0-0.0","SS1618365490907","","","null","","","","","","<p><img src= images/blank.png width =""600"" height = ""600"" style=""position:fixed;top:50%; left:50%; transform: translate(-50%, -50%); border:5px solid black"">","","","","","","","",""
"","1685.9249998815358","sequential-stimulus-presentation-old","100","372978","0.0-25.0-1.0","SS1618365490907","trial","","40","500","2185.9249998815358","images/stimuli/spore_stims/simple_15_A_b.gif","images/stimuli/spore_stims/simple_08_A_a.gif","forced_short","","8","simple_dissimilar","images/stimuli/spore_stims/simple_08_A_a.gif","","","","",""
"","null","html-keyboard-response","101","373997","0.0-25.0-0.1","SS1618365490907","","","null","","","","","","<p><img src= images/blank.png width =""600"" height = ""600"" style=""position:fixed;top:50%; left:50%; transform: translate(-50%, -50%); border:5px solid black"">","","","","","","","",""
"","1369.5700000971556","sequential-stimulus-presentation-old","102","375871","0.0-25.0-1.1","SS1618365490907","trial","","40","500","1869.5700000971556","images/stimuli/spore_stims/simple_15_A_b.gif","images/stimuli/spore_stims/simple_08_A_a.gif","forced_short","","8","simple_dissimilar","images/stimuli/spore_stims/simple_08_A_a.gif","","","","",""
"","null","html-keyboard-response","103","376990","0.0-25.0-0.2","SS1618365490907","","","null","","","","","","<p><img src= images/blank.png width =""600"" height = ""600"" style=""position:fixed;top:50%; left:50%; transform: translate(-50%, -50%); border:5px solid black"">","","","","","","","",""
"","631.0900000389665","sequential-stimulus-presentation-old","104","378128","0.0-25.0-1.2","SS1618365490907","trial","","40","500","1131.0900000389665","images/stimuli/spore_stims/simple_15_A_b.gif","images/stimuli/spore_stims/simple_08_A_a.gif","forced_short","","8","simple_dissimilar","images/stimuli/spore_stims/simple_08_A_a.gif","","","","",""
"","null","html-keyboard-response","105","379186","0.0-25.0-0.3","SS1618365490907","","","null","","","","","","<p><img src= images/blank.png width =""600"" height = ""600"" style=""position:fixed;top:50%; left:50%; transform: translate(-50%, -50%); border:5px solid black"">","","","","","","","",""
"","1675.2899999264628","sequential-stimulus-presentation-old","106","381368","0.0-25.0-1.3","SS1618365490907","trial","","40","500","2175.2899999264628","images/stimuli/spore_stims/simple_15_A_b.gif","images/stimuli/spore_stims/simple_08_A_a.gif","forced_short","","8","simple_dissimilar","images/stimuli/spore_stims/simple_15_A_b.gif","","","","",""
"","null","html-keyboard-response","107","382306","0.0-25.0-0.4","SS1618365490907","","","null","","","","","","<p><img src= images/blank.png width =""600"" height = ""600"" style=""position:fixed;top:50%; left:50%; transform: translate(-50%, -50%); border:5px solid black"">","","","","","","","",""
"","358.100000070408","sequential-stimulus-presentation-old","108","383170","0.0-25.0-1.4","SS1618365490907","trial","","40","500","858.100000070408","images/stimuli/spore_stims/simple_15_A_b.gif","images/stimuli/spore_stims/simple_08_A_a.gif","forced_short","","8","simple_dissimilar","images/stimuli/spore_stims/simple_08_A_a.gif","","","","",""
"","null","html-keyboard-response","109","384446","0.0-25.0-0.5","SS1618365490907","","","null","","","","","","<p><img src= images/blank.png width =""600"" height = ""600"" style=""position:fixed;top:50%; left:50%; transform: translate(-50%, -50%); border:5px solid black"">","","","","","","","",""
"","1880.7100001722574","sequential-stimulus-presentation-old","110","386833","0.0-25.0-1.5","SS1618365490907","trial","","40","500","2380.7100001722574","images/stimuli/spore_stims/simple_15_A_b.gif","images/stimuli/spore_stims/simple_08_A_a.gif","forced_short","","8","simple_dissimilar","images/stimuli/spore_stims/simple_08_A_a.gif","","","","",""
"","3854.879999998957","survey-multi-choice","111","390692","0.0-26.0","SS1618365490907","math_question","","","","","","","","","","","","{""Q0"":""18""}","[0]","18","",""
"","null","html-keyboard-response","112","391957","0.0-27.0-0.0","SS1618365490907","","","null","","","","","","<p><img src= images/blank.png width =""600"" height = ""600"" style=""position:fixed;top:50%; left:50%; transform: translate(-50%, -50%); border:5px solid black"">","","","","","","","",""
"","3772.550000110641","sequential-stimulus-presentation-old","113","396237","0.0-27.0-1.0","SS1618365490907","trial","","40","500","4272.550000110641","images/stimuli/spore_stims/simple_16_A_a.gif","images/stimuli/spore_stims/simple_05_A_b.gif","self_paced","","9","simple_dissimilar","images/stimuli/spore_stims/simple_05_A_b.gif","","","","",""
"","null","html-keyboard-response","114","397510","0.0-27.0-0.1","SS1618365490907","","","null","","","","","","<p><img src= images/blank.png width =""600"" height = ""600"" style=""position:fixed;top:50%; left:50%; transform: translate(-50%, -50%); border:5px solid black"">","","","","","","","",""
"","1961.6050000768155","sequential-stimulus-presentation-old","115","399980","0.0-27.0-1.1","SS1618365490907","trial","","40","500","2461.6050000768155","images/stimuli/spore_stims/simple_16_A_a.gif","images/stimuli/spore_stims/simple_05_A_b.gif","self_paced","","9","simple_dissimilar","images/stimuli/spore_stims/simple_05_A_b.gif","","","","",""
"","null","html-keyboard-response","116","401192","0.0-27.0-0.2","SS1618365490907","","","null","","","","","","<p><img src= images/blank.png width =""600"" height = ""600"" style=""position:fixed;top:50%; left:50%; transform: translate(-50%, -50%); border:5px solid black"">","","","","","","","",""
"","1308.6350001394749","sequential-stimulus-presentation-old","117","403007","0.0-27.0-1.2","SS1618365490907","trial","","40","500","1808.6350001394749","images/stimuli/spore_stims/simple_16_A_a.gif","images/stimuli/spore_stims/simple_05_A_b.gif","self_paced","","9","simple_dissimilar","images/stimuli/spore_stims/simple_05_A_b.gif","","","","",""
"","null","html-keyboard-response","118","403873","0.0-27.0-0.3","SS1618365490907","","","null","","","","","","<p><img src= images/blank.png width =""600"" height = ""600"" style=""position:fixed;top:50%; left:50%; transform: translate(-50%, -50%); border:5px solid black"">","","","","","","","",""
"","1171.5550001244992","sequential-stimulus-presentation-old","119","405554","0.0-27.0-1.3","SS1618365490907","trial","","40","500","1671.5550001244992","images/stimuli/spore_stims/simple_16_A_a.gif","images/stimuli/spore_stims/simple_05_A_b.gif","self_paced","","9","simple_dissimilar","images/stimuli/spore_stims/simple_05_A_b.gif","","","","",""
"","3354.1350001469254","survey-multi-choice","120","408912","0.0-28.0","SS1618365490907","math_question","","","","","","","","","","","","{""Q0"":""3""}","[0]","3","",""
"","null","html-keyboard-response","121","410148","0.0-29.0-0.0","SS1618365490907","","","null","","","","","","<p><img src= images/blank.png width =""600"" height = ""600"" style=""position:fixed;top:50%; left:50%; transform: translate(-50%, -50%); border:5px solid black"">","","","","","","","",""
"","5618.114999961108","sequential-stimulus-presentation-old","122","420774","0.0-29.0-1.0","SS1618365490907","trial","","40","500","6118.114999961108","images/stimuli/spore_stims/simple_11_A_a.gif","images/stimuli/spore_stims/simple_13_A_b.gif","forced_long","","10","simple_dissimilar","images/stimuli/spore_stims/simple_13_A_b.gif","","","","",""
"","null","html-keyboard-response","123","421988","0.0-29.0-0.1","SS1618365490907","","","null","","","","","","<p><img src= images/blank.png width =""600"" height = ""600"" style=""position:fixed;top:50%; left:50%; transform: translate(-50%, -50%); border:5px solid black"">","","","","","","","",""
"","879.6149999834597","sequential-stimulus-presentation-old","124","423376","0.0-29.0-1.1","SS1618365490907","trial","","40","500","1379.6149999834597","images/stimuli/spore_stims/simple_11_A_a.gif","images/stimuli/spore_stims/simple_13_A_b.gif","forced_long","","10","simple_dissimilar","images/stimuli/spore_stims/simple_13_A_b.gif","","","","",""
"","null","html-keyboard-response","125","424505","0.0-29.0-0.2","SS1618365490907","","","null","","","","","","<p><img src= images/blank.png width =""600"" height = ""600"" style=""position:fixed;top:50%; left:50%; transform: translate(-50%, -50%); border:5px solid black"">","","","","","","","",""
"","221.7149999924004","sequential-stimulus-presentation-old","126","425234","0.0-29.0-1.2","SS1618365490907","trial","","40","500","721.7149999924004","images/stimuli/spore_stims/simple_11_A_a.gif","images/stimuli/spore_stims/simple_13_A_b.gif","forced_long","","10","simple_dissimilar","images/stimuli/spore_stims/simple_11_A_a.gif","","","","",""
"","null","html-keyboard-response","127","426052","0.0-29.0-0.3","SS1618365490907","","","null","","","","","","<p><img src= images/blank.png width =""600"" height = ""600"" style=""position:fixed;top:50%; left:50%; transform: translate(-50%, -50%); border:5px solid black"">","","","","","","","",""
"","394.8600001167506","sequential-stimulus-presentation-old","128","426953","0.0-29.0-1.3","SS1618365490907","trial","","40","500","894.8600001167506","images/stimuli/spore_stims/simple_11_A_a.gif","images/stimuli/spore_stims/simple_13_A_b.gif","forced_long","","10","simple_dissimilar","images/stimuli/spore_stims/simple_11_A_a.gif","","","","",""
"","3380.959999980405","survey-multi-choice","129","430338","0.0-30.0","SS1618365490907","math_question","","","","","","","","","","","","{""Q0"":""10""}","[0]","10","",""
"","null","html-keyboard-response","130","431561","0.0-31.0-0.0","SS1618365490907","","","null","","","","","","<p><img src= images/blank.png width =""600"" height = ""600"" style=""position:fixed;top:50%; left:50%; transform: translate(-50%, -50%); border:5px solid black"">","","","","","","","",""
"","1443.3200000785291","sequential-stimulus-presentation-old","131","433511","0.0-31.0-1.0","SS1618365490907","trial","","40","500","1943.3200000785291","images/stimuli/spore_stims/complex_13_A_a.gif","images/stimuli/spore_stims/complex_17_A_b.gif","self_paced","","11","complex_dissimilar","images/stimuli/spore_stims/complex_17_A_b.gif","","","","",""
"","null","html-keyboard-response","132","434765","0.0-31.0-0.1","SS1618365490907","","","null","","","","","","<p><img src= images/blank.png width =""600"" height = ""600"" style=""position:fixed;top:50%; left:50%; transform: translate(-50%, -50%); border:5px solid black"">","","","","","","","",""
"","40.84499995224178","sequential-stimulus-presentation-old","133","435312","0.0-31.0-1.1","SS1618365490907","trial","","40","500","540.8449999522418","images/stimuli/spore_stims/complex_13_A_a.gif","images/stimuli/spore_stims/complex_17_A_b.gif","self_paced","","11","complex_dissimilar","images/stimuli/spore_stims/complex_17_A_b.gif","","","","",""
"","null","html-keyboard-response","134","436612","0.0-31.0-0.2","SS1618365490907","","","null","","","","","","<p><img src= images/blank.png width =""600"" height = ""600"" style=""position:fixed;top:50%; left:50%; transform: translate(-50%, -50%); border:5px solid black"">","","","","","","","",""
"","123.79999994300306","sequential-stimulus-presentation-old","135","437245","0.0-31.0-1.2","SS1618365490907","trial","","40","500","623.7999999430031","images/stimuli/spore_stims/complex_13_A_a.gif","images/stimuli/spore_stims/complex_17_A_b.gif","self_paced","","11","complex_dissimilar","images/stimuli/spore_stims/complex_17_A_b.gif","","","","",""
"","null","html-keyboard-response","136","438175","0.0-31.0-0.3","SS1618365490907","","","null","","","","","","<p><img src= images/blank.png width =""600"" height = ""600"" style=""position:fixed;top:50%; left:50%; transform: translate(-50%, -50%); border:5px solid black"">","","","","","","","",""
"","1407.3649998754263","sequential-stimulus-presentation-old","137","440090","0.0-31.0-1.3","SS1618365490907","trial","","40","500","1907.3649998754263","images/stimuli/spore_stims/complex_13_A_a.gif","images/stimuli/spore_stims/complex_17_A_b.gif","self_paced","","11","complex_dissimilar","images/stimuli/spore_stims/complex_13_A_a.gif","","","","",""
"","null","html-keyboard-response","138","441069","0.0-31.0-0.4","SS1618365490907","","","null","","","","","","<p><img src= images/blank.png width =""600"" height = ""600"" style=""position:fixed;top:50%; left:50%; transform: translate(-50%, -50%); border:5px solid black"">","","","","","","","",""
"","657.2849999647588","sequential-stimulus-presentation-old","139","442233","0.0-31.0-1.4","SS1618365490907","trial","","40","500","1157.2849999647588","images/stimuli/spore_stims/complex_13_A_a.gif","images/stimuli/spore_stims/complex_17_A_b.gif","self_paced","","11","complex_dissimilar","images/stimuli/spore_stims/complex_17_A_b.gif","","","","",""
"","null","html-keyboard-response","140","443351","0.0-31.0-0.5","SS1618365490907","","","null","","","","","","<p><img src= images/blank.png width =""600"" height = ""600"" style=""position:fixed;top:50%; left:50%; transform: translate(-50%, -50%); border:5px solid black"">","","","","","","","",""
"","161.7150001693517","sequential-stimulus-presentation-old","141","444020","0.0-31.0-1.5","SS1618365490907","trial","","40","500","661.7150001693517","images/stimuli/spore_stims/complex_13_A_a.gif","images/stimuli/spore_stims/complex_17_A_b.gif","self_paced","","11","complex_dissimilar","images/stimuli/spore_stims/complex_17_A_b.gif","","","","",""
"[{""page_index"":0,""viewing_time"":6202.449999982491}]","6202.830000082031","instructions","142","450226","0.0-32.0","SS1618365490907","instructions","","","","","","","","","","","","","","","",""
"","18925.8550000377","survey-likert","143","469160","0.0-33.0","SS1618365490907","similarity_question","","","","","","","","","","","","{""Q0"":2}","[0]","","images/stimuli/spore_stims/simple_06_A_b.gif","images/stimuli/spore_stims/simple_14_A_a.gif"
"","7517.604999942705","survey-likert","144","476685","0.0-34.0","SS1618365490907","similarity_question","","","","","","","","","","","","{""Q0"":3}","[0]","","images/stimuli/spore_stims/simple_06_A_a.gif","images/stimuli/spore_stims/simple_16_A_b.gif"
"","18379.435000009835","survey-likert","145","495075","0.0-35.0","SS1618365490907","similarity_question","","","","","","","","","","","","{""Q0"":4}","[0]","","images/stimuli/spore_stims/simple_15_A_b.gif","images/stimuli/spore_stims/simple_08_A_a.gif"
"","9944.1499998793","survey-likert","146","505028","0.0-36.0","SS1618365490907","similarity_question","","","","","","","","","","","","{""Q0"":1}","[0]","","images/stimuli/spore_stims/complex_16_A_a.gif","images/stimuli/spore_stims/complex_10_A_b.gif"
"","8195.854999823496","survey-likert","147","513234","0.0-37.0","SS1618365490907","similarity_question","","","","","","","","","","","","{""Q0"":1}","[0]","","images/stimuli/spore_stims/complex_09_A_b.gif","images/stimuli/spore_stims/complex_20_A_a.gif"
"","8209.389999974519","survey-likert","148","521455","0.0-38.0","SS1618365490907","similarity_question","","","","","","","","","","","","{""Q0"":1}","[0]","","images/stimuli/spore_stims/simple_16_A_a.gif","images/stimuli/spore_stims/simple_05_A_b.gif"
"","16974.48499989696","survey-likert","149","538441","0.0-39.0","SS1618365490907","similarity_question","","","","","","","","","","","","{""Q0"":2}","[0]","","images/stimuli/spore_stims/complex_17_A_b.gif","images/stimuli/spore_stims/complex_13_A_a.gif"
"","13885.259999893606","survey-likert","150","552339","0.0-40.0","SS1618365490907","similarity_question","","","","","","","","","","","","{""Q0"":0}","[0]","","images/stimuli/spore_stims/complex_06_A_a.gif","images/stimuli/spore_stims/complex_07_A_b.gif"
"","10144.43499990739","survey-likert","151","562491","0.0-41.0","SS1618365490907","similarity_question","","","","","","","","","","","","{""Q0"":2}","[0]","","images/stimuli/spore_stims/complex_08_A_a.gif","images/stimuli/spore_stims/complex_12_A_b.gif"
"","7567.465000087395","survey-likert","152","570073","0.0-42.0","SS1618365490907","similarity_question","","","","","","","","","","","","{""Q0"":1}","[0]","","images/stimuli/spore_stims/simple_10_A_a.gif","images/stimuli/spore_stims/simple_01_A_b.gif"
"","10435.40500011295","survey-likert","153","580519","0.0-43.0","SS1618365490907","similarity_question","","","","","","","","","","","","{""Q0"":2}","[0]","","images/stimuli/spore_stims/complex_18_A_b.gif","images/stimuli/spore_stims/complex_01_A_a.gif"
"","4492.904999991879","survey-likert","154","585022","0.0-44.0","SS1618365490907","similarity_question","","","","","","","","","","","","{""Q0"":4}","[0]","","images/stimuli/spore_stims/simple_13_A_b.gif","images/stimuli/spore_stims/simple_11_A_a.gif"
"[{""page_index"":0,""viewing_time"":5038.650000002235}]","5039.090000092983","instructions","155","590069","0.0-45.0","SS1618365490907","instructions","","","","","","","","","","","","","","","",""
"","10925.43000006117","survey-likert","156","601001","0.0-46.0","SS1618365490907","","","","","","","","","images/stimuli/spore_stims/simple_06_A_b.gif","","","","{""Q0"":0}","[0]","","",""
"","11293.120000045747","survey-likert","157","612306","0.0-47.0","SS1618365490907","","","","","","","","","images/stimuli/spore_stims/complex_10_A_b.gif","","","","{""Q0"":4}","[0]","","",""
"","9354.939999990165","survey-likert","158","621672","0.0-48.0","SS1618365490907","","","","","","","","","images/stimuli/spore_stims/simple_15_A_b.gif","","","","{""Q0"":1}","[0]","","",""
"","3520.710000069812","survey-likert","159","625200","0.0-49.0","SS1618365490907","","","","","","","","","images/stimuli/spore_stims/simple_16_A_b.gif","","","","{""Q0"":2}","[0]","","",""
"","12693.140000104904","survey-likert","160","637904","0.0-50.0","SS1618365490907","","","","","","","","","images/stimuli/spore_stims/complex_01_A_a.gif","","","","{""Q0"":3}","[0]","","",""
"","5748.334999894723","survey-likert","161","643664","0.0-51.0","SS1618365490907","","","","","","","","","images/stimuli/spore_stims/complex_08_A_a.gif","","","","{""Q0"":4}","[0]","","",""
"","4824.7199999168515","survey-likert","162","648500","0.0-52.0","SS1618365490907","","","","","","","","","images/stimuli/spore_stims/complex_20_A_a.gif","","","","{""Q0"":5}","[0]","","",""
"","6818.6000001151115","survey-likert","163","655327","0.0-53.0","SS1618365490907","","","","","","","","","images/stimuli/spore_stims/simple_13_A_b.gif","","","","{""Q0"":1}","[0]","","",""
"","6679.160000057891","survey-likert","164","662016","0.0-54.0","SS1618365490907","","","","","","","","","images/stimuli/spore_stims/complex_07_A_b.gif","","","","{""Q0"":5}","[0]","","",""
"","5386.365000158548","survey-likert","165","667413","0.0-55.0","SS1618365490907","","","","","","","","","images/stimuli/spore_stims/simple_10_A_a.gif","","","","{""Q0"":1}","[0]","","",""
"","3935.685000149533","survey-likert","166","671360","0.0-56.0","SS1618365490907","","","","","","","","","images/stimuli/spore_stims/simple_16_A_a.gif","","","","{""Q0"":2}","[0]","","",""
"","4417.224999982864","survey-likert","167","675788","0.0-57.0","SS1618365490907","","","","","","","","","images/stimuli/spore_stims/complex_13_A_a.gif","","","","{""Q0"":4}","[0]","","",""
"[{""page_index"":0,""viewing_time"":2222.5899999029934}]","2222.970000002533","instructions","168","678019","0.0-58.0","SS1618365490907","instructions","","","","","","","","","","","","","","","",""
"","4504.925000015646","demog-age","169","682534","0.0-59.0","SS1618365490907","","","","","","","","","","","","","{""age"":""27""}","","","",""
"","5606.9050000514835","demog-ethnic-US","170","688149","0.0-60.0","SS1618365490907","","","","","","","","","","","","","{""ethnicity"":[""Hispanic or Latino""]}","[0]","","",""
"","9065.630000084639","demog-gender-and-education","171","697226","0.0-61.0","SS1618365490907","","","","","","","","","","","","","{""gender"":""Male"",""education"":""Master's Degree""}","[0,1]","","",""
"","58368.55000001378","survey-text","172","755649","0.0-62.0","SS1618365490907","feedback","","","","","","","","","","","","{""Q0"":""The animation wasn't so much laggy as inconsistent, there was a creature that I didn't even see until the last questions""}","","","",""
"[{""page_index"":0,""viewing_time"":1750.559999840334}]","1750.8549999911338","instructions","173","757404","0.0-63.0","SS1618365490907","instructions","","","","","","","","","","","","","","","",""
