"view_history","rt","trial_type","trial_index","time_elapsed","internal_node_id","subject","stimulus_type","trial_stimulus","key_press","minimum_viewing_duration","trial_looking_time","block_deviant","block_background","exposure_type","stimulus","block_number","block_type","stimulus_displayed","responses","question_order","math_correct_answer","stimulus_left","stimulus_right"
"[{""page_index"":0,""viewing_time"":6033.084999999119}]","6034.029999998893","instructions","0","6036","0.0-0.0","SS1618435655897","","","","","","","","","","","","","","","","",""
"[{""page_index"":0,""viewing_time"":9092.140000000654},{""page_index"":1,""viewing_time"":14311.980000002222}]","23404.450000001816","instructions","1","31443","0.0-1.0","SS1618435655897","instructions","","","","","","","","","","","","","","","",""
"","9808.78500000108","sequential-stimulus-presentation-old","2","41758","0.0-2.0","SS1618435655897","","","40","500","10308.78500000108","null","null","self_paced","","","","","","","","",""
"","8603.159999998752","sequential-stimulus-presentation-old","3","50863","0.0-3.0","SS1618435655897","","","40","500","9103.159999998752","null","null","self_paced","","","","","","","","",""
"[{""page_index"":0,""viewing_time"":136691.9650000018}]","136692.25500000175","instructions","4","187556","0.0-4.0","SS1618435655897","instructions","","","","","","","","","","","","","","","",""
"","8714.630000002217","sequential-stimulus-presentation-old","5","201273","0.0-5.0","SS1618435655897","","","40","500","9214.630000002217","null","null","forced_long","","","","","","","","",""
"","3052.7450000008685","sequential-stimulus-presentation-old","6","204378","0.0-6.0","SS1618435655897","","","40","50","3102.7450000008685","null","null","forced_long","","","","","","","","",""
"[{""page_index"":0,""viewing_time"":8128.195000001142}]","8128.485000001092","instructions","7","212507","0.0-7.0","SS1618435655897","instructions","","","","","","","","","","","","","","","",""
"[{""page_index"":0,""viewing_time"":9894.704999998794},{""page_index"":1,""viewing_time"":10728.015000000596},{""page_index"":2,""viewing_time"":12336.064999999508},{""page_index"":3,""viewing_time"":2383.8900000009744},{""page_index"":4,""viewing_time"":2256.004999999277}]","37598.979999998846","instructions","8","250107","0.0-8.0","SS1618435655897","instructions","","","","","","","","","","","","","","","",""
"","null","html-keyboard-response","9","251324","0.0-9.0-0.0","SS1618435655897","","","null","","","","","","<p><img src= images/blank.png width =""600"" height = ""600"" style=""position:fixed;top:50%; left:50%; transform: translate(-50%, -50%); border:5px solid black"">","","","","","","","",""
"","2836.3099999987753","sequential-stimulus-presentation-old","10","254214","0.0-9.0-1.0","SS1618435655897","trial","","40","500","3336.3099999987753","images/stimuli/spore_stims/complex_13_A_a.gif","images/stimuli/spore_stims/complex_03_A_b.gif","forced_short","","0","complex_dissimilar","images/stimuli/spore_stims/complex_03_A_b.gif","","","","",""
"","null","html-keyboard-response","11","255412","0.0-9.0-0.1","SS1618435655897","","","null","","","","","","<p><img src= images/blank.png width =""600"" height = ""600"" style=""position:fixed;top:50%; left:50%; transform: translate(-50%, -50%); border:5px solid black"">","","","","","","","",""
"","121935.41499999992","sequential-stimulus-presentation-old","12","377850","0.0-9.0-1.1","SS1618435655897","trial","","40","500","122435.41499999992","images/stimuli/spore_stims/complex_13_A_a.gif","images/stimuli/spore_stims/complex_03_A_b.gif","forced_short","","0","complex_dissimilar","images/stimuli/spore_stims/complex_13_A_a.gif","","","","",""
"","null","html-keyboard-response","13","378925","0.0-9.0-0.2","SS1618435655897","","","null","","","","","","<p><img src= images/blank.png width =""600"" height = ""600"" style=""position:fixed;top:50%; left:50%; transform: translate(-50%, -50%); border:5px solid black"">","","","","","","","",""
"","28423.075000002398","sequential-stimulus-presentation-old","14","407854","0.0-9.0-1.2","SS1618435655897","trial","","40","500","28923.075000002398","images/stimuli/spore_stims/complex_13_A_a.gif","images/stimuli/spore_stims/complex_03_A_b.gif","forced_short","","0","complex_dissimilar","images/stimuli/spore_stims/complex_03_A_b.gif","","","","",""
"","null","html-keyboard-response","15","409135","0.0-9.0-0.3","SS1618435655897","","","null","","","","","","<p><img src= images/blank.png width =""600"" height = ""600"" style=""position:fixed;top:50%; left:50%; transform: translate(-50%, -50%); border:5px solid black"">","","","","","","","",""
"","4992.865000000107","sequential-stimulus-presentation-old","16","414637","0.0-9.0-1.3","SS1618435655897","trial","","40","500","5492.865000000107","images/stimuli/spore_stims/complex_13_A_a.gif","images/stimuli/spore_stims/complex_03_A_b.gif","forced_short","","0","complex_dissimilar","images/stimuli/spore_stims/complex_03_A_b.gif","","","","",""
"","null","html-keyboard-response","17","415925","0.0-9.0-0.4","SS1618435655897","","","null","","","","","","<p><img src= images/blank.png width =""600"" height = ""600"" style=""position:fixed;top:50%; left:50%; transform: translate(-50%, -50%); border:5px solid black"">","","","","","","","",""
"","918.8900000008289","sequential-stimulus-presentation-old","18","417347","0.0-9.0-1.4","SS1618435655897","trial","","40","500","1418.8900000008289","images/stimuli/spore_stims/complex_13_A_a.gif","images/stimuli/spore_stims/complex_03_A_b.gif","forced_short","","0","complex_dissimilar","images/stimuli/spore_stims/complex_03_A_b.gif","","","","",""
"","null","html-keyboard-response","19","418311","0.0-9.0-0.5","SS1618435655897","","","null","","","","","","<p><img src= images/blank.png width =""600"" height = ""600"" style=""position:fixed;top:50%; left:50%; transform: translate(-50%, -50%); border:5px solid black"">","","","","","","","",""
"","803.71500000183","sequential-stimulus-presentation-old","20","419622","0.0-9.0-1.5","SS1618435655897","trial","","40","500","1303.71500000183","images/stimuli/spore_stims/complex_13_A_a.gif","images/stimuli/spore_stims/complex_03_A_b.gif","forced_short","","0","complex_dissimilar","images/stimuli/spore_stims/complex_03_A_b.gif","","","","",""
"","5098.809999999532","survey-multi-choice","21","424724","0.0-10.0","SS1618435655897","math_question","","","","","","","","","","","","{""Q0"":""14""}","[0]","14","",""
"","null","html-keyboard-response","22","425833","0.0-11.0-0.0","SS1618435655897","","","null","","","","","","<p><img src= images/blank.png width =""600"" height = ""600"" style=""position:fixed;top:50%; left:50%; transform: translate(-50%, -50%); border:5px solid black"">","","","","","","","",""
"","7299.424999997485","sequential-stimulus-presentation-old","23","433635","0.0-11.0-1.0","SS1618435655897","trial","","40","500","7799.424999997485","images/stimuli/spore_stims/simple_12_A_a.gif","images/stimuli/spore_stims/simple_20_A_b.gif","self_paced","","1","simple_dissimilar","images/stimuli/spore_stims/simple_20_A_b.gif","","","","",""
"","null","html-keyboard-response","24","434442","0.0-11.0-0.1","SS1618435655897","","","null","","","","","","<p><img src= images/blank.png width =""600"" height = ""600"" style=""position:fixed;top:50%; left:50%; transform: translate(-50%, -50%); border:5px solid black"">","","","","","","","",""
"","3569.7849999996834","sequential-stimulus-presentation-old","25","438515","0.0-11.0-1.1","SS1618435655897","trial","","40","500","4069.7849999996834","images/stimuli/spore_stims/simple_12_A_a.gif","images/stimuli/spore_stims/simple_20_A_b.gif","self_paced","","1","simple_dissimilar","images/stimuli/spore_stims/simple_20_A_b.gif","","","","",""
"","null","html-keyboard-response","26","439456","0.0-11.0-0.2","SS1618435655897","","","null","","","","","","<p><img src= images/blank.png width =""600"" height = ""600"" style=""position:fixed;top:50%; left:50%; transform: translate(-50%, -50%); border:5px solid black"">","","","","","","","",""
"","4533.460000002349","sequential-stimulus-presentation-old","27","444493","0.0-11.0-1.2","SS1618435655897","trial","","40","500","5033.460000002349","images/stimuli/spore_stims/simple_12_A_a.gif","images/stimuli/spore_stims/simple_20_A_b.gif","self_paced","","1","simple_dissimilar","images/stimuli/spore_stims/simple_12_A_a.gif","","","","",""
"","null","html-keyboard-response","28","445651","0.0-11.0-0.3","SS1618435655897","","","null","","","","","","<p><img src= images/blank.png width =""600"" height = ""600"" style=""position:fixed;top:50%; left:50%; transform: translate(-50%, -50%); border:5px solid black"">","","","","","","","",""
"","2116.6100000009174","sequential-stimulus-presentation-old","29","448271","0.0-11.0-1.3","SS1618435655897","trial","","40","500","2616.6100000009174","images/stimuli/spore_stims/simple_12_A_a.gif","images/stimuli/spore_stims/simple_20_A_b.gif","self_paced","","1","simple_dissimilar","images/stimuli/spore_stims/simple_20_A_b.gif","","","","",""
"","null","html-keyboard-response","30","449558","0.0-11.0-0.4","SS1618435655897","","","null","","","","","","<p><img src= images/blank.png width =""600"" height = ""600"" style=""position:fixed;top:50%; left:50%; transform: translate(-50%, -50%); border:5px solid black"">","","","","","","","",""
"","7307.3850000000675","sequential-stimulus-presentation-old","31","457373","0.0-11.0-1.4","SS1618435655897","trial","","40","500","7807.3850000000675","images/stimuli/spore_stims/simple_12_A_a.gif","images/stimuli/spore_stims/simple_20_A_b.gif","self_paced","","1","simple_dissimilar","images/stimuli/spore_stims/simple_20_A_b.gif","","","","",""
"","null","html-keyboard-response","32","458254","0.0-11.0-0.5","SS1618435655897","","","null","","","","","","<p><img src= images/blank.png width =""600"" height = ""600"" style=""position:fixed;top:50%; left:50%; transform: translate(-50%, -50%); border:5px solid black"">","","","","","","","",""
"","10676.384999998845","sequential-stimulus-presentation-old","33","469443","0.0-11.0-1.5","SS1618435655897","trial","","40","500","11176.384999998845","images/stimuli/spore_stims/simple_12_A_a.gif","images/stimuli/spore_stims/simple_20_A_b.gif","self_paced","","1","simple_dissimilar","images/stimuli/spore_stims/simple_20_A_b.gif","","","","",""
"","7209.875000000466","survey-multi-choice","34","476655","0.0-12.0","SS1618435655897","math_question","","","","","","","","","","","","{""Q0"":""10""}","[0]","10","",""
"","null","html-keyboard-response","35","477833","0.0-13.0-0.0","SS1618435655897","","","null","","","","","","<p><img src= images/blank.png width =""600"" height = ""600"" style=""position:fixed;top:50%; left:50%; transform: translate(-50%, -50%); border:5px solid black"">","","","","","","","",""
"","2356.5750000015832","sequential-stimulus-presentation-old","36","480693","0.0-13.0-1.0","SS1618435655897","trial","","40","500","2856.5750000015832","images/stimuli/spore_stims/simple_01_A_b.gif","images/stimuli/spore_stims/simple_13_A_a.gif","self_paced","","2","simple_dissimilar","images/stimuli/spore_stims/simple_13_A_a.gif","","","","",""
"","null","html-keyboard-response","37","481713","0.0-13.0-0.1","SS1618435655897","","","null","","","","","","<p><img src= images/blank.png width =""600"" height = ""600"" style=""position:fixed;top:50%; left:50%; transform: translate(-50%, -50%); border:5px solid black"">","","","","","","","",""
"","255.86499999917578","sequential-stimulus-presentation-old","38","482472","0.0-13.0-1.1","SS1618435655897","trial","","40","500","755.8649999991758","images/stimuli/spore_stims/simple_01_A_b.gif","images/stimuli/spore_stims/simple_13_A_a.gif","self_paced","","2","simple_dissimilar","images/stimuli/spore_stims/simple_13_A_a.gif","","","","",""
"","null","html-keyboard-response","39","483714","0.0-13.0-0.2","SS1618435655897","","","null","","","","","","<p><img src= images/blank.png width =""600"" height = ""600"" style=""position:fixed;top:50%; left:50%; transform: translate(-50%, -50%); border:5px solid black"">","","","","","","","",""
"","6929.345000000496","sequential-stimulus-presentation-old","40","491150","0.0-13.0-1.2","SS1618435655897","trial","","40","500","7429.345000000496","images/stimuli/spore_stims/simple_01_A_b.gif","images/stimuli/spore_stims/simple_13_A_a.gif","self_paced","","2","simple_dissimilar","images/stimuli/spore_stims/simple_13_A_a.gif","","","","",""
"","null","html-keyboard-response","41","492180","0.0-13.0-0.3","SS1618435655897","","","null","","","","","","<p><img src= images/blank.png width =""600"" height = ""600"" style=""position:fixed;top:50%; left:50%; transform: translate(-50%, -50%); border:5px solid black"">","","","","","","","",""
"","2987.395000000077","sequential-stimulus-presentation-old","42","495681","0.0-13.0-1.3","SS1618435655897","trial","","40","500","3487.395000000077","images/stimuli/spore_stims/simple_01_A_b.gif","images/stimuli/spore_stims/simple_13_A_a.gif","self_paced","","2","simple_dissimilar","images/stimuli/spore_stims/simple_13_A_a.gif","","","","",""
"","null","html-keyboard-response","43","496937","0.0-13.0-0.4","SS1618435655897","","","null","","","","","","<p><img src= images/blank.png width =""600"" height = ""600"" style=""position:fixed;top:50%; left:50%; transform: translate(-50%, -50%); border:5px solid black"">","","","","","","","",""
"","6132.390000002517","sequential-stimulus-presentation-old","44","503573","0.0-13.0-1.4","SS1618435655897","trial","","40","500","6632.390000002517","images/stimuli/spore_stims/simple_01_A_b.gif","images/stimuli/spore_stims/simple_13_A_a.gif","self_paced","","2","simple_dissimilar","images/stimuli/spore_stims/simple_01_A_b.gif","","","","",""
"","4686.569999998028","survey-multi-choice","45","508262","0.0-14.0","SS1618435655897","math_question","","","","","","","","","","","","{""Q0"":""9""}","[0]","9","",""
"","null","html-keyboard-response","46","509115","0.0-15.0-0.0","SS1618435655897","","","null","","","","","","<p><img src= images/blank.png width =""600"" height = ""600"" style=""position:fixed;top:50%; left:50%; transform: translate(-50%, -50%); border:5px solid black"">","","","","","","","",""
"","8185.499999999593","sequential-stimulus-presentation-old","47","517811","0.0-15.0-1.0","SS1618435655897","trial","","40","500","8685.499999999593","images/stimuli/spore_stims/complex_10_A_a.gif","images/stimuli/spore_stims/complex_12_A_b.gif","self_paced","","3","complex_dissimilar","images/stimuli/spore_stims/complex_12_A_b.gif","","","","",""
"","null","html-keyboard-response","48","518759","0.0-15.0-0.1","SS1618435655897","","","null","","","","","","<p><img src= images/blank.png width =""600"" height = ""600"" style=""position:fixed;top:50%; left:50%; transform: translate(-50%, -50%); border:5px solid black"">","","","","","","","",""
"","14073.104999999516","sequential-stimulus-presentation-old","49","533341","0.0-15.0-1.1","SS1618435655897","trial","","40","500","14573.104999999516","images/stimuli/spore_stims/complex_10_A_a.gif","images/stimuli/spore_stims/complex_12_A_b.gif","self_paced","","3","complex_dissimilar","images/stimuli/spore_stims/complex_10_A_a.gif","","","","",""
"","null","html-keyboard-response","50","534420","0.0-15.0-0.2","SS1618435655897","","","null","","","","","","<p><img src= images/blank.png width =""600"" height = ""600"" style=""position:fixed;top:50%; left:50%; transform: translate(-50%, -50%); border:5px solid black"">","","","","","","","",""
"","4116.174999999232","sequential-stimulus-presentation-old","51","539050","0.0-15.0-1.2","SS1618435655897","trial","","40","500","4616.174999999232","images/stimuli/spore_stims/complex_10_A_a.gif","images/stimuli/spore_stims/complex_12_A_b.gif","self_paced","","3","complex_dissimilar","images/stimuli/spore_stims/complex_12_A_b.gif","","","","",""
"","null","html-keyboard-response","52","540286","0.0-15.0-0.3","SS1618435655897","","","null","","","","","","<p><img src= images/blank.png width =""600"" height = ""600"" style=""position:fixed;top:50%; left:50%; transform: translate(-50%, -50%); border:5px solid black"">","","","","","","","",""
"","4147.519999998622","sequential-stimulus-presentation-old","53","544937","0.0-15.0-1.3","SS1618435655897","trial","","40","500","4647.519999998622","images/stimuli/spore_stims/complex_10_A_a.gif","images/stimuli/spore_stims/complex_12_A_b.gif","self_paced","","3","complex_dissimilar","images/stimuli/spore_stims/complex_12_A_b.gif","","","","",""
"","null","html-keyboard-response","54","545944","0.0-15.0-0.4","SS1618435655897","","","null","","","","","","<p><img src= images/blank.png width =""600"" height = ""600"" style=""position:fixed;top:50%; left:50%; transform: translate(-50%, -50%); border:5px solid black"">","","","","","","","",""
"","12415.970000001835","sequential-stimulus-presentation-old","55","558863","0.0-15.0-1.4","SS1618435655897","trial","","40","500","12915.970000001835","images/stimuli/spore_stims/complex_10_A_a.gif","images/stimuli/spore_stims/complex_12_A_b.gif","self_paced","","3","complex_dissimilar","images/stimuli/spore_stims/complex_12_A_b.gif","","","","",""
"","3482.6450000000186","survey-multi-choice","56","562348","0.0-16.0","SS1618435655897","math_question","","","","","","","","","","","","{""Q0"":""13""}","[0]","13","",""
"","null","html-keyboard-response","57","563488","0.0-17.0-0.0","SS1618435655897","","","null","","","","","","<p><img src= images/blank.png width =""600"" height = ""600"" style=""position:fixed;top:50%; left:50%; transform: translate(-50%, -50%); border:5px solid black"">","","","","","","","",""
"","15760.980000002659","sequential-stimulus-presentation-old","58","579313","0.0-17.0-1.0","SS1618435655897","trial","","40","500","16260.980000002659","images/stimuli/spore_stims/simple_11_A_a.gif","images/stimuli/spore_stims/simple_18_A_b.gif","forced_short","","4","simple_dissimilar","images/stimuli/spore_stims/simple_18_A_b.gif","","","","",""
"","null","html-keyboard-response","59","580320","0.0-17.0-0.1","SS1618435655897","","","null","","","","","","<p><img src= images/blank.png width =""600"" height = ""600"" style=""position:fixed;top:50%; left:50%; transform: translate(-50%, -50%); border:5px solid black"">","","","","","","","",""
"","8434.975000000093","sequential-stimulus-presentation-old","60","589265","0.0-17.0-1.1","SS1618435655897","trial","","40","500","8934.975000000093","images/stimuli/spore_stims/simple_11_A_a.gif","images/stimuli/spore_stims/simple_18_A_b.gif","forced_short","","4","simple_dissimilar","images/stimuli/spore_stims/simple_18_A_b.gif","","","","",""
"","null","html-keyboard-response","61","590525","0.0-17.0-0.2","SS1618435655897","","","null","","","","","","<p><img src= images/blank.png width =""600"" height = ""600"" style=""position:fixed;top:50%; left:50%; transform: translate(-50%, -50%); border:5px solid black"">","","","","","","","",""
"","6733.824999999371","sequential-stimulus-presentation-old","62","597770","0.0-17.0-1.2","SS1618435655897","trial","","40","500","7233.824999999371","images/stimuli/spore_stims/simple_11_A_a.gif","images/stimuli/spore_stims/simple_18_A_b.gif","forced_short","","4","simple_dissimilar","images/stimuli/spore_stims/simple_18_A_b.gif","","","","",""
"","null","html-keyboard-response","63","598902","0.0-17.0-0.3","SS1618435655897","","","null","","","","","","<p><img src= images/blank.png width =""600"" height = ""600"" style=""position:fixed;top:50%; left:50%; transform: translate(-50%, -50%); border:5px solid black"">","","","","","","","",""
"","6109.669999998063","sequential-stimulus-presentation-old","64","605516","0.0-17.0-1.3","SS1618435655897","trial","","40","500","6609.669999998063","images/stimuli/spore_stims/simple_11_A_a.gif","images/stimuli/spore_stims/simple_18_A_b.gif","forced_short","","4","simple_dissimilar","images/stimuli/spore_stims/simple_18_A_b.gif","","","","",""
"","3614.079999999376","survey-multi-choice","65","609132","0.0-18.0","SS1618435655897","math_question","","","","","","","","","","","","{""Q0"":""12""}","[0]","12","",""
"","null","html-keyboard-response","66","610424","0.0-19.0-0.0","SS1618435655897","","","null","","","","","","<p><img src= images/blank.png width =""600"" height = ""600"" style=""position:fixed;top:50%; left:50%; transform: translate(-50%, -50%); border:5px solid black"">","","","","","","","",""
"","16478.299999998766","sequential-stimulus-presentation-old","67","631907","0.0-19.0-1.0","SS1618435655897","trial","","40","500","16978.299999998766","images/stimuli/spore_stims/complex_19_A_b.gif","images/stimuli/spore_stims/complex_05_A_a.gif","forced_long","","5","complex_dissimilar","images/stimuli/spore_stims/complex_05_A_a.gif","","","","",""
"","null","html-keyboard-response","68","633206","0.0-19.0-0.1","SS1618435655897","","","null","","","","","","<p><img src= images/blank.png width =""600"" height = ""600"" style=""position:fixed;top:50%; left:50%; transform: translate(-50%, -50%); border:5px solid black"">","","","","","","","",""
"","19723.079999999725","sequential-stimulus-presentation-old","69","653436","0.0-19.0-1.1","SS1618435655897","trial","","40","500","20223.079999999725","images/stimuli/spore_stims/complex_19_A_b.gif","images/stimuli/spore_stims/complex_05_A_a.gif","forced_long","","5","complex_dissimilar","images/stimuli/spore_stims/complex_19_A_b.gif","","","","",""
"","null","html-keyboard-response","70","654376","0.0-19.0-0.2","SS1618435655897","","","null","","","","","","<p><img src= images/blank.png width =""600"" height = ""600"" style=""position:fixed;top:50%; left:50%; transform: translate(-50%, -50%); border:5px solid black"">","","","","","","","",""
"","9049.655000002589","sequential-stimulus-presentation-old","71","663942","0.0-19.0-1.2","SS1618435655897","trial","","40","500","9549.655000002589","images/stimuli/spore_stims/complex_19_A_b.gif","images/stimuli/spore_stims/complex_05_A_a.gif","forced_long","","5","complex_dissimilar","images/stimuli/spore_stims/complex_05_A_a.gif","","","","",""
"","null","html-keyboard-response","72","665053","0.0-19.0-0.3","SS1618435655897","","","null","","","","","","<p><img src= images/blank.png width =""600"" height = ""600"" style=""position:fixed;top:50%; left:50%; transform: translate(-50%, -50%); border:5px solid black"">","","","","","","","",""
"","8209.91000000143","sequential-stimulus-presentation-old","73","673769","0.0-19.0-1.3","SS1618435655897","trial","","40","500","8709.91000000143","images/stimuli/spore_stims/complex_19_A_b.gif","images/stimuli/spore_stims/complex_05_A_a.gif","forced_long","","5","complex_dissimilar","images/stimuli/spore_stims/complex_05_A_a.gif","","","","",""
"","null","html-keyboard-response","74","674995","0.0-19.0-0.4","SS1618435655897","","","null","","","","","","<p><img src= images/blank.png width =""600"" height = ""600"" style=""position:fixed;top:50%; left:50%; transform: translate(-50%, -50%); border:5px solid black"">","","","","","","","",""
"","7687.139999998151","sequential-stimulus-presentation-old","75","683185","0.0-19.0-1.4","SS1618435655897","trial","","40","500","8187.139999998151","images/stimuli/spore_stims/complex_19_A_b.gif","images/stimuli/spore_stims/complex_05_A_a.gif","forced_long","","5","complex_dissimilar","images/stimuli/spore_stims/complex_19_A_b.gif","","","","",""
"","3783.8799999990733","survey-multi-choice","76","686972","0.0-20.0","SS1618435655897","math_question","","","","","","","","","","","","{""Q0"":""9""}","[0]","9","",""
"","null","html-keyboard-response","77","687886","0.0-21.0-0.0","SS1618435655897","","","null","","","","","","<p><img src= images/blank.png width =""600"" height = ""600"" style=""position:fixed;top:50%; left:50%; transform: translate(-50%, -50%); border:5px solid black"">","","","","","","","",""
"","13641.715000001597","sequential-stimulus-presentation-old","78","706543","0.0-21.0-1.0","SS1618435655897","trial","","40","500","14141.715000001597","images/stimuli/spore_stims/simple_08_A_a.gif","images/stimuli/spore_stims/simple_06_A_b.gif","forced_long","","6","simple_dissimilar","images/stimuli/spore_stims/simple_06_A_b.gif","","","","",""
"","null","html-keyboard-response","79","707852","0.0-21.0-0.1","SS1618435655897","","","null","","","","","","<p><img src= images/blank.png width =""600"" height = ""600"" style=""position:fixed;top:50%; left:50%; transform: translate(-50%, -50%); border:5px solid black"">","","","","","","","",""
"","5861.675000000163","sequential-stimulus-presentation-old","80","714217","0.0-21.0-1.1","SS1618435655897","trial","","40","500","6361.675000000163","images/stimuli/spore_stims/simple_08_A_a.gif","images/stimuli/spore_stims/simple_06_A_b.gif","forced_long","","6","simple_dissimilar","images/stimuli/spore_stims/simple_06_A_b.gif","","","","",""
"","null","html-keyboard-response","81","715200","0.0-21.0-0.2","SS1618435655897","","","null","","","","","","<p><img src= images/blank.png width =""600"" height = ""600"" style=""position:fixed;top:50%; left:50%; transform: translate(-50%, -50%); border:5px solid black"">","","","","","","","",""
"","4733.069999998435","sequential-stimulus-presentation-old","82","720441","0.0-21.0-1.2","SS1618435655897","trial","","40","500","5233.069999998435","images/stimuli/spore_stims/simple_08_A_a.gif","images/stimuli/spore_stims/simple_06_A_b.gif","forced_long","","6","simple_dissimilar","images/stimuli/spore_stims/simple_06_A_b.gif","","","","",""
"","null","html-keyboard-response","83","721615","0.0-21.0-0.3","SS1618435655897","","","null","","","","","","<p><img src= images/blank.png width =""600"" height = ""600"" style=""position:fixed;top:50%; left:50%; transform: translate(-50%, -50%); border:5px solid black"">","","","","","","","",""
"","5695.420000000042","sequential-stimulus-presentation-old","84","727829","0.0-21.0-1.3","SS1618435655897","trial","","40","500","6195.420000000042","images/stimuli/spore_stims/simple_08_A_a.gif","images/stimuli/spore_stims/simple_06_A_b.gif","forced_long","","6","simple_dissimilar","images/stimuli/spore_stims/simple_08_A_a.gif","","","","",""
"","3563.465000002878","survey-multi-choice","85","731395","0.0-22.0","SS1618435655897","math_question","","","","","","","","","","","","{""Q0"":""8""}","[0]","8","",""
"","null","html-keyboard-response","86","732593","0.0-23.0-0.0","SS1618435655897","","","null","","","","","","<p><img src= images/blank.png width =""600"" height = ""600"" style=""position:fixed;top:50%; left:50%; transform: translate(-50%, -50%); border:5px solid black"">","","","","","","","",""
"","8287.075000000186","sequential-stimulus-presentation-old","87","745885","0.0-23.0-1.0","SS1618435655897","trial","","40","500","8787.075000000186","images/stimuli/spore_stims/complex_09_A_a.gif","images/stimuli/spore_stims/complex_06_A_b.gif","forced_long","","7","complex_dissimilar","images/stimuli/spore_stims/complex_06_A_b.gif","","","","",""
"","null","html-keyboard-response","88","746914","0.0-23.0-0.1","SS1618435655897","","","null","","","","","","<p><img src= images/blank.png width =""600"" height = ""600"" style=""position:fixed;top:50%; left:50%; transform: translate(-50%, -50%); border:5px solid black"">","","","","","","","",""
"","47096.53999999864","sequential-stimulus-presentation-old","89","794514","0.0-23.0-1.1","SS1618435655897","trial","","40","500","47596.53999999864","images/stimuli/spore_stims/complex_09_A_a.gif","images/stimuli/spore_stims/complex_06_A_b.gif","forced_long","","7","complex_dissimilar","images/stimuli/spore_stims/complex_06_A_b.gif","","","","",""
"","null","html-keyboard-response","90","795527","0.0-23.0-0.2","SS1618435655897","","","null","","","","","","<p><img src= images/blank.png width =""600"" height = ""600"" style=""position:fixed;top:50%; left:50%; transform: translate(-50%, -50%); border:5px solid black"">","","","","","","","",""
"","930.6800000013318","sequential-stimulus-presentation-old","91","796962","0.0-23.0-1.2","SS1618435655897","trial","","40","500","1430.6800000013318","images/stimuli/spore_stims/complex_09_A_a.gif","images/stimuli/spore_stims/complex_06_A_b.gif","forced_long","","7","complex_dissimilar","images/stimuli/spore_stims/complex_06_A_b.gif","","","","",""
"","null","html-keyboard-response","92","797804","0.0-23.0-0.3","SS1618435655897","","","null","","","","","","<p><img src= images/blank.png width =""600"" height = ""600"" style=""position:fixed;top:50%; left:50%; transform: translate(-50%, -50%); border:5px solid black"">","","","","","","","",""
"","3574.444999998319","sequential-stimulus-presentation-old","93","801882","0.0-23.0-1.3","SS1618435655897","trial","","40","500","4074.444999998319","images/stimuli/spore_stims/complex_09_A_a.gif","images/stimuli/spore_stims/complex_06_A_b.gif","forced_long","","7","complex_dissimilar","images/stimuli/spore_stims/complex_06_A_b.gif","","","","",""
"","null","html-keyboard-response","94","803162","0.0-23.0-0.4","SS1618435655897","","","null","","","","","","<p><img src= images/blank.png width =""600"" height = ""600"" style=""position:fixed;top:50%; left:50%; transform: translate(-50%, -50%); border:5px solid black"">","","","","","","","",""
"","765.9549999989104","sequential-stimulus-presentation-old","95","804438","0.0-23.0-1.4","SS1618435655897","trial","","40","500","1265.9549999989104","images/stimuli/spore_stims/complex_09_A_a.gif","images/stimuli/spore_stims/complex_06_A_b.gif","forced_long","","7","complex_dissimilar","images/stimuli/spore_stims/complex_06_A_b.gif","","","","",""
"","null","html-keyboard-response","96","805397","0.0-23.0-0.5","SS1618435655897","","","null","","","","","","<p><img src= images/blank.png width =""600"" height = ""600"" style=""position:fixed;top:50%; left:50%; transform: translate(-50%, -50%); border:5px solid black"">","","","","","","","",""
"","1193.4050000017742","sequential-stimulus-presentation-old","97","807095","0.0-23.0-1.5","SS1618435655897","trial","","40","500","1693.4050000017742","images/stimuli/spore_stims/complex_09_A_a.gif","images/stimuli/spore_stims/complex_06_A_b.gif","forced_long","","7","complex_dissimilar","images/stimuli/spore_stims/complex_06_A_b.gif","","","","",""
"","4554.094999999506","survey-multi-choice","98","811651","0.0-24.0","SS1618435655897","math_question","","","","","","","","","","","","{""Q0"":""6""}","[0]","6","",""
"","null","html-keyboard-response","99","812545","0.0-25.0-0.0","SS1618435655897","","","null","","","","","","<p><img src= images/blank.png width =""600"" height = ""600"" style=""position:fixed;top:50%; left:50%; transform: translate(-50%, -50%); border:5px solid black"">","","","","","","","",""
"","414.5849999986822","sequential-stimulus-presentation-old","100","813478","0.0-25.0-1.0","SS1618435655897","trial","","40","500","914.5849999986822","images/stimuli/spore_stims/complex_07_A_a.gif","images/stimuli/spore_stims/complex_10_A_b.gif","self_paced","","8","complex_dissimilar","images/stimuli/spore_stims/complex_10_A_b.gif","","","","",""
"","null","html-keyboard-response","101","814453","0.0-25.0-0.1","SS1618435655897","","","null","","","","","","<p><img src= images/blank.png width =""600"" height = ""600"" style=""position:fixed;top:50%; left:50%; transform: translate(-50%, -50%); border:5px solid black"">","","","","","","","",""
"","2059.9650000003166","sequential-stimulus-presentation-old","102","817019","0.0-25.0-1.1","SS1618435655897","trial","","40","500","2559.9650000003166","images/stimuli/spore_stims/complex_07_A_a.gif","images/stimuli/spore_stims/complex_10_A_b.gif","self_paced","","8","complex_dissimilar","images/stimuli/spore_stims/complex_10_A_b.gif","","","","",""
"","null","html-keyboard-response","103","818014","0.0-25.0-0.2","SS1618435655897","","","null","","","","","","<p><img src= images/blank.png width =""600"" height = ""600"" style=""position:fixed;top:50%; left:50%; transform: translate(-50%, -50%); border:5px solid black"">","","","","","","","",""
"","540.3150000020396","sequential-stimulus-presentation-old","104","819058","0.0-25.0-1.2","SS1618435655897","trial","","40","500","1040.3150000020396","images/stimuli/spore_stims/complex_07_A_a.gif","images/stimuli/spore_stims/complex_10_A_b.gif","self_paced","","8","complex_dissimilar","images/stimuli/spore_stims/complex_10_A_b.gif","","","","",""
"","null","html-keyboard-response","105","820315","0.0-25.0-0.3","SS1618435655897","","","null","","","","","","<p><img src= images/blank.png width =""600"" height = ""600"" style=""position:fixed;top:50%; left:50%; transform: translate(-50%, -50%); border:5px solid black"">","","","","","","","",""
"","1374.2700000002515","sequential-stimulus-presentation-old","106","822194","0.0-25.0-1.3","SS1618435655897","trial","","40","500","1874.2700000002515","images/stimuli/spore_stims/complex_07_A_a.gif","images/stimuli/spore_stims/complex_10_A_b.gif","self_paced","","8","complex_dissimilar","images/stimuli/spore_stims/complex_10_A_b.gif","","","","",""
"","null","html-keyboard-response","107","823394","0.0-25.0-0.4","SS1618435655897","","","null","","","","","","<p><img src= images/blank.png width =""600"" height = ""600"" style=""position:fixed;top:50%; left:50%; transform: translate(-50%, -50%); border:5px solid black"">","","","","","","","",""
"","360.86499999882653","sequential-stimulus-presentation-old","108","824274","0.0-25.0-1.4","SS1618435655897","trial","","40","500","860.8649999988265","images/stimuli/spore_stims/complex_07_A_a.gif","images/stimuli/spore_stims/complex_10_A_b.gif","self_paced","","8","complex_dissimilar","images/stimuli/spore_stims/complex_10_A_b.gif","","","","",""
"","null","html-keyboard-response","109","825287","0.0-25.0-0.5","SS1618435655897","","","null","","","","","","<p><img src= images/blank.png width =""600"" height = ""600"" style=""position:fixed;top:50%; left:50%; transform: translate(-50%, -50%); border:5px solid black"">","","","","","","","",""
"","171.1350000005914","sequential-stimulus-presentation-old","110","825962","0.0-25.0-1.5","SS1618435655897","trial","","40","500","671.1350000005914","images/stimuli/spore_stims/complex_07_A_a.gif","images/stimuli/spore_stims/complex_10_A_b.gif","self_paced","","8","complex_dissimilar","images/stimuli/spore_stims/complex_10_A_b.gif","","","","",""
"","4063.240000003134","survey-multi-choice","111","830028","0.0-26.0","SS1618435655897","math_question","","","","","","","","","","","","{""Q0"":""14""}","[0]","14","",""
"","null","html-keyboard-response","112","831089","0.0-27.0-0.0","SS1618435655897","","","null","","","","","","<p><img src= images/blank.png width =""600"" height = ""600"" style=""position:fixed;top:50%; left:50%; transform: translate(-50%, -50%); border:5px solid black"">","","","","","","","",""
"","12655.319999998086","sequential-stimulus-presentation-old","113","848749","0.0-27.0-1.0","SS1618435655897","trial","","40","500","13155.319999998086","images/stimuli/spore_stims/simple_16_A_b.gif","images/stimuli/spore_stims/simple_19_A_a.gif","forced_long","","9","simple_dissimilar","images/stimuli/spore_stims/simple_19_A_a.gif","","","","",""
"","null","html-keyboard-response","114","849882","0.0-27.0-0.1","SS1618435655897","","","null","","","","","","<p><img src= images/blank.png width =""600"" height = ""600"" style=""position:fixed;top:50%; left:50%; transform: translate(-50%, -50%); border:5px solid black"">","","","","","","","",""
"","1126.769999998971","sequential-stimulus-presentation-old","115","851514","0.0-27.0-1.1","SS1618435655897","trial","","40","500","1626.769999998971","images/stimuli/spore_stims/simple_16_A_b.gif","images/stimuli/spore_stims/simple_19_A_a.gif","forced_long","","9","simple_dissimilar","images/stimuli/spore_stims/simple_19_A_a.gif","","","","",""
"","null","html-keyboard-response","116","852532","0.0-27.0-0.2","SS1618435655897","","","null","","","","","","<p><img src= images/blank.png width =""600"" height = ""600"" style=""position:fixed;top:50%; left:50%; transform: translate(-50%, -50%); border:5px solid black"">","","","","","","","",""
"","84.5100000007078","sequential-stimulus-presentation-old","117","853121","0.0-27.0-1.2","SS1618435655897","trial","","40","500","584.5100000007078","images/stimuli/spore_stims/simple_16_A_b.gif","images/stimuli/spore_stims/simple_19_A_a.gif","forced_long","","9","simple_dissimilar","images/stimuli/spore_stims/simple_19_A_a.gif","","","","",""
"","null","html-keyboard-response","118","853989","0.0-27.0-0.3","SS1618435655897","","","null","","","","","","<p><img src= images/blank.png width =""600"" height = ""600"" style=""position:fixed;top:50%; left:50%; transform: translate(-50%, -50%); border:5px solid black"">","","","","","","","",""
"","1359.5300000015413","sequential-stimulus-presentation-old","119","855852","0.0-27.0-1.3","SS1618435655897","trial","","40","500","1859.5300000015413","images/stimuli/spore_stims/simple_16_A_b.gif","images/stimuli/spore_stims/simple_19_A_a.gif","forced_long","","9","simple_dissimilar","images/stimuli/spore_stims/simple_19_A_a.gif","","","","",""
"","2500.5200000014156","survey-multi-choice","120","858355","0.0-28.0","SS1618435655897","math_question","","","","","","","","","","","","{""Q0"":""10""}","[0]","10","",""
"","null","html-keyboard-response","121","859384","0.0-29.0-0.0","SS1618435655897","","","null","","","","","","<p><img src= images/blank.png width =""600"" height = ""600"" style=""position:fixed;top:50%; left:50%; transform: translate(-50%, -50%); border:5px solid black"">","","","","","","","",""
"","4435.235000000917","sequential-stimulus-presentation-old","122","863877","0.0-29.0-1.0","SS1618435655897","trial","","40","500","4935.235000000917","images/stimuli/spore_stims/complex_20_A_a.gif","images/stimuli/spore_stims/complex_05_A_b.gif","forced_short","","10","complex_dissimilar","images/stimuli/spore_stims/complex_05_A_b.gif","","","","",""
"","null","html-keyboard-response","123","864796","0.0-29.0-0.1","SS1618435655897","","","null","","","","","","<p><img src= images/blank.png width =""600"" height = ""600"" style=""position:fixed;top:50%; left:50%; transform: translate(-50%, -50%); border:5px solid black"">","","","","","","","",""
"","558.1849999979604","sequential-stimulus-presentation-old","124","865873","0.0-29.0-1.1","SS1618435655897","trial","","40","500","1058.1849999979604","images/stimuli/spore_stims/complex_20_A_a.gif","images/stimuli/spore_stims/complex_05_A_b.gif","forced_short","","10","complex_dissimilar","images/stimuli/spore_stims/complex_05_A_b.gif","","","","",""
"","null","html-keyboard-response","125","866960","0.0-29.0-0.2","SS1618435655897","","","null","","","","","","<p><img src= images/blank.png width =""600"" height = ""600"" style=""position:fixed;top:50%; left:50%; transform: translate(-50%, -50%); border:5px solid black"">","","","","","","","",""
"","8013.814999998431","sequential-stimulus-presentation-old","126","875479","0.0-29.0-1.2","SS1618435655897","trial","","40","500","8513.81499999843","images/stimuli/spore_stims/complex_20_A_a.gif","images/stimuli/spore_stims/complex_05_A_b.gif","forced_short","","10","complex_dissimilar","images/stimuli/spore_stims/complex_20_A_a.gif","","","","",""
"","null","html-keyboard-response","127","876482","0.0-29.0-0.3","SS1618435655897","","","null","","","","","","<p><img src= images/blank.png width =""600"" height = ""600"" style=""position:fixed;top:50%; left:50%; transform: translate(-50%, -50%); border:5px solid black"">","","","","","","","",""
"","4505.3349999981","sequential-stimulus-presentation-old","128","881492","0.0-29.0-1.3","SS1618435655897","trial","","40","500","5005.3349999981","images/stimuli/spore_stims/complex_20_A_a.gif","images/stimuli/spore_stims/complex_05_A_b.gif","forced_short","","10","complex_dissimilar","images/stimuli/spore_stims/complex_05_A_b.gif","","","","",""
"","null","html-keyboard-response","129","882381","0.0-29.0-0.4","SS1618435655897","","","null","","","","","","<p><img src= images/blank.png width =""600"" height = ""600"" style=""position:fixed;top:50%; left:50%; transform: translate(-50%, -50%); border:5px solid black"">","","","","","","","",""
"","2128.7200000006706","sequential-stimulus-presentation-old","130","885024","0.0-29.0-1.4","SS1618435655897","trial","","40","500","2628.7200000006706","images/stimuli/spore_stims/complex_20_A_a.gif","images/stimuli/spore_stims/complex_05_A_b.gif","forced_short","","10","complex_dissimilar","images/stimuli/spore_stims/complex_05_A_b.gif","","","","",""
"","4871.774999999558","survey-multi-choice","131","889899","0.0-30.0","SS1618435655897","math_question","","","","","","","","","","","","{""Q0"":""5""}","[0]","5","",""
"","null","html-keyboard-response","132","891098","0.0-31.0-0.0","SS1618435655897","","","null","","","","","","<p><img src= images/blank.png width =""600"" height = ""600"" style=""position:fixed;top:50%; left:50%; transform: translate(-50%, -50%); border:5px solid black"">","","","","","","","",""
"","1801.374999999185","sequential-stimulus-presentation-old","133","892957","0.0-31.0-1.0","SS1618435655897","trial","","40","500","2301.374999999185","images/stimuli/spore_stims/simple_07_A_a.gif","images/stimuli/spore_stims/simple_19_A_b.gif","forced_short","","11","simple_dissimilar","images/stimuli/spore_stims/simple_19_A_b.gif","","","","",""
"","null","html-keyboard-response","134","894193","0.0-31.0-0.1","SS1618435655897","","","null","","","","","","<p><img src= images/blank.png width =""600"" height = ""600"" style=""position:fixed;top:50%; left:50%; transform: translate(-50%, -50%); border:5px solid black"">","","","","","","","",""
"","9105.165000000852","sequential-stimulus-presentation-old","135","903806","0.0-31.0-1.1","SS1618435655897","trial","","40","500","9605.165000000852","images/stimuli/spore_stims/simple_07_A_a.gif","images/stimuli/spore_stims/simple_19_A_b.gif","forced_short","","11","simple_dissimilar","images/stimuli/spore_stims/simple_19_A_b.gif","","","","",""
"","null","html-keyboard-response","136","904626","0.0-31.0-0.2","SS1618435655897","","","null","","","","","","<p><img src= images/blank.png width =""600"" height = ""600"" style=""position:fixed;top:50%; left:50%; transform: translate(-50%, -50%); border:5px solid black"">","","","","","","","",""
"","13352.245000001858","sequential-stimulus-presentation-old","137","918483","0.0-31.0-1.2","SS1618435655897","trial","","40","500","13852.245000001858","images/stimuli/spore_stims/simple_07_A_a.gif","images/stimuli/spore_stims/simple_19_A_b.gif","forced_short","","11","simple_dissimilar","images/stimuli/spore_stims/simple_19_A_b.gif","","","","",""
"","null","html-keyboard-response","138","919397","0.0-31.0-0.3","SS1618435655897","","","null","","","","","","<p><img src= images/blank.png width =""600"" height = ""600"" style=""position:fixed;top:50%; left:50%; transform: translate(-50%, -50%); border:5px solid black"">","","","","","","","",""
"","642.0299999989802","sequential-stimulus-presentation-old","139","920543","0.0-31.0-1.3","SS1618435655897","trial","","40","500","1142.0299999989802","images/stimuli/spore_stims/simple_07_A_a.gif","images/stimuli/spore_stims/simple_19_A_b.gif","forced_short","","11","simple_dissimilar","images/stimuli/spore_stims/simple_19_A_b.gif","","","","",""
"","null","html-keyboard-response","140","921795","0.0-31.0-0.4","SS1618435655897","","","null","","","","","","<p><img src= images/blank.png width =""600"" height = ""600"" style=""position:fixed;top:50%; left:50%; transform: translate(-50%, -50%); border:5px solid black"">","","","","","","","",""
"","3462.359999997774","sequential-stimulus-presentation-old","141","925765","0.0-31.0-1.4","SS1618435655897","trial","","40","500","3962.359999997774","images/stimuli/spore_stims/simple_07_A_a.gif","images/stimuli/spore_stims/simple_19_A_b.gif","forced_short","","11","simple_dissimilar","images/stimuli/spore_stims/simple_07_A_a.gif","","","","",""
"","null","html-keyboard-response","142","926957","0.0-31.0-0.5","SS1618435655897","","","null","","","","","","<p><img src= images/blank.png width =""600"" height = ""600"" style=""position:fixed;top:50%; left:50%; transform: translate(-50%, -50%); border:5px solid black"">","","","","","","","",""
"","8462.619999998482","sequential-stimulus-presentation-old","143","935927","0.0-31.0-1.5","SS1618435655897","trial","","40","500","8962.619999998482","images/stimuli/spore_stims/simple_07_A_a.gif","images/stimuli/spore_stims/simple_19_A_b.gif","forced_short","","11","simple_dissimilar","images/stimuli/spore_stims/simple_07_A_a.gif","","","","",""
"[{""page_index"":0,""viewing_time"":12295.494999998482}]","12295.86499999999","instructions","144","948227","0.0-32.0","SS1618435655897","instructions","","","","","","","","","","","","","","","",""
"","12116.164999999339","survey-likert","145","960348","0.0-33.0","SS1618435655897","similarity_question","","","","","","","","","","","","{""Q0"":0}","[0]","","images/stimuli/spore_stims/complex_05_A_b.gif","images/stimuli/spore_stims/complex_20_A_a.gif"
"","8883.47000000067","survey-likert","146","969236","0.0-34.0","SS1618435655897","similarity_question","","","","","","","","","","","","{""Q0"":0}","[0]","","images/stimuli/spore_stims/complex_12_A_b.gif","images/stimuli/spore_stims/complex_10_A_a.gif"
"","8923.995000001043","survey-likert","147","978163","0.0-35.0","SS1618435655897","similarity_question","","","","","","","","","","","","{""Q0"":0}","[0]","","images/stimuli/spore_stims/complex_07_A_a.gif","images/stimuli/spore_stims/complex_10_A_b.gif"
"","3869.360000000568","survey-likert","148","982037","0.0-36.0","SS1618435655897","similarity_question","","","","","","","","","","","","{""Q0"":1}","[0]","","images/stimuli/spore_stims/complex_19_A_b.gif","images/stimuli/spore_stims/complex_05_A_a.gif"
"","4041.559999997844","survey-likert","149","986084","0.0-37.0","SS1618435655897","similarity_question","","","","","","","","","","","","{""Q0"":5}","[0]","","images/stimuli/spore_stims/simple_13_A_a.gif","images/stimuli/spore_stims/simple_01_A_b.gif"
"","2403.6250000026776","survey-likert","150","988491","0.0-38.0","SS1618435655897","similarity_question","","","","","","","","","","","","{""Q0"":4}","[0]","","images/stimuli/spore_stims/simple_18_A_b.gif","images/stimuli/spore_stims/simple_11_A_a.gif"
"","4555.3150000014575","survey-likert","151","993052","0.0-39.0","SS1618435655897","similarity_question","","","","","","","","","","","","{""Q0"":0}","[0]","","images/stimuli/spore_stims/complex_03_A_b.gif","images/stimuli/spore_stims/complex_13_A_a.gif"
"","4691.054999999353","survey-likert","152","997747","0.0-40.0","SS1618435655897","similarity_question","","","","","","","","","","","","{""Q0"":0}","[0]","","images/stimuli/spore_stims/complex_06_A_b.gif","images/stimuli/spore_stims/complex_09_A_a.gif"
"","6618.415000000852","survey-likert","153","1004372","0.0-41.0","SS1618435655897","similarity_question","","","","","","","","","","","","{""Q0"":6}","[0]","","images/stimuli/spore_stims/simple_08_A_a.gif","images/stimuli/spore_stims/simple_06_A_b.gif"
"","2963.4899999982445","survey-likert","154","1007340","0.0-42.0","SS1618435655897","similarity_question","","","","","","","","","","","","{""Q0"":5}","[0]","","images/stimuli/spore_stims/simple_19_A_a.gif","images/stimuli/spore_stims/simple_16_A_b.gif"
"","2947.0099999997765","survey-likert","155","1010291","0.0-43.0","SS1618435655897","similarity_question","","","","","","","","","","","","{""Q0"":4}","[0]","","images/stimuli/spore_stims/simple_20_A_b.gif","images/stimuli/spore_stims/simple_12_A_a.gif"
"","5139.960000000428","survey-likert","156","1015435","0.0-44.0","SS1618435655897","similarity_question","","","","","","","","","","","","{""Q0"":3}","[0]","","images/stimuli/spore_stims/simple_19_A_b.gif","images/stimuli/spore_stims/simple_07_A_a.gif"
"[{""page_index"":0,""viewing_time"":9172.115000001271}]","9172.389999999781","instructions","157","1024611","0.0-45.0","SS1618435655897","instructions","","","","","","","","","","","","","","","",""
"","13132.38999999885","survey-likert","158","1037748","0.0-46.0","SS1618435655897","","","","","","","","","images/stimuli/spore_stims/simple_20_A_b.gif","","","","{""Q0"":2}","[0]","","",""
"","5084.29999999865","survey-likert","159","1042835","0.0-47.0","SS1618435655897","","","","","","","","","images/stimuli/spore_stims/complex_20_A_a.gif","","","","{""Q0"":5}","[0]","","",""
"","2913.7399999999907","survey-likert","160","1045755","0.0-48.0","SS1618435655897","","","","","","","","","images/stimuli/spore_stims/simple_19_A_b.gif","","","","{""Q0"":3}","[0]","","",""
"","2394.9150000007357","survey-likert","161","1048155","0.0-49.0","SS1618435655897","","","","","","","","","images/stimuli/spore_stims/simple_18_A_b.gif","","","","{""Q0"":3}","[0]","","",""
"","2331.6800000029616","survey-likert","162","1050491","0.0-50.0","SS1618435655897","","","","","","","","","images/stimuli/spore_stims/simple_01_A_b.gif","","","","{""Q0"":2}","[0]","","",""
"","3499.410000000382","survey-likert","163","1053995","0.0-51.0","SS1618435655897","","","","","","","","","images/stimuli/spore_stims/complex_05_A_a.gif","","","","{""Q0"":6}","[0]","","",""
"","5435.649999999441","survey-likert","164","1059435","0.0-52.0","SS1618435655897","","","","","","","","","images/stimuli/spore_stims/complex_10_A_a.gif","","","","{""Q0"":4}","[0]","","",""
"","1859.6399999987334","survey-likert","165","1061299","0.0-53.0","SS1618435655897","","","","","","","","","images/stimuli/spore_stims/simple_06_A_b.gif","","","","{""Q0"":3}","[0]","","",""
"","5268.004999998026","survey-likert","166","1066571","0.0-54.0","SS1618435655897","","","","","","","","","images/stimuli/spore_stims/complex_03_A_b.gif","","","","{""Q0"":6}","[0]","","",""
"","12020.260000001173","survey-likert","167","1078595","0.0-55.0","SS1618435655897","","","","","","","","","images/stimuli/spore_stims/complex_09_A_a.gif","","","","{""Q0"":6}","[0]","","",""
"","1795.6900000025053","survey-likert","168","1080395","0.0-56.0","SS1618435655897","","","","","","","","","images/stimuli/spore_stims/simple_19_A_a.gif","","","","{""Q0"":3}","[0]","","",""
"","26348.24999999907","survey-likert","169","1106747","0.0-57.0","SS1618435655897","","","","","","","","","images/stimuli/spore_stims/complex_07_A_a.gif","","","","{""Q0"":3}","[0]","","",""
"[{""page_index"":0,""viewing_time"":4748.070000001462}]","4748.36500000325","instructions","170","1111499","0.0-58.0","SS1618435655897","instructions","","","","","","","","","","","","","","","",""
"","6560.629999999888","demog-age","171","1118068","0.0-59.0","SS1618435655897","","","","","","","","","","","","","{""age"":""32""}","","","",""
"","5586.390000000363","demog-ethnic-US","172","1123660","0.0-60.0","SS1618435655897","","","","","","","","","","","","","{""ethnicity"":[""Hispanic or Latino""]}","[0]","","",""
"","9259.220000003465","demog-gender-and-education","173","1132924","0.0-61.0","SS1618435655897","","","","","","","","","","","","","{""gender"":""Male"",""education"":""Master's Degree""}","[0,1]","","",""
"","24441.5000000007","survey-text","174","1157372","0.0-62.0","SS1618435655897","feedback","","","","","","","","","","","","{""Q0"":""I don't have commentas""}","","","",""
"[{""page_index"":0,""viewing_time"":3083.625000003027}]","3083.9699999997392","instructions","175","1160459","0.0-63.0","SS1618435655897","instructions","","","","","","","","","","","","","","","",""
