"view_history","rt","trial_type","trial_index","time_elapsed","internal_node_id","subject","stimulus_type","trial_stimulus","key_press","minimum_viewing_duration","trial_looking_time","block_deviant","block_background","exposure_type","stimulus","block_number","block_type","stimulus_displayed","responses","question_order","math_correct_answer","stimulus_left","stimulus_right"
"[{""page_index"":0,""viewing_time"":3203.2250000629574}]","3204.369999933988","instructions","0","3206","0.0-0.0","SS1618366097475","","","","","","","","","","","","","","","","",""
"[{""page_index"":0,""viewing_time"":15861.954999854788},{""page_index"":1,""viewing_time"":5908.9399999938905}]","21771.38499985449","instructions","1","26984","0.0-1.0","SS1618366097475","instructions","","","","","","","","","","","","","","","",""
"","4425.335000036284","sequential-stimulus-presentation-old","2","31918","0.0-2.0","SS1618366097475","","","40","500","4925.335000036284","null","null","self_paced","","","","","","","","",""
"","6990.174999926239","sequential-stimulus-presentation-old","3","39418","0.0-3.0","SS1618366097475","","","40","500","7490.174999926239","null","null","self_paced","","","","","","","","",""
"[{""page_index"":0,""viewing_time"":18875.270000193268}]","18875.76500000432","instructions","4","58303","0.0-4.0","SS1618366097475","instructions","","","","","","","","","","","","","","","",""
"","2761.7899999022484","sequential-stimulus-presentation-old","5","66071","0.0-5.0","SS1618366097475","","","40","500","3261.7899999022484","null","null","forced_long","","","","","","","","",""
"","1290.5000001192093","sequential-stimulus-presentation-old","6","67432","0.0-6.0","SS1618366097475","","","40","50","1340.5000001192093","null","null","forced_long","","","","","","","","",""
"[{""page_index"":0,""viewing_time"":2449.4349998421967}]","2449.8699998948723","instructions","7","69883","0.0-7.0","SS1618366097475","instructions","","","","","","","","","","","","","","","",""
"[{""page_index"":0,""viewing_time"":1418.244999833405},{""page_index"":1,""viewing_time"":1349.9000000301749},{""page_index"":2,""viewing_time"":1949.9250000808388},{""page_index"":3,""viewing_time"":1319.914999883622},{""page_index"":4,""viewing_time"":1330.1699999719858}]","7368.634999962524","instructions","8","77253","0.0-8.0","SS1618366097475","instructions","","","","","","","","","","","","","","","",""
"","null","html-keyboard-response","9","78121","0.0-9.0-0.0","SS1618366097475","","","null","","","","","","<p><img src= images/blank.png width =""600"" height = ""600"" style=""position:fixed;top:50%; left:50%; transform: translate(-50%, -50%); border:5px solid black"">","","","","","","","",""
"","9180.764999939129","sequential-stimulus-presentation-old","10","87815","0.0-9.0-1.0","SS1618366097475","trial","","40","500","9680.764999939129","images/stimuli/spore_stims/simple_17_A_b.gif","images/stimuli/spore_stims/simple_03_A_a.gif","self_paced","","0","simple_dissimilar","images/stimuli/spore_stims/simple_03_A_a.gif","","","","",""
"","null","html-keyboard-response","11","88792","0.0-9.0-0.1","SS1618366097475","","","null","","","","","","<p><img src= images/blank.png width =""600"" height = ""600"" style=""position:fixed;top:50%; left:50%; transform: translate(-50%, -50%); border:5px solid black"">","","","","","","","",""
"","608.0249999649823","sequential-stimulus-presentation-old","12","89908","0.0-9.0-1.1","SS1618366097475","trial","","40","500","1108.0249999649823","images/stimuli/spore_stims/simple_17_A_b.gif","images/stimuli/spore_stims/simple_03_A_a.gif","self_paced","","0","simple_dissimilar","images/stimuli/spore_stims/simple_03_A_a.gif","","","","",""
"","null","html-keyboard-response","13","90851","0.0-9.0-0.2","SS1618366097475","","","null","","","","","","<p><img src= images/blank.png width =""600"" height = ""600"" style=""position:fixed;top:50%; left:50%; transform: translate(-50%, -50%); border:5px solid black"">","","","","","","","",""
"","166.5749999228865","sequential-stimulus-presentation-old","14","91525","0.0-9.0-1.2","SS1618366097475","trial","","40","500","666.5749999228865","images/stimuli/spore_stims/simple_17_A_b.gif","images/stimuli/spore_stims/simple_03_A_a.gif","self_paced","","0","simple_dissimilar","images/stimuli/spore_stims/simple_03_A_a.gif","","","","",""
"","null","html-keyboard-response","15","92761","0.0-9.0-0.3","SS1618366097475","","","null","","","","","","<p><img src= images/blank.png width =""600"" height = ""600"" style=""position:fixed;top:50%; left:50%; transform: translate(-50%, -50%); border:5px solid black"">","","","","","","","",""
"","1003.8750001695007","sequential-stimulus-presentation-old","16","94271","0.0-9.0-1.3","SS1618366097475","trial","","40","500","1503.8750001695007","images/stimuli/spore_stims/simple_17_A_b.gif","images/stimuli/spore_stims/simple_03_A_a.gif","self_paced","","0","simple_dissimilar","images/stimuli/spore_stims/simple_03_A_a.gif","","","","",""
"","null","html-keyboard-response","17","95322","0.0-9.0-0.4","SS1618366097475","","","null","","","","","","<p><img src= images/blank.png width =""600"" height = ""600"" style=""position:fixed;top:50%; left:50%; transform: translate(-50%, -50%); border:5px solid black"">","","","","","","","",""
"","106.0199998319149","sequential-stimulus-presentation-old","18","95935","0.0-9.0-1.4","SS1618366097475","trial","","40","500","606.0199998319149","images/stimuli/spore_stims/simple_17_A_b.gif","images/stimuli/spore_stims/simple_03_A_a.gif","self_paced","","0","simple_dissimilar","images/stimuli/spore_stims/simple_03_A_a.gif","","","","",""
"","4705.5600001476705","survey-multi-choice","19","100645","0.0-10.0","SS1618366097475","math_question","","","","","","","","","","","","{""Q0"":""9""}","[0]","9","",""
"","null","html-keyboard-response","20","101818","0.0-11.0-0.0","SS1618366097475","","","null","","","","","","<p><img src= images/blank.png width =""600"" height = ""600"" style=""position:fixed;top:50%; left:50%; transform: translate(-50%, -50%); border:5px solid black"">","","","","","","","",""
"","782.1700000204146","sequential-stimulus-presentation-old","21","103112","0.0-11.0-1.0","SS1618366097475","trial","","40","500","1282.1700000204146","images/stimuli/spore_stims/complex_10_A_b.gif","images/stimuli/spore_stims/complex_11_A_a.gif","self_paced","","1","complex_dissimilar","images/stimuli/spore_stims/complex_11_A_a.gif","","","","",""
"","null","html-keyboard-response","22","104261","0.0-11.0-0.1","SS1618366097475","","","null","","","","","","<p><img src= images/blank.png width =""600"" height = ""600"" style=""position:fixed;top:50%; left:50%; transform: translate(-50%, -50%); border:5px solid black"">","","","","","","","",""
"","465.56000015698373","sequential-stimulus-presentation-old","23","105236","0.0-11.0-1.1","SS1618366097475","trial","","40","500","965.5600001569837","images/stimuli/spore_stims/complex_10_A_b.gif","images/stimuli/spore_stims/complex_11_A_a.gif","self_paced","","1","complex_dissimilar","images/stimuli/spore_stims/complex_10_A_b.gif","","","","",""
"","null","html-keyboard-response","24","106171","0.0-11.0-0.2","SS1618366097475","","","null","","","","","","<p><img src= images/blank.png width =""600"" height = ""600"" style=""position:fixed;top:50%; left:50%; transform: translate(-50%, -50%); border:5px solid black"">","","","","","","","",""
"","547.6450000423938","sequential-stimulus-presentation-old","25","107228","0.0-11.0-1.2","SS1618366097475","trial","","40","500","1047.6450000423938","images/stimuli/spore_stims/complex_10_A_b.gif","images/stimuli/spore_stims/complex_11_A_a.gif","self_paced","","1","complex_dissimilar","images/stimuli/spore_stims/complex_11_A_a.gif","","","","",""
"","null","html-keyboard-response","26","108051","0.0-11.0-0.3","SS1618366097475","","","null","","","","","","<p><img src= images/blank.png width =""600"" height = ""600"" style=""position:fixed;top:50%; left:50%; transform: translate(-50%, -50%); border:5px solid black"">","","","","","","","",""
"","187.07499979063869","sequential-stimulus-presentation-old","27","108747","0.0-11.0-1.3","SS1618366097475","trial","","40","500","687.0749997906387","images/stimuli/spore_stims/complex_10_A_b.gif","images/stimuli/spore_stims/complex_11_A_a.gif","self_paced","","1","complex_dissimilar","images/stimuli/spore_stims/complex_11_A_a.gif","","","","",""
"","null","html-keyboard-response","28","109891","0.0-11.0-0.4","SS1618366097475","","","null","","","","","","<p><img src= images/blank.png width =""600"" height = ""600"" style=""position:fixed;top:50%; left:50%; transform: translate(-50%, -50%); border:5px solid black"">","","","","","","","",""
"","353.6549999844283","sequential-stimulus-presentation-old","29","110754","0.0-11.0-1.4","SS1618366097475","trial","","40","500","853.6549999844283","images/stimuli/spore_stims/complex_10_A_b.gif","images/stimuli/spore_stims/complex_11_A_a.gif","self_paced","","1","complex_dissimilar","images/stimuli/spore_stims/complex_10_A_b.gif","","","","",""
"","null","html-keyboard-response","30","111951","0.0-11.0-0.5","SS1618366097475","","","null","","","","","","<p><img src= images/blank.png width =""600"" height = ""600"" style=""position:fixed;top:50%; left:50%; transform: translate(-50%, -50%); border:5px solid black"">","","","","","","","",""
"","366.36499990709126","sequential-stimulus-presentation-old","31","112820","0.0-11.0-1.5","SS1618366097475","trial","","40","500","866.3649999070913","images/stimuli/spore_stims/complex_10_A_b.gif","images/stimuli/spore_stims/complex_11_A_a.gif","self_paced","","1","complex_dissimilar","images/stimuli/spore_stims/complex_11_A_a.gif","","","","",""
"","6866.840000031516","survey-multi-choice","32","119690","0.0-12.0","SS1618366097475","math_question","","","","","","","","","","","","{""Q0"":""11""}","[0]","11","",""
"","null","html-keyboard-response","33","120933","0.0-13.0-0.0","SS1618366097475","","","null","","","","","","<p><img src= images/blank.png width =""600"" height = ""600"" style=""position:fixed;top:50%; left:50%; transform: translate(-50%, -50%); border:5px solid black"">","","","","","","","",""
"","23.104999912902713","sequential-stimulus-presentation-old","34","125969","0.0-13.0-1.0","SS1618366097475","trial","","40","500","523.1049999129027","images/stimuli/spore_stims/simple_13_A_b.gif","images/stimuli/spore_stims/simple_11_A_a.gif","forced_long","","2","simple_dissimilar","images/stimuli/spore_stims/simple_11_A_a.gif","","","","",""
"","null","html-keyboard-response","35","127216","0.0-13.0-0.1","SS1618366097475","","","null","","","","","","<p><img src= images/blank.png width =""600"" height = ""600"" style=""position:fixed;top:50%; left:50%; transform: translate(-50%, -50%); border:5px solid black"">","","","","","","","",""
"","263.46000004559755","sequential-stimulus-presentation-old","36","127989","0.0-13.0-1.1","SS1618366097475","trial","","40","500","763.4600000455976","images/stimuli/spore_stims/simple_13_A_b.gif","images/stimuli/spore_stims/simple_11_A_a.gif","forced_long","","2","simple_dissimilar","images/stimuli/spore_stims/simple_11_A_a.gif","","","","",""
"","null","html-keyboard-response","37","129106","0.0-13.0-0.2","SS1618366097475","","","null","","","","","","<p><img src= images/blank.png width =""600"" height = ""600"" style=""position:fixed;top:50%; left:50%; transform: translate(-50%, -50%); border:5px solid black"">","","","","","","","",""
"","492.1099999919534","sequential-stimulus-presentation-old","38","130106","0.0-13.0-1.2","SS1618366097475","trial","","40","500","992.1099999919534","images/stimuli/spore_stims/simple_13_A_b.gif","images/stimuli/spore_stims/simple_11_A_a.gif","forced_long","","2","simple_dissimilar","images/stimuli/spore_stims/simple_11_A_a.gif","","","","",""
"","null","html-keyboard-response","39","131747","0.0-13.0-0.3","SS1618366097475","","","null","","","","","","<p><img src= images/blank.png width =""600"" height = ""600"" style=""position:fixed;top:50%; left:50%; transform: translate(-50%, -50%); border:5px solid black"">","","","","","","","",""
"","462.2399997897446","sequential-stimulus-presentation-old","40","132719","0.0-13.0-1.3","SS1618366097475","trial","","40","500","962.2399997897446","images/stimuli/spore_stims/simple_13_A_b.gif","images/stimuli/spore_stims/simple_11_A_a.gif","forced_long","","2","simple_dissimilar","images/stimuli/spore_stims/simple_11_A_a.gif","","","","",""
"","null","html-keyboard-response","41","134016","0.0-13.0-0.4","SS1618366097475","","","null","","","","","","<p><img src= images/blank.png width =""600"" height = ""600"" style=""position:fixed;top:50%; left:50%; transform: translate(-50%, -50%); border:5px solid black"">","","","","","","","",""
"","57.28500010445714","sequential-stimulus-presentation-old","42","134584","0.0-13.0-1.4","SS1618366097475","trial","","40","500","557.2850001044571","images/stimuli/spore_stims/simple_13_A_b.gif","images/stimuli/spore_stims/simple_11_A_a.gif","forced_long","","2","simple_dissimilar","images/stimuli/spore_stims/simple_11_A_a.gif","","","","",""
"","null","html-keyboard-response","43","135516","0.0-13.0-0.5","SS1618366097475","","","null","","","","","","<p><img src= images/blank.png width =""600"" height = ""600"" style=""position:fixed;top:50%; left:50%; transform: translate(-50%, -50%); border:5px solid black"">","","","","","","","",""
"","61.849999940022826","sequential-stimulus-presentation-old","44","136085","0.0-13.0-1.5","SS1618366097475","trial","","40","500","561.8499999400228","images/stimuli/spore_stims/simple_13_A_b.gif","images/stimuli/spore_stims/simple_11_A_a.gif","forced_long","","2","simple_dissimilar","images/stimuli/spore_stims/simple_11_A_a.gif","","","","",""
"","4321.469999849796","survey-multi-choice","45","140410","0.0-14.0","SS1618366097475","math_question","","","","","","","","","","","","{""Q0"":""9""}","[0]","9","",""
"","null","html-keyboard-response","46","141506","0.0-15.0-0.0","SS1618366097475","","","null","","","","","","<p><img src= images/blank.png width =""600"" height = ""600"" style=""position:fixed;top:50%; left:50%; transform: translate(-50%, -50%); border:5px solid black"">","","","","","","","",""
"","565.669999923557","sequential-stimulus-presentation-old","47","147080","0.0-15.0-1.0","SS1618366097475","trial","","40","500","1065.669999923557","images/stimuli/spore_stims/complex_12_A_b.gif","images/stimuli/spore_stims/complex_15_A_a.gif","forced_long","","3","complex_dissimilar","images/stimuli/spore_stims/complex_15_A_a.gif","","","","",""
"","null","html-keyboard-response","48","148244","0.0-15.0-0.1","SS1618366097475","","","null","","","","","","<p><img src= images/blank.png width =""600"" height = ""600"" style=""position:fixed;top:50%; left:50%; transform: translate(-50%, -50%); border:5px solid black"">","","","","","","","",""
"","61.67500000447035","sequential-stimulus-presentation-old","49","148817","0.0-15.0-1.1","SS1618366097475","trial","","40","500","561.6750000044703","images/stimuli/spore_stims/complex_12_A_b.gif","images/stimuli/spore_stims/complex_15_A_a.gif","forced_long","","3","complex_dissimilar","images/stimuli/spore_stims/complex_12_A_b.gif","","","","",""
"","null","html-keyboard-response","50","149786","0.0-15.0-0.2","SS1618366097475","","","null","","","","","","<p><img src= images/blank.png width =""600"" height = ""600"" style=""position:fixed;top:50%; left:50%; transform: translate(-50%, -50%); border:5px solid black"">","","","","","","","",""
"","147.65000017359853","sequential-stimulus-presentation-old","51","150439","0.0-15.0-1.2","SS1618366097475","trial","","40","500","647.6500001735985","images/stimuli/spore_stims/complex_12_A_b.gif","images/stimuli/spore_stims/complex_15_A_a.gif","forced_long","","3","complex_dissimilar","images/stimuli/spore_stims/complex_15_A_a.gif","","","","",""
"","null","html-keyboard-response","52","151277","0.0-15.0-0.3","SS1618366097475","","","null","","","","","","<p><img src= images/blank.png width =""600"" height = ""600"" style=""position:fixed;top:50%; left:50%; transform: translate(-50%, -50%); border:5px solid black"">","","","","","","","",""
"","136.18999999016523","sequential-stimulus-presentation-old","53","151923","0.0-15.0-1.3","SS1618366097475","trial","","40","500","636.1899999901652","images/stimuli/spore_stims/complex_12_A_b.gif","images/stimuli/spore_stims/complex_15_A_a.gif","forced_long","","3","complex_dissimilar","images/stimuli/spore_stims/complex_15_A_a.gif","","","","",""
"","null","html-keyboard-response","54","152936","0.0-15.0-0.4","SS1618366097475","","","null","","","","","","<p><img src= images/blank.png width =""600"" height = ""600"" style=""position:fixed;top:50%; left:50%; transform: translate(-50%, -50%); border:5px solid black"">","","","","","","","",""
"","366.2499999627471","sequential-stimulus-presentation-old","55","153812","0.0-15.0-1.4","SS1618366097475","trial","","40","500","866.2499999627471","images/stimuli/spore_stims/complex_12_A_b.gif","images/stimuli/spore_stims/complex_15_A_a.gif","forced_long","","3","complex_dissimilar","images/stimuli/spore_stims/complex_12_A_b.gif","","","","",""
"","3920.420000096783","survey-multi-choice","56","157735","0.0-16.0","SS1618366097475","math_question","","","","","","","","","","","","{""Q0"":""11""}","[0]","11","",""
"","null","html-keyboard-response","57","158726","0.0-17.0-0.0","SS1618366097475","","","null","","","","","","<p><img src= images/blank.png width =""600"" height = ""600"" style=""position:fixed;top:50%; left:50%; transform: translate(-50%, -50%); border:5px solid black"">","","","","","","","",""
"","98.8800001796335","sequential-stimulus-presentation-old","58","163831","0.0-17.0-1.0","SS1618366097475","trial","","40","500","598.8800001796335","images/stimuli/spore_stims/simple_15_A_b.gif","images/stimuli/spore_stims/simple_19_A_a.gif","forced_long","","4","simple_dissimilar","images/stimuli/spore_stims/simple_19_A_a.gif","","","","",""
"","null","html-keyboard-response","59","164781","0.0-17.0-0.1","SS1618366097475","","","null","","","","","","<p><img src= images/blank.png width =""600"" height = ""600"" style=""position:fixed;top:50%; left:50%; transform: translate(-50%, -50%); border:5px solid black"">","","","","","","","",""
"","40.8799999859184","sequential-stimulus-presentation-old","60","165327","0.0-17.0-1.1","SS1618366097475","trial","","40","500","540.8799999859184","images/stimuli/spore_stims/simple_15_A_b.gif","images/stimuli/spore_stims/simple_19_A_a.gif","forced_long","","4","simple_dissimilar","images/stimuli/spore_stims/simple_19_A_a.gif","","","","",""
"","null","html-keyboard-response","61","166521","0.0-17.0-0.2","SS1618366097475","","","null","","","","","","<p><img src= images/blank.png width =""600"" height = ""600"" style=""position:fixed;top:50%; left:50%; transform: translate(-50%, -50%); border:5px solid black"">","","","","","","","",""
"","62.43500020354986","sequential-stimulus-presentation-old","62","167092","0.0-17.0-1.2","SS1618366097475","trial","","40","500","562.4350002035499","images/stimuli/spore_stims/simple_15_A_b.gif","images/stimuli/spore_stims/simple_19_A_a.gif","forced_long","","4","simple_dissimilar","images/stimuli/spore_stims/simple_15_A_b.gif","","","","",""
"","null","html-keyboard-response","63","168256","0.0-17.0-0.3","SS1618366097475","","","null","","","","","","<p><img src= images/blank.png width =""600"" height = ""600"" style=""position:fixed;top:50%; left:50%; transform: translate(-50%, -50%); border:5px solid black"">","","","","","","","",""
"","65.6300000846386","sequential-stimulus-presentation-old","64","168831","0.0-17.0-1.3","SS1618366097475","trial","","40","500","565.6300000846386","images/stimuli/spore_stims/simple_15_A_b.gif","images/stimuli/spore_stims/simple_19_A_a.gif","forced_long","","4","simple_dissimilar","images/stimuli/spore_stims/simple_15_A_b.gif","","","","",""
"","3024.805000051856","survey-multi-choice","65","171859","0.0-18.0","SS1618366097475","math_question","","","","","","","","","","","","{""Q0"":""4""}","[0]","4","",""
"","null","html-keyboard-response","66","172821","0.0-19.0-0.0","SS1618366097475","","","null","","","","","","<p><img src= images/blank.png width =""600"" height = ""600"" style=""position:fixed;top:50%; left:50%; transform: translate(-50%, -50%); border:5px solid black"">","","","","","","","",""
"","86.03999996557832","sequential-stimulus-presentation-old","67","173414","0.0-19.0-1.0","SS1618366097475","trial","","40","500","586.0399999655783","images/stimuli/spore_stims/simple_20_A_b.gif","images/stimuli/spore_stims/simple_18_A_a.gif","self_paced","","5","simple_dissimilar","images/stimuli/spore_stims/simple_18_A_a.gif","","","","",""
"","null","html-keyboard-response","68","174521","0.0-19.0-0.1","SS1618366097475","","","null","","","","","","<p><img src= images/blank.png width =""600"" height = ""600"" style=""position:fixed;top:50%; left:50%; transform: translate(-50%, -50%); border:5px solid black"">","","","","","","","",""
"","111.77000007592142","sequential-stimulus-presentation-old","69","175139","0.0-19.0-1.1","SS1618366097475","trial","","40","500","611.7700000759214","images/stimuli/spore_stims/simple_20_A_b.gif","images/stimuli/spore_stims/simple_18_A_a.gif","self_paced","","5","simple_dissimilar","images/stimuli/spore_stims/simple_20_A_b.gif","","","","",""
"","null","html-keyboard-response","70","176431","0.0-19.0-0.2","SS1618366097475","","","null","","","","","","<p><img src= images/blank.png width =""600"" height = ""600"" style=""position:fixed;top:50%; left:50%; transform: translate(-50%, -50%); border:5px solid black"">","","","","","","","",""
"","81.50499989278615","sequential-stimulus-presentation-old","71","177018","0.0-19.0-1.2","SS1618366097475","trial","","40","500","581.5049998927861","images/stimuli/spore_stims/simple_20_A_b.gif","images/stimuli/spore_stims/simple_18_A_a.gif","self_paced","","5","simple_dissimilar","images/stimuli/spore_stims/simple_18_A_a.gif","","","","",""
"","null","html-keyboard-response","72","177861","0.0-19.0-0.3","SS1618366097475","","","null","","","","","","<p><img src= images/blank.png width =""600"" height = ""600"" style=""position:fixed;top:50%; left:50%; transform: translate(-50%, -50%); border:5px solid black"">","","","","","","","",""
"","55.90000003576279","sequential-stimulus-presentation-old","73","178436","0.0-19.0-1.3","SS1618366097475","trial","","40","500","555.9000000357628","images/stimuli/spore_stims/simple_20_A_b.gif","images/stimuli/spore_stims/simple_18_A_a.gif","self_paced","","5","simple_dissimilar","images/stimuli/spore_stims/simple_18_A_a.gif","","","","",""
"","null","html-keyboard-response","74","179361","0.0-19.0-0.4","SS1618366097475","","","null","","","","","","<p><img src= images/blank.png width =""600"" height = ""600"" style=""position:fixed;top:50%; left:50%; transform: translate(-50%, -50%); border:5px solid black"">","","","","","","","",""
"","136.10500004142523","sequential-stimulus-presentation-old","75","180005","0.0-19.0-1.4","SS1618366097475","trial","","40","500","636.1050000414252","images/stimuli/spore_stims/simple_20_A_b.gif","images/stimuli/spore_stims/simple_18_A_a.gif","self_paced","","5","simple_dissimilar","images/stimuli/spore_stims/simple_20_A_b.gif","","","","",""
"","null","html-keyboard-response","76","180978","0.0-19.0-0.5","SS1618366097475","","","null","","","","","","<p><img src= images/blank.png width =""600"" height = ""600"" style=""position:fixed;top:50%; left:50%; transform: translate(-50%, -50%); border:5px solid black"">","","","","","","","",""
"","64.77499986067414","sequential-stimulus-presentation-old","77","181553","0.0-19.0-1.5","SS1618366097475","trial","","40","500","564.7749998606741","images/stimuli/spore_stims/simple_20_A_b.gif","images/stimuli/spore_stims/simple_18_A_a.gif","self_paced","","5","simple_dissimilar","images/stimuli/spore_stims/simple_18_A_a.gif","","","","",""
"","3247.8600000031292","survey-multi-choice","78","184804","0.0-20.0","SS1618366097475","math_question","","","","","","","","","","","","{""Q0"":""11""}","[0]","11","",""
"","null","html-keyboard-response","79","185662","0.0-21.0-0.0","SS1618366097475","","","null","","","","","","<p><img src= images/blank.png width =""600"" height = ""600"" style=""position:fixed;top:50%; left:50%; transform: translate(-50%, -50%); border:5px solid black"">","","","","","","","",""
"","430.4900001734495","sequential-stimulus-presentation-old","80","186152","0.0-21.0-1.0","SS1618366097475","trial","","40","500","930.4900001734495","images/stimuli/spore_stims/simple_12_A_b.gif","images/stimuli/spore_stims/simple_13_A_a.gif","forced_short","","6","simple_dissimilar","images/stimuli/spore_stims/simple_13_A_a.gif","","","","",""
"","null","html-keyboard-response","81","187391","0.0-21.0-0.1","SS1618366097475","","","null","","","","","","<p><img src= images/blank.png width =""600"" height = ""600"" style=""position:fixed;top:50%; left:50%; transform: translate(-50%, -50%); border:5px solid black"">","","","","","","","",""
"","76.64000010117888","sequential-stimulus-presentation-old","82","187975","0.0-21.0-1.1","SS1618366097475","trial","","40","500","576.6400001011789","images/stimuli/spore_stims/simple_12_A_b.gif","images/stimuli/spore_stims/simple_13_A_a.gif","forced_short","","6","simple_dissimilar","images/stimuli/spore_stims/simple_13_A_a.gif","","","","",""
"","null","html-keyboard-response","83","188891","0.0-21.0-0.2","SS1618366097475","","","null","","","","","","<p><img src= images/blank.png width =""600"" height = ""600"" style=""position:fixed;top:50%; left:50%; transform: translate(-50%, -50%); border:5px solid black"">","","","","","","","",""
"","160.08499986492097","sequential-stimulus-presentation-old","84","189557","0.0-21.0-1.2","SS1618366097475","trial","","40","500","660.084999864921","images/stimuli/spore_stims/simple_12_A_b.gif","images/stimuli/spore_stims/simple_13_A_a.gif","forced_short","","6","simple_dissimilar","images/stimuli/spore_stims/simple_13_A_a.gif","","","","",""
"","null","html-keyboard-response","85","190401","0.0-21.0-0.3","SS1618366097475","","","null","","","","","","<p><img src= images/blank.png width =""600"" height = ""600"" style=""position:fixed;top:50%; left:50%; transform: translate(-50%, -50%); border:5px solid black"">","","","","","","","",""
"","244.24999998882413","sequential-stimulus-presentation-old","86","191155","0.0-21.0-1.3","SS1618366097475","trial","","40","500","744.2499999888241","images/stimuli/spore_stims/simple_12_A_b.gif","images/stimuli/spore_stims/simple_13_A_a.gif","forced_short","","6","simple_dissimilar","images/stimuli/spore_stims/simple_12_A_b.gif","","","","",""
"","null","html-keyboard-response","87","192088","0.0-21.0-0.4","SS1618366097475","","","null","","","","","","<p><img src= images/blank.png width =""600"" height = ""600"" style=""position:fixed;top:50%; left:50%; transform: translate(-50%, -50%); border:5px solid black"">","","","","","","","",""
"","182.24500003270805","sequential-stimulus-presentation-old","88","192777","0.0-21.0-1.4","SS1618366097475","trial","","40","500","682.245000032708","images/stimuli/spore_stims/simple_12_A_b.gif","images/stimuli/spore_stims/simple_13_A_a.gif","forced_short","","6","simple_dissimilar","images/stimuli/spore_stims/simple_13_A_a.gif","","","","",""
"","null","html-keyboard-response","89","193819","0.0-21.0-0.5","SS1618366097475","","","null","","","","","","<p><img src= images/blank.png width =""600"" height = ""600"" style=""position:fixed;top:50%; left:50%; transform: translate(-50%, -50%); border:5px solid black"">","","","","","","","",""
"","514.339999994263","sequential-stimulus-presentation-old","90","194850","0.0-21.0-1.5","SS1618366097475","trial","","40","500","1014.339999994263","images/stimuli/spore_stims/simple_12_A_b.gif","images/stimuli/spore_stims/simple_13_A_a.gif","forced_short","","6","simple_dissimilar","images/stimuli/spore_stims/simple_13_A_a.gif","","","","",""
"","2989.894999889657","survey-multi-choice","91","197844","0.0-22.0","SS1618366097475","math_question","","","","","","","","","","","","{""Q0"":""11""}","[0]","11","",""
"","null","html-keyboard-response","92","198746","0.0-23.0-0.0","SS1618366097475","","","null","","","","","","<p><img src= images/blank.png width =""600"" height = ""600"" style=""position:fixed;top:50%; left:50%; transform: translate(-50%, -50%); border:5px solid black"">","","","","","","","",""
"","41.60499991849065","sequential-stimulus-presentation-old","93","203798","0.0-23.0-1.0","SS1618366097475","trial","","40","500","541.6049999184906","images/stimuli/spore_stims/complex_16_A_b.gif","images/stimuli/spore_stims/complex_19_A_a.gif","forced_long","","7","complex_dissimilar","images/stimuli/spore_stims/complex_19_A_a.gif","","","","",""
"","null","html-keyboard-response","94","204851","0.0-23.0-0.1","SS1618366097475","","","null","","","","","","<p><img src= images/blank.png width =""600"" height = ""600"" style=""position:fixed;top:50%; left:50%; transform: translate(-50%, -50%); border:5px solid black"">","","","","","","","",""
"","1164.325000019744","sequential-stimulus-presentation-old","95","206524","0.0-23.0-1.1","SS1618366097475","trial","","40","500","1664.325000019744","images/stimuli/spore_stims/complex_16_A_b.gif","images/stimuli/spore_stims/complex_19_A_a.gif","forced_long","","7","complex_dissimilar","images/stimuli/spore_stims/complex_19_A_a.gif","","","","",""
"","null","html-keyboard-response","96","207552","0.0-23.0-0.2","SS1618366097475","","","null","","","","","","<p><img src= images/blank.png width =""600"" height = ""600"" style=""position:fixed;top:50%; left:50%; transform: translate(-50%, -50%); border:5px solid black"">","","","","","","","",""
"","330.95000009052455","sequential-stimulus-presentation-old","97","208392","0.0-23.0-1.2","SS1618366097475","trial","","40","500","830.9500000905246","images/stimuli/spore_stims/complex_16_A_b.gif","images/stimuli/spore_stims/complex_19_A_a.gif","forced_long","","7","complex_dissimilar","images/stimuli/spore_stims/complex_19_A_a.gif","","","","",""
"","null","html-keyboard-response","98","209271","0.0-23.0-0.3","SS1618366097475","","","null","","","","","","<p><img src= images/blank.png width =""600"" height = ""600"" style=""position:fixed;top:50%; left:50%; transform: translate(-50%, -50%); border:5px solid black"">","","","","","","","",""
"","869.9799999594688","sequential-stimulus-presentation-old","99","210649","0.0-23.0-1.3","SS1618366097475","trial","","40","500","1369.9799999594688","images/stimuli/spore_stims/complex_16_A_b.gif","images/stimuli/spore_stims/complex_19_A_a.gif","forced_long","","7","complex_dissimilar","images/stimuli/spore_stims/complex_19_A_a.gif","","","","",""
"","3229.9049999564886","survey-multi-choice","100","213884","0.0-24.0","SS1618366097475","math_question","","","","","","","","","","","","{""Q0"":""3""}","[0]","3","",""
"","null","html-keyboard-response","101","214741","0.0-25.0-0.0","SS1618366097475","","","null","","","","","","<p><img src= images/blank.png width =""600"" height = ""600"" style=""position:fixed;top:50%; left:50%; transform: translate(-50%, -50%); border:5px solid black"">","","","","","","","",""
"","587.7950000576675","sequential-stimulus-presentation-old","102","215388","0.0-25.0-1.0","SS1618366097475","trial","","40","500","1087.7950000576675","images/stimuli/spore_stims/complex_14_A_b.gif","images/stimuli/spore_stims/complex_13_A_a.gif","forced_short","","8","complex_dissimilar","images/stimuli/spore_stims/complex_13_A_a.gif","","","","",""
"","null","html-keyboard-response","103","216371","0.0-25.0-0.1","SS1618366097475","","","null","","","","","","<p><img src= images/blank.png width =""600"" height = ""600"" style=""position:fixed;top:50%; left:50%; transform: translate(-50%, -50%); border:5px solid black"">","","","","","","","",""
"","347.10000013001263","sequential-stimulus-presentation-old","104","217223","0.0-25.0-1.1","SS1618366097475","trial","","40","500","847.1000001300126","images/stimuli/spore_stims/complex_14_A_b.gif","images/stimuli/spore_stims/complex_13_A_a.gif","forced_short","","8","complex_dissimilar","images/stimuli/spore_stims/complex_14_A_b.gif","","","","",""
"","null","html-keyboard-response","105","218261","0.0-25.0-0.2","SS1618366097475","","","null","","","","","","<p><img src= images/blank.png width =""600"" height = ""600"" style=""position:fixed;top:50%; left:50%; transform: translate(-50%, -50%); border:5px solid black"">","","","","","","","",""
"","8.015000028535724","sequential-stimulus-presentation-old","106","218776","0.0-25.0-1.2","SS1618366097475","trial","","40","500","508.0150000285357","images/stimuli/spore_stims/complex_14_A_b.gif","images/stimuli/spore_stims/complex_13_A_a.gif","forced_short","","8","complex_dissimilar","images/stimuli/spore_stims/complex_13_A_a.gif","","","","",""
"","null","html-keyboard-response","107","219591","0.0-25.0-0.3","SS1618366097475","","","null","","","","","","<p><img src= images/blank.png width =""600"" height = ""600"" style=""position:fixed;top:50%; left:50%; transform: translate(-50%, -50%); border:5px solid black"">","","","","","","","",""
"","290.2500000782311","sequential-stimulus-presentation-old","108","220389","0.0-25.0-1.3","SS1618366097475","trial","","40","500","790.2500000782311","images/stimuli/spore_stims/complex_14_A_b.gif","images/stimuli/spore_stims/complex_13_A_a.gif","forced_short","","8","complex_dissimilar","images/stimuli/spore_stims/complex_13_A_a.gif","","","","",""
"","null","html-keyboard-response","109","221608","0.0-25.0-0.4","SS1618366097475","","","null","","","","","","<p><img src= images/blank.png width =""600"" height = ""600"" style=""position:fixed;top:50%; left:50%; transform: translate(-50%, -50%); border:5px solid black"">","","","","","","","",""
"","243.75999998301268","sequential-stimulus-presentation-old","110","222364","0.0-25.0-1.4","SS1618366097475","trial","","40","500","743.7599999830127","images/stimuli/spore_stims/complex_14_A_b.gif","images/stimuli/spore_stims/complex_13_A_a.gif","forced_short","","8","complex_dissimilar","images/stimuli/spore_stims/complex_13_A_a.gif","","","","",""
"","3044.6999999694526","survey-multi-choice","111","225414","0.0-26.0","SS1618366097475","math_question","","","","","","","","","","","","{""Q0"":""13""}","[0]","13","",""
"","null","html-keyboard-response","112","226378","0.0-27.0-0.0","SS1618366097475","","","null","","","","","","<p><img src= images/blank.png width =""600"" height = ""600"" style=""position:fixed;top:50%; left:50%; transform: translate(-50%, -50%); border:5px solid black"">","","","","","","","",""
"","408.5250000935048","sequential-stimulus-presentation-old","113","226845","0.0-27.0-1.0","SS1618366097475","trial","","40","500","908.5250000935048","images/stimuli/spore_stims/complex_07_A_a.gif","images/stimuli/spore_stims/complex_13_A_b.gif","forced_short","","9","complex_dissimilar","images/stimuli/spore_stims/complex_13_A_b.gif","","","","",""
"","null","html-keyboard-response","114","228111","0.0-27.0-0.1","SS1618366097475","","","null","","","","","","<p><img src= images/blank.png width =""600"" height = ""600"" style=""position:fixed;top:50%; left:50%; transform: translate(-50%, -50%); border:5px solid black"">","","","","","","","",""
"","290.90500017628074","sequential-stimulus-presentation-old","115","228911","0.0-27.0-1.1","SS1618366097475","trial","","40","500","790.9050001762807","images/stimuli/spore_stims/complex_07_A_a.gif","images/stimuli/spore_stims/complex_13_A_b.gif","forced_short","","9","complex_dissimilar","images/stimuli/spore_stims/complex_07_A_a.gif","","","","",""
"","null","html-keyboard-response","116","229931","0.0-27.0-0.2","SS1618366097475","","","null","","","","","","<p><img src= images/blank.png width =""600"" height = ""600"" style=""position:fixed;top:50%; left:50%; transform: translate(-50%, -50%); border:5px solid black"">","","","","","","","",""
"","227.89999982342124","sequential-stimulus-presentation-old","117","230666","0.0-27.0-1.2","SS1618366097475","trial","","40","500","727.8999998234212","images/stimuli/spore_stims/complex_07_A_a.gif","images/stimuli/spore_stims/complex_13_A_b.gif","forced_short","","9","complex_dissimilar","images/stimuli/spore_stims/complex_13_A_b.gif","","","","",""
"","null","html-keyboard-response","118","231891","0.0-27.0-0.3","SS1618366097475","","","null","","","","","","<p><img src= images/blank.png width =""600"" height = ""600"" style=""position:fixed;top:50%; left:50%; transform: translate(-50%, -50%); border:5px solid black"">","","","","","","","",""
"","44.60999998264015","sequential-stimulus-presentation-old","119","232451","0.0-27.0-1.3","SS1618366097475","trial","","40","500","544.6099999826401","images/stimuli/spore_stims/complex_07_A_a.gif","images/stimuli/spore_stims/complex_13_A_b.gif","forced_short","","9","complex_dissimilar","images/stimuli/spore_stims/complex_13_A_b.gif","","","","",""
"","null","html-keyboard-response","120","233491","0.0-27.0-0.4","SS1618366097475","","","null","","","","","","<p><img src= images/blank.png width =""600"" height = ""600"" style=""position:fixed;top:50%; left:50%; transform: translate(-50%, -50%); border:5px solid black"">","","","","","","","",""
"","129.51999995857477","sequential-stimulus-presentation-old","121","234130","0.0-27.0-1.4","SS1618366097475","trial","","40","500","629.5199999585748","images/stimuli/spore_stims/complex_07_A_a.gif","images/stimuli/spore_stims/complex_13_A_b.gif","forced_short","","9","complex_dissimilar","images/stimuli/spore_stims/complex_13_A_b.gif","","","","",""
"","null","html-keyboard-response","122","234976","0.0-27.0-0.5","SS1618366097475","","","null","","","","","","<p><img src= images/blank.png width =""600"" height = ""600"" style=""position:fixed;top:50%; left:50%; transform: translate(-50%, -50%); border:5px solid black"">","","","","","","","",""
"","184.55499992705882","sequential-stimulus-presentation-old","123","235676","0.0-27.0-1.5","SS1618366097475","trial","","40","500","684.5549999270588","images/stimuli/spore_stims/complex_07_A_a.gif","images/stimuli/spore_stims/complex_13_A_b.gif","forced_short","","9","complex_dissimilar","images/stimuli/spore_stims/complex_13_A_b.gif","","","","",""
"","2713.6399999726564","survey-multi-choice","124","238394","0.0-28.0","SS1618366097475","math_question","","","","","","","","","","","","{""Q0"":""11""}","[0]","11","",""
"","null","html-keyboard-response","125","239721","0.0-29.0-0.0","SS1618366097475","","","null","","","","","","<p><img src= images/blank.png width =""600"" height = ""600"" style=""position:fixed;top:50%; left:50%; transform: translate(-50%, -50%); border:5px solid black"">","","","","","","","",""
"","57.68499989062548","sequential-stimulus-presentation-old","126","239849","0.0-29.0-1.0","SS1618366097475","trial","","40","500","557.6849998906255","images/stimuli/spore_stims/simple_19_A_b.gif","images/stimuli/spore_stims/simple_06_A_a.gif","forced_short","","10","simple_dissimilar","images/stimuli/spore_stims/simple_06_A_a.gif","","","","",""
"","null","html-keyboard-response","127","241071","0.0-29.0-0.1","SS1618366097475","","","null","","","","","","<p><img src= images/blank.png width =""600"" height = ""600"" style=""position:fixed;top:50%; left:50%; transform: translate(-50%, -50%); border:5px solid black"">","","","","","","","",""
"","872.2649998962879","sequential-stimulus-presentation-old","128","242451","0.0-29.0-1.1","SS1618366097475","trial","","40","500","1372.264999896288","images/stimuli/spore_stims/simple_19_A_b.gif","images/stimuli/spore_stims/simple_06_A_a.gif","forced_short","","10","simple_dissimilar","images/stimuli/spore_stims/simple_19_A_b.gif","","","","",""
"","null","html-keyboard-response","129","243681","0.0-29.0-0.2","SS1618366097475","","","null","","","","","","<p><img src= images/blank.png width =""600"" height = ""600"" style=""position:fixed;top:50%; left:50%; transform: translate(-50%, -50%); border:5px solid black"">","","","","","","","",""
"","325.7649999577552","sequential-stimulus-presentation-old","130","244520","0.0-29.0-1.2","SS1618366097475","trial","","40","500","825.7649999577552","images/stimuli/spore_stims/simple_19_A_b.gif","images/stimuli/spore_stims/simple_06_A_a.gif","forced_short","","10","simple_dissimilar","images/stimuli/spore_stims/simple_19_A_b.gif","","","","",""
"","null","html-keyboard-response","131","245366","0.0-29.0-0.3","SS1618366097475","","","null","","","","","","<p><img src= images/blank.png width =""600"" height = ""600"" style=""position:fixed;top:50%; left:50%; transform: translate(-50%, -50%); border:5px solid black"">","","","","","","","",""
"","146.59999986179173","sequential-stimulus-presentation-old","132","246028","0.0-29.0-1.3","SS1618366097475","trial","","40","500","646.5999998617917","images/stimuli/spore_stims/simple_19_A_b.gif","images/stimuli/spore_stims/simple_06_A_a.gif","forced_short","","10","simple_dissimilar","images/stimuli/spore_stims/simple_06_A_a.gif","","","","",""
"","2950.1900000032037","survey-multi-choice","133","248983","0.0-30.0","SS1618366097475","math_question","","","","","","","","","","","","{""Q0"":""6""}","[0]","6","",""
"","null","html-keyboard-response","134","249871","0.0-31.0-0.0","SS1618366097475","","","null","","","","","","<p><img src= images/blank.png width =""600"" height = ""600"" style=""position:fixed;top:50%; left:50%; transform: translate(-50%, -50%); border:5px solid black"">","","","","","","","",""
"","89.37499998137355","sequential-stimulus-presentation-old","135","250478","0.0-31.0-1.0","SS1618366097475","trial","","40","500","589.3749999813735","images/stimuli/spore_stims/complex_10_A_a.gif","images/stimuli/spore_stims/complex_05_A_b.gif","self_paced","","11","complex_dissimilar","images/stimuli/spore_stims/complex_05_A_b.gif","","","","",""
"","null","html-keyboard-response","136","251761","0.0-31.0-0.1","SS1618366097475","","","null","","","","","","<p><img src= images/blank.png width =""600"" height = ""600"" style=""position:fixed;top:50%; left:50%; transform: translate(-50%, -50%); border:5px solid black"">","","","","","","","",""
"","697.1899999771267","sequential-stimulus-presentation-old","137","252968","0.0-31.0-1.1","SS1618366097475","trial","","40","500","1197.1899999771267","images/stimuli/spore_stims/complex_10_A_a.gif","images/stimuli/spore_stims/complex_05_A_b.gif","self_paced","","11","complex_dissimilar","images/stimuli/spore_stims/complex_05_A_b.gif","","","","",""
"","null","html-keyboard-response","138","254271","0.0-31.0-0.2","SS1618366097475","","","null","","","","","","<p><img src= images/blank.png width =""600"" height = ""600"" style=""position:fixed;top:50%; left:50%; transform: translate(-50%, -50%); border:5px solid black"">","","","","","","","",""
"","247.53499985672534","sequential-stimulus-presentation-old","139","255037","0.0-31.0-1.2","SS1618366097475","trial","","40","500","747.5349998567253","images/stimuli/spore_stims/complex_10_A_a.gif","images/stimuli/spore_stims/complex_05_A_b.gif","self_paced","","11","complex_dissimilar","images/stimuli/spore_stims/complex_05_A_b.gif","","","","",""
"","null","html-keyboard-response","140","256121","0.0-31.0-0.3","SS1618366097475","","","null","","","","","","<p><img src= images/blank.png width =""600"" height = ""600"" style=""position:fixed;top:50%; left:50%; transform: translate(-50%, -50%); border:5px solid black"">","","","","","","","",""
"","204.09500016830862","sequential-stimulus-presentation-old","141","256841","0.0-31.0-1.3","SS1618366097475","trial","","40","500","704.0950001683086","images/stimuli/spore_stims/complex_10_A_a.gif","images/stimuli/spore_stims/complex_05_A_b.gif","self_paced","","11","complex_dissimilar","images/stimuli/spore_stims/complex_10_A_a.gif","","","","",""
"","null","html-keyboard-response","142","257821","0.0-31.0-0.4","SS1618366097475","","","null","","","","","","<p><img src= images/blank.png width =""600"" height = ""600"" style=""position:fixed;top:50%; left:50%; transform: translate(-50%, -50%); border:5px solid black"">","","","","","","","",""
"","889.2200000118464","sequential-stimulus-presentation-old","143","259220","0.0-31.0-1.4","SS1618366097475","trial","","40","500","1389.2200000118464","images/stimuli/spore_stims/complex_10_A_a.gif","images/stimuli/spore_stims/complex_05_A_b.gif","self_paced","","11","complex_dissimilar","images/stimuli/spore_stims/complex_05_A_b.gif","","","","",""
"[{""page_index"":0,""viewing_time"":4739.270000020042}]","4739.724999992177","instructions","144","263964","0.0-32.0","SS1618366097475","instructions","","","","","","","","","","","","","","","",""
"","7711.984999943525","survey-likert","145","271684","0.0-33.0","SS1618366097475","similarity_question","","","","","","","","","","","","{""Q0"":5}","[0]","","images/stimuli/spore_stims/simple_11_A_a.gif","images/stimuli/spore_stims/simple_13_A_b.gif"
"","5247.790000168607","survey-likert","146","276954","0.0-34.0","SS1618366097475","similarity_question","","","","","","","","","","","","{""Q0"":1}","[0]","","images/stimuli/spore_stims/complex_15_A_a.gif","images/stimuli/spore_stims/complex_12_A_b.gif"
"","3490.864999825135","survey-likert","147","280464","0.0-35.0","SS1618366097475","similarity_question","","","","","","","","","","","","{""Q0"":2}","[0]","","images/stimuli/spore_stims/simple_19_A_b.gif","images/stimuli/spore_stims/simple_06_A_a.gif"
"","2947.2000000532717","survey-likert","148","283433","0.0-36.0","SS1618366097475","similarity_question","","","","","","","","","","","","{""Q0"":5}","[0]","","images/stimuli/spore_stims/simple_13_A_a.gif","images/stimuli/spore_stims/simple_12_A_b.gif"
"","5828.1199999619275","survey-likert","149","289284","0.0-37.0","SS1618366097475","similarity_question","","","","","","","","","","","","{""Q0"":0}","[0]","","images/stimuli/spore_stims/complex_10_A_b.gif","images/stimuli/spore_stims/complex_11_A_a.gif"
"","2800.224999897182","survey-likert","150","292105","0.0-38.0","SS1618366097475","similarity_question","","","","","","","","","","","","{""Q0"":0}","[0]","","images/stimuli/spore_stims/complex_14_A_b.gif","images/stimuli/spore_stims/complex_13_A_a.gif"
"","3896.604999899864","survey-likert","151","296021","0.0-39.0","SS1618366097475","similarity_question","","","","","","","","","","","","{""Q0"":1}","[0]","","images/stimuli/spore_stims/complex_19_A_a.gif","images/stimuli/spore_stims/complex_16_A_b.gif"
"","3849.1499999072403","survey-likert","152","299893","0.0-40.0","SS1618366097475","similarity_question","","","","","","","","","","","","{""Q0"":4}","[0]","","images/stimuli/spore_stims/simple_17_A_b.gif","images/stimuli/spore_stims/simple_03_A_a.gif"
"","3129.0700000245124","survey-likert","153","303043","0.0-41.0","SS1618366097475","similarity_question","","","","","","","","","","","","{""Q0"":1}","[0]","","images/stimuli/spore_stims/complex_13_A_b.gif","images/stimuli/spore_stims/complex_07_A_a.gif"
"","3104.9399999901652","survey-likert","154","306169","0.0-42.0","SS1618366097475","similarity_question","","","","","","","","","","","","{""Q0"":4}","[0]","","images/stimuli/spore_stims/simple_19_A_a.gif","images/stimuli/spore_stims/simple_15_A_b.gif"
"","3911.6699998266995","survey-likert","155","310102","0.0-43.0","SS1618366097475","similarity_question","","","","","","","","","","","","{""Q0"":1}","[0]","","images/stimuli/spore_stims/complex_05_A_b.gif","images/stimuli/spore_stims/complex_10_A_a.gif"
"","4250.494999811053","survey-likert","156","314373","0.0-44.0","SS1618366097475","similarity_question","","","","","","","","","","","","{""Q0"":2}","[0]","","images/stimuli/spore_stims/simple_20_A_b.gif","images/stimuli/spore_stims/simple_18_A_a.gif"
"[{""page_index"":0,""viewing_time"":1729.7099998686463}]","1730.1799999549985","instructions","157","316122","0.0-45.0","SS1618366097475","instructions","","","","","","","","","","","","","","","",""
"","6629.080000100657","survey-likert","158","322759","0.0-46.0","SS1618366097475","","","","","","","","","images/stimuli/spore_stims/complex_05_A_b.gif","","","","{""Q0"":5}","[0]","","",""
"","3554.9349999055266","survey-likert","159","326333","0.0-47.0","SS1618366097475","","","","","","","","","images/stimuli/spore_stims/complex_15_A_a.gif","","","","{""Q0"":6}","[0]","","",""
"","3508.140000049025","survey-likert","160","329863","0.0-48.0","SS1618366097475","","","","","","","","","images/stimuli/spore_stims/simple_20_A_b.gif","","","","{""Q0"":1}","[0]","","",""
"","4048.2799999881536","survey-likert","161","333933","0.0-49.0","SS1618366097475","","","","","","","","","images/stimuli/spore_stims/complex_13_A_b.gif","","","","{""Q0"":6}","[0]","","",""
"","2817.970000207424","survey-likert","162","336773","0.0-50.0","SS1618366097475","","","","","","","","","images/stimuli/spore_stims/complex_14_A_b.gif","","","","{""Q0"":6}","[0]","","",""
"","2478.300000075251","survey-likert","163","339272","0.0-51.0","SS1618366097475","","","","","","","","","images/stimuli/spore_stims/complex_19_A_a.gif","","","","{""Q0"":6}","[0]","","",""
"","4252.70999991335","survey-likert","164","343545","0.0-52.0","SS1618366097475","","","","","","","","","images/stimuli/spore_stims/simple_13_A_a.gif","","","","{""Q0"":0}","[0]","","",""
"","2872.215000214055","survey-likert","165","346439","0.0-53.0","SS1618366097475","","","","","","","","","images/stimuli/spore_stims/simple_19_A_a.gif","","","","{""Q0"":1}","[0]","","",""
"","3082.80499977991","survey-likert","166","349544","0.0-54.0","SS1618366097475","","","","","","","","","images/stimuli/spore_stims/simple_13_A_b.gif","","","","{""Q0"":0}","[0]","","",""
"","2373.4499998390675","survey-likert","167","351939","0.0-55.0","SS1618366097475","","","","","","","","","images/stimuli/spore_stims/simple_03_A_a.gif","","","","{""Q0"":1}","[0]","","",""
"","3258.339999942109","survey-likert","168","355213","0.0-56.0","SS1618366097475","","","","","","","","","images/stimuli/spore_stims/simple_06_A_a.gif","","","","{""Q0"":0}","[0]","","",""
"","2716.255000093952","survey-likert","169","357957","0.0-57.0","SS1618366097475","","","","","","","","","images/stimuli/spore_stims/complex_11_A_a.gif","","","","{""Q0"":6}","[0]","","",""
"[{""page_index"":0,""viewing_time"":1703.6450000014156}]","1704.0900001302361","instructions","170","359684","0.0-58.0","SS1618366097475","instructions","","","","","","","","","","","","","","","",""
"","2203.9199999999255","demog-age","171","361903","0.0-59.0","SS1618366097475","","","","","","","","","","","","","{""age"":""19""}","","","",""
"","4403.9000000339","demog-ethnic-US","172","366318","0.0-60.0","SS1618366097475","","","","","","","","","","","","","{""ethnicity"":[""White""]}","[0]","","",""
"","5008.079999824986","demog-gender-and-education","173","371349","0.0-61.0","SS1618366097475","","","","","","","","","","","","","{""gender"":""Female"",""education"":""Some high school""}","[0,1]","","",""
"","6078.1199999619275","survey-text","174","377454","0.0-62.0","SS1618366097475","feedback","","","","","","","","","","","","{""Q0"":""no""}","","","",""
"[{""page_index"":0,""viewing_time"":2882.4050000403076}]","2882.884999969974","instructions","175","380343","0.0-63.0","SS1618366097475","instructions","","","","","","","","","","","","","","","",""
