"view_history","rt","trial_type","trial_index","time_elapsed","internal_node_id","subject","stimulus_type","trial_stimulus","key_press","minimum_viewing_duration","trial_looking_time","block_deviant","block_background","exposure_type","stimulus","block_number","block_type","stimulus_displayed","responses","question_order","math_correct_answer","stimulus_left","stimulus_right"
"[{""page_index"":0,""viewing_time"":7641}]","7641","instructions","0","7642","0.0-0.0","SS1618006292839","","","","","","","","","","","","","","","","",""
"[{""page_index"":0,""viewing_time"":14129},{""page_index"":1,""viewing_time"":5399}]","19529","instructions","1","29171","0.0-1.0","SS1618006292839","instructions","","","","","","","","","","","","","","","",""
"","9778","sequential-stimulus-presentation-old","2","39453","0.0-2.0","SS1618006292839","","","40","500","10278","null","null","self_paced","","","","","","","","",""
"","7230","sequential-stimulus-presentation-old","3","47187","0.0-3.0","SS1618006292839","","","40","500","7730","null","null","self_paced","","","","","","","","",""
"[{""page_index"":0,""viewing_time"":18363}]","18363","instructions","4","65552","0.0-4.0","SS1618006292839","instructions","","","","","","","","","","","","","","","",""
"","6701","sequential-stimulus-presentation-old","5","77258","0.0-5.0","SS1618006292839","","","40","500","7201","null","null","forced_long","","","","","","","","",""
"","6989","sequential-stimulus-presentation-old","6","84299","0.0-6.0","SS1618006292839","","","40","50","7039","null","null","forced_long","","","","","","","","",""
"[{""page_index"":0,""viewing_time"":5607}]","5607","instructions","7","89908","0.0-7.0","SS1618006292839","instructions","","","","","","","","","","","","","","","",""
"[{""page_index"":0,""viewing_time"":9720},{""page_index"":1,""viewing_time"":11337},{""page_index"":2,""viewing_time"":7856},{""page_index"":3,""viewing_time"":1983},{""page_index"":4,""viewing_time"":2034.0000000000146}]","32930.000000000015","instructions","8","122840","0.0-8.0","SS1618006292839","instructions","","","","","","","","","","","","","","","",""
"","null","html-keyboard-response","9","124100","0.0-9.0-0.0","SS1618006292839","","","null","","","","","","<p><img src= images/blank.png width =""600"" height = ""600"" style=""position:fixed;top:50%; left:50%; transform: translate(-50%, -50%); border:5px solid black"">","","","","","","","",""
"","10183.999999999985","sequential-stimulus-presentation-old","10","134339","0.0-9.0-1.0","SS1618006292839","trial","","40","500","10683.999999999985","images/stimuli/spore_stims/simple_11_A_a.gif","images/stimuli/spore_stims/simple_02_A_b.gif","forced_short","","0","simple_dissimilar","images/stimuli/spore_stims/simple_02_A_b.gif","","","","",""
"","null","html-keyboard-response","11","135604","0.0-9.0-0.1","SS1618006292839","","","null","","","","","","<p><img src= images/blank.png width =""600"" height = ""600"" style=""position:fixed;top:50%; left:50%; transform: translate(-50%, -50%); border:5px solid black"">","","","","","","","",""
"","10335.00000000003","sequential-stimulus-presentation-old","12","146442","0.0-9.0-1.1","SS1618006292839","trial","","40","500","10835.00000000003","images/stimuli/spore_stims/simple_11_A_a.gif","images/stimuli/spore_stims/simple_02_A_b.gif","forced_short","","0","simple_dissimilar","images/stimuli/spore_stims/simple_02_A_b.gif","","","","",""
"","null","html-keyboard-response","13","147310","0.0-9.0-0.2","SS1618006292839","","","null","","","","","","<p><img src= images/blank.png width =""600"" height = ""600"" style=""position:fixed;top:50%; left:50%; transform: translate(-50%, -50%); border:5px solid black"">","","","","","","","",""
"","6640","sequential-stimulus-presentation-old","14","154453","0.0-9.0-1.2","SS1618006292839","trial","","40","500","7140","images/stimuli/spore_stims/simple_11_A_a.gif","images/stimuli/spore_stims/simple_02_A_b.gif","forced_short","","0","simple_dissimilar","images/stimuli/spore_stims/simple_11_A_a.gif","","","","",""
"","null","html-keyboard-response","15","155489","0.0-9.0-0.3","SS1618006292839","","","null","","","","","","<p><img src= images/blank.png width =""600"" height = ""600"" style=""position:fixed;top:50%; left:50%; transform: translate(-50%, -50%); border:5px solid black"">","","","","","","","",""
"","8209","sequential-stimulus-presentation-old","16","164201","0.0-9.0-1.3","SS1618006292839","trial","","40","500","8709","images/stimuli/spore_stims/simple_11_A_a.gif","images/stimuli/spore_stims/simple_02_A_b.gif","forced_short","","0","simple_dissimilar","images/stimuli/spore_stims/simple_02_A_b.gif","","","","",""
"","5473","survey-multi-choice","17","169678","0.0-10.0","SS1618006292839","math_question","","","","","","","","","","","","{""Q0"":""11""}","[0]","11","",""
"","null","html-keyboard-response","18","170529","0.0-11.0-0.0","SS1618006292839","","","null","","","","","","<p><img src= images/blank.png width =""600"" height = ""600"" style=""position:fixed;top:50%; left:50%; transform: translate(-50%, -50%); border:5px solid black"">","","","","","","","",""
"","1680","sequential-stimulus-presentation-old","19","177214","0.0-11.0-1.0","SS1618006292839","trial","","40","500","2180","images/stimuli/spore_stims/simple_08_A_b.gif","images/stimuli/spore_stims/simple_04_A_a.gif","forced_long","","1","simple_dissimilar","images/stimuli/spore_stims/simple_04_A_a.gif","","","","",""
"","null","html-keyboard-response","20","178388","0.0-11.0-0.1","SS1618006292839","","","null","","","","","","<p><img src= images/blank.png width =""600"" height = ""600"" style=""position:fixed;top:50%; left:50%; transform: translate(-50%, -50%); border:5px solid black"">","","","","","","","",""
"","5334","sequential-stimulus-presentation-old","21","184226","0.0-11.0-1.1","SS1618006292839","trial","","40","500","5834","images/stimuli/spore_stims/simple_08_A_b.gif","images/stimuli/spore_stims/simple_04_A_a.gif","forced_long","","1","simple_dissimilar","images/stimuli/spore_stims/simple_08_A_b.gif","","","","",""
"","null","html-keyboard-response","22","185273","0.0-11.0-0.2","SS1618006292839","","","null","","","","","","<p><img src= images/blank.png width =""600"" height = ""600"" style=""position:fixed;top:50%; left:50%; transform: translate(-50%, -50%); border:5px solid black"">","","","","","","","",""
"","3572","sequential-stimulus-presentation-old","23","189349","0.0-11.0-1.2","SS1618006292839","trial","","40","500","4072","images/stimuli/spore_stims/simple_08_A_b.gif","images/stimuli/spore_stims/simple_04_A_a.gif","forced_long","","1","simple_dissimilar","images/stimuli/spore_stims/simple_08_A_b.gif","","","","",""
"","null","html-keyboard-response","24","190307","0.0-11.0-0.3","SS1618006292839","","","null","","","","","","<p><img src= images/blank.png width =""600"" height = ""600"" style=""position:fixed;top:50%; left:50%; transform: translate(-50%, -50%); border:5px solid black"">","","","","","","","",""
"","5669","sequential-stimulus-presentation-old","25","196480","0.0-11.0-1.3","SS1618006292839","trial","","40","500","6169","images/stimuli/spore_stims/simple_08_A_b.gif","images/stimuli/spore_stims/simple_04_A_a.gif","forced_long","","1","simple_dissimilar","images/stimuli/spore_stims/simple_04_A_a.gif","","","","",""
"","3268.999999999971","survey-multi-choice","26","199753","0.0-12.0","SS1618006292839","math_question","","","","","","","","","","","","{""Q0"":""10""}","[0]","10","",""
"","null","html-keyboard-response","27","200733","0.0-13.0-0.0","SS1618006292839","","","null","","","","","","<p><img src= images/blank.png width =""600"" height = ""600"" style=""position:fixed;top:50%; left:50%; transform: translate(-50%, -50%); border:5px solid black"">","","","","","","","",""
"","1021","sequential-stimulus-presentation-old","28","206757","0.0-13.0-1.0","SS1618006292839","trial","","40","500","1521","images/stimuli/spore_stims/complex_02_A_b.gif","images/stimuli/spore_stims/complex_04_A_a.gif","forced_long","","2","complex_dissimilar","images/stimuli/spore_stims/complex_04_A_a.gif","","","","",""
"","null","html-keyboard-response","29","207860","0.0-13.0-0.1","SS1618006292839","","","null","","","","","","<p><img src= images/blank.png width =""600"" height = ""600"" style=""position:fixed;top:50%; left:50%; transform: translate(-50%, -50%); border:5px solid black"">","","","","","","","",""
"","4413.999999999971","sequential-stimulus-presentation-old","30","212779","0.0-13.0-1.1","SS1618006292839","trial","","40","500","4913.999999999971","images/stimuli/spore_stims/complex_02_A_b.gif","images/stimuli/spore_stims/complex_04_A_a.gif","forced_long","","2","complex_dissimilar","images/stimuli/spore_stims/complex_04_A_a.gif","","","","",""
"","null","html-keyboard-response","31","213705","0.0-13.0-0.2","SS1618006292839","","","null","","","","","","<p><img src= images/blank.png width =""600"" height = ""600"" style=""position:fixed;top:50%; left:50%; transform: translate(-50%, -50%); border:5px solid black"">","","","","","","","",""
"","5399","sequential-stimulus-presentation-old","32","219608","0.0-13.0-1.2","SS1618006292839","trial","","40","500","5899","images/stimuli/spore_stims/complex_02_A_b.gif","images/stimuli/spore_stims/complex_04_A_a.gif","forced_long","","2","complex_dissimilar","images/stimuli/spore_stims/complex_04_A_a.gif","","","","",""
"","null","html-keyboard-response","33","220590","0.0-13.0-0.3","SS1618006292839","","","null","","","","","","<p><img src= images/blank.png width =""600"" height = ""600"" style=""position:fixed;top:50%; left:50%; transform: translate(-50%, -50%); border:5px solid black"">","","","","","","","",""
"","5519","sequential-stimulus-presentation-old","34","226613","0.0-13.0-1.3","SS1618006292839","trial","","40","500","6019","images/stimuli/spore_stims/complex_02_A_b.gif","images/stimuli/spore_stims/complex_04_A_a.gif","forced_long","","2","complex_dissimilar","images/stimuli/spore_stims/complex_02_A_b.gif","","","","",""
"","2777","survey-multi-choice","35","229393","0.0-14.0","SS1618006292839","math_question","","","","","","","","","","","","{""Q0"":""10""}","[0]","10","",""
"","null","html-keyboard-response","36","230344","0.0-15.0-0.0","SS1618006292839","","","null","","","","","","<p><img src= images/blank.png width =""600"" height = ""600"" style=""position:fixed;top:50%; left:50%; transform: translate(-50%, -50%); border:5px solid black"">","","","","","","","",""
"","2308","sequential-stimulus-presentation-old","37","237656","0.0-15.0-1.0","SS1618006292839","trial","","40","500","2808","images/stimuli/spore_stims/simple_12_A_a.gif","images/stimuli/spore_stims/simple_06_A_b.gif","forced_long","","3","simple_dissimilar","images/stimuli/spore_stims/simple_06_A_b.gif","","","","",""
"","null","html-keyboard-response","38","238855","0.0-15.0-0.1","SS1618006292839","","","null","","","","","","<p><img src= images/blank.png width =""600"" height = ""600"" style=""position:fixed;top:50%; left:50%; transform: translate(-50%, -50%); border:5px solid black"">","","","","","","","",""
"","3807","sequential-stimulus-presentation-old","39","243167","0.0-15.0-1.1","SS1618006292839","trial","","40","500","4307","images/stimuli/spore_stims/simple_12_A_a.gif","images/stimuli/spore_stims/simple_06_A_b.gif","forced_long","","3","simple_dissimilar","images/stimuli/spore_stims/simple_06_A_b.gif","","","","",""
"","null","html-keyboard-response","40","244056","0.0-15.0-0.2","SS1618006292839","","","null","","","","","","<p><img src= images/blank.png width =""600"" height = ""600"" style=""position:fixed;top:50%; left:50%; transform: translate(-50%, -50%); border:5px solid black"">","","","","","","","",""
"","3165.999999999971","sequential-stimulus-presentation-old","41","247727","0.0-15.0-1.2","SS1618006292839","trial","","40","500","3665.999999999971","images/stimuli/spore_stims/simple_12_A_a.gif","images/stimuli/spore_stims/simple_06_A_b.gif","forced_long","","3","simple_dissimilar","images/stimuli/spore_stims/simple_06_A_b.gif","","","","",""
"","null","html-keyboard-response","42","248673","0.0-15.0-0.3","SS1618006292839","","","null","","","","","","<p><img src= images/blank.png width =""600"" height = ""600"" style=""position:fixed;top:50%; left:50%; transform: translate(-50%, -50%); border:5px solid black"">","","","","","","","",""
"","2272","sequential-stimulus-presentation-old","43","251449","0.0-15.0-1.3","SS1618006292839","trial","","40","500","2772","images/stimuli/spore_stims/simple_12_A_a.gif","images/stimuli/spore_stims/simple_06_A_b.gif","forced_long","","3","simple_dissimilar","images/stimuli/spore_stims/simple_06_A_b.gif","","","","",""
"","null","html-keyboard-response","44","252573","0.0-15.0-0.4","SS1618006292839","","","null","","","","","","<p><img src= images/blank.png width =""600"" height = ""600"" style=""position:fixed;top:50%; left:50%; transform: translate(-50%, -50%); border:5px solid black"">","","","","","","","",""
"","1771.000000000029","sequential-stimulus-presentation-old","45","254848","0.0-15.0-1.4","SS1618006292839","trial","","40","500","2271.000000000029","images/stimuli/spore_stims/simple_12_A_a.gif","images/stimuli/spore_stims/simple_06_A_b.gif","forced_long","","3","simple_dissimilar","images/stimuli/spore_stims/simple_06_A_b.gif","","","","",""
"","3996.000000000029","survey-multi-choice","46","258846","0.0-16.0","SS1618006292839","math_question","","","","","","","","","","","","{""Q0"":""17""}","[0]","17","",""
"","null","html-keyboard-response","47","259836","0.0-17.0-0.0","SS1618006292839","","","null","","","","","","<p><img src= images/blank.png width =""600"" height = ""600"" style=""position:fixed;top:50%; left:50%; transform: translate(-50%, -50%); border:5px solid black"">","","","","","","","",""
"","3103","sequential-stimulus-presentation-old","48","263444","0.0-17.0-1.0","SS1618006292839","trial","","40","500","3603","images/stimuli/spore_stims/complex_11_A_a.gif","images/stimuli/spore_stims/complex_05_A_b.gif","self_paced","","4","complex_dissimilar","images/stimuli/spore_stims/complex_05_A_b.gif","","","","",""
"","null","html-keyboard-response","49","264624","0.0-17.0-0.1","SS1618006292839","","","null","","","","","","<p><img src= images/blank.png width =""600"" height = ""600"" style=""position:fixed;top:50%; left:50%; transform: translate(-50%, -50%); border:5px solid black"">","","","","","","","",""
"","5325","sequential-stimulus-presentation-old","50","270453","0.0-17.0-1.1","SS1618006292839","trial","","40","500","5825","images/stimuli/spore_stims/complex_11_A_a.gif","images/stimuli/spore_stims/complex_05_A_b.gif","self_paced","","4","complex_dissimilar","images/stimuli/spore_stims/complex_05_A_b.gif","","","","",""
"","null","html-keyboard-response","51","271417","0.0-17.0-0.2","SS1618006292839","","","null","","","","","","<p><img src= images/blank.png width =""600"" height = ""600"" style=""position:fixed;top:50%; left:50%; transform: translate(-50%, -50%); border:5px solid black"">","","","","","","","",""
"","3773","sequential-stimulus-presentation-old","52","275694","0.0-17.0-1.2","SS1618006292839","trial","","40","500","4273","images/stimuli/spore_stims/complex_11_A_a.gif","images/stimuli/spore_stims/complex_05_A_b.gif","self_paced","","4","complex_dissimilar","images/stimuli/spore_stims/complex_11_A_a.gif","","","","",""
"","null","html-keyboard-response","53","276726","0.0-17.0-0.3","SS1618006292839","","","null","","","","","","<p><img src= images/blank.png width =""600"" height = ""600"" style=""position:fixed;top:50%; left:50%; transform: translate(-50%, -50%); border:5px solid black"">","","","","","","","",""
"","3327","sequential-stimulus-presentation-old","54","280558","0.0-17.0-1.3","SS1618006292839","trial","","40","500","3827","images/stimuli/spore_stims/complex_11_A_a.gif","images/stimuli/spore_stims/complex_05_A_b.gif","self_paced","","4","complex_dissimilar","images/stimuli/spore_stims/complex_05_A_b.gif","","","","",""
"","null","html-keyboard-response","55","281656","0.0-17.0-0.4","SS1618006292839","","","null","","","","","","<p><img src= images/blank.png width =""600"" height = ""600"" style=""position:fixed;top:50%; left:50%; transform: translate(-50%, -50%); border:5px solid black"">","","","","","","","",""
"","8334","sequential-stimulus-presentation-old","56","290493","0.0-17.0-1.4","SS1618006292839","trial","","40","500","8834","images/stimuli/spore_stims/complex_11_A_a.gif","images/stimuli/spore_stims/complex_05_A_b.gif","self_paced","","4","complex_dissimilar","images/stimuli/spore_stims/complex_05_A_b.gif","","","","",""
"","2959.000000000058","survey-multi-choice","57","293456","0.0-18.0","SS1618006292839","math_question","","","","","","","","","","","","{""Q0"":""5""}","[0]","5","",""
"","null","html-keyboard-response","58","294297","0.0-19.0-0.0","SS1618006292839","","","null","","","","","","<p><img src= images/blank.png width =""600"" height = ""600"" style=""position:fixed;top:50%; left:50%; transform: translate(-50%, -50%); border:5px solid black"">","","","","","","","",""
"","5102","sequential-stimulus-presentation-old","59","299902","0.0-19.0-1.0","SS1618006292839","trial","","40","500","5602","images/stimuli/spore_stims/simple_07_A_b.gif","images/stimuli/spore_stims/simple_05_A_a.gif","self_paced","","5","simple_dissimilar","images/stimuli/spore_stims/simple_05_A_a.gif","","","","",""
"","null","html-keyboard-response","60","300818","0.0-19.0-0.1","SS1618006292839","","","null","","","","","","<p><img src= images/blank.png width =""600"" height = ""600"" style=""position:fixed;top:50%; left:50%; transform: translate(-50%, -50%); border:5px solid black"">","","","","","","","",""
"","1956","sequential-stimulus-presentation-old","61","303277","0.0-19.0-1.1","SS1618006292839","trial","","40","500","2456","images/stimuli/spore_stims/simple_07_A_b.gif","images/stimuli/spore_stims/simple_05_A_a.gif","self_paced","","5","simple_dissimilar","images/stimuli/spore_stims/simple_05_A_a.gif","","","","",""
"","null","html-keyboard-response","62","304211","0.0-19.0-0.2","SS1618006292839","","","null","","","","","","<p><img src= images/blank.png width =""600"" height = ""600"" style=""position:fixed;top:50%; left:50%; transform: translate(-50%, -50%); border:5px solid black"">","","","","","","","",""
"","2155","sequential-stimulus-presentation-old","63","306870","0.0-19.0-1.2","SS1618006292839","trial","","40","500","2655","images/stimuli/spore_stims/simple_07_A_b.gif","images/stimuli/spore_stims/simple_05_A_a.gif","self_paced","","5","simple_dissimilar","images/stimuli/spore_stims/simple_05_A_a.gif","","","","",""
"","null","html-keyboard-response","64","307887","0.0-19.0-0.3","SS1618006292839","","","null","","","","","","<p><img src= images/blank.png width =""600"" height = ""600"" style=""position:fixed;top:50%; left:50%; transform: translate(-50%, -50%); border:5px solid black"">","","","","","","","",""
"","1802","sequential-stimulus-presentation-old","65","310193","0.0-19.0-1.3","SS1618006292839","trial","","40","500","2302","images/stimuli/spore_stims/simple_07_A_b.gif","images/stimuli/spore_stims/simple_05_A_a.gif","self_paced","","5","simple_dissimilar","images/stimuli/spore_stims/simple_05_A_a.gif","","","","",""
"","null","html-keyboard-response","66","311075","0.0-19.0-0.4","SS1618006292839","","","null","","","","","","<p><img src= images/blank.png width =""600"" height = ""600"" style=""position:fixed;top:50%; left:50%; transform: translate(-50%, -50%); border:5px solid black"">","","","","","","","",""
"","2142","sequential-stimulus-presentation-old","67","313722","0.0-19.0-1.4","SS1618006292839","trial","","40","500","2642","images/stimuli/spore_stims/simple_07_A_b.gif","images/stimuli/spore_stims/simple_05_A_a.gif","self_paced","","5","simple_dissimilar","images/stimuli/spore_stims/simple_05_A_a.gif","","","","",""
"","null","html-keyboard-response","68","314607","0.0-19.0-0.5","SS1618006292839","","","null","","","","","","<p><img src= images/blank.png width =""600"" height = ""600"" style=""position:fixed;top:50%; left:50%; transform: translate(-50%, -50%); border:5px solid black"">","","","","","","","",""
"","1637","sequential-stimulus-presentation-old","69","316748","0.0-19.0-1.5","SS1618006292839","trial","","40","500","2137","images/stimuli/spore_stims/simple_07_A_b.gif","images/stimuli/spore_stims/simple_05_A_a.gif","self_paced","","5","simple_dissimilar","images/stimuli/spore_stims/simple_05_A_a.gif","","","","",""
"","5770","survey-multi-choice","70","322522","0.0-20.0","SS1618006292839","math_question","","","","","","","","","","","","{""Q0"":""14""}","[0]","14","",""
"","null","html-keyboard-response","71","323578","0.0-21.0-0.0","SS1618006292839","","","null","","","","","","<p><img src= images/blank.png width =""600"" height = ""600"" style=""position:fixed;top:50%; left:50%; transform: translate(-50%, -50%); border:5px solid black"">","","","","","","","",""
"","2375","sequential-stimulus-presentation-old","72","326458","0.0-21.0-1.0","SS1618006292839","trial","","40","500","2875","images/stimuli/spore_stims/simple_13_A_b.gif","images/stimuli/spore_stims/simple_15_A_a.gif","self_paced","","6","simple_dissimilar","images/stimuli/spore_stims/simple_15_A_a.gif","","","","",""
"","null","html-keyboard-response","73","327493","0.0-21.0-0.1","SS1618006292839","","","null","","","","","","<p><img src= images/blank.png width =""600"" height = ""600"" style=""position:fixed;top:50%; left:50%; transform: translate(-50%, -50%); border:5px solid black"">","","","","","","","",""
"","2069","sequential-stimulus-presentation-old","74","330067","0.0-21.0-1.1","SS1618006292839","trial","","40","500","2569","images/stimuli/spore_stims/simple_13_A_b.gif","images/stimuli/spore_stims/simple_15_A_a.gif","self_paced","","6","simple_dissimilar","images/stimuli/spore_stims/simple_15_A_a.gif","","","","",""
"","null","html-keyboard-response","75","331073","0.0-21.0-0.2","SS1618006292839","","","null","","","","","","<p><img src= images/blank.png width =""600"" height = ""600"" style=""position:fixed;top:50%; left:50%; transform: translate(-50%, -50%); border:5px solid black"">","","","","","","","",""
"","2193","sequential-stimulus-presentation-old","76","333770","0.0-21.0-1.2","SS1618006292839","trial","","40","500","2693","images/stimuli/spore_stims/simple_13_A_b.gif","images/stimuli/spore_stims/simple_15_A_a.gif","self_paced","","6","simple_dissimilar","images/stimuli/spore_stims/simple_15_A_a.gif","","","","",""
"","null","html-keyboard-response","77","334968","0.0-21.0-0.3","SS1618006292839","","","null","","","","","","<p><img src= images/blank.png width =""600"" height = ""600"" style=""position:fixed;top:50%; left:50%; transform: translate(-50%, -50%); border:5px solid black"">","","","","","","","",""
"","2282","sequential-stimulus-presentation-old","78","337756","0.0-21.0-1.3","SS1618006292839","trial","","40","500","2782","images/stimuli/spore_stims/simple_13_A_b.gif","images/stimuli/spore_stims/simple_15_A_a.gif","self_paced","","6","simple_dissimilar","images/stimuli/spore_stims/simple_15_A_a.gif","","","","",""
"","null","html-keyboard-response","79","338797","0.0-21.0-0.4","SS1618006292839","","","null","","","","","","<p><img src= images/blank.png width =""600"" height = ""600"" style=""position:fixed;top:50%; left:50%; transform: translate(-50%, -50%); border:5px solid black"">","","","","","","","",""
"","2255","sequential-stimulus-presentation-old","80","341557","0.0-21.0-1.4","SS1618006292839","trial","","40","500","2755","images/stimuli/spore_stims/simple_13_A_b.gif","images/stimuli/spore_stims/simple_15_A_a.gif","self_paced","","6","simple_dissimilar","images/stimuli/spore_stims/simple_15_A_a.gif","","","","",""
"","3232","survey-multi-choice","81","344792","0.0-22.0","SS1618006292839","math_question","","","","","","","","","","","","{""Q0"":""12""}","[0]","12","",""
"","null","html-keyboard-response","82","345925","0.0-23.0-0.0","SS1618006292839","","","null","","","","","","<p><img src= images/blank.png width =""600"" height = ""600"" style=""position:fixed;top:50%; left:50%; transform: translate(-50%, -50%); border:5px solid black"">","","","","","","","",""
"","4957","sequential-stimulus-presentation-old","83","350936","0.0-23.0-1.0","SS1618006292839","trial","","40","500","5457","images/stimuli/spore_stims/complex_20_A_a.gif","images/stimuli/spore_stims/complex_04_A_b.gif","forced_short","","7","complex_dissimilar","images/stimuli/spore_stims/complex_04_A_b.gif","","","","",""
"","null","html-keyboard-response","84","351947","0.0-23.0-0.1","SS1618006292839","","","null","","","","","","<p><img src= images/blank.png width =""600"" height = ""600"" style=""position:fixed;top:50%; left:50%; transform: translate(-50%, -50%); border:5px solid black"">","","","","","","","",""
"","3429","sequential-stimulus-presentation-old","85","355881","0.0-23.0-1.1","SS1618006292839","trial","","40","500","3929","images/stimuli/spore_stims/complex_20_A_a.gif","images/stimuli/spore_stims/complex_04_A_b.gif","forced_short","","7","complex_dissimilar","images/stimuli/spore_stims/complex_04_A_b.gif","","","","",""
"","null","html-keyboard-response","86","356724","0.0-23.0-0.2","SS1618006292839","","","null","","","","","","<p><img src= images/blank.png width =""600"" height = ""600"" style=""position:fixed;top:50%; left:50%; transform: translate(-50%, -50%); border:5px solid black"">","","","","","","","",""
"","5042","sequential-stimulus-presentation-old","87","362271","0.0-23.0-1.2","SS1618006292839","trial","","40","500","5542","images/stimuli/spore_stims/complex_20_A_a.gif","images/stimuli/spore_stims/complex_04_A_b.gif","forced_short","","7","complex_dissimilar","images/stimuli/spore_stims/complex_20_A_a.gif","","","","",""
"","null","html-keyboard-response","88","363489","0.0-23.0-0.3","SS1618006292839","","","null","","","","","","<p><img src= images/blank.png width =""600"" height = ""600"" style=""position:fixed;top:50%; left:50%; transform: translate(-50%, -50%); border:5px solid black"">","","","","","","","",""
"","2531","sequential-stimulus-presentation-old","89","366525","0.0-23.0-1.3","SS1618006292839","trial","","40","500","3031","images/stimuli/spore_stims/complex_20_A_a.gif","images/stimuli/spore_stims/complex_04_A_b.gif","forced_short","","7","complex_dissimilar","images/stimuli/spore_stims/complex_04_A_b.gif","","","","",""
"","3065","survey-multi-choice","90","369593","0.0-24.0","SS1618006292839","math_question","","","","","","","","","","","","{""Q0"":""8""}","[0]","8","",""
"","null","html-keyboard-response","91","370867","0.0-25.0-0.0","SS1618006292839","","","null","","","","","","<p><img src= images/blank.png width =""600"" height = ""600"" style=""position:fixed;top:50%; left:50%; transform: translate(-50%, -50%); border:5px solid black"">","","","","","","","",""
"","2835.000000000058","sequential-stimulus-presentation-old","92","374206","0.0-25.0-1.0","SS1618006292839","trial","","40","500","3335.000000000058","images/stimuli/spore_stims/complex_19_A_b.gif","images/stimuli/spore_stims/complex_15_A_a.gif","self_paced","","8","complex_dissimilar","images/stimuli/spore_stims/complex_15_A_a.gif","","","","",""
"","null","html-keyboard-response","93","375446","0.0-25.0-0.1","SS1618006292839","","","null","","","","","","<p><img src= images/blank.png width =""600"" height = ""600"" style=""position:fixed;top:50%; left:50%; transform: translate(-50%, -50%); border:5px solid black"">","","","","","","","",""
"","1892","sequential-stimulus-presentation-old","94","377843","0.0-25.0-1.1","SS1618006292839","trial","","40","500","2392","images/stimuli/spore_stims/complex_19_A_b.gif","images/stimuli/spore_stims/complex_15_A_a.gif","self_paced","","8","complex_dissimilar","images/stimuli/spore_stims/complex_15_A_a.gif","","","","",""
"","null","html-keyboard-response","95","378902","0.0-25.0-0.2","SS1618006292839","","","null","","","","","","<p><img src= images/blank.png width =""600"" height = ""600"" style=""position:fixed;top:50%; left:50%; transform: translate(-50%, -50%); border:5px solid black"">","","","","","","","",""
"","2024","sequential-stimulus-presentation-old","96","381432","0.0-25.0-1.2","SS1618006292839","trial","","40","500","2524","images/stimuli/spore_stims/complex_19_A_b.gif","images/stimuli/spore_stims/complex_15_A_a.gif","self_paced","","8","complex_dissimilar","images/stimuli/spore_stims/complex_15_A_a.gif","","","","",""
"","null","html-keyboard-response","97","382699","0.0-25.0-0.3","SS1618006292839","","","null","","","","","","<p><img src= images/blank.png width =""600"" height = ""600"" style=""position:fixed;top:50%; left:50%; transform: translate(-50%, -50%); border:5px solid black"">","","","","","","","",""
"","1973","sequential-stimulus-presentation-old","98","385176","0.0-25.0-1.3","SS1618006292839","trial","","40","500","2473","images/stimuli/spore_stims/complex_19_A_b.gif","images/stimuli/spore_stims/complex_15_A_a.gif","self_paced","","8","complex_dissimilar","images/stimuli/spore_stims/complex_15_A_a.gif","","","","",""
"","3086.000000000058","survey-multi-choice","99","388266","0.0-26.0","SS1618006292839","math_question","","","","","","","","","","","","{""Q0"":""10""}","[0]","10","",""
"","null","html-keyboard-response","100","389297","0.0-27.0-0.0","SS1618006292839","","","null","","","","","","<p><img src= images/blank.png width =""600"" height = ""600"" style=""position:fixed;top:50%; left:50%; transform: translate(-50%, -50%); border:5px solid black"">","","","","","","","",""
"","720","sequential-stimulus-presentation-old","101","395021","0.0-27.0-1.0","SS1618006292839","trial","","40","500","1220","images/stimuli/spore_stims/complex_05_A_a.gif","images/stimuli/spore_stims/complex_01_A_b.gif","forced_long","","9","complex_dissimilar","images/stimuli/spore_stims/complex_01_A_b.gif","","","","",""
"","null","html-keyboard-response","102","396256","0.0-27.0-0.1","SS1618006292839","","","null","","","","","","<p><img src= images/blank.png width =""600"" height = ""600"" style=""position:fixed;top:50%; left:50%; transform: translate(-50%, -50%); border:5px solid black"">","","","","","","","",""
"","2607.000000000058","sequential-stimulus-presentation-old","103","399367","0.0-27.0-1.1","SS1618006292839","trial","","40","500","3107.000000000058","images/stimuli/spore_stims/complex_05_A_a.gif","images/stimuli/spore_stims/complex_01_A_b.gif","forced_long","","9","complex_dissimilar","images/stimuli/spore_stims/complex_01_A_b.gif","","","","",""
"","null","html-keyboard-response","104","400567","0.0-27.0-0.2","SS1618006292839","","","null","","","","","","<p><img src= images/blank.png width =""600"" height = ""600"" style=""position:fixed;top:50%; left:50%; transform: translate(-50%, -50%); border:5px solid black"">","","","","","","","",""
"","793","sequential-stimulus-presentation-old","105","401865","0.0-27.0-1.2","SS1618006292839","trial","","40","500","1293","images/stimuli/spore_stims/complex_05_A_a.gif","images/stimuli/spore_stims/complex_01_A_b.gif","forced_long","","9","complex_dissimilar","images/stimuli/spore_stims/complex_01_A_b.gif","","","","",""
"","null","html-keyboard-response","106","403075","0.0-27.0-0.3","SS1618006292839","","","null","","","","","","<p><img src= images/blank.png width =""600"" height = ""600"" style=""position:fixed;top:50%; left:50%; transform: translate(-50%, -50%); border:5px solid black"">","","","","","","","",""
"","1510","sequential-stimulus-presentation-old","107","405090","0.0-27.0-1.3","SS1618006292839","trial","","40","500","2010","images/stimuli/spore_stims/complex_05_A_a.gif","images/stimuli/spore_stims/complex_01_A_b.gif","forced_long","","9","complex_dissimilar","images/stimuli/spore_stims/complex_01_A_b.gif","","","","",""
"","null","html-keyboard-response","108","406355","0.0-27.0-0.4","SS1618006292839","","","null","","","","","","<p><img src= images/blank.png width =""600"" height = ""600"" style=""position:fixed;top:50%; left:50%; transform: translate(-50%, -50%); border:5px solid black"">","","","","","","","",""
"","2015","sequential-stimulus-presentation-old","109","408876","0.0-27.0-1.4","SS1618006292839","trial","","40","500","2515","images/stimuli/spore_stims/complex_05_A_a.gif","images/stimuli/spore_stims/complex_01_A_b.gif","forced_long","","9","complex_dissimilar","images/stimuli/spore_stims/complex_01_A_b.gif","","","","",""
"","3469","survey-multi-choice","110","412350","0.0-28.0","SS1618006292839","math_question","","","","","","","","","","","","{""Q0"":""14""}","[0]","14","",""
"","null","html-keyboard-response","111","413211","0.0-29.0-0.0","SS1618006292839","","","null","","","","","","<p><img src= images/blank.png width =""600"" height = ""600"" style=""position:fixed;top:50%; left:50%; transform: translate(-50%, -50%); border:5px solid black"">","","","","","","","",""
"","1983","sequential-stimulus-presentation-old","112","415249","0.0-29.0-1.0","SS1618006292839","trial","","40","500","2483","images/stimuli/spore_stims/complex_11_A_b.gif","images/stimuli/spore_stims/complex_13_A_a.gif","forced_short","","10","complex_dissimilar","images/stimuli/spore_stims/complex_13_A_a.gif","","","","",""
"","null","html-keyboard-response","113","416397","0.0-29.0-0.1","SS1618006292839","","","null","","","","","","<p><img src= images/blank.png width =""600"" height = ""600"" style=""position:fixed;top:50%; left:50%; transform: translate(-50%, -50%); border:5px solid black"">","","","","","","","",""
"","4024","sequential-stimulus-presentation-old","114","420926","0.0-29.0-1.1","SS1618006292839","trial","","40","500","4524","images/stimuli/spore_stims/complex_11_A_b.gif","images/stimuli/spore_stims/complex_13_A_a.gif","forced_short","","10","complex_dissimilar","images/stimuli/spore_stims/complex_13_A_a.gif","","","","",""
"","null","html-keyboard-response","115","422197","0.0-29.0-0.2","SS1618006292839","","","null","","","","","","<p><img src= images/blank.png width =""600"" height = ""600"" style=""position:fixed;top:50%; left:50%; transform: translate(-50%, -50%); border:5px solid black"">","","","","","","","",""
"","2114","sequential-stimulus-presentation-old","116","424817","0.0-29.0-1.2","SS1618006292839","trial","","40","500","2614","images/stimuli/spore_stims/complex_11_A_b.gif","images/stimuli/spore_stims/complex_13_A_a.gif","forced_short","","10","complex_dissimilar","images/stimuli/spore_stims/complex_13_A_a.gif","","","","",""
"","null","html-keyboard-response","117","426042","0.0-29.0-0.3","SS1618006292839","","","null","","","","","","<p><img src= images/blank.png width =""600"" height = ""600"" style=""position:fixed;top:50%; left:50%; transform: translate(-50%, -50%); border:5px solid black"">","","","","","","","",""
"","884.9999999999418","sequential-stimulus-presentation-old","118","427437","0.0-29.0-1.3","SS1618006292839","trial","","40","500","1384.9999999999418","images/stimuli/spore_stims/complex_11_A_b.gif","images/stimuli/spore_stims/complex_13_A_a.gif","forced_short","","10","complex_dissimilar","images/stimuli/spore_stims/complex_13_A_a.gif","","","","",""
"","null","html-keyboard-response","119","428712","0.0-29.0-0.4","SS1618006292839","","","null","","","","","","<p><img src= images/blank.png width =""600"" height = ""600"" style=""position:fixed;top:50%; left:50%; transform: translate(-50%, -50%); border:5px solid black"">","","","","","","","",""
"","2475","sequential-stimulus-presentation-old","120","431692","0.0-29.0-1.4","SS1618006292839","trial","","40","500","2975","images/stimuli/spore_stims/complex_11_A_b.gif","images/stimuli/spore_stims/complex_13_A_a.gif","forced_short","","10","complex_dissimilar","images/stimuli/spore_stims/complex_13_A_a.gif","","","","",""
"","4936","survey-multi-choice","121","436634","0.0-30.0","SS1618006292839","math_question","","","","","","","","","","","","{""Q0"":""16""}","[0]","16","",""
"","null","html-keyboard-response","122","437704","0.0-31.0-0.0","SS1618006292839","","","null","","","","","","<p><img src= images/blank.png width =""600"" height = ""600"" style=""position:fixed;top:50%; left:50%; transform: translate(-50%, -50%); border:5px solid black"">","","","","","","","",""
"","1095.0000000000582","sequential-stimulus-presentation-old","123","438855","0.0-31.0-1.0","SS1618006292839","trial","","40","500","1595.0000000000582","images/stimuli/spore_stims/simple_20_A_b.gif","images/stimuli/spore_stims/simple_13_A_a.gif","forced_short","","11","simple_dissimilar","images/stimuli/spore_stims/simple_13_A_a.gif","","","","",""
"","null","html-keyboard-response","124","439673","0.0-31.0-0.1","SS1618006292839","","","null","","","","","","<p><img src= images/blank.png width =""600"" height = ""600"" style=""position:fixed;top:50%; left:50%; transform: translate(-50%, -50%); border:5px solid black"">","","","","","","","",""
"","2929","sequential-stimulus-presentation-old","125","443109","0.0-31.0-1.1","SS1618006292839","trial","","40","500","3429","images/stimuli/spore_stims/simple_20_A_b.gif","images/stimuli/spore_stims/simple_13_A_a.gif","forced_short","","11","simple_dissimilar","images/stimuli/spore_stims/simple_13_A_a.gif","","","","",""
"","null","html-keyboard-response","126","444327","0.0-31.0-0.2","SS1618006292839","","","null","","","","","","<p><img src= images/blank.png width =""600"" height = ""600"" style=""position:fixed;top:50%; left:50%; transform: translate(-50%, -50%); border:5px solid black"">","","","","","","","",""
"","2360","sequential-stimulus-presentation-old","127","447192","0.0-31.0-1.2","SS1618006292839","trial","","40","500","2860","images/stimuli/spore_stims/simple_20_A_b.gif","images/stimuli/spore_stims/simple_13_A_a.gif","forced_short","","11","simple_dissimilar","images/stimuli/spore_stims/simple_20_A_b.gif","","","","",""
"","null","html-keyboard-response","128","448277","0.0-31.0-0.3","SS1618006292839","","","null","","","","","","<p><img src= images/blank.png width =""600"" height = ""600"" style=""position:fixed;top:50%; left:50%; transform: translate(-50%, -50%); border:5px solid black"">","","","","","","","",""
"","1731","sequential-stimulus-presentation-old","129","450514","0.0-31.0-1.3","SS1618006292839","trial","","40","500","2231","images/stimuli/spore_stims/simple_20_A_b.gif","images/stimuli/spore_stims/simple_13_A_a.gif","forced_short","","11","simple_dissimilar","images/stimuli/spore_stims/simple_13_A_a.gif","","","","",""
"","null","html-keyboard-response","130","451797","0.0-31.0-0.4","SS1618006292839","","","null","","","","","","<p><img src= images/blank.png width =""600"" height = ""600"" style=""position:fixed;top:50%; left:50%; transform: translate(-50%, -50%); border:5px solid black"">","","","","","","","",""
"","785.0000000000582","sequential-stimulus-presentation-old","131","453088","0.0-31.0-1.4","SS1618006292839","trial","","40","500","1285.0000000000582","images/stimuli/spore_stims/simple_20_A_b.gif","images/stimuli/spore_stims/simple_13_A_a.gif","forced_short","","11","simple_dissimilar","images/stimuli/spore_stims/simple_20_A_b.gif","","","","",""
"[{""page_index"":0,""viewing_time"":6316}]","6316","instructions","132","459408","0.0-32.0","SS1618006292839","instructions","","","","","","","","","","","","","","","",""
"","18925","survey-likert","133","478337","0.0-33.0","SS1618006292839","similarity_question","","","","","","","","","","","","{""Q0"":2}","[0]","","images/stimuli/spore_stims/simple_05_A_a.gif","images/stimuli/spore_stims/simple_07_A_b.gif"
"","4601","survey-likert","134","482942","0.0-34.0","SS1618006292839","similarity_question","","","","","","","","","","","","{""Q0"":4}","[0]","","images/stimuli/spore_stims/simple_02_A_b.gif","images/stimuli/spore_stims/simple_11_A_a.gif"
"","10948","survey-likert","135","493894","0.0-35.0","SS1618006292839","similarity_question","","","","","","","","","","","","{""Q0"":5}","[0]","","images/stimuli/spore_stims/simple_13_A_b.gif","images/stimuli/spore_stims/simple_15_A_a.gif"
"","7748.999999999942","survey-likert","136","501647","0.0-36.0","SS1618006292839","similarity_question","","","","","","","","","","","","{""Q0"":0}","[0]","","images/stimuli/spore_stims/complex_05_A_b.gif","images/stimuli/spore_stims/complex_11_A_a.gif"
"","10293.000000000058","survey-likert","137","511944","0.0-37.0","SS1618006292839","similarity_question","","","","","","","","","","","","{""Q0"":2}","[0]","","images/stimuli/spore_stims/complex_04_A_b.gif","images/stimuli/spore_stims/complex_20_A_a.gif"
"","3622","survey-likert","138","515571","0.0-38.0","SS1618006292839","similarity_question","","","","","","","","","","","","{""Q0"":5}","[0]","","images/stimuli/spore_stims/simple_12_A_a.gif","images/stimuli/spore_stims/simple_06_A_b.gif"
"","4573","survey-likert","139","520148","0.0-39.0","SS1618006292839","similarity_question","","","","","","","","","","","","{""Q0"":2}","[0]","","images/stimuli/spore_stims/complex_11_A_b.gif","images/stimuli/spore_stims/complex_13_A_a.gif"
"","9420","survey-likert","140","529572","0.0-40.0","SS1618006292839","similarity_question","","","","","","","","","","","","{""Q0"":3}","[0]","","images/stimuli/spore_stims/simple_08_A_b.gif","images/stimuli/spore_stims/simple_04_A_a.gif"
"","7823","survey-likert","141","537399","0.0-41.0","SS1618006292839","similarity_question","","","","","","","","","","","","{""Q0"":4}","[0]","","images/stimuli/spore_stims/complex_01_A_b.gif","images/stimuli/spore_stims/complex_05_A_a.gif"
"","2961.9999999998836","survey-likert","142","540366","0.0-42.0","SS1618006292839","similarity_question","","","","","","","","","","","","{""Q0"":1}","[0]","","images/stimuli/spore_stims/complex_15_A_a.gif","images/stimuli/spore_stims/complex_19_A_b.gif"
"","4150","survey-likert","143","544520","0.0-43.0","SS1618006292839","similarity_question","","","","","","","","","","","","{""Q0"":3}","[0]","","images/stimuli/spore_stims/simple_20_A_b.gif","images/stimuli/spore_stims/simple_13_A_a.gif"
"","3970","survey-likert","144","548495","0.0-44.0","SS1618006292839","similarity_question","","","","","","","","","","","","{""Q0"":0}","[0]","","images/stimuli/spore_stims/complex_02_A_b.gif","images/stimuli/spore_stims/complex_04_A_a.gif"
"[{""page_index"":0,""viewing_time"":4368}]","4368","instructions","145","552867","0.0-45.0","SS1618006292839","instructions","","","","","","","","","","","","","","","",""
"","2529","survey-likert","146","555400","0.0-46.0","SS1618006292839","","","","","","","","","images/stimuli/spore_stims/simple_20_A_b.gif","","","","{""Q0"":0}","[0]","","",""
"","2713.9999999998836","survey-likert","147","558118","0.0-47.0","SS1618006292839","","","","","","","","","images/stimuli/spore_stims/complex_01_A_b.gif","","","","{""Q0"":5}","[0]","","",""
"","2355","survey-likert","148","560476","0.0-48.0","SS1618006292839","","","","","","","","","images/stimuli/spore_stims/simple_04_A_a.gif","","","","{""Q0"":0}","[0]","","",""
"","2005","survey-likert","149","562484","0.0-49.0","SS1618006292839","","","","","","","","","images/stimuli/spore_stims/simple_12_A_a.gif","","","","{""Q0"":0}","[0]","","",""
"","1853","survey-likert","150","564342","0.0-50.0","SS1618006292839","","","","","","","","","images/stimuli/spore_stims/simple_11_A_a.gif","","","","{""Q0"":0}","[0]","","",""
"","2699","survey-likert","151","567045","0.0-51.0","SS1618006292839","","","","","","","","","images/stimuli/spore_stims/complex_15_A_a.gif","","","","{""Q0"":6}","[0]","","",""
"","3959","survey-likert","152","571007","0.0-52.0","SS1618006292839","","","","","","","","","images/stimuli/spore_stims/simple_15_A_a.gif","","","","{""Q0"":1}","[0]","","",""
"","3130","survey-likert","153","574142","0.0-53.0","SS1618006292839","","","","","","","","","images/stimuli/spore_stims/complex_13_A_a.gif","","","","{""Q0"":6}","[0]","","",""
"","2484","survey-likert","154","576631","0.0-54.0","SS1618006292839","","","","","","","","","images/stimuli/spore_stims/simple_07_A_b.gif","","","","{""Q0"":0}","[0]","","",""
"","3067","survey-likert","155","579703","0.0-55.0","SS1618006292839","","","","","","","","","images/stimuli/spore_stims/complex_11_A_a.gif","","","","{""Q0"":5}","[0]","","",""
"","1997","survey-likert","156","581705","0.0-56.0","SS1618006292839","","","","","","","","","images/stimuli/spore_stims/complex_04_A_b.gif","","","","{""Q0"":5}","[0]","","",""
"","5038","survey-likert","157","586751","0.0-57.0","SS1618006292839","","","","","","","","","images/stimuli/spore_stims/complex_02_A_b.gif","","","","{""Q0"":4}","[0]","","",""
"[{""page_index"":0,""viewing_time"":1423}]","1423","instructions","158","588178","0.0-58.0","SS1618006292839","instructions","","","","","","","","","","","","","","","",""
"","2381","demog-age","159","590579","0.0-59.0","SS1618006292839","","","","","","","","","","","","","{""age"":""22""}","","","",""
"","3742.0000000001164","demog-ethnic-US","160","594327","0.0-60.0","SS1618006292839","","","","","","","","","","","","","{""ethnicity"":[""White""]}","[0]","","",""
"","4725.000000000116","demog-gender-and-education","161","599058","0.0-61.0","SS1618006292839","","","","","","","","","","","","","{""gender"":""Female"",""education"":""Bachelor's Degree""}","[0,1]","","",""
"","16934.000000000116","survey-text","162","616010","0.0-62.0","SS1618006292839","feedback","","","","","","","","","","","","{""Q0"":""No issue at all.""}","","","",""
"[{""page_index"":0,""viewing_time"":2286}]","2286","instructions","163","618300","0.0-63.0","SS1618006292839","instructions","","","","","","","","","","","","","","","",""
