"view_history","rt","trial_type","trial_index","time_elapsed","internal_node_id","subject","stimulus_type","trial_stimulus","key_press","minimum_viewing_duration","trial_looking_time","block_deviant","block_background","exposure_type","stimulus","block_number","block_type","stimulus_displayed","responses","question_order","math_correct_answer","stimulus_left","stimulus_right"
"[{""page_index"":0,""viewing_time"":5132}]","5132","instructions","0","5135","0.0-0.0","SS1618365354913","","","","","","","","","","","","","","","","",""
"[{""page_index"":0,""viewing_time"":12143},{""page_index"":1,""viewing_time"":6357}]","18500","instructions","1","25651","0.0-1.0","SS1618365354913","instructions","","","","","","","","","","","","","","","",""
"","8947","sequential-stimulus-presentation-old","2","35107","0.0-2.0","SS1618365354913","","","40","500","9447","null","null","self_paced","","","","","","","","",""
"","5063","sequential-stimulus-presentation-old","3","40680","0.0-3.0","SS1618365354913","","","40","500","5563","null","null","self_paced","","","","","","","","",""
"[{""page_index"":0,""viewing_time"":15010}]","15010","instructions","4","55691","0.0-4.0","SS1618365354913","instructions","","","","","","","","","","","","","","","",""
"","1983","sequential-stimulus-presentation-old","5","62679","0.0-5.0","SS1618365354913","","","40","500","2483","null","null","forced_long","","","","","","","","",""
"","3634","sequential-stimulus-presentation-old","6","66379","0.0-6.0","SS1618365354913","","","40","50","3684","null","null","forced_long","","","","","","","","",""
"[{""page_index"":0,""viewing_time"":2970}]","2971","instructions","7","69351","0.0-7.0","SS1618365354913","instructions","","","","","","","","","","","","","","","",""
"[{""page_index"":0,""viewing_time"":8766},{""page_index"":1,""viewing_time"":9440},{""page_index"":2,""viewing_time"":5299},{""page_index"":3,""viewing_time"":1263},{""page_index"":4,""viewing_time"":1018}]","25786","instructions","8","95139","0.0-8.0","SS1618365354913","instructions","","","","","","","","","","","","","","","",""
"","null","html-keyboard-response","9","96327","0.0-9.0-0.0","SS1618365354913","","","null","","","","","","<p><img src= images/blank.png width =""600"" height = ""600"" style=""position:fixed;top:50%; left:50%; transform: translate(-50%, -50%); border:5px solid black"">","","","","","","","",""
"","2278","sequential-stimulus-presentation-old","10","98662","0.0-9.0-1.0","SS1618365354913","trial","","40","500","2778","images/stimuli/spore_stims/simple_11_A_a.gif","images/stimuli/spore_stims/simple_19_A_b.gif","forced_short","","0","simple_dissimilar","images/stimuli/spore_stims/simple_19_A_b.gif","","","","",""
"","null","html-keyboard-response","11","99881","0.0-9.0-0.1","SS1618365354913","","","null","","","","","","<p><img src= images/blank.png width =""600"" height = ""600"" style=""position:fixed;top:50%; left:50%; transform: translate(-50%, -50%); border:5px solid black"">","","","","","","","",""
"","62679","sequential-stimulus-presentation-old","12","163071","0.0-9.0-1.1","SS1618365354913","trial","","40","500","63179","images/stimuli/spore_stims/simple_11_A_a.gif","images/stimuli/spore_stims/simple_19_A_b.gif","forced_short","","0","simple_dissimilar","images/stimuli/spore_stims/simple_19_A_b.gif","","","","",""
"","null","html-keyboard-response","13","164018","0.0-9.0-0.2","SS1618365354913","","","null","","","","","","<p><img src= images/blank.png width =""600"" height = ""600"" style=""position:fixed;top:50%; left:50%; transform: translate(-50%, -50%); border:5px solid black"">","","","","","","","",""
"","16213","sequential-stimulus-presentation-old","14","180742","0.0-9.0-1.2","SS1618365354913","trial","","40","500","16713","images/stimuli/spore_stims/simple_11_A_a.gif","images/stimuli/spore_stims/simple_19_A_b.gif","forced_short","","0","simple_dissimilar","images/stimuli/spore_stims/simple_19_A_b.gif","","","","",""
"","null","html-keyboard-response","15","181849","0.0-9.0-0.3","SS1618365354913","","","null","","","","","","<p><img src= images/blank.png width =""600"" height = ""600"" style=""position:fixed;top:50%; left:50%; transform: translate(-50%, -50%); border:5px solid black"">","","","","","","","",""
"","17495","sequential-stimulus-presentation-old","16","199856","0.0-9.0-1.3","SS1618365354913","trial","","40","500","17995","images/stimuli/spore_stims/simple_11_A_a.gif","images/stimuli/spore_stims/simple_19_A_b.gif","forced_short","","0","simple_dissimilar","images/stimuli/spore_stims/simple_19_A_b.gif","","","","",""
"","3500","survey-multi-choice","17","203364","0.0-10.0","SS1618365354913","math_question","","","","","","","","","","","","{""Q0"":""5""}","[0]","5","",""
"","null","html-keyboard-response","18","204672","0.0-11.0-0.0","SS1618365354913","","","null","","","","","","<p><img src= images/blank.png width =""600"" height = ""600"" style=""position:fixed;top:50%; left:50%; transform: translate(-50%, -50%); border:5px solid black"">","","","","","","","",""
"","1039","sequential-stimulus-presentation-old","19","205768","0.0-11.0-1.0","SS1618365354913","trial","","40","500","1539","images/stimuli/spore_stims/complex_07_A_b.gif","images/stimuli/spore_stims/complex_18_A_a.gif","forced_short","","1","complex_dissimilar","images/stimuli/spore_stims/complex_18_A_a.gif","","","","",""
"","null","html-keyboard-response","20","206575","0.0-11.0-0.1","SS1618365354913","","","null","","","","","","<p><img src= images/blank.png width =""600"" height = ""600"" style=""position:fixed;top:50%; left:50%; transform: translate(-50%, -50%); border:5px solid black"">","","","","","","","",""
"","17980","sequential-stimulus-presentation-old","21","225067","0.0-11.0-1.1","SS1618365354913","trial","","40","500","18480","images/stimuli/spore_stims/complex_07_A_b.gif","images/stimuli/spore_stims/complex_18_A_a.gif","forced_short","","1","complex_dissimilar","images/stimuli/spore_stims/complex_07_A_b.gif","","","","",""
"","null","html-keyboard-response","22","226181","0.0-11.0-0.2","SS1618365354913","","","null","","","","","","<p><img src= images/blank.png width =""600"" height = ""600"" style=""position:fixed;top:50%; left:50%; transform: translate(-50%, -50%); border:5px solid black"">","","","","","","","",""
"","12008","sequential-stimulus-presentation-old","23","238701","0.0-11.0-1.2","SS1618365354913","trial","","40","500","12508","images/stimuli/spore_stims/complex_07_A_b.gif","images/stimuli/spore_stims/complex_18_A_a.gif","forced_short","","1","complex_dissimilar","images/stimuli/spore_stims/complex_07_A_b.gif","","","","",""
"","null","html-keyboard-response","24","239858","0.0-11.0-0.3","SS1618365354913","","","null","","","","","","<p><img src= images/blank.png width =""600"" height = ""600"" style=""position:fixed;top:50%; left:50%; transform: translate(-50%, -50%); border:5px solid black"">","","","","","","","",""
"","8329","sequential-stimulus-presentation-old","25","248700","0.0-11.0-1.3","SS1618365354913","trial","","40","500","8829","images/stimuli/spore_stims/complex_07_A_b.gif","images/stimuli/spore_stims/complex_18_A_a.gif","forced_short","","1","complex_dissimilar","images/stimuli/spore_stims/complex_18_A_a.gif","","","","",""
"","null","html-keyboard-response","26","249694","0.0-11.0-0.4","SS1618365354913","","","null","","","","","","<p><img src= images/blank.png width =""600"" height = ""600"" style=""position:fixed;top:50%; left:50%; transform: translate(-50%, -50%); border:5px solid black"">","","","","","","","",""
"","3143","sequential-stimulus-presentation-old","27","253350","0.0-11.0-1.4","SS1618365354913","trial","","40","500","3643","images/stimuli/spore_stims/complex_07_A_b.gif","images/stimuli/spore_stims/complex_18_A_a.gif","forced_short","","1","complex_dissimilar","images/stimuli/spore_stims/complex_18_A_a.gif","","","","",""
"","null","html-keyboard-response","28","254408","0.0-11.0-0.5","SS1618365354913","","","null","","","","","","<p><img src= images/blank.png width =""600"" height = ""600"" style=""position:fixed;top:50%; left:50%; transform: translate(-50%, -50%); border:5px solid black"">","","","","","","","",""
"","3494","sequential-stimulus-presentation-old","29","258416","0.0-11.0-1.5","SS1618365354913","trial","","40","500","3994","images/stimuli/spore_stims/complex_07_A_b.gif","images/stimuli/spore_stims/complex_18_A_a.gif","forced_short","","1","complex_dissimilar","images/stimuli/spore_stims/complex_18_A_a.gif","","","","",""
"","3324","survey-multi-choice","30","261743","0.0-12.0","SS1618365354913","math_question","","","","","","","","","","","","{""Q0"":""8""}","[0]","8","",""
"","null","html-keyboard-response","31","262779","0.0-13.0-0.0","SS1618365354913","","","null","","","","","","<p><img src= images/blank.png width =""600"" height = ""600"" style=""position:fixed;top:50%; left:50%; transform: translate(-50%, -50%); border:5px solid black"">","","","","","","","",""
"","14799","sequential-stimulus-presentation-old","32","282588","0.0-13.0-1.0","SS1618365354913","trial","","40","500","15299","images/stimuli/spore_stims/complex_05_A_b.gif","images/stimuli/spore_stims/complex_01_A_a.gif","forced_long","","2","complex_dissimilar","images/stimuli/spore_stims/complex_01_A_a.gif","","","","",""
"","null","html-keyboard-response","33","283636","0.0-13.0-0.1","SS1618365354913","","","null","","","","","","<p><img src= images/blank.png width =""600"" height = ""600"" style=""position:fixed;top:50%; left:50%; transform: translate(-50%, -50%); border:5px solid black"">","","","","","","","",""
"","3070","sequential-stimulus-presentation-old","34","287220","0.0-13.0-1.1","SS1618365354913","trial","","40","500","3570","images/stimuli/spore_stims/complex_05_A_b.gif","images/stimuli/spore_stims/complex_01_A_a.gif","forced_long","","2","complex_dissimilar","images/stimuli/spore_stims/complex_01_A_a.gif","","","","",""
"","null","html-keyboard-response","35","288410","0.0-13.0-0.2","SS1618365354913","","","null","","","","","","<p><img src= images/blank.png width =""600"" height = ""600"" style=""position:fixed;top:50%; left:50%; transform: translate(-50%, -50%); border:5px solid black"">","","","","","","","",""
"","7064","sequential-stimulus-presentation-old","36","295984","0.0-13.0-1.2","SS1618365354913","trial","","40","500","7564","images/stimuli/spore_stims/complex_05_A_b.gif","images/stimuli/spore_stims/complex_01_A_a.gif","forced_long","","2","complex_dissimilar","images/stimuli/spore_stims/complex_05_A_b.gif","","","","",""
"","null","html-keyboard-response","37","297043","0.0-13.0-0.3","SS1618365354913","","","null","","","","","","<p><img src= images/blank.png width =""600"" height = ""600"" style=""position:fixed;top:50%; left:50%; transform: translate(-50%, -50%); border:5px solid black"">","","","","","","","",""
"","2999","sequential-stimulus-presentation-old","38","300551","0.0-13.0-1.3","SS1618365354913","trial","","40","500","3499","images/stimuli/spore_stims/complex_05_A_b.gif","images/stimuli/spore_stims/complex_01_A_a.gif","forced_long","","2","complex_dissimilar","images/stimuli/spore_stims/complex_01_A_a.gif","","","","",""
"","3254","survey-multi-choice","39","303808","0.0-14.0","SS1618365354913","math_question","","","","","","","","","","","","{""Q0"":""16""}","[0]","16","",""
"","null","html-keyboard-response","40","304846","0.0-15.0-0.0","SS1618365354913","","","null","","","","","","<p><img src= images/blank.png width =""600"" height = ""600"" style=""position:fixed;top:50%; left:50%; transform: translate(-50%, -50%); border:5px solid black"">","","","","","","","",""
"","2799","sequential-stimulus-presentation-old","41","308162","0.0-15.0-1.0","SS1618365354913","trial","","40","500","3299","images/stimuli/spore_stims/complex_14_A_a.gif","images/stimuli/spore_stims/complex_11_A_b.gif","self_paced","","3","complex_dissimilar","images/stimuli/spore_stims/complex_11_A_b.gif","","","","",""
"","null","html-keyboard-response","42","309161","0.0-15.0-0.1","SS1618365354913","","","null","","","","","","<p><img src= images/blank.png width =""600"" height = ""600"" style=""position:fixed;top:50%; left:50%; transform: translate(-50%, -50%); border:5px solid black"">","","","","","","","",""
"","3727","sequential-stimulus-presentation-old","43","313399","0.0-15.0-1.1","SS1618365354913","trial","","40","500","4227","images/stimuli/spore_stims/complex_14_A_a.gif","images/stimuli/spore_stims/complex_11_A_b.gif","self_paced","","3","complex_dissimilar","images/stimuli/spore_stims/complex_11_A_b.gif","","","","",""
"","null","html-keyboard-response","44","314279","0.0-15.0-0.2","SS1618365354913","","","null","","","","","","<p><img src= images/blank.png width =""600"" height = ""600"" style=""position:fixed;top:50%; left:50%; transform: translate(-50%, -50%); border:5px solid black"">","","","","","","","",""
"","3381","sequential-stimulus-presentation-old","45","318175","0.0-15.0-1.2","SS1618365354913","trial","","40","500","3881","images/stimuli/spore_stims/complex_14_A_a.gif","images/stimuli/spore_stims/complex_11_A_b.gif","self_paced","","3","complex_dissimilar","images/stimuli/spore_stims/complex_11_A_b.gif","","","","",""
"","null","html-keyboard-response","46","319138","0.0-15.0-0.3","SS1618365354913","","","null","","","","","","<p><img src= images/blank.png width =""600"" height = ""600"" style=""position:fixed;top:50%; left:50%; transform: translate(-50%, -50%); border:5px solid black"">","","","","","","","",""
"","3694","sequential-stimulus-presentation-old","47","323346","0.0-15.0-1.3","SS1618365354913","trial","","40","500","4194","images/stimuli/spore_stims/complex_14_A_a.gif","images/stimuli/spore_stims/complex_11_A_b.gif","self_paced","","3","complex_dissimilar","images/stimuli/spore_stims/complex_11_A_b.gif","","","","",""
"","null","html-keyboard-response","48","324499","0.0-15.0-0.4","SS1618365354913","","","null","","","","","","<p><img src= images/blank.png width =""600"" height = ""600"" style=""position:fixed;top:50%; left:50%; transform: translate(-50%, -50%); border:5px solid black"">","","","","","","","",""
"","3594","sequential-stimulus-presentation-old","49","328606","0.0-15.0-1.4","SS1618365354913","trial","","40","500","4094","images/stimuli/spore_stims/complex_14_A_a.gif","images/stimuli/spore_stims/complex_11_A_b.gif","self_paced","","3","complex_dissimilar","images/stimuli/spore_stims/complex_11_A_b.gif","","","","",""
"","null","html-keyboard-response","50","329604","0.0-15.0-0.5","SS1618365354913","","","null","","","","","","<p><img src= images/blank.png width =""600"" height = ""600"" style=""position:fixed;top:50%; left:50%; transform: translate(-50%, -50%); border:5px solid black"">","","","","","","","",""
"","5534","sequential-stimulus-presentation-old","51","335651","0.0-15.0-1.5","SS1618365354913","trial","","40","500","6034","images/stimuli/spore_stims/complex_14_A_a.gif","images/stimuli/spore_stims/complex_11_A_b.gif","self_paced","","3","complex_dissimilar","images/stimuli/spore_stims/complex_14_A_a.gif","","","","",""
"","3219","survey-multi-choice","52","338874","0.0-16.0","SS1618365354913","math_question","","","","","","","","","","","","{""Q0"":""13""}","[0]","13","",""
"","null","html-keyboard-response","53","339943","0.0-17.0-0.0","SS1618365354913","","","null","","","","","","<p><img src= images/blank.png width =""600"" height = ""600"" style=""position:fixed;top:50%; left:50%; transform: translate(-50%, -50%); border:5px solid black"">","","","","","","","",""
"","17747","sequential-stimulus-presentation-old","54","362696","0.0-17.0-1.0","SS1618365354913","trial","","40","500","18247","images/stimuli/spore_stims/simple_11_A_b.gif","images/stimuli/spore_stims/simple_07_A_a.gif","forced_long","","4","simple_dissimilar","images/stimuli/spore_stims/simple_07_A_a.gif","","","","",""
"","null","html-keyboard-response","55","363939","0.0-17.0-0.1","SS1618365354913","","","null","","","","","","<p><img src= images/blank.png width =""600"" height = ""600"" style=""position:fixed;top:50%; left:50%; transform: translate(-50%, -50%); border:5px solid black"">","","","","","","","",""
"","3944","sequential-stimulus-presentation-old","56","368396","0.0-17.0-1.1","SS1618365354913","trial","","40","500","4444","images/stimuli/spore_stims/simple_11_A_b.gif","images/stimuli/spore_stims/simple_07_A_a.gif","forced_long","","4","simple_dissimilar","images/stimuli/spore_stims/simple_11_A_b.gif","","","","",""
"","null","html-keyboard-response","57","369395","0.0-17.0-0.2","SS1618365354913","","","null","","","","","","<p><img src= images/blank.png width =""600"" height = ""600"" style=""position:fixed;top:50%; left:50%; transform: translate(-50%, -50%); border:5px solid black"">","","","","","","","",""
"","2642","sequential-stimulus-presentation-old","58","372550","0.0-17.0-1.2","SS1618365354913","trial","","40","500","3142","images/stimuli/spore_stims/simple_11_A_b.gif","images/stimuli/spore_stims/simple_07_A_a.gif","forced_long","","4","simple_dissimilar","images/stimuli/spore_stims/simple_07_A_a.gif","","","","",""
"","null","html-keyboard-response","59","373817","0.0-17.0-0.3","SS1618365354913","","","null","","","","","","<p><img src= images/blank.png width =""600"" height = ""600"" style=""position:fixed;top:50%; left:50%; transform: translate(-50%, -50%); border:5px solid black"">","","","","","","","",""
"","3275","sequential-stimulus-presentation-old","60","377603","0.0-17.0-1.3","SS1618365354913","trial","","40","500","3775","images/stimuli/spore_stims/simple_11_A_b.gif","images/stimuli/spore_stims/simple_07_A_a.gif","forced_long","","4","simple_dissimilar","images/stimuli/spore_stims/simple_11_A_b.gif","","","","",""
"","3583","survey-multi-choice","61","381191","0.0-18.0","SS1618365354913","math_question","","","","","","","","","","","","{""Q0"":""11""}","[0]","11","",""
"","null","html-keyboard-response","62","382471","0.0-19.0-0.0","SS1618365354913","","","null","","","","","","<p><img src= images/blank.png width =""600"" height = ""600"" style=""position:fixed;top:50%; left:50%; transform: translate(-50%, -50%); border:5px solid black"">","","","","","","","",""
"","3325","sequential-stimulus-presentation-old","63","386307","0.0-19.0-1.0","SS1618365354913","trial","","40","500","3825","images/stimuli/spore_stims/simple_20_A_a.gif","images/stimuli/spore_stims/simple_09_A_b.gif","self_paced","","5","simple_dissimilar","images/stimuli/spore_stims/simple_09_A_b.gif","","","","",""
"","null","html-keyboard-response","64","387374","0.0-19.0-0.1","SS1618365354913","","","null","","","","","","<p><img src= images/blank.png width =""600"" height = ""600"" style=""position:fixed;top:50%; left:50%; transform: translate(-50%, -50%); border:5px solid black"">","","","","","","","",""
"","4064","sequential-stimulus-presentation-old","65","391949","0.0-19.0-1.1","SS1618365354913","trial","","40","500","4564","images/stimuli/spore_stims/simple_20_A_a.gif","images/stimuli/spore_stims/simple_09_A_b.gif","self_paced","","5","simple_dissimilar","images/stimuli/spore_stims/simple_20_A_a.gif","","","","",""
"","null","html-keyboard-response","66","392896","0.0-19.0-0.2","SS1618365354913","","","null","","","","","","<p><img src= images/blank.png width =""600"" height = ""600"" style=""position:fixed;top:50%; left:50%; transform: translate(-50%, -50%); border:5px solid black"">","","","","","","","",""
"","3608","sequential-stimulus-presentation-old","67","397014","0.0-19.0-1.2","SS1618365354913","trial","","40","500","4108","images/stimuli/spore_stims/simple_20_A_a.gif","images/stimuli/spore_stims/simple_09_A_b.gif","self_paced","","5","simple_dissimilar","images/stimuli/spore_stims/simple_09_A_b.gif","","","","",""
"","null","html-keyboard-response","68","398065","0.0-19.0-0.3","SS1618365354913","","","null","","","","","","<p><img src= images/blank.png width =""600"" height = ""600"" style=""position:fixed;top:50%; left:50%; transform: translate(-50%, -50%); border:5px solid black"">","","","","","","","",""
"","3299","sequential-stimulus-presentation-old","69","401875","0.0-19.0-1.3","SS1618365354913","trial","","40","500","3799","images/stimuli/spore_stims/simple_20_A_a.gif","images/stimuli/spore_stims/simple_09_A_b.gif","self_paced","","5","simple_dissimilar","images/stimuli/spore_stims/simple_09_A_b.gif","","","","",""
"","null","html-keyboard-response","70","403179","0.0-19.0-0.4","SS1618365354913","","","null","","","","","","<p><img src= images/blank.png width =""600"" height = ""600"" style=""position:fixed;top:50%; left:50%; transform: translate(-50%, -50%); border:5px solid black"">","","","","","","","",""
"","2585","sequential-stimulus-presentation-old","71","406279","0.0-19.0-1.4","SS1618365354913","trial","","40","500","3085","images/stimuli/spore_stims/simple_20_A_a.gif","images/stimuli/spore_stims/simple_09_A_b.gif","self_paced","","5","simple_dissimilar","images/stimuli/spore_stims/simple_09_A_b.gif","","","","",""
"","2367","survey-multi-choice","72","408651","0.0-20.0","SS1618365354913","math_question","","","","","","","","","","","","{""Q0"":""6""}","[0]","6","",""
"","null","html-keyboard-response","73","409488","0.0-21.0-0.0","SS1618365354913","","","null","","","","","","<p><img src= images/blank.png width =""600"" height = ""600"" style=""position:fixed;top:50%; left:50%; transform: translate(-50%, -50%); border:5px solid black"">","","","","","","","",""
"","1050","sequential-stimulus-presentation-old","74","410601","0.0-21.0-1.0","SS1618365354913","trial","","40","500","1550","images/stimuli/spore_stims/simple_16_A_a.gif","images/stimuli/spore_stims/simple_17_A_b.gif","forced_short","","6","simple_dissimilar","images/stimuli/spore_stims/simple_17_A_b.gif","","","","",""
"","null","html-keyboard-response","75","411695","0.0-21.0-0.1","SS1618365354913","","","null","","","","","","<p><img src= images/blank.png width =""600"" height = ""600"" style=""position:fixed;top:50%; left:50%; transform: translate(-50%, -50%); border:5px solid black"">","","","","","","","",""
"","3512","sequential-stimulus-presentation-old","76","415718","0.0-21.0-1.1","SS1618365354913","trial","","40","500","4012","images/stimuli/spore_stims/simple_16_A_a.gif","images/stimuli/spore_stims/simple_17_A_b.gif","forced_short","","6","simple_dissimilar","images/stimuli/spore_stims/simple_17_A_b.gif","","","","",""
"","null","html-keyboard-response","77","416655","0.0-21.0-0.2","SS1618365354913","","","null","","","","","","<p><img src= images/blank.png width =""600"" height = ""600"" style=""position:fixed;top:50%; left:50%; transform: translate(-50%, -50%); border:5px solid black"">","","","","","","","",""
"","3616","sequential-stimulus-presentation-old","78","420785","0.0-21.0-1.2","SS1618365354913","trial","","40","500","4116","images/stimuli/spore_stims/simple_16_A_a.gif","images/stimuli/spore_stims/simple_17_A_b.gif","forced_short","","6","simple_dissimilar","images/stimuli/spore_stims/simple_16_A_a.gif","","","","",""
"","null","html-keyboard-response","79","421675","0.0-21.0-0.3","SS1618365354913","","","null","","","","","","<p><img src= images/blank.png width =""600"" height = ""600"" style=""position:fixed;top:50%; left:50%; transform: translate(-50%, -50%); border:5px solid black"">","","","","","","","",""
"","1955","sequential-stimulus-presentation-old","80","424144","0.0-21.0-1.3","SS1618365354913","trial","","40","500","2455","images/stimuli/spore_stims/simple_16_A_a.gif","images/stimuli/spore_stims/simple_17_A_b.gif","forced_short","","6","simple_dissimilar","images/stimuli/spore_stims/simple_16_A_a.gif","","","","",""
"","null","html-keyboard-response","81","425441","0.0-21.0-0.4","SS1618365354913","","","null","","","","","","<p><img src= images/blank.png width =""600"" height = ""600"" style=""position:fixed;top:50%; left:50%; transform: translate(-50%, -50%); border:5px solid black"">","","","","","","","",""
"","1789","sequential-stimulus-presentation-old","82","427746","0.0-21.0-1.4","SS1618365354913","trial","","40","500","2289","images/stimuli/spore_stims/simple_16_A_a.gif","images/stimuli/spore_stims/simple_17_A_b.gif","forced_short","","6","simple_dissimilar","images/stimuli/spore_stims/simple_17_A_b.gif","","","","",""
"","2427","survey-multi-choice","83","430177","0.0-22.0","SS1618365354913","math_question","","","","","","","","","","","","{""Q0"":""11""}","[0]","11","",""
"","null","html-keyboard-response","84","431381","0.0-23.0-0.0","SS1618365354913","","","null","","","","","","<p><img src= images/blank.png width =""600"" height = ""600"" style=""position:fixed;top:50%; left:50%; transform: translate(-50%, -50%); border:5px solid black"">","","","","","","","",""
"","1727","sequential-stimulus-presentation-old","85","438125","0.0-23.0-1.0","SS1618365354913","trial","","40","500","2227","images/stimuli/spore_stims/simple_03_A_b.gif","images/stimuli/spore_stims/simple_09_A_a.gif","forced_long","","7","simple_dissimilar","images/stimuli/spore_stims/simple_09_A_a.gif","","","","",""
"","null","html-keyboard-response","86","439318","0.0-23.0-0.1","SS1618365354913","","","null","","","","","","<p><img src= images/blank.png width =""600"" height = ""600"" style=""position:fixed;top:50%; left:50%; transform: translate(-50%, -50%); border:5px solid black"">","","","","","","","",""
"","7840","sequential-stimulus-presentation-old","87","447671","0.0-23.0-1.1","SS1618365354913","trial","","40","500","8340","images/stimuli/spore_stims/simple_03_A_b.gif","images/stimuli/spore_stims/simple_09_A_a.gif","forced_long","","7","simple_dissimilar","images/stimuli/spore_stims/simple_09_A_a.gif","","","","",""
"","null","html-keyboard-response","88","448572","0.0-23.0-0.2","SS1618365354913","","","null","","","","","","<p><img src= images/blank.png width =""600"" height = ""600"" style=""position:fixed;top:50%; left:50%; transform: translate(-50%, -50%); border:5px solid black"">","","","","","","","",""
"","9707","sequential-stimulus-presentation-old","89","458794","0.0-23.0-1.2","SS1618365354913","trial","","40","500","10207","images/stimuli/spore_stims/simple_03_A_b.gif","images/stimuli/spore_stims/simple_09_A_a.gif","forced_long","","7","simple_dissimilar","images/stimuli/spore_stims/simple_09_A_a.gif","","","","",""
"","null","html-keyboard-response","90","459704","0.0-23.0-0.3","SS1618365354913","","","null","","","","","","<p><img src= images/blank.png width =""600"" height = ""600"" style=""position:fixed;top:50%; left:50%; transform: translate(-50%, -50%); border:5px solid black"">","","","","","","","",""
"","5115","sequential-stimulus-presentation-old","91","465333","0.0-23.0-1.3","SS1618365354913","trial","","40","500","5615","images/stimuli/spore_stims/simple_03_A_b.gif","images/stimuli/spore_stims/simple_09_A_a.gif","forced_long","","7","simple_dissimilar","images/stimuli/spore_stims/simple_09_A_a.gif","","","","",""
"","4366","survey-multi-choice","92","469704","0.0-24.0","SS1618365354913","math_question","","","","","","","","","","","","{""Q0"":""13""}","[0]","13","",""
"","null","html-keyboard-response","93","470864","0.0-25.0-0.0","SS1618365354913","","","null","","","","","","<p><img src= images/blank.png width =""600"" height = ""600"" style=""position:fixed;top:50%; left:50%; transform: translate(-50%, -50%); border:5px solid black"">","","","","","","","",""
"","3764","sequential-stimulus-presentation-old","94","475141","0.0-25.0-1.0","SS1618365354913","trial","","40","500","4264","images/stimuli/spore_stims/complex_13_A_b.gif","images/stimuli/spore_stims/complex_16_A_a.gif","self_paced","","8","complex_dissimilar","images/stimuli/spore_stims/complex_16_A_a.gif","","","","",""
"","null","html-keyboard-response","95","476197","0.0-25.0-0.1","SS1618365354913","","","null","","","","","","<p><img src= images/blank.png width =""600"" height = ""600"" style=""position:fixed;top:50%; left:50%; transform: translate(-50%, -50%); border:5px solid black"">","","","","","","","",""
"","4320","sequential-stimulus-presentation-old","96","481031","0.0-25.0-1.1","SS1618365354913","trial","","40","500","4820","images/stimuli/spore_stims/complex_13_A_b.gif","images/stimuli/spore_stims/complex_16_A_a.gif","self_paced","","8","complex_dissimilar","images/stimuli/spore_stims/complex_13_A_b.gif","","","","",""
"","null","html-keyboard-response","97","481952","0.0-25.0-0.2","SS1618365354913","","","null","","","","","","<p><img src= images/blank.png width =""600"" height = ""600"" style=""position:fixed;top:50%; left:50%; transform: translate(-50%, -50%); border:5px solid black"">","","","","","","","",""
"","5387","sequential-stimulus-presentation-old","98","487850","0.0-25.0-1.2","SS1618365354913","trial","","40","500","5887","images/stimuli/spore_stims/complex_13_A_b.gif","images/stimuli/spore_stims/complex_16_A_a.gif","self_paced","","8","complex_dissimilar","images/stimuli/spore_stims/complex_16_A_a.gif","","","","",""
"","null","html-keyboard-response","99","489123","0.0-25.0-0.3","SS1618365354913","","","null","","","","","","<p><img src= images/blank.png width =""600"" height = ""600"" style=""position:fixed;top:50%; left:50%; transform: translate(-50%, -50%); border:5px solid black"">","","","","","","","",""
"","5051","sequential-stimulus-presentation-old","100","494688","0.0-25.0-1.3","SS1618365354913","trial","","40","500","5551","images/stimuli/spore_stims/complex_13_A_b.gif","images/stimuli/spore_stims/complex_16_A_a.gif","self_paced","","8","complex_dissimilar","images/stimuli/spore_stims/complex_16_A_a.gif","","","","",""
"","null","html-keyboard-response","101","495649","0.0-25.0-0.4","SS1618365354913","","","null","","","","","","<p><img src= images/blank.png width =""600"" height = ""600"" style=""position:fixed;top:50%; left:50%; transform: translate(-50%, -50%); border:5px solid black"">","","","","","","","",""
"","4212","sequential-stimulus-presentation-old","102","500374","0.0-25.0-1.4","SS1618365354913","trial","","40","500","4712","images/stimuli/spore_stims/complex_13_A_b.gif","images/stimuli/spore_stims/complex_16_A_a.gif","self_paced","","8","complex_dissimilar","images/stimuli/spore_stims/complex_16_A_a.gif","","","","",""
"","null","html-keyboard-response","103","501203","0.0-25.0-0.5","SS1618365354913","","","null","","","","","","<p><img src= images/blank.png width =""600"" height = ""600"" style=""position:fixed;top:50%; left:50%; transform: translate(-50%, -50%); border:5px solid black"">","","","","","","","",""
"","5361","sequential-stimulus-presentation-old","104","507079","0.0-25.0-1.5","SS1618365354913","trial","","40","500","5861","images/stimuli/spore_stims/complex_13_A_b.gif","images/stimuli/spore_stims/complex_16_A_a.gif","self_paced","","8","complex_dissimilar","images/stimuli/spore_stims/complex_13_A_b.gif","","","","",""
"","2209","survey-multi-choice","105","509293","0.0-26.0","SS1618365354913","math_question","","","","","","","","","","","","{""Q0"":""10""}","[0]","10","",""
"","null","html-keyboard-response","106","510456","0.0-27.0-0.0","SS1618365354913","","","null","","","","","","<p><img src= images/blank.png width =""600"" height = ""600"" style=""position:fixed;top:50%; left:50%; transform: translate(-50%, -50%); border:5px solid black"">","","","","","","","",""
"","834","sequential-stimulus-presentation-old","107","511807","0.0-27.0-1.0","SS1618365354913","trial","","40","500","1334","images/stimuli/spore_stims/simple_01_A_a.gif","images/stimuli/spore_stims/simple_13_A_b.gif","self_paced","","9","simple_dissimilar","images/stimuli/spore_stims/simple_13_A_b.gif","","","","",""
"","null","html-keyboard-response","108","513023","0.0-27.0-0.1","SS1618365354913","","","null","","","","","","<p><img src= images/blank.png width =""600"" height = ""600"" style=""position:fixed;top:50%; left:50%; transform: translate(-50%, -50%); border:5px solid black"">","","","","","","","",""
"","3384","sequential-stimulus-presentation-old","109","516916","0.0-27.0-1.1","SS1618365354913","trial","","40","500","3884","images/stimuli/spore_stims/simple_01_A_a.gif","images/stimuli/spore_stims/simple_13_A_b.gif","self_paced","","9","simple_dissimilar","images/stimuli/spore_stims/simple_13_A_b.gif","","","","",""
"","null","html-keyboard-response","110","517873","0.0-27.0-0.2","SS1618365354913","","","null","","","","","","<p><img src= images/blank.png width =""600"" height = ""600"" style=""position:fixed;top:50%; left:50%; transform: translate(-50%, -50%); border:5px solid black"">","","","","","","","",""
"","4772","sequential-stimulus-presentation-old","111","523159","0.0-27.0-1.2","SS1618365354913","trial","","40","500","5272","images/stimuli/spore_stims/simple_01_A_a.gif","images/stimuli/spore_stims/simple_13_A_b.gif","self_paced","","9","simple_dissimilar","images/stimuli/spore_stims/simple_13_A_b.gif","","","","",""
"","null","html-keyboard-response","112","524265","0.0-27.0-0.3","SS1618365354913","","","null","","","","","","<p><img src= images/blank.png width =""600"" height = ""600"" style=""position:fixed;top:50%; left:50%; transform: translate(-50%, -50%); border:5px solid black"">","","","","","","","",""
"","5178","sequential-stimulus-presentation-old","113","529955","0.0-27.0-1.3","SS1618365354913","trial","","40","500","5678","images/stimuli/spore_stims/simple_01_A_a.gif","images/stimuli/spore_stims/simple_13_A_b.gif","self_paced","","9","simple_dissimilar","images/stimuli/spore_stims/simple_01_A_a.gif","","","","",""
"","null","html-keyboard-response","114","531057","0.0-27.0-0.4","SS1618365354913","","","null","","","","","","<p><img src= images/blank.png width =""600"" height = ""600"" style=""position:fixed;top:50%; left:50%; transform: translate(-50%, -50%); border:5px solid black"">","","","","","","","",""
"","4076","sequential-stimulus-presentation-old","115","535652","0.0-27.0-1.4","SS1618365354913","trial","","40","500","4576","images/stimuli/spore_stims/simple_01_A_a.gif","images/stimuli/spore_stims/simple_13_A_b.gif","self_paced","","9","simple_dissimilar","images/stimuli/spore_stims/simple_13_A_b.gif","","","","",""
"","null","html-keyboard-response","116","536656","0.0-27.0-0.5","SS1618365354913","","","null","","","","","","<p><img src= images/blank.png width =""600"" height = ""600"" style=""position:fixed;top:50%; left:50%; transform: translate(-50%, -50%); border:5px solid black"">","","","","","","","",""
"","3783","sequential-stimulus-presentation-old","117","540951","0.0-27.0-1.5","SS1618365354913","trial","","40","500","4283","images/stimuli/spore_stims/simple_01_A_a.gif","images/stimuli/spore_stims/simple_13_A_b.gif","self_paced","","9","simple_dissimilar","images/stimuli/spore_stims/simple_01_A_a.gif","","","","",""
"","3105","survey-multi-choice","118","544062","0.0-28.0","SS1618365354913","math_question","","","","","","","","","","","","{""Q0"":""6""}","[0]","6","",""
"","null","html-keyboard-response","119","545332","0.0-29.0-0.0","SS1618365354913","","","null","","","","","","<p><img src= images/blank.png width =""600"" height = ""600"" style=""position:fixed;top:50%; left:50%; transform: translate(-50%, -50%); border:5px solid black"">","","","","","","","",""
"","954","sequential-stimulus-presentation-old","120","546348","0.0-29.0-1.0","SS1618365354913","trial","","40","500","1454","images/stimuli/spore_stims/complex_02_A_a.gif","images/stimuli/spore_stims/complex_04_A_b.gif","forced_short","","10","complex_dissimilar","images/stimuli/spore_stims/complex_04_A_b.gif","","","","",""
"","null","html-keyboard-response","121","547337","0.0-29.0-0.1","SS1618365354913","","","null","","","","","","<p><img src= images/blank.png width =""600"" height = ""600"" style=""position:fixed;top:50%; left:50%; transform: translate(-50%, -50%); border:5px solid black"">","","","","","","","",""
"","3082","sequential-stimulus-presentation-old","122","550933","0.0-29.0-1.1","SS1618365354913","trial","","40","500","3582","images/stimuli/spore_stims/complex_02_A_a.gif","images/stimuli/spore_stims/complex_04_A_b.gif","forced_short","","10","complex_dissimilar","images/stimuli/spore_stims/complex_04_A_b.gif","","","","",""
"","null","html-keyboard-response","123","552057","0.0-29.0-0.2","SS1618365354913","","","null","","","","","","<p><img src= images/blank.png width =""600"" height = ""600"" style=""position:fixed;top:50%; left:50%; transform: translate(-50%, -50%); border:5px solid black"">","","","","","","","",""
"","4240","sequential-stimulus-presentation-old","124","556806","0.0-29.0-1.2","SS1618365354913","trial","","40","500","4740","images/stimuli/spore_stims/complex_02_A_a.gif","images/stimuli/spore_stims/complex_04_A_b.gif","forced_short","","10","complex_dissimilar","images/stimuli/spore_stims/complex_04_A_b.gif","","","","",""
"","null","html-keyboard-response","125","557841","0.0-29.0-0.3","SS1618365354913","","","null","","","","","","<p><img src= images/blank.png width =""600"" height = ""600"" style=""position:fixed;top:50%; left:50%; transform: translate(-50%, -50%); border:5px solid black"">","","","","","","","",""
"","3996","sequential-stimulus-presentation-old","126","562346","0.0-29.0-1.3","SS1618365354913","trial","","40","500","4496","images/stimuli/spore_stims/complex_02_A_a.gif","images/stimuli/spore_stims/complex_04_A_b.gif","forced_short","","10","complex_dissimilar","images/stimuli/spore_stims/complex_02_A_a.gif","","","","",""
"","null","html-keyboard-response","127","563348","0.0-29.0-0.4","SS1618365354913","","","null","","","","","","<p><img src= images/blank.png width =""600"" height = ""600"" style=""position:fixed;top:50%; left:50%; transform: translate(-50%, -50%); border:5px solid black"">","","","","","","","",""
"","3975","sequential-stimulus-presentation-old","128","567839","0.0-29.0-1.4","SS1618365354913","trial","","40","500","4475","images/stimuli/spore_stims/complex_02_A_a.gif","images/stimuli/spore_stims/complex_04_A_b.gif","forced_short","","10","complex_dissimilar","images/stimuli/spore_stims/complex_04_A_b.gif","","","","",""
"","null","html-keyboard-response","129","568918","0.0-29.0-0.5","SS1618365354913","","","null","","","","","","<p><img src= images/blank.png width =""600"" height = ""600"" style=""position:fixed;top:50%; left:50%; transform: translate(-50%, -50%); border:5px solid black"">","","","","","","","",""
"","4753","sequential-stimulus-presentation-old","130","574180","0.0-29.0-1.5","SS1618365354913","trial","","40","500","5253","images/stimuli/spore_stims/complex_02_A_a.gif","images/stimuli/spore_stims/complex_04_A_b.gif","forced_short","","10","complex_dissimilar","images/stimuli/spore_stims/complex_04_A_b.gif","","","","",""
"","2315","survey-multi-choice","131","576502","0.0-30.0","SS1618365354913","math_question","","","","","","","","","","","","{""Q0"":""8""}","[0]","8","",""
"","null","html-keyboard-response","132","577588","0.0-31.0-0.0","SS1618365354913","","","null","","","","","","<p><img src= images/blank.png width =""600"" height = ""600"" style=""position:fixed;top:50%; left:50%; transform: translate(-50%, -50%); border:5px solid black"">","","","","","","","",""
"","838","sequential-stimulus-presentation-old","133","583445","0.0-31.0-1.0","SS1618365354913","trial","","40","500","1338","images/stimuli/spore_stims/complex_15_A_b.gif","images/stimuli/spore_stims/complex_12_A_a.gif","forced_long","","11","complex_dissimilar","images/stimuli/spore_stims/complex_12_A_a.gif","","","","",""
"","null","html-keyboard-response","134","584274","0.0-31.0-0.1","SS1618365354913","","","null","","","","","","<p><img src= images/blank.png width =""600"" height = ""600"" style=""position:fixed;top:50%; left:50%; transform: translate(-50%, -50%); border:5px solid black"">","","","","","","","",""
"","4313","sequential-stimulus-presentation-old","135","589098","0.0-31.0-1.1","SS1618365354913","trial","","40","500","4813","images/stimuli/spore_stims/complex_15_A_b.gif","images/stimuli/spore_stims/complex_12_A_a.gif","forced_long","","11","complex_dissimilar","images/stimuli/spore_stims/complex_12_A_a.gif","","","","",""
"","null","html-keyboard-response","136","590155","0.0-31.0-0.2","SS1618365354913","","","null","","","","","","<p><img src= images/blank.png width =""600"" height = ""600"" style=""position:fixed;top:50%; left:50%; transform: translate(-50%, -50%); border:5px solid black"">","","","","","","","",""
"","3521","sequential-stimulus-presentation-old","137","594190","0.0-31.0-1.2","SS1618365354913","trial","","40","500","4021","images/stimuli/spore_stims/complex_15_A_b.gif","images/stimuli/spore_stims/complex_12_A_a.gif","forced_long","","11","complex_dissimilar","images/stimuli/spore_stims/complex_12_A_a.gif","","","","",""
"","null","html-keyboard-response","138","595404","0.0-31.0-0.3","SS1618365354913","","","null","","","","","","<p><img src= images/blank.png width =""600"" height = ""600"" style=""position:fixed;top:50%; left:50%; transform: translate(-50%, -50%); border:5px solid black"">","","","","","","","",""
"","5653","sequential-stimulus-presentation-old","139","601568","0.0-31.0-1.3","SS1618365354913","trial","","40","500","6153","images/stimuli/spore_stims/complex_15_A_b.gif","images/stimuli/spore_stims/complex_12_A_a.gif","forced_long","","11","complex_dissimilar","images/stimuli/spore_stims/complex_12_A_a.gif","","","","",""
"","null","html-keyboard-response","140","602505","0.0-31.0-0.4","SS1618365354913","","","null","","","","","","<p><img src= images/blank.png width =""600"" height = ""600"" style=""position:fixed;top:50%; left:50%; transform: translate(-50%, -50%); border:5px solid black"">","","","","","","","",""
"","4434","sequential-stimulus-presentation-old","141","607449","0.0-31.0-1.4","SS1618365354913","trial","","40","500","4934","images/stimuli/spore_stims/complex_15_A_b.gif","images/stimuli/spore_stims/complex_12_A_a.gif","forced_long","","11","complex_dissimilar","images/stimuli/spore_stims/complex_12_A_a.gif","","","","",""
"","null","html-keyboard-response","142","608450","0.0-31.0-0.5","SS1618365354913","","","null","","","","","","<p><img src= images/blank.png width =""600"" height = ""600"" style=""position:fixed;top:50%; left:50%; transform: translate(-50%, -50%); border:5px solid black"">","","","","","","","",""
"","5120","sequential-stimulus-presentation-old","143","614081","0.0-31.0-1.5","SS1618365354913","trial","","40","500","5620","images/stimuli/spore_stims/complex_15_A_b.gif","images/stimuli/spore_stims/complex_12_A_a.gif","forced_long","","11","complex_dissimilar","images/stimuli/spore_stims/complex_12_A_a.gif","","","","",""
"[{""page_index"":0,""viewing_time"":5676}]","5676","instructions","144","619761","0.0-32.0","SS1618365354913","instructions","","","","","","","","","","","","","","","",""
"","13691","survey-likert","145","633456","0.0-33.0","SS1618365354913","similarity_question","","","","","","","","","","","","{""Q0"":2}","[0]","","images/stimuli/spore_stims/complex_16_A_a.gif","images/stimuli/spore_stims/complex_13_A_b.gif"
"","10750","survey-likert","146","644210","0.0-34.0","SS1618365354913","similarity_question","","","","","","","","","","","","{""Q0"":0}","[0]","","images/stimuli/spore_stims/complex_15_A_b.gif","images/stimuli/spore_stims/complex_12_A_a.gif"
"","6205","survey-likert","147","650419","0.0-35.0","SS1618365354913","similarity_question","","","","","","","","","","","","{""Q0"":4}","[0]","","images/stimuli/spore_stims/simple_09_A_b.gif","images/stimuli/spore_stims/simple_20_A_a.gif"
"","6509","survey-likert","148","656932","0.0-36.0","SS1618365354913","similarity_question","","","","","","","","","","","","{""Q0"":1}","[0]","","images/stimuli/spore_stims/complex_04_A_b.gif","images/stimuli/spore_stims/complex_02_A_a.gif"
"","4266","survey-likert","149","661203","0.0-37.0","SS1618365354913","similarity_question","","","","","","","","","","","","{""Q0"":4}","[0]","","images/stimuli/spore_stims/simple_09_A_a.gif","images/stimuli/spore_stims/simple_03_A_b.gif"
"","7082","survey-likert","150","668290","0.0-38.0","SS1618365354913","similarity_question","","","","","","","","","","","","{""Q0"":2}","[0]","","images/stimuli/spore_stims/simple_11_A_b.gif","images/stimuli/spore_stims/simple_07_A_a.gif"
"","12952","survey-likert","151","681247","0.0-39.0","SS1618365354913","similarity_question","","","","","","","","","","","","{""Q0"":0}","[0]","","images/stimuli/spore_stims/complex_01_A_a.gif","images/stimuli/spore_stims/complex_05_A_b.gif"
"","4337","survey-likert","152","685593","0.0-40.0","SS1618365354913","similarity_question","","","","","","","","","","","","{""Q0"":5}","[0]","","images/stimuli/spore_stims/simple_13_A_b.gif","images/stimuli/spore_stims/simple_01_A_a.gif"
"","5648","survey-likert","153","691246","0.0-41.0","SS1618365354913","similarity_question","","","","","","","","","","","","{""Q0"":3}","[0]","","images/stimuli/spore_stims/simple_16_A_a.gif","images/stimuli/spore_stims/simple_17_A_b.gif"
"","9090","survey-likert","154","700342","0.0-42.0","SS1618365354913","similarity_question","","","","","","","","","","","","{""Q0"":0}","[0]","","images/stimuli/spore_stims/complex_18_A_a.gif","images/stimuli/spore_stims/complex_07_A_b.gif"
"","8705","survey-likert","155","709051","0.0-43.0","SS1618365354913","similarity_question","","","","","","","","","","","","{""Q0"":0}","[0]","","images/stimuli/spore_stims/complex_11_A_b.gif","images/stimuli/spore_stims/complex_14_A_a.gif"
"","8339","survey-likert","156","717394","0.0-44.0","SS1618365354913","similarity_question","","","","","","","","","","","","{""Q0"":3}","[0]","","images/stimuli/spore_stims/simple_19_A_b.gif","images/stimuli/spore_stims/simple_11_A_a.gif"
"[{""page_index"":0,""viewing_time"":4373}]","4373","instructions","157","721772","0.0-45.0","SS1618365354913","instructions","","","","","","","","","","","","","","","",""
"","7096","survey-likert","158","728872","0.0-46.0","SS1618365354913","","","","","","","","","images/stimuli/spore_stims/complex_07_A_b.gif","","","","{""Q0"":5}","[0]","","",""
"","2419","survey-likert","159","731295","0.0-47.0","SS1618365354913","","","","","","","","","images/stimuli/spore_stims/simple_07_A_a.gif","","","","{""Q0"":0}","[0]","","",""
"","2644","survey-likert","160","733943","0.0-48.0","SS1618365354913","","","","","","","","","images/stimuli/spore_stims/simple_17_A_b.gif","","","","{""Q0"":1}","[0]","","",""
"","11715","survey-likert","161","745667","0.0-49.0","SS1618365354913","","","","","","","","","images/stimuli/spore_stims/complex_05_A_b.gif","","","","{""Q0"":5}","[0]","","",""
"","4535","survey-likert","162","750212","0.0-50.0","SS1618365354913","","","","","","","","","images/stimuli/spore_stims/simple_01_A_a.gif","","","","{""Q0"":1}","[0]","","",""
"","3095","survey-likert","163","753313","0.0-51.0","SS1618365354913","","","","","","","","","images/stimuli/spore_stims/complex_11_A_b.gif","","","","{""Q0"":4}","[0]","","",""
"","4478","survey-likert","164","757795","0.0-52.0","SS1618365354913","","","","","","","","","images/stimuli/spore_stims/simple_20_A_a.gif","","","","{""Q0"":2}","[0]","","",""
"","2096","survey-likert","165","759897","0.0-53.0","SS1618365354913","","","","","","","","","images/stimuli/spore_stims/simple_11_A_a.gif","","","","{""Q0"":1}","[0]","","",""
"","2517","survey-likert","166","762419","0.0-54.0","SS1618365354913","","","","","","","","","images/stimuli/spore_stims/complex_13_A_b.gif","","","","{""Q0"":4}","[0]","","",""
"","3858","survey-likert","167","766282","0.0-55.0","SS1618365354913","","","","","","","","","images/stimuli/spore_stims/complex_12_A_a.gif","","","","{""Q0"":4}","[0]","","",""
"","3481","survey-likert","168","769767","0.0-56.0","SS1618365354913","","","","","","","","","images/stimuli/spore_stims/simple_09_A_a.gif","","","","{""Q0"":1}","[0]","","",""
"","4027","survey-likert","169","773800","0.0-57.0","SS1618365354913","","","","","","","","","images/stimuli/spore_stims/complex_04_A_b.gif","","","","{""Q0"":4}","[0]","","",""
"[{""page_index"":0,""viewing_time"":1789}]","1789","instructions","170","775591","0.0-58.0","SS1618365354913","instructions","","","","","","","","","","","","","","","",""
"","3621","demog-age","171","779219","0.0-59.0","SS1618365354913","","","","","","","","","","","","","{""age"":""27""}","","","",""
"","6663","demog-ethnic-US","172","785887","0.0-60.0","SS1618365354913","","","","","","","","","","","","","{""ethnicity"":[""White""]}","[0]","","",""
"","7338","demog-gender-and-education","173","793229","0.0-61.0","SS1618365354913","","","","","","","","","","","","","{""gender"":""Male"",""education"":""High school diploma""}","[0,1]","","",""
"","7431","survey-text","174","800666","0.0-62.0","SS1618365354913","feedback","","","","","","","","","","","","{""Q0"":""No""}","","","",""
"[{""page_index"":0,""viewing_time"":1614}]","1614","instructions","175","802287","0.0-63.0","SS1618365354913","instructions","","","","","","","","","","","","","","","",""
