"view_history","rt","trial_type","trial_index","time_elapsed","internal_node_id","subject","stimulus_type","trial_stimulus","key_press","minimum_viewing_duration","trial_looking_time","block_deviant","block_background","exposure_type","stimulus","block_number","block_type","stimulus_displayed","responses","question_order","math_correct_answer","stimulus_left","stimulus_right"
"[{""page_index"":0,""viewing_time"":10156.339999986812}]","10158.594999986235","instructions","0","10164","0.0-0.0","SS1618366014867","","","","","","","","","","","","","","","","",""
"[{""page_index"":0,""viewing_time"":13308.964999974705},{""page_index"":1,""viewing_time"":5461.505000013858}]","18770.970000012312","instructions","1","30945","0.0-1.0","SS1618366014867","instructions","","","","","","","","","","","","","","","",""
"","6072.900000028312","sequential-stimulus-presentation-old","2","37531","0.0-2.0","SS1618366014867","","","40","500","6572.900000028312","null","null","self_paced","","","","","","","","",""
"","5916.045000019949","sequential-stimulus-presentation-old","3","43956","0.0-3.0","SS1618366014867","","","40","500","6416.045000019949","null","null","self_paced","","","","","","","","",""
"[{""page_index"":0,""viewing_time"":17834.80499999132}]","17835.03999997629","instructions","4","61794","0.0-4.0","SS1618366014867","instructions","","","","","","","","","","","","","","","",""
"","775.7100000162609","sequential-stimulus-presentation-old","5","67576","0.0-5.0","SS1618366014867","","","40","500","1275.710000016261","null","null","forced_long","","","","","","","","",""
"","2665.034999954514","sequential-stimulus-presentation-old","6","70296","0.0-6.0","SS1618366014867","","","40","50","2715.034999954514","null","null","forced_long","","","","","","","","",""
"[{""page_index"":0,""viewing_time"":3183.584999991581}]","3183.740000007674","instructions","7","73483","0.0-7.0","SS1618366014867","instructions","","","","","","","","","","","","","","","",""
"[{""page_index"":0,""viewing_time"":8766.689999960363},{""page_index"":1,""viewing_time"":9693.500000052154},{""page_index"":2,""viewing_time"":5124.039999966044},{""page_index"":3,""viewing_time"":1102.240000036545},{""page_index"":4,""viewing_time"":982.979999971576}]","25669.83500000788","instructions","8","99154","0.0-8.0","SS1618366014867","instructions","","","","","","","","","","","","","","","",""
"","null","html-keyboard-response","9","100020","0.0-9.0-0.0","SS1618366014867","","","null","","","","","","<p><img src= images/blank.png width =""600"" height = ""600"" style=""position:fixed;top:50%; left:50%; transform: translate(-50%, -50%); border:5px solid black"">","","","","","","","",""
"","580.8849999448285","sequential-stimulus-presentation-old","10","105611","0.0-9.0-1.0","SS1618366014867","trial","","40","500","1080.8849999448285","images/stimuli/spore_stims/simple_13_A_a.gif","images/stimuli/spore_stims/simple_08_A_b.gif","forced_long","","0","simple_dissimilar","images/stimuli/spore_stims/simple_08_A_b.gif","","","","",""
"","null","html-keyboard-response","11","106814","0.0-9.0-0.1","SS1618366014867","","","null","","","","","","<p><img src= images/blank.png width =""600"" height = ""600"" style=""position:fixed;top:50%; left:50%; transform: translate(-50%, -50%); border:5px solid black"">","","","","","","","",""
"","964.5950000267476","sequential-stimulus-presentation-old","12","108285","0.0-9.0-1.1","SS1618366014867","trial","","40","500","1464.5950000267476","images/stimuli/spore_stims/simple_13_A_a.gif","images/stimuli/spore_stims/simple_08_A_b.gif","forced_long","","0","simple_dissimilar","images/stimuli/spore_stims/simple_13_A_a.gif","","","","",""
"","null","html-keyboard-response","13","109363","0.0-9.0-0.2","SS1618366014867","","","null","","","","","","<p><img src= images/blank.png width =""600"" height = ""600"" style=""position:fixed;top:50%; left:50%; transform: translate(-50%, -50%); border:5px solid black"">","","","","","","","",""
"","404.8799999873154","sequential-stimulus-presentation-old","14","110296","0.0-9.0-1.2","SS1618366014867","trial","","40","500","904.8799999873154","images/stimuli/spore_stims/simple_13_A_a.gif","images/stimuli/spore_stims/simple_08_A_b.gif","forced_long","","0","simple_dissimilar","images/stimuli/spore_stims/simple_08_A_b.gif","","","","",""
"","null","html-keyboard-response","15","111306","0.0-9.0-0.3","SS1618366014867","","","null","","","","","","<p><img src= images/blank.png width =""600"" height = ""600"" style=""position:fixed;top:50%; left:50%; transform: translate(-50%, -50%); border:5px solid black"">","","","","","","","",""
"","942.0000000391155","sequential-stimulus-presentation-old","16","112756","0.0-9.0-1.3","SS1618366014867","trial","","40","500","1442.0000000391155","images/stimuli/spore_stims/simple_13_A_a.gif","images/stimuli/spore_stims/simple_08_A_b.gif","forced_long","","0","simple_dissimilar","images/stimuli/spore_stims/simple_08_A_b.gif","","","","",""
"","null","html-keyboard-response","17","113953","0.0-9.0-0.4","SS1618366014867","","","null","","","","","","<p><img src= images/blank.png width =""600"" height = ""600"" style=""position:fixed;top:50%; left:50%; transform: translate(-50%, -50%); border:5px solid black"">","","","","","","","",""
"","1970.5949999624863","sequential-stimulus-presentation-old","18","116435","0.0-9.0-1.4","SS1618366014867","trial","","40","500","2470.5949999624863","images/stimuli/spore_stims/simple_13_A_a.gif","images/stimuli/spore_stims/simple_08_A_b.gif","forced_long","","0","simple_dissimilar","images/stimuli/spore_stims/simple_08_A_b.gif","","","","",""
"","2115.7100000418723","survey-multi-choice","19","118563","0.0-10.0","SS1618366014867","math_question","","","","","","","","","","","","{""Q0"":""11""}","[0]","11","",""
"","null","html-keyboard-response","20","119846","0.0-11.0-0.0","SS1618366014867","","","null","","","","","","<p><img src= images/blank.png width =""600"" height = ""600"" style=""position:fixed;top:50%; left:50%; transform: translate(-50%, -50%); border:5px solid black"">","","","","","","","",""
"","503.4299999824725","sequential-stimulus-presentation-old","21","120861","0.0-11.0-1.0","SS1618366014867","trial","","40","500","1003.4299999824725","images/stimuli/spore_stims/simple_14_A_a.gif","images/stimuli/spore_stims/simple_11_A_b.gif","self_paced","","1","simple_dissimilar","images/stimuli/spore_stims/simple_11_A_b.gif","","","","",""
"","null","html-keyboard-response","22","121871","0.0-11.0-0.1","SS1618366014867","","","null","","","","","","<p><img src= images/blank.png width =""600"" height = ""600"" style=""position:fixed;top:50%; left:50%; transform: translate(-50%, -50%); border:5px solid black"">","","","","","","","",""
"","1130.425000039395","sequential-stimulus-presentation-old","23","123512","0.0-11.0-1.1","SS1618366014867","trial","","40","500","1630.425000039395","images/stimuli/spore_stims/simple_14_A_a.gif","images/stimuli/spore_stims/simple_11_A_b.gif","self_paced","","1","simple_dissimilar","images/stimuli/spore_stims/simple_11_A_b.gif","","","","",""
"","null","html-keyboard-response","24","124556","0.0-11.0-0.2","SS1618366014867","","","null","","","","","","<p><img src= images/blank.png width =""600"" height = ""600"" style=""position:fixed;top:50%; left:50%; transform: translate(-50%, -50%); border:5px solid black"">","","","","","","","",""
"","1198.0899999616668","sequential-stimulus-presentation-old","25","126269","0.0-11.0-1.2","SS1618366014867","trial","","40","500","1698.0899999616668","images/stimuli/spore_stims/simple_14_A_a.gif","images/stimuli/spore_stims/simple_11_A_b.gif","self_paced","","1","simple_dissimilar","images/stimuli/spore_stims/simple_11_A_b.gif","","","","",""
"","null","html-keyboard-response","26","127537","0.0-11.0-0.3","SS1618366014867","","","null","","","","","","<p><img src= images/blank.png width =""600"" height = ""600"" style=""position:fixed;top:50%; left:50%; transform: translate(-50%, -50%); border:5px solid black"">","","","","","","","",""
"","978.6849999800324","sequential-stimulus-presentation-old","27","129030","0.0-11.0-1.3","SS1618366014867","trial","","40","500","1478.6849999800324","images/stimuli/spore_stims/simple_14_A_a.gif","images/stimuli/spore_stims/simple_11_A_b.gif","self_paced","","1","simple_dissimilar","images/stimuli/spore_stims/simple_11_A_b.gif","","","","",""
"","null","html-keyboard-response","28","130179","0.0-11.0-0.4","SS1618366014867","","","null","","","","","","<p><img src= images/blank.png width =""600"" height = ""600"" style=""position:fixed;top:50%; left:50%; transform: translate(-50%, -50%); border:5px solid black"">","","","","","","","",""
"","1216.8449999880977","sequential-stimulus-presentation-old","29","131907","0.0-11.0-1.4","SS1618366014867","trial","","40","500","1716.8449999880977","images/stimuli/spore_stims/simple_14_A_a.gif","images/stimuli/spore_stims/simple_11_A_b.gif","self_paced","","1","simple_dissimilar","images/stimuli/spore_stims/simple_14_A_a.gif","","","","",""
"","null","html-keyboard-response","30","133118","0.0-11.0-0.5","SS1618366014867","","","null","","","","","","<p><img src= images/blank.png width =""600"" height = ""600"" style=""position:fixed;top:50%; left:50%; transform: translate(-50%, -50%); border:5px solid black"">","","","","","","","",""
"","986.9449999532662","sequential-stimulus-presentation-old","31","134620","0.0-11.0-1.5","SS1618366014867","trial","","40","500","1486.9449999532662","images/stimuli/spore_stims/simple_14_A_a.gif","images/stimuli/spore_stims/simple_11_A_b.gif","self_paced","","1","simple_dissimilar","images/stimuli/spore_stims/simple_14_A_a.gif","","","","",""
"","1763.1050000200048","survey-multi-choice","32","136391","0.0-12.0","SS1618366014867","math_question","","","","","","","","","","","","{""Q0"":""7""}","[0]","7","",""
"","null","html-keyboard-response","33","137469","0.0-13.0-0.0","SS1618366014867","","","null","","","","","","<p><img src= images/blank.png width =""600"" height = ""600"" style=""position:fixed;top:50%; left:50%; transform: translate(-50%, -50%); border:5px solid black"">","","","","","","","",""
"","446.1800000281073","sequential-stimulus-presentation-old","34","142934","0.0-13.0-1.0","SS1618366014867","trial","","40","500","946.1800000281073","images/stimuli/spore_stims/complex_03_A_a.gif","images/stimuli/spore_stims/complex_08_A_b.gif","forced_long","","2","complex_dissimilar","images/stimuli/spore_stims/complex_08_A_b.gif","","","","",""
"","null","html-keyboard-response","35","143789","0.0-13.0-0.1","SS1618366014867","","","null","","","","","","<p><img src= images/blank.png width =""600"" height = ""600"" style=""position:fixed;top:50%; left:50%; transform: translate(-50%, -50%); border:5px solid black"">","","","","","","","",""
"","6620.920000015758","sequential-stimulus-presentation-old","36","150925","0.0-13.0-1.1","SS1618366014867","trial","","40","500","7120.920000015758","images/stimuli/spore_stims/complex_03_A_a.gif","images/stimuli/spore_stims/complex_08_A_b.gif","forced_long","","2","complex_dissimilar","images/stimuli/spore_stims/complex_03_A_a.gif","","","","",""
"","null","html-keyboard-response","37","151921","0.0-13.0-0.2","SS1618366014867","","","null","","","","","","<p><img src= images/blank.png width =""600"" height = ""600"" style=""position:fixed;top:50%; left:50%; transform: translate(-50%, -50%); border:5px solid black"">","","","","","","","",""
"","9100.380000018049","sequential-stimulus-presentation-old","38","161532","0.0-13.0-1.2","SS1618366014867","trial","","40","500","9600.380000018049","images/stimuli/spore_stims/complex_03_A_a.gif","images/stimuli/spore_stims/complex_08_A_b.gif","forced_long","","2","complex_dissimilar","images/stimuli/spore_stims/complex_03_A_a.gif","","","","",""
"","null","html-keyboard-response","39","162747","0.0-13.0-0.3","SS1618366014867","","","null","","","","","","<p><img src= images/blank.png width =""600"" height = ""600"" style=""position:fixed;top:50%; left:50%; transform: translate(-50%, -50%); border:5px solid black"">","","","","","","","",""
"","13064.700000046287","sequential-stimulus-presentation-old","40","176330","0.0-13.0-1.3","SS1618366014867","trial","","40","500","13564.700000046287","images/stimuli/spore_stims/complex_03_A_a.gif","images/stimuli/spore_stims/complex_08_A_b.gif","forced_long","","2","complex_dissimilar","images/stimuli/spore_stims/complex_08_A_b.gif","","","","",""
"","null","html-keyboard-response","41","177518","0.0-13.0-0.4","SS1618366014867","","","null","","","","","","<p><img src= images/blank.png width =""600"" height = ""600"" style=""position:fixed;top:50%; left:50%; transform: translate(-50%, -50%); border:5px solid black"">","","","","","","","",""
"","75.79999999143183","sequential-stimulus-presentation-old","42","178103","0.0-13.0-1.4","SS1618366014867","trial","","40","500","575.7999999914318","images/stimuli/spore_stims/complex_03_A_a.gif","images/stimuli/spore_stims/complex_08_A_b.gif","forced_long","","2","complex_dissimilar","images/stimuli/spore_stims/complex_08_A_b.gif","","","","",""
"","null","html-keyboard-response","43","179021","0.0-13.0-0.5","SS1618366014867","","","null","","","","","","<p><img src= images/blank.png width =""600"" height = ""600"" style=""position:fixed;top:50%; left:50%; transform: translate(-50%, -50%); border:5px solid black"">","","","","","","","",""
"","104.55499996896833","sequential-stimulus-presentation-old","44","179636","0.0-13.0-1.5","SS1618366014867","trial","","40","500","604.5549999689683","images/stimuli/spore_stims/complex_03_A_a.gif","images/stimuli/spore_stims/complex_08_A_b.gif","forced_long","","2","complex_dissimilar","images/stimuli/spore_stims/complex_08_A_b.gif","","","","",""
"","3713.8149999664165","survey-multi-choice","45","183358","0.0-14.0","SS1618366014867","math_question","","","","","","","","","","","","{""Q0"":""14""}","[0]","14","",""
"","null","html-keyboard-response","46","184605","0.0-15.0-0.0","SS1618366014867","","","null","","","","","","<p><img src= images/blank.png width =""600"" height = ""600"" style=""position:fixed;top:50%; left:50%; transform: translate(-50%, -50%); border:5px solid black"">","","","","","","","",""
"","1500.0449999934062","sequential-stimulus-presentation-old","47","186171","0.0-15.0-1.0","SS1618366014867","trial","","40","500","2000.0449999934062","images/stimuli/spore_stims/simple_09_A_a.gif","images/stimuli/spore_stims/simple_05_A_b.gif","forced_short","","3","simple_dissimilar","images/stimuli/spore_stims/simple_05_A_b.gif","","","","",""
"","null","html-keyboard-response","48","187078","0.0-15.0-0.1","SS1618366014867","","","null","","","","","","<p><img src= images/blank.png width =""600"" height = ""600"" style=""position:fixed;top:50%; left:50%; transform: translate(-50%, -50%); border:5px solid black"">","","","","","","","",""
"","658.5600000107661","sequential-stimulus-presentation-old","49","188247","0.0-15.0-1.1","SS1618366014867","trial","","40","500","1158.560000010766","images/stimuli/spore_stims/simple_09_A_a.gif","images/stimuli/spore_stims/simple_05_A_b.gif","forced_short","","3","simple_dissimilar","images/stimuli/spore_stims/simple_05_A_b.gif","","","","",""
"","null","html-keyboard-response","50","189320","0.0-15.0-0.2","SS1618366014867","","","null","","","","","","<p><img src= images/blank.png width =""600"" height = ""600"" style=""position:fixed;top:50%; left:50%; transform: translate(-50%, -50%); border:5px solid black"">","","","","","","","",""
"","86.4399999845773","sequential-stimulus-presentation-old","51","189921","0.0-15.0-1.2","SS1618366014867","trial","","40","500","586.4399999845773","images/stimuli/spore_stims/simple_09_A_a.gif","images/stimuli/spore_stims/simple_05_A_b.gif","forced_short","","3","simple_dissimilar","images/stimuli/spore_stims/simple_09_A_a.gif","","","","",""
"","null","html-keyboard-response","52","190869","0.0-15.0-0.3","SS1618366014867","","","null","","","","","","<p><img src= images/blank.png width =""600"" height = ""600"" style=""position:fixed;top:50%; left:50%; transform: translate(-50%, -50%); border:5px solid black"">","","","","","","","",""
"","683.1400000373833","sequential-stimulus-presentation-old","53","192071","0.0-15.0-1.3","SS1618366014867","trial","","40","500","1183.1400000373833","images/stimuli/spore_stims/simple_09_A_a.gif","images/stimuli/spore_stims/simple_05_A_b.gif","forced_short","","3","simple_dissimilar","images/stimuli/spore_stims/simple_05_A_b.gif","","","","",""
"","null","html-keyboard-response","54","193353","0.0-15.0-0.4","SS1618366014867","","","null","","","","","","<p><img src= images/blank.png width =""600"" height = ""600"" style=""position:fixed;top:50%; left:50%; transform: translate(-50%, -50%); border:5px solid black"">","","","","","","","",""
"","1013.8949999818578","sequential-stimulus-presentation-old","55","194877","0.0-15.0-1.4","SS1618366014867","trial","","40","500","1513.8949999818578","images/stimuli/spore_stims/simple_09_A_a.gif","images/stimuli/spore_stims/simple_05_A_b.gif","forced_short","","3","simple_dissimilar","images/stimuli/spore_stims/simple_05_A_b.gif","","","","",""
"","1648.914999968838","survey-multi-choice","56","196534","0.0-16.0","SS1618366014867","math_question","","","","","","","","","","","","{""Q0"":""6""}","[0]","6","",""
"","null","html-keyboard-response","57","197462","0.0-17.0-0.0","SS1618366014867","","","null","","","","","","<p><img src= images/blank.png width =""600"" height = ""600"" style=""position:fixed;top:50%; left:50%; transform: translate(-50%, -50%); border:5px solid black"">","","","","","","","",""
"","558.3350000088103","sequential-stimulus-presentation-old","58","198531","0.0-17.0-1.0","SS1618366014867","trial","","40","500","1058.3350000088103","images/stimuli/spore_stims/simple_08_A_a.gif","images/stimuli/spore_stims/simple_03_A_b.gif","self_paced","","4","simple_dissimilar","images/stimuli/spore_stims/simple_03_A_b.gif","","","","",""
"","null","html-keyboard-response","59","199547","0.0-17.0-0.1","SS1618366014867","","","null","","","","","","<p><img src= images/blank.png width =""600"" height = ""600"" style=""position:fixed;top:50%; left:50%; transform: translate(-50%, -50%); border:5px solid black"">","","","","","","","",""
"","914.8949999944307","sequential-stimulus-presentation-old","60","200979","0.0-17.0-1.1","SS1618366014867","trial","","40","500","1414.8949999944307","images/stimuli/spore_stims/simple_08_A_a.gif","images/stimuli/spore_stims/simple_03_A_b.gif","self_paced","","4","simple_dissimilar","images/stimuli/spore_stims/simple_03_A_b.gif","","","","",""
"","null","html-keyboard-response","61","201888","0.0-17.0-0.2","SS1618366014867","","","null","","","","","","<p><img src= images/blank.png width =""600"" height = ""600"" style=""position:fixed;top:50%; left:50%; transform: translate(-50%, -50%); border:5px solid black"">","","","","","","","",""
"","2377.4800000246614","sequential-stimulus-presentation-old","62","204777","0.0-17.0-1.2","SS1618366014867","trial","","40","500","2877.4800000246614","images/stimuli/spore_stims/simple_08_A_a.gif","images/stimuli/spore_stims/simple_03_A_b.gif","self_paced","","4","simple_dissimilar","images/stimuli/spore_stims/simple_08_A_a.gif","","","","",""
"","null","html-keyboard-response","63","205909","0.0-17.0-0.3","SS1618366014867","","","null","","","","","","<p><img src= images/blank.png width =""600"" height = ""600"" style=""position:fixed;top:50%; left:50%; transform: translate(-50%, -50%); border:5px solid black"">","","","","","","","",""
"","1270.2399999834597","sequential-stimulus-presentation-old","64","207690","0.0-17.0-1.3","SS1618366014867","trial","","40","500","1770.2399999834597","images/stimuli/spore_stims/simple_08_A_a.gif","images/stimuli/spore_stims/simple_03_A_b.gif","self_paced","","4","simple_dissimilar","images/stimuli/spore_stims/simple_03_A_b.gif","","","","",""
"","null","html-keyboard-response","65","208753","0.0-17.0-0.4","SS1618366014867","","","null","","","","","","<p><img src= images/blank.png width =""600"" height = ""600"" style=""position:fixed;top:50%; left:50%; transform: translate(-50%, -50%); border:5px solid black"">","","","","","","","",""
"","948.9799999864772","sequential-stimulus-presentation-old","66","210212","0.0-17.0-1.4","SS1618366014867","trial","","40","500","1448.9799999864772","images/stimuli/spore_stims/simple_08_A_a.gif","images/stimuli/spore_stims/simple_03_A_b.gif","self_paced","","4","simple_dissimilar","images/stimuli/spore_stims/simple_03_A_b.gif","","","","",""
"","2023.7799999886192","survey-multi-choice","67","212242","0.0-18.0","SS1618366014867","math_question","","","","","","","","","","","","{""Q0"":""8""}","[0]","8","",""
"","null","html-keyboard-response","68","213525","0.0-19.0-0.0","SS1618366014867","","","null","","","","","","<p><img src= images/blank.png width =""600"" height = ""600"" style=""position:fixed;top:50%; left:50%; transform: translate(-50%, -50%); border:5px solid black"">","","","","","","","",""
"","3280.029999965336","sequential-stimulus-presentation-old","69","216876","0.0-19.0-1.0","SS1618366014867","trial","","40","500","3780.029999965336","images/stimuli/spore_stims/complex_11_A_a.gif","images/stimuli/spore_stims/complex_16_A_b.gif","forced_short","","5","complex_dissimilar","images/stimuli/spore_stims/complex_16_A_b.gif","","","","",""
"","null","html-keyboard-response","70","217870","0.0-19.0-0.1","SS1618366014867","","","null","","","","","","<p><img src= images/blank.png width =""600"" height = ""600"" style=""position:fixed;top:50%; left:50%; transform: translate(-50%, -50%); border:5px solid black"">","","","","","","","",""
"","4671.229999978095","sequential-stimulus-presentation-old","71","223057","0.0-19.0-1.1","SS1618366014867","trial","","40","500","5171.229999978095","images/stimuli/spore_stims/complex_11_A_a.gif","images/stimuli/spore_stims/complex_16_A_b.gif","forced_short","","5","complex_dissimilar","images/stimuli/spore_stims/complex_16_A_b.gif","","","","",""
"","null","html-keyboard-response","72","224224","0.0-19.0-0.2","SS1618366014867","","","null","","","","","","<p><img src= images/blank.png width =""600"" height = ""600"" style=""position:fixed;top:50%; left:50%; transform: translate(-50%, -50%); border:5px solid black"">","","","","","","","",""
"","1633.3350000204518","sequential-stimulus-presentation-old","73","226370","0.0-19.0-1.2","SS1618366014867","trial","","40","500","2133.335000020452","images/stimuli/spore_stims/complex_11_A_a.gif","images/stimuli/spore_stims/complex_16_A_b.gif","forced_short","","5","complex_dissimilar","images/stimuli/spore_stims/complex_16_A_b.gif","","","","",""
"","null","html-keyboard-response","74","227218","0.0-19.0-0.3","SS1618366014867","","","null","","","","","","<p><img src= images/blank.png width =""600"" height = ""600"" style=""position:fixed;top:50%; left:50%; transform: translate(-50%, -50%); border:5px solid black"">","","","","","","","",""
"","1215.1900000171736","sequential-stimulus-presentation-old","75","228953","0.0-19.0-1.3","SS1618366014867","trial","","40","500","1715.1900000171736","images/stimuli/spore_stims/complex_11_A_a.gif","images/stimuli/spore_stims/complex_16_A_b.gif","forced_short","","5","complex_dissimilar","images/stimuli/spore_stims/complex_16_A_b.gif","","","","",""
"","null","html-keyboard-response","76","229869","0.0-19.0-0.4","SS1618366014867","","","null","","","","","","<p><img src= images/blank.png width =""600"" height = ""600"" style=""position:fixed;top:50%; left:50%; transform: translate(-50%, -50%); border:5px solid black"">","","","","","","","",""
"","570.049999980256","sequential-stimulus-presentation-old","77","230949","0.0-19.0-1.4","SS1618366014867","trial","","40","500","1070.049999980256","images/stimuli/spore_stims/complex_11_A_a.gif","images/stimuli/spore_stims/complex_16_A_b.gif","forced_short","","5","complex_dissimilar","images/stimuli/spore_stims/complex_16_A_b.gif","","","","",""
"","null","html-keyboard-response","78","231790","0.0-19.0-0.5","SS1618366014867","","","null","","","","","","<p><img src= images/blank.png width =""600"" height = ""600"" style=""position:fixed;top:50%; left:50%; transform: translate(-50%, -50%); border:5px solid black"">","","","","","","","",""
"","1668.4800000512041","sequential-stimulus-presentation-old","79","233973","0.0-19.0-1.5","SS1618366014867","trial","","40","500","2168.480000051204","images/stimuli/spore_stims/complex_11_A_a.gif","images/stimuli/spore_stims/complex_16_A_b.gif","forced_short","","5","complex_dissimilar","images/stimuli/spore_stims/complex_16_A_b.gif","","","","",""
"","1774.5650000288151","survey-multi-choice","80","235756","0.0-20.0","SS1618366014867","math_question","","","","","","","","","","","","{""Q0"":""8""}","[0]","8","",""
"","null","html-keyboard-response","81","236735","0.0-21.0-0.0","SS1618366014867","","","null","","","","","","<p><img src= images/blank.png width =""600"" height = ""600"" style=""position:fixed;top:50%; left:50%; transform: translate(-50%, -50%); border:5px solid black"">","","","","","","","",""
"","1769.8300000047311","sequential-stimulus-presentation-old","82","238572","0.0-21.0-1.0","SS1618366014867","trial","","40","500","2269.830000004731","images/stimuli/spore_stims/complex_11_A_b.gif","images/stimuli/spore_stims/complex_14_A_a.gif","forced_short","","6","complex_dissimilar","images/stimuli/spore_stims/complex_14_A_a.gif","","","","",""
"","null","html-keyboard-response","83","239769","0.0-21.0-0.1","SS1618366014867","","","null","","","","","","<p><img src= images/blank.png width =""600"" height = ""600"" style=""position:fixed;top:50%; left:50%; transform: translate(-50%, -50%); border:5px solid black"">","","","","","","","",""
"","1507.1849999949336","sequential-stimulus-presentation-old","84","241790","0.0-21.0-1.1","SS1618366014867","trial","","40","500","2007.1849999949336","images/stimuli/spore_stims/complex_11_A_b.gif","images/stimuli/spore_stims/complex_14_A_a.gif","forced_short","","6","complex_dissimilar","images/stimuli/spore_stims/complex_14_A_a.gif","","","","",""
"","null","html-keyboard-response","85","242671","0.0-21.0-0.2","SS1618366014867","","","null","","","","","","<p><img src= images/blank.png width =""600"" height = ""600"" style=""position:fixed;top:50%; left:50%; transform: translate(-50%, -50%); border:5px solid black"">","","","","","","","",""
"","1447.809999983292","sequential-stimulus-presentation-old","86","244634","0.0-21.0-1.2","SS1618366014867","trial","","40","500","1947.809999983292","images/stimuli/spore_stims/complex_11_A_b.gif","images/stimuli/spore_stims/complex_14_A_a.gif","forced_short","","6","complex_dissimilar","images/stimuli/spore_stims/complex_14_A_a.gif","","","","",""
"","null","html-keyboard-response","87","245886","0.0-21.0-0.3","SS1618366014867","","","null","","","","","","<p><img src= images/blank.png width =""600"" height = ""600"" style=""position:fixed;top:50%; left:50%; transform: translate(-50%, -50%); border:5px solid black"">","","","","","","","",""
"","1206.9250000058673","sequential-stimulus-presentation-old","88","247604","0.0-21.0-1.3","SS1618366014867","trial","","40","500","1706.9250000058673","images/stimuli/spore_stims/complex_11_A_b.gif","images/stimuli/spore_stims/complex_14_A_a.gif","forced_short","","6","complex_dissimilar","images/stimuli/spore_stims/complex_14_A_a.gif","","","","",""
"","1905.4400000022724","survey-multi-choice","89","249518","0.0-22.0","SS1618366014867","math_question","","","","","","","","","","","","{""Q0"":""4""}","[0]","4","",""
"","null","html-keyboard-response","90","250403","0.0-23.0-0.0","SS1618366014867","","","null","","","","","","<p><img src= images/blank.png width =""600"" height = ""600"" style=""position:fixed;top:50%; left:50%; transform: translate(-50%, -50%); border:5px solid black"">","","","","","","","",""
"","1118.0700000259094","sequential-stimulus-presentation-old","91","252037","0.0-23.0-1.0","SS1618366014867","trial","","40","500","1618.0700000259094","images/stimuli/spore_stims/complex_17_A_a.gif","images/stimuli/spore_stims/complex_20_A_b.gif","self_paced","","7","complex_dissimilar","images/stimuli/spore_stims/complex_20_A_b.gif","","","","",""
"","null","html-keyboard-response","92","252969","0.0-23.0-0.1","SS1618366014867","","","null","","","","","","<p><img src= images/blank.png width =""600"" height = ""600"" style=""position:fixed;top:50%; left:50%; transform: translate(-50%, -50%); border:5px solid black"">","","","","","","","",""
"","1890.5449999729171","sequential-stimulus-presentation-old","93","255377","0.0-23.0-1.1","SS1618366014867","trial","","40","500","2390.544999972917","images/stimuli/spore_stims/complex_17_A_a.gif","images/stimuli/spore_stims/complex_20_A_b.gif","self_paced","","7","complex_dissimilar","images/stimuli/spore_stims/complex_17_A_a.gif","","","","",""
"","null","html-keyboard-response","94","256347","0.0-23.0-0.2","SS1618366014867","","","null","","","","","","<p><img src= images/blank.png width =""600"" height = ""600"" style=""position:fixed;top:50%; left:50%; transform: translate(-50%, -50%); border:5px solid black"">","","","","","","","",""
"","5028.519999992568","sequential-stimulus-presentation-old","95","261893","0.0-23.0-1.2","SS1618366014867","trial","","40","500","5528.519999992568","images/stimuli/spore_stims/complex_17_A_a.gif","images/stimuli/spore_stims/complex_20_A_b.gif","self_paced","","7","complex_dissimilar","images/stimuli/spore_stims/complex_20_A_b.gif","","","","",""
"","null","html-keyboard-response","96","262816","0.0-23.0-0.3","SS1618366014867","","","null","","","","","","<p><img src= images/blank.png width =""600"" height = ""600"" style=""position:fixed;top:50%; left:50%; transform: translate(-50%, -50%); border:5px solid black"">","","","","","","","",""
"","812.694999971427","sequential-stimulus-presentation-old","97","264142","0.0-23.0-1.3","SS1618366014867","trial","","40","500","1312.694999971427","images/stimuli/spore_stims/complex_17_A_a.gif","images/stimuli/spore_stims/complex_20_A_b.gif","self_paced","","7","complex_dissimilar","images/stimuli/spore_stims/complex_20_A_b.gif","","","","",""
"","null","html-keyboard-response","98","265113","0.0-23.0-0.4","SS1618366014867","","","null","","","","","","<p><img src= images/blank.png width =""600"" height = ""600"" style=""position:fixed;top:50%; left:50%; transform: translate(-50%, -50%); border:5px solid black"">","","","","","","","",""
"","530.8950000326149","sequential-stimulus-presentation-old","99","266160","0.0-23.0-1.4","SS1618366014867","trial","","40","500","1030.895000032615","images/stimuli/spore_stims/complex_17_A_a.gif","images/stimuli/spore_stims/complex_20_A_b.gif","self_paced","","7","complex_dissimilar","images/stimuli/spore_stims/complex_20_A_b.gif","","","","",""
"","null","html-keyboard-response","100","267170","0.0-23.0-0.5","SS1618366014867","","","null","","","","","","<p><img src= images/blank.png width =""600"" height = ""600"" style=""position:fixed;top:50%; left:50%; transform: translate(-50%, -50%); border:5px solid black"">","","","","","","","",""
"","701.4649999910034","sequential-stimulus-presentation-old","101","268388","0.0-23.0-1.5","SS1618366014867","trial","","40","500","1201.4649999910034","images/stimuli/spore_stims/complex_17_A_a.gif","images/stimuli/spore_stims/complex_20_A_b.gif","self_paced","","7","complex_dissimilar","images/stimuli/spore_stims/complex_20_A_b.gif","","","","",""
"","3130.7200000155717","survey-multi-choice","102","271529","0.0-24.0","SS1618366014867","math_question","","","","","","","","","","","","{""Q0"":""14""}","[0]","14","",""
"","null","html-keyboard-response","103","272452","0.0-25.0-0.0","SS1618366014867","","","null","","","","","","<p><img src= images/blank.png width =""600"" height = ""600"" style=""position:fixed;top:50%; left:50%; transform: translate(-50%, -50%); border:5px solid black"">","","","","","","","",""
"","25.959999999031425","sequential-stimulus-presentation-old","104","277499","0.0-25.0-1.0","SS1618366014867","trial","","40","500","525.9599999990314","images/stimuli/spore_stims/simple_07_A_a.gif","images/stimuli/spore_stims/simple_04_A_b.gif","forced_long","","8","simple_dissimilar","images/stimuli/spore_stims/simple_04_A_b.gif","","","","",""
"","null","html-keyboard-response","105","278420","0.0-25.0-0.1","SS1618366014867","","","null","","","","","","<p><img src= images/blank.png width =""600"" height = ""600"" style=""position:fixed;top:50%; left:50%; transform: translate(-50%, -50%); border:5px solid black"">","","","","","","","",""
"","763.2299999822862","sequential-stimulus-presentation-old","106","279709","0.0-25.0-1.1","SS1618366014867","trial","","40","500","1263.2299999822862","images/stimuli/spore_stims/simple_07_A_a.gif","images/stimuli/spore_stims/simple_04_A_b.gif","forced_long","","8","simple_dissimilar","images/stimuli/spore_stims/simple_04_A_b.gif","","","","",""
"","null","html-keyboard-response","107","280852","0.0-25.0-0.2","SS1618366014867","","","null","","","","","","<p><img src= images/blank.png width =""600"" height = ""600"" style=""position:fixed;top:50%; left:50%; transform: translate(-50%, -50%); border:5px solid black"">","","","","","","","",""
"","906.8350000306964","sequential-stimulus-presentation-old","108","282275","0.0-25.0-1.2","SS1618366014867","trial","","40","500","1406.8350000306964","images/stimuli/spore_stims/simple_07_A_a.gif","images/stimuli/spore_stims/simple_04_A_b.gif","forced_long","","8","simple_dissimilar","images/stimuli/spore_stims/simple_04_A_b.gif","","","","",""
"","null","html-keyboard-response","109","283418","0.0-25.0-0.3","SS1618366014867","","","null","","","","","","<p><img src= images/blank.png width =""600"" height = ""600"" style=""position:fixed;top:50%; left:50%; transform: translate(-50%, -50%); border:5px solid black"">","","","","","","","",""
"","984.2449999996461","sequential-stimulus-presentation-old","110","284914","0.0-25.0-1.3","SS1618366014867","trial","","40","500","1484.244999999646","images/stimuli/spore_stims/simple_07_A_a.gif","images/stimuli/spore_stims/simple_04_A_b.gif","forced_long","","8","simple_dissimilar","images/stimuli/spore_stims/simple_07_A_a.gif","","","","",""
"","null","html-keyboard-response","111","286185","0.0-25.0-0.4","SS1618366014867","","","null","","","","","","<p><img src= images/blank.png width =""600"" height = ""600"" style=""position:fixed;top:50%; left:50%; transform: translate(-50%, -50%); border:5px solid black"">","","","","","","","",""
"","690.0499999755993","sequential-stimulus-presentation-old","112","287387","0.0-25.0-1.4","SS1618366014867","trial","","40","500","1190.0499999755993","images/stimuli/spore_stims/simple_07_A_a.gif","images/stimuli/spore_stims/simple_04_A_b.gif","forced_long","","8","simple_dissimilar","images/stimuli/spore_stims/simple_07_A_a.gif","","","","",""
"","3115.9950000001118","survey-multi-choice","113","290512","0.0-26.0","SS1618366014867","math_question","","","","","","","","","","","","{""Q0"":""6""}","[0]","6","",""
"","null","html-keyboard-response","114","291526","0.0-27.0-0.0","SS1618366014867","","","null","","","","","","<p><img src= images/blank.png width =""600"" height = ""600"" style=""position:fixed;top:50%; left:50%; transform: translate(-50%, -50%); border:5px solid black"">","","","","","","","",""
"","2948.33500002278","sequential-stimulus-presentation-old","115","294551","0.0-27.0-1.0","SS1618366014867","trial","","40","500","3448.33500002278","images/stimuli/spore_stims/simple_20_A_a.gif","images/stimuli/spore_stims/simple_12_A_b.gif","forced_short","","9","simple_dissimilar","images/stimuli/spore_stims/simple_12_A_b.gif","","","","",""
"","null","html-keyboard-response","116","295430","0.0-27.0-0.1","SS1618366014867","","","null","","","","","","<p><img src= images/blank.png width =""600"" height = ""600"" style=""position:fixed;top:50%; left:50%; transform: translate(-50%, -50%); border:5px solid black"">","","","","","","","",""
"","2152.4399999761954","sequential-stimulus-presentation-old","117","298100","0.0-27.0-1.1","SS1618366014867","trial","","40","500","2652.4399999761954","images/stimuli/spore_stims/simple_20_A_a.gif","images/stimuli/spore_stims/simple_12_A_b.gif","forced_short","","9","simple_dissimilar","images/stimuli/spore_stims/simple_20_A_a.gif","","","","",""
"","null","html-keyboard-response","118","299351","0.0-27.0-0.2","SS1618366014867","","","null","","","","","","<p><img src= images/blank.png width =""600"" height = ""600"" style=""position:fixed;top:50%; left:50%; transform: translate(-50%, -50%); border:5px solid black"">","","","","","","","",""
"","816.56499998644","sequential-stimulus-presentation-old","119","300685","0.0-27.0-1.2","SS1618366014867","trial","","40","500","1316.56499998644","images/stimuli/spore_stims/simple_20_A_a.gif","images/stimuli/spore_stims/simple_12_A_b.gif","forced_short","","9","simple_dissimilar","images/stimuli/spore_stims/simple_12_A_b.gif","","","","",""
"","null","html-keyboard-response","120","301603","0.0-27.0-0.3","SS1618366014867","","","null","","","","","","<p><img src= images/blank.png width =""600"" height = ""600"" style=""position:fixed;top:50%; left:50%; transform: translate(-50%, -50%); border:5px solid black"">","","","","","","","",""
"","1168.0800000322051","sequential-stimulus-presentation-old","121","303286","0.0-27.0-1.3","SS1618366014867","trial","","40","500","1668.0800000322051","images/stimuli/spore_stims/simple_20_A_a.gif","images/stimuli/spore_stims/simple_12_A_b.gif","forced_short","","9","simple_dissimilar","images/stimuli/spore_stims/simple_12_A_b.gif","","","","",""
"","null","html-keyboard-response","122","304334","0.0-27.0-0.4","SS1618366014867","","","null","","","","","","<p><img src= images/blank.png width =""600"" height = ""600"" style=""position:fixed;top:50%; left:50%; transform: translate(-50%, -50%); border:5px solid black"">","","","","","","","",""
"","1634.1649999958463","sequential-stimulus-presentation-old","123","306486","0.0-27.0-1.4","SS1618366014867","trial","","40","500","2134.1649999958463","images/stimuli/spore_stims/simple_20_A_a.gif","images/stimuli/spore_stims/simple_12_A_b.gif","forced_short","","9","simple_dissimilar","images/stimuli/spore_stims/simple_12_A_b.gif","","","","",""
"","null","html-keyboard-response","124","307669","0.0-27.0-0.5","SS1618366014867","","","null","","","","","","<p><img src= images/blank.png width =""600"" height = ""600"" style=""position:fixed;top:50%; left:50%; transform: translate(-50%, -50%); border:5px solid black"">","","","","","","","",""
"","2575.3099999856204","sequential-stimulus-presentation-old","125","310756","0.0-27.0-1.5","SS1618366014867","trial","","40","500","3075.3099999856204","images/stimuli/spore_stims/simple_20_A_a.gif","images/stimuli/spore_stims/simple_12_A_b.gif","forced_short","","9","simple_dissimilar","images/stimuli/spore_stims/simple_12_A_b.gif","","","","",""
"","1936.009999946691","survey-multi-choice","126","312703","0.0-28.0","SS1618366014867","math_question","","","","","","","","","","","","{""Q0"":""6""}","[0]","6","",""
"","null","html-keyboard-response","127","313915","0.0-29.0-0.0","SS1618366014867","","","null","","","","","","<p><img src= images/blank.png width =""600"" height = ""600"" style=""position:fixed;top:50%; left:50%; transform: translate(-50%, -50%); border:5px solid black"">","","","","","","","",""
"","1152.2000000113621","sequential-stimulus-presentation-old","128","320081","0.0-29.0-1.0","SS1618366014867","trial","","40","500","1652.2000000113621","images/stimuli/spore_stims/complex_18_A_a.gif","images/stimuli/spore_stims/complex_10_A_b.gif","forced_long","","10","complex_dissimilar","images/stimuli/spore_stims/complex_10_A_b.gif","","","","",""
"","null","html-keyboard-response","129","321318","0.0-29.0-0.1","SS1618366014867","","","null","","","","","","<p><img src= images/blank.png width =""600"" height = ""600"" style=""position:fixed;top:50%; left:50%; transform: translate(-50%, -50%); border:5px solid black"">","","","","","","","",""
"","3319.439999992028","sequential-stimulus-presentation-old","130","325154","0.0-29.0-1.1","SS1618366014867","trial","","40","500","3819.439999992028","images/stimuli/spore_stims/complex_18_A_a.gif","images/stimuli/spore_stims/complex_10_A_b.gif","forced_long","","10","complex_dissimilar","images/stimuli/spore_stims/complex_10_A_b.gif","","","","",""
"","null","html-keyboard-response","131","326352","0.0-29.0-0.2","SS1618366014867","","","null","","","","","","<p><img src= images/blank.png width =""600"" height = ""600"" style=""position:fixed;top:50%; left:50%; transform: translate(-50%, -50%); border:5px solid black"">","","","","","","","",""
"","1374.3300000205636","sequential-stimulus-presentation-old","132","328240","0.0-29.0-1.2","SS1618366014867","trial","","40","500","1874.3300000205636","images/stimuli/spore_stims/complex_18_A_a.gif","images/stimuli/spore_stims/complex_10_A_b.gif","forced_long","","10","complex_dissimilar","images/stimuli/spore_stims/complex_10_A_b.gif","","","","",""
"","null","html-keyboard-response","133","329466","0.0-29.0-0.3","SS1618366014867","","","null","","","","","","<p><img src= images/blank.png width =""600"" height = ""600"" style=""position:fixed;top:50%; left:50%; transform: translate(-50%, -50%); border:5px solid black"">","","","","","","","",""
"","718.3850000146776","sequential-stimulus-presentation-old","134","330704","0.0-29.0-1.3","SS1618366014867","trial","","40","500","1218.3850000146776","images/stimuli/spore_stims/complex_18_A_a.gif","images/stimuli/spore_stims/complex_10_A_b.gif","forced_long","","10","complex_dissimilar","images/stimuli/spore_stims/complex_10_A_b.gif","","","","",""
"","null","html-keyboard-response","135","331652","0.0-29.0-0.4","SS1618366014867","","","null","","","","","","<p><img src= images/blank.png width =""600"" height = ""600"" style=""position:fixed;top:50%; left:50%; transform: translate(-50%, -50%); border:5px solid black"">","","","","","","","",""
"","274.3250000057742","sequential-stimulus-presentation-old","136","332436","0.0-29.0-1.4","SS1618366014867","trial","","40","500","774.3250000057742","images/stimuli/spore_stims/complex_18_A_a.gif","images/stimuli/spore_stims/complex_10_A_b.gif","forced_long","","10","complex_dissimilar","images/stimuli/spore_stims/complex_18_A_a.gif","","","","",""
"","null","html-keyboard-response","137","333317","0.0-29.0-0.5","SS1618366014867","","","null","","","","","","<p><img src= images/blank.png width =""600"" height = ""600"" style=""position:fixed;top:50%; left:50%; transform: translate(-50%, -50%); border:5px solid black"">","","","","","","","",""
"","93.25499995611608","sequential-stimulus-presentation-old","138","333921","0.0-29.0-1.5","SS1618366014867","trial","","40","500","593.2549999561161","images/stimuli/spore_stims/complex_18_A_a.gif","images/stimuli/spore_stims/complex_10_A_b.gif","forced_long","","10","complex_dissimilar","images/stimuli/spore_stims/complex_18_A_a.gif","","","","",""
"","3069.015000015497","survey-multi-choice","139","336997","0.0-30.0","SS1618366014867","math_question","","","","","","","","","","","","{""Q0"":""14""}","[0]","14","",""
"","null","html-keyboard-response","140","338017","0.0-31.0-0.0","SS1618366014867","","","null","","","","","","<p><img src= images/blank.png width =""600"" height = ""600"" style=""position:fixed;top:50%; left:50%; transform: translate(-50%, -50%); border:5px solid black"">","","","","","","","",""
"","1989.2650000401773","sequential-stimulus-presentation-old","141","340522","0.0-31.0-1.0","SS1618366014867","trial","","40","500","2489.2650000401773","images/stimuli/spore_stims/complex_18_A_b.gif","images/stimuli/spore_stims/complex_06_A_a.gif","self_paced","","11","complex_dissimilar","images/stimuli/spore_stims/complex_06_A_a.gif","","","","",""
"","null","html-keyboard-response","142","341793","0.0-31.0-0.1","SS1618366014867","","","null","","","","","","<p><img src= images/blank.png width =""600"" height = ""600"" style=""position:fixed;top:50%; left:50%; transform: translate(-50%, -50%); border:5px solid black"">","","","","","","","",""
"","5774.779999977909","sequential-stimulus-presentation-old","143","348093","0.0-31.0-1.1","SS1618366014867","trial","","40","500","6274.779999977909","images/stimuli/spore_stims/complex_18_A_b.gif","images/stimuli/spore_stims/complex_06_A_a.gif","self_paced","","11","complex_dissimilar","images/stimuli/spore_stims/complex_18_A_b.gif","","","","",""
"","null","html-keyboard-response","144","349284","0.0-31.0-0.2","SS1618366014867","","","null","","","","","","<p><img src= images/blank.png width =""600"" height = ""600"" style=""position:fixed;top:50%; left:50%; transform: translate(-50%, -50%); border:5px solid black"">","","","","","","","",""
"","2501.304999983404","sequential-stimulus-presentation-old","145","352299","0.0-31.0-1.2","SS1618366014867","trial","","40","500","3001.304999983404","images/stimuli/spore_stims/complex_18_A_b.gif","images/stimuli/spore_stims/complex_06_A_a.gif","self_paced","","11","complex_dissimilar","images/stimuli/spore_stims/complex_06_A_a.gif","","","","",""
"","null","html-keyboard-response","146","353617","0.0-31.0-0.3","SS1618366014867","","","null","","","","","","<p><img src= images/blank.png width =""600"" height = ""600"" style=""position:fixed;top:50%; left:50%; transform: translate(-50%, -50%); border:5px solid black"">","","","","","","","",""
"","1347.08999999566","sequential-stimulus-presentation-old","147","355481","0.0-31.0-1.3","SS1618366014867","trial","","40","500","1847.08999999566","images/stimuli/spore_stims/complex_18_A_b.gif","images/stimuli/spore_stims/complex_06_A_a.gif","self_paced","","11","complex_dissimilar","images/stimuli/spore_stims/complex_06_A_a.gif","","","","",""
"","null","html-keyboard-response","148","356584","0.0-31.0-0.4","SS1618366014867","","","null","","","","","","<p><img src= images/blank.png width =""600"" height = ""600"" style=""position:fixed;top:50%; left:50%; transform: translate(-50%, -50%); border:5px solid black"">","","","","","","","",""
"","1389.2300000297837","sequential-stimulus-presentation-old","149","358492","0.0-31.0-1.4","SS1618366014867","trial","","40","500","1889.2300000297837","images/stimuli/spore_stims/complex_18_A_b.gif","images/stimuli/spore_stims/complex_06_A_a.gif","self_paced","","11","complex_dissimilar","images/stimuli/spore_stims/complex_06_A_a.gif","","","","",""
"[{""page_index"":0,""viewing_time"":3398.6900000018068}]","3398.879999993369","instructions","150","361901","0.0-32.0","SS1618366014867","instructions","","","","","","","","","","","","","","","",""
"","5757.090000028256","survey-likert","151","367664","0.0-33.0","SS1618366014867","similarity_question","","","","","","","","","","","","{""Q0"":2}","[0]","","images/stimuli/spore_stims/complex_14_A_a.gif","images/stimuli/spore_stims/complex_11_A_b.gif"
"","6198.420000029728","survey-likert","152","373886","0.0-34.0","SS1618366014867","similarity_question","","","","","","","","","","","","{""Q0"":5}","[0]","","images/stimuli/spore_stims/simple_12_A_b.gif","images/stimuli/spore_stims/simple_20_A_a.gif"
"","3836.9600000442006","survey-likert","153","377746","0.0-35.0","SS1618366014867","similarity_question","","","","","","","","","","","","{""Q0"":1}","[0]","","images/stimuli/spore_stims/complex_16_A_b.gif","images/stimuli/spore_stims/complex_11_A_a.gif"
"","3685.185000009369","survey-likert","154","381457","0.0-36.0","SS1618366014867","similarity_question","","","","","","","","","","","","{""Q0"":4}","[0]","","images/stimuli/spore_stims/simple_13_A_a.gif","images/stimuli/spore_stims/simple_08_A_b.gif"
"","2838.8799999956973","survey-likert","155","384318","0.0-37.0","SS1618366014867","similarity_question","","","","","","","","","","","","{""Q0"":2}","[0]","","images/stimuli/spore_stims/simple_14_A_a.gif","images/stimuli/spore_stims/simple_11_A_b.gif"
"","3297.279999998864","survey-likert","156","387636","0.0-38.0","SS1618366014867","similarity_question","","","","","","","","","","","","{""Q0"":1}","[0]","","images/stimuli/spore_stims/complex_10_A_b.gif","images/stimuli/spore_stims/complex_18_A_a.gif"
"","4247.440000006463","survey-likert","157","391902","0.0-39.0","SS1618366014867","similarity_question","","","","","","","","","","","","{""Q0"":2}","[0]","","images/stimuli/spore_stims/simple_08_A_a.gif","images/stimuli/spore_stims/simple_03_A_b.gif"
"","2276.1049999971874","survey-likert","158","394186","0.0-40.0","SS1618366014867","similarity_question","","","","","","","","","","","","{""Q0"":0}","[0]","","images/stimuli/spore_stims/complex_20_A_b.gif","images/stimuli/spore_stims/complex_17_A_a.gif"
"","2650.634999969043","survey-likert","159","396844","0.0-41.0","SS1618366014867","similarity_question","","","","","","","","","","","","{""Q0"":0}","[0]","","images/stimuli/spore_stims/complex_06_A_a.gif","images/stimuli/spore_stims/complex_18_A_b.gif"
"","2672.3800000036135","survey-likert","160","399537","0.0-42.0","SS1618366014867","similarity_question","","","","","","","","","","","","{""Q0"":0}","[0]","","images/stimuli/spore_stims/complex_08_A_b.gif","images/stimuli/spore_stims/complex_03_A_a.gif"
"","3603.434999997262","survey-likert","161","403163","0.0-43.0","SS1618366014867","similarity_question","","","","","","","","","","","","{""Q0"":4}","[0]","","images/stimuli/spore_stims/simple_09_A_a.gif","images/stimuli/spore_stims/simple_05_A_b.gif"
"","3425.0450000399724","survey-likert","162","406609","0.0-44.0","SS1618366014867","similarity_question","","","","","","","","","","","","{""Q0"":0}","[0]","","images/stimuli/spore_stims/simple_07_A_a.gif","images/stimuli/spore_stims/simple_04_A_b.gif"
"[{""page_index"":0,""viewing_time"":3094.2999999970198}]","3094.6750000002794","instructions","163","409723","0.0-45.0","SS1618366014867","instructions","","","","","","","","","","","","","","","",""
"","3449.475000030361","survey-likert","164","413186","0.0-46.0","SS1618366014867","","","","","","","","","images/stimuli/spore_stims/complex_20_A_b.gif","","","","{""Q0"":6}","[0]","","",""
"","2013.970000029076","survey-likert","165","415218","0.0-47.0","SS1618366014867","","","","","","","","","images/stimuli/spore_stims/simple_14_A_a.gif","","","","{""Q0"":1}","[0]","","",""
"","1651.880000019446","survey-likert","166","416895","0.0-48.0","SS1618366014867","","","","","","","","","images/stimuli/spore_stims/simple_12_A_b.gif","","","","{""Q0"":1}","[0]","","",""
"","1504.9899999867193","survey-likert","167","418423","0.0-49.0","SS1618366014867","","","","","","","","","images/stimuli/spore_stims/complex_03_A_a.gif","","","","{""Q0"":6}","[0]","","",""
"","1795.8750000107102","survey-likert","168","420238","0.0-50.0","SS1618366014867","","","","","","","","","images/stimuli/spore_stims/complex_11_A_b.gif","","","","{""Q0"":5}","[0]","","",""
"","1620.9149999776855","survey-likert","169","421879","0.0-51.0","SS1618366014867","","","","","","","","","images/stimuli/spore_stims/complex_16_A_b.gif","","","","{""Q0"":6}","[0]","","",""
"","1870.56999997003","survey-likert","170","423774","0.0-52.0","SS1618366014867","","","","","","","","","images/stimuli/spore_stims/complex_10_A_b.gif","","","","{""Q0"":6}","[0]","","",""
"","1910.3549999999814","survey-likert","171","425703","0.0-53.0","SS1618366014867","","","","","","","","","images/stimuli/spore_stims/simple_13_A_a.gif","","","","{""Q0"":0}","[0]","","",""
"","1488.640000054147","survey-likert","172","427211","0.0-54.0","SS1618366014867","","","","","","","","","images/stimuli/spore_stims/simple_05_A_b.gif","","","","{""Q0"":0}","[0]","","",""
"","1431.3850000035018","survey-likert","173","428672","0.0-55.0","SS1618366014867","","","","","","","","","images/stimuli/spore_stims/complex_06_A_a.gif","","","","{""Q0"":6}","[0]","","",""
"","1846.6099999495782","survey-likert","174","430538","0.0-56.0","SS1618366014867","","","","","","","","","images/stimuli/spore_stims/simple_03_A_b.gif","","","","{""Q0"":1}","[0]","","",""
"","1654.2149999877438","survey-likert","175","432212","0.0-57.0","SS1618366014867","","","","","","","","","images/stimuli/spore_stims/simple_07_A_a.gif","","","","{""Q0"":0}","[0]","","",""
"[{""page_index"":0,""viewing_time"":1229.4350000447594}]","1230.0300000351854","instructions","176","433460","0.0-58.0","SS1618366014867","instructions","","","","","","","","","","","","","","","",""
"","1848.5999999684282","demog-age","177","435327","0.0-59.0","SS1618366014867","","","","","","","","","","","","","{""age"":""32""}","","","",""
"","4812.979999987874","demog-ethnic-US","178","440164","0.0-60.0","SS1618366014867","","","","","","","","","","","","","{""ethnicity"":[""White""]}","[0]","","",""
"","3129.6500000171363","demog-gender-and-education","179","443307","0.0-61.0","SS1618366014867","","","","","","","","","","","","","{""gender"":""Female"",""education"":""Bachelor's Degree""}","[0,1]","","",""
"","4054.584999976214","survey-text","180","447372","0.0-62.0","SS1618366014867","feedback","","","","","","","","","","","","{""Q0"":""No""}","","","",""
"[{""page_index"":0,""viewing_time"":1608.8099999469705}]","1609.2199999839067","instructions","181","448993","0.0-63.0","SS1618366014867","instructions","","","","","","","","","","","","","","","",""
