"view_history","rt","trial_type","trial_index","time_elapsed","internal_node_id","subject","stimulus_type","trial_stimulus","key_press","minimum_viewing_duration","trial_looking_time","block_deviant","block_background","exposure_type","stimulus","block_number","block_type","stimulus_displayed","responses","question_order","math_correct_answer","stimulus_left","stimulus_right"
"[{""page_index"":0,""viewing_time"":2888.745000000199}]","2889.2050000013114","instructions","0","2890","0.0-0.0","SS1618435639017","","","","","","","","","","","","","","","","",""
"[{""page_index"":0,""viewing_time"":4091.325000001234},{""page_index"":1,""viewing_time"":13189.924999998766}]","17281.475000001592","instructions","1","22184","0.0-1.0","SS1618435639017","instructions","","","","","","","","","","","","","","","",""
"","11152.444999999716","sequential-stimulus-presentation-old","2","33840","0.0-2.0","SS1618435639017","","","40","500","11652.444999999716","null","null","self_paced","","","","","","","","",""
"","4203.680000000531","sequential-stimulus-presentation-old","3","38551","0.0-3.0","SS1618435639017","","","40","500","4703.680000000531","null","null","self_paced","","","","","","","","",""
"[{""page_index"":0,""viewing_time"":3224.3450000005396}]","3224.529999999504","instructions","4","41777","0.0-4.0","SS1618435639017","instructions","","","","","","","","","","","","","","","",""
"","3124.680000000808","sequential-stimulus-presentation-old","5","49904","0.0-5.0","SS1618435639017","","","40","500","3624.680000000808","null","null","forced_long","","","","","","","","",""
"","6667.379999998957","sequential-stimulus-presentation-old","6","56623","0.0-6.0","SS1618435639017","","","40","50","6717.379999998957","null","null","forced_long","","","","","","","","",""
"[{""page_index"":0,""viewing_time"":11142.249999998967}]","11142.479999998613","instructions","7","67767","0.0-7.0","SS1618435639017","instructions","","","","","","","","","","","","","","","",""
"[{""page_index"":0,""viewing_time"":2924.945000000662},{""page_index"":1,""viewing_time"":2405.9550000001764},{""page_index"":2,""viewing_time"":888.2549999998446},{""page_index"":3,""viewing_time"":1577.81999999861},{""page_index"":4,""viewing_time"":2007.965000000695}]","9805.125000000771","instructions","8","77573","0.0-8.0","SS1618435639017","instructions","","","","","","","","","","","","","","","",""
"","null","html-keyboard-response","9","78753","0.0-9.0-0.0","SS1618435639017","","","null","","","","","","<p><img src= images/blank.png width =""600"" height = ""600"" style=""position:fixed;top:50%; left:50%; transform: translate(-50%, -50%); border:5px solid black"">","","","","","","","",""
"","1919.8749999995925","sequential-stimulus-presentation-old","10","80728","0.0-9.0-1.0","SS1618435639017","trial","","40","500","2419.8749999995925","images/stimuli/spore_stims/simple_09_A_a.gif","images/stimuli/spore_stims/simple_03_A_b.gif","forced_short","","0","simple_dissimilar","images/stimuli/spore_stims/simple_03_A_b.gif","","","","",""
"","null","html-keyboard-response","11","81656","0.0-9.0-0.1","SS1618435639017","","","null","","","","","","<p><img src= images/blank.png width =""600"" height = ""600"" style=""position:fixed;top:50%; left:50%; transform: translate(-50%, -50%); border:5px solid black"">","","","","","","","",""
"","4359.660000000076","sequential-stimulus-presentation-old","12","86519","0.0-9.0-1.1","SS1618435639017","trial","","40","500","4859.660000000076","images/stimuli/spore_stims/simple_09_A_a.gif","images/stimuli/spore_stims/simple_03_A_b.gif","forced_short","","0","simple_dissimilar","images/stimuli/spore_stims/simple_03_A_b.gif","","","","",""
"","null","html-keyboard-response","13","87830","0.0-9.0-0.2","SS1618435639017","","","null","","","","","","<p><img src= images/blank.png width =""600"" height = ""600"" style=""position:fixed;top:50%; left:50%; transform: translate(-50%, -50%); border:5px solid black"">","","","","","","","",""
"","29370.834999999715","sequential-stimulus-presentation-old","14","117704","0.0-9.0-1.2","SS1618435639017","trial","","40","500","29870.834999999715","images/stimuli/spore_stims/simple_09_A_a.gif","images/stimuli/spore_stims/simple_03_A_b.gif","forced_short","","0","simple_dissimilar","images/stimuli/spore_stims/simple_09_A_a.gif","","","","",""
"","null","html-keyboard-response","15","118782","0.0-9.0-0.3","SS1618435639017","","","null","","","","","","<p><img src= images/blank.png width =""600"" height = ""600"" style=""position:fixed;top:50%; left:50%; transform: translate(-50%, -50%); border:5px solid black"">","","","","","","","",""
"","5946.579999999813","sequential-stimulus-presentation-old","16","125232","0.0-9.0-1.3","SS1618435639017","trial","","40","500","6446.579999999813","images/stimuli/spore_stims/simple_09_A_a.gif","images/stimuli/spore_stims/simple_03_A_b.gif","forced_short","","0","simple_dissimilar","images/stimuli/spore_stims/simple_03_A_b.gif","","","","",""
"","null","html-keyboard-response","17","126190","0.0-9.0-0.4","SS1618435639017","","","null","","","","","","<p><img src= images/blank.png width =""600"" height = ""600"" style=""position:fixed;top:50%; left:50%; transform: translate(-50%, -50%); border:5px solid black"">","","","","","","","",""
"","4807.414999999339","sequential-stimulus-presentation-old","18","131512","0.0-9.0-1.4","SS1618435639017","trial","","40","500","5307.414999999339","images/stimuli/spore_stims/simple_09_A_a.gif","images/stimuli/spore_stims/simple_03_A_b.gif","forced_short","","0","simple_dissimilar","images/stimuli/spore_stims/simple_03_A_b.gif","","","","",""
"","16984.46499999956","survey-multi-choice","19","148501","0.0-10.0","SS1618435639017","math_question","","","","","","","","","","","","{""Q0"":""14""}","[0]","14","",""
"","null","html-keyboard-response","20","149430","0.0-11.0-0.0","SS1618435639017","","","null","","","","","","<p><img src= images/blank.png width =""600"" height = ""600"" style=""position:fixed;top:50%; left:50%; transform: translate(-50%, -50%); border:5px solid black"">","","","","","","","",""
"","8437.254999998928","sequential-stimulus-presentation-old","21","162871","0.0-11.0-1.0","SS1618435639017","trial","","40","500","8937.254999998928","images/stimuli/spore_stims/complex_02_A_a.gif","images/stimuli/spore_stims/complex_07_A_b.gif","forced_long","","1","complex_dissimilar","images/stimuli/spore_stims/complex_07_A_b.gif","","","","",""
"","null","html-keyboard-response","22","163998","0.0-11.0-0.1","SS1618435639017","","","null","","","","","","<p><img src= images/blank.png width =""600"" height = ""600"" style=""position:fixed;top:50%; left:50%; transform: translate(-50%, -50%); border:5px solid black"">","","","","","","","",""
"","13794.035000000818","sequential-stimulus-presentation-old","23","178296","0.0-11.0-1.1","SS1618435639017","trial","","40","500","14294.035000000818","images/stimuli/spore_stims/complex_02_A_a.gif","images/stimuli/spore_stims/complex_07_A_b.gif","forced_long","","1","complex_dissimilar","images/stimuli/spore_stims/complex_02_A_a.gif","","","","",""
"","null","html-keyboard-response","24","179183","0.0-11.0-0.2","SS1618435639017","","","null","","","","","","<p><img src= images/blank.png width =""600"" height = ""600"" style=""position:fixed;top:50%; left:50%; transform: translate(-50%, -50%); border:5px solid black"">","","","","","","","",""
"","5094.719999999128","sequential-stimulus-presentation-old","25","184784","0.0-11.0-1.2","SS1618435639017","trial","","40","500","5594.719999999128","images/stimuli/spore_stims/complex_02_A_a.gif","images/stimuli/spore_stims/complex_07_A_b.gif","forced_long","","1","complex_dissimilar","images/stimuli/spore_stims/complex_07_A_b.gif","","","","",""
"","null","html-keyboard-response","26","185769","0.0-11.0-0.3","SS1618435639017","","","null","","","","","","<p><img src= images/blank.png width =""600"" height = ""600"" style=""position:fixed;top:50%; left:50%; transform: translate(-50%, -50%); border:5px solid black"">","","","","","","","",""
"","2685.170000000653","sequential-stimulus-presentation-old","27","188961","0.0-11.0-1.3","SS1618435639017","trial","","40","500","3185.170000000653","images/stimuli/spore_stims/complex_02_A_a.gif","images/stimuli/spore_stims/complex_07_A_b.gif","forced_long","","1","complex_dissimilar","images/stimuli/spore_stims/complex_07_A_b.gif","","","","",""
"","5833.690000001312","survey-multi-choice","28","194798","0.0-12.0","SS1618435639017","math_question","","","","","","","","","","","","{""Q0"":""7""}","[0]","7","",""
"","null","html-keyboard-response","29","195700","0.0-13.0-0.0","SS1618435639017","","","null","","","","","","<p><img src= images/blank.png width =""600"" height = ""600"" style=""position:fixed;top:50%; left:50%; transform: translate(-50%, -50%); border:5px solid black"">","","","","","","","",""
"","444.934999999532","sequential-stimulus-presentation-old","30","196648","0.0-13.0-1.0","SS1618435639017","trial","","40","500","944.934999999532","images/stimuli/spore_stims/complex_02_A_b.gif","images/stimuli/spore_stims/complex_17_A_a.gif","self_paced","","2","complex_dissimilar","images/stimuli/spore_stims/complex_17_A_a.gif","","","","",""
"","null","html-keyboard-response","31","197836","0.0-13.0-0.1","SS1618435639017","","","null","","","","","","<p><img src= images/blank.png width =""600"" height = ""600"" style=""position:fixed;top:50%; left:50%; transform: translate(-50%, -50%); border:5px solid black"">","","","","","","","",""
"","144.68999999918742","sequential-stimulus-presentation-old","32","198495","0.0-13.0-1.1","SS1618435639017","trial","","40","500","644.6899999991874","images/stimuli/spore_stims/complex_02_A_b.gif","images/stimuli/spore_stims/complex_17_A_a.gif","self_paced","","2","complex_dissimilar","images/stimuli/spore_stims/complex_17_A_a.gif","","","","",""
"","null","html-keyboard-response","33","199424","0.0-13.0-0.2","SS1618435639017","","","null","","","","","","<p><img src= images/blank.png width =""600"" height = ""600"" style=""position:fixed;top:50%; left:50%; transform: translate(-50%, -50%); border:5px solid black"">","","","","","","","",""
"","240.78000000008615","sequential-stimulus-presentation-old","34","200167","0.0-13.0-1.2","SS1618435639017","trial","","40","500","740.7800000000861","images/stimuli/spore_stims/complex_02_A_b.gif","images/stimuli/spore_stims/complex_17_A_a.gif","self_paced","","2","complex_dissimilar","images/stimuli/spore_stims/complex_17_A_a.gif","","","","",""
"","null","html-keyboard-response","35","201423","0.0-13.0-0.3","SS1618435639017","","","null","","","","","","<p><img src= images/blank.png width =""600"" height = ""600"" style=""position:fixed;top:50%; left:50%; transform: translate(-50%, -50%); border:5px solid black"">","","","","","","","",""
"","232.95000000146683","sequential-stimulus-presentation-old","36","202160","0.0-13.0-1.3","SS1618435639017","trial","","40","500","732.9500000014668","images/stimuli/spore_stims/complex_02_A_b.gif","images/stimuli/spore_stims/complex_17_A_a.gif","self_paced","","2","complex_dissimilar","images/stimuli/spore_stims/complex_02_A_b.gif","","","","",""
"","null","html-keyboard-response","37","203132","0.0-13.0-0.4","SS1618435639017","","","null","","","","","","<p><img src= images/blank.png width =""600"" height = ""600"" style=""position:fixed;top:50%; left:50%; transform: translate(-50%, -50%); border:5px solid black"">","","","","","","","",""
"","315.98499999928754","sequential-stimulus-presentation-old","38","203951","0.0-13.0-1.4","SS1618435639017","trial","","40","500","815.9849999992875","images/stimuli/spore_stims/complex_02_A_b.gif","images/stimuli/spore_stims/complex_17_A_a.gif","self_paced","","2","complex_dissimilar","images/stimuli/spore_stims/complex_17_A_a.gif","","","","",""
"","null","html-keyboard-response","39","205193","0.0-13.0-0.5","SS1618435639017","","","null","","","","","","<p><img src= images/blank.png width =""600"" height = ""600"" style=""position:fixed;top:50%; left:50%; transform: translate(-50%, -50%); border:5px solid black"">","","","","","","","",""
"","334.59000000037486","sequential-stimulus-presentation-old","40","206032","0.0-13.0-1.5","SS1618435639017","trial","","40","500","834.5900000003749","images/stimuli/spore_stims/complex_02_A_b.gif","images/stimuli/spore_stims/complex_17_A_a.gif","self_paced","","2","complex_dissimilar","images/stimuli/spore_stims/complex_02_A_b.gif","","","","",""
"","5211.585000000923","survey-multi-choice","41","211246","0.0-14.0","SS1618435639017","math_question","","","","","","","","","","","","{""Q0"":""13""}","[0]","13","",""
"","null","html-keyboard-response","42","212288","0.0-15.0-0.0","SS1618435639017","","","null","","","","","","<p><img src= images/blank.png width =""600"" height = ""600"" style=""position:fixed;top:50%; left:50%; transform: translate(-50%, -50%); border:5px solid black"">","","","","","","","",""
"","97.78499999994528","sequential-stimulus-presentation-old","43","212904","0.0-15.0-1.0","SS1618435639017","trial","","40","500","597.7849999999453","images/stimuli/spore_stims/simple_16_A_a.gif","images/stimuli/spore_stims/simple_08_A_b.gif","self_paced","","3","simple_dissimilar","images/stimuli/spore_stims/simple_08_A_b.gif","","","","",""
"","null","html-keyboard-response","44","214019","0.0-15.0-0.1","SS1618435639017","","","null","","","","","","<p><img src= images/blank.png width =""600"" height = ""600"" style=""position:fixed;top:50%; left:50%; transform: translate(-50%, -50%); border:5px solid black"">","","","","","","","",""
"","188.75499999918975","sequential-stimulus-presentation-old","45","214712","0.0-15.0-1.1","SS1618435639017","trial","","40","500","688.7549999991897","images/stimuli/spore_stims/simple_16_A_a.gif","images/stimuli/spore_stims/simple_08_A_b.gif","self_paced","","3","simple_dissimilar","images/stimuli/spore_stims/simple_08_A_b.gif","","","","",""
"","null","html-keyboard-response","46","215611","0.0-15.0-0.2","SS1618435639017","","","null","","","","","","<p><img src= images/blank.png width =""600"" height = ""600"" style=""position:fixed;top:50%; left:50%; transform: translate(-50%, -50%); border:5px solid black"">","","","","","","","",""
"","44.62000000057742","sequential-stimulus-presentation-old","47","216160","0.0-15.0-1.2","SS1618435639017","trial","","40","500","544.6200000005774","images/stimuli/spore_stims/simple_16_A_a.gif","images/stimuli/spore_stims/simple_08_A_b.gif","self_paced","","3","simple_dissimilar","images/stimuli/spore_stims/simple_08_A_b.gif","","","","",""
"","null","html-keyboard-response","48","217451","0.0-15.0-0.3","SS1618435639017","","","null","","","","","","<p><img src= images/blank.png width =""600"" height = ""600"" style=""position:fixed;top:50%; left:50%; transform: translate(-50%, -50%); border:5px solid black"">","","","","","","","",""
"","20.620000001159497","sequential-stimulus-presentation-old","49","217976","0.0-15.0-1.3","SS1618435639017","trial","","40","500","520.6200000011595","images/stimuli/spore_stims/simple_16_A_a.gif","images/stimuli/spore_stims/simple_08_A_b.gif","self_paced","","3","simple_dissimilar","images/stimuli/spore_stims/simple_16_A_a.gif","","","","",""
"","null","html-keyboard-response","50","219282","0.0-15.0-0.4","SS1618435639017","","","null","","","","","","<p><img src= images/blank.png width =""600"" height = ""600"" style=""position:fixed;top:50%; left:50%; transform: translate(-50%, -50%); border:5px solid black"">","","","","","","","",""
"","334.89999999984866","sequential-stimulus-presentation-old","51","220120","0.0-15.0-1.4","SS1618435639017","trial","","40","500","834.8999999998487","images/stimuli/spore_stims/simple_16_A_a.gif","images/stimuli/spore_stims/simple_08_A_b.gif","self_paced","","3","simple_dissimilar","images/stimuli/spore_stims/simple_16_A_a.gif","","","","",""
"","4176.91000000012","survey-multi-choice","52","224299","0.0-16.0","SS1618435639017","math_question","","","","","","","","","","","","{""Q0"":""5""}","[0]","5","",""
"","null","html-keyboard-response","53","225173","0.0-17.0-0.0","SS1618435639017","","","null","","","","","","<p><img src= images/blank.png width =""600"" height = ""600"" style=""position:fixed;top:50%; left:50%; transform: translate(-50%, -50%); border:5px solid black"">","","","","","","","",""
"","53.16000000128406","sequential-stimulus-presentation-old","54","230231","0.0-17.0-1.0","SS1618435639017","trial","","40","500","553.1600000012841","images/stimuli/spore_stims/complex_12_A_b.gif","images/stimuli/spore_stims/complex_05_A_a.gif","forced_long","","4","complex_dissimilar","images/stimuli/spore_stims/complex_05_A_a.gif","","","","",""
"","null","html-keyboard-response","55","231147","0.0-17.0-0.1","SS1618435639017","","","null","","","","","","<p><img src= images/blank.png width =""600"" height = ""600"" style=""position:fixed;top:50%; left:50%; transform: translate(-50%, -50%); border:5px solid black"">","","","","","","","",""
"","44.31999999904656","sequential-stimulus-presentation-old","56","231696","0.0-17.0-1.1","SS1618435639017","trial","","40","500","544.3199999990466","images/stimuli/spore_stims/complex_12_A_b.gif","images/stimuli/spore_stims/complex_05_A_a.gif","forced_long","","4","complex_dissimilar","images/stimuli/spore_stims/complex_05_A_a.gif","","","","",""
"","null","html-keyboard-response","57","232674","0.0-17.0-0.2","SS1618435639017","","","null","","","","","","<p><img src= images/blank.png width =""600"" height = ""600"" style=""position:fixed;top:50%; left:50%; transform: translate(-50%, -50%); border:5px solid black"">","","","","","","","",""
"","333.8100000001141","sequential-stimulus-presentation-old","58","233512","0.0-17.0-1.2","SS1618435639017","trial","","40","500","833.8100000001141","images/stimuli/spore_stims/complex_12_A_b.gif","images/stimuli/spore_stims/complex_05_A_a.gif","forced_long","","4","complex_dissimilar","images/stimuli/spore_stims/complex_12_A_b.gif","","","","",""
"","null","html-keyboard-response","59","234633","0.0-17.0-0.3","SS1618435639017","","","null","","","","","","<p><img src= images/blank.png width =""600"" height = ""600"" style=""position:fixed;top:50%; left:50%; transform: translate(-50%, -50%); border:5px solid black"">","","","","","","","",""
"","12.559999999240972","sequential-stimulus-presentation-old","60","235160","0.0-17.0-1.3","SS1618435639017","trial","","40","500","512.559999999241","images/stimuli/spore_stims/complex_12_A_b.gif","images/stimuli/spore_stims/complex_05_A_a.gif","forced_long","","4","complex_dissimilar","images/stimuli/spore_stims/complex_12_A_b.gif","","","","",""
"","null","html-keyboard-response","61","236046","0.0-17.0-0.4","SS1618435639017","","","null","","","","","","<p><img src= images/blank.png width =""600"" height = ""600"" style=""position:fixed;top:50%; left:50%; transform: translate(-50%, -50%); border:5px solid black"">","","","","","","","",""
"","35605.319999998785","sequential-stimulus-presentation-old","62","272166","0.0-17.0-1.4","SS1618435639017","trial","","40","500","36105.319999998785","images/stimuli/spore_stims/complex_12_A_b.gif","images/stimuli/spore_stims/complex_05_A_a.gif","forced_long","","4","complex_dissimilar","images/stimuli/spore_stims/complex_05_A_a.gif","","","","",""
"","5280.629999999306","survey-multi-choice","63","277449","0.0-18.0","SS1618435639017","math_question","","","","","","","","","","","","{""Q0"":""13""}","[0]","13","",""
"","null","html-keyboard-response","64","279049","0.0-19.0-0.0","SS1618435639017","","","null","","","","","","<p><img src= images/blank.png width =""600"" height = ""600"" style=""position:fixed;top:50%; left:50%; transform: translate(-50%, -50%); border:5px solid black"">","","","","","","","",""
"","42128.85499999899","sequential-stimulus-presentation-old","65","322175","0.0-19.0-1.0","SS1618435639017","trial","","40","500","42628.85499999899","images/stimuli/spore_stims/complex_18_A_a.gif","images/stimuli/spore_stims/complex_10_A_b.gif","forced_short","","5","complex_dissimilar","images/stimuli/spore_stims/complex_10_A_b.gif","","","","",""
"","null","html-keyboard-response","66","323114","0.0-19.0-0.1","SS1618435639017","","","null","","","","","","<p><img src= images/blank.png width =""600"" height = ""600"" style=""position:fixed;top:50%; left:50%; transform: translate(-50%, -50%); border:5px solid black"">","","","","","","","",""
"","45.10000000114087","sequential-stimulus-presentation-old","67","323663","0.0-19.0-1.1","SS1618435639017","trial","","40","500","545.1000000011409","images/stimuli/spore_stims/complex_18_A_a.gif","images/stimuli/spore_stims/complex_10_A_b.gif","forced_short","","5","complex_dissimilar","images/stimuli/spore_stims/complex_10_A_b.gif","","","","",""
"","null","html-keyboard-response","68","324690","0.0-19.0-0.2","SS1618435639017","","","null","","","","","","<p><img src= images/blank.png width =""600"" height = ""600"" style=""position:fixed;top:50%; left:50%; transform: translate(-50%, -50%); border:5px solid black"">","","","","","","","",""
"","106.70500000019092","sequential-stimulus-presentation-old","69","325303","0.0-19.0-1.2","SS1618435639017","trial","","40","500","606.7050000001909","images/stimuli/spore_stims/complex_18_A_a.gif","images/stimuli/spore_stims/complex_10_A_b.gif","forced_short","","5","complex_dissimilar","images/stimuli/spore_stims/complex_10_A_b.gif","","","","",""
"","null","html-keyboard-response","70","326232","0.0-19.0-0.3","SS1618435639017","","","null","","","","","","<p><img src= images/blank.png width =""600"" height = ""600"" style=""position:fixed;top:50%; left:50%; transform: translate(-50%, -50%); border:5px solid black"">","","","","","","","",""
"","2062.9599999992643","sequential-stimulus-presentation-old","71","328799","0.0-19.0-1.3","SS1618435639017","trial","","40","500","2562.9599999992643","images/stimuli/spore_stims/complex_18_A_a.gif","images/stimuli/spore_stims/complex_10_A_b.gif","forced_short","","5","complex_dissimilar","images/stimuli/spore_stims/complex_10_A_b.gif","","","","",""
"","null","html-keyboard-response","72","329709","0.0-19.0-0.4","SS1618435639017","","","null","","","","","","<p><img src= images/blank.png width =""600"" height = ""600"" style=""position:fixed;top:50%; left:50%; transform: translate(-50%, -50%); border:5px solid black"">","","","","","","","",""
"","1150.3549999997485","sequential-stimulus-presentation-old","73","331374","0.0-19.0-1.4","SS1618435639017","trial","","40","500","1650.3549999997485","images/stimuli/spore_stims/complex_18_A_a.gif","images/stimuli/spore_stims/complex_10_A_b.gif","forced_short","","5","complex_dissimilar","images/stimuli/spore_stims/complex_10_A_b.gif","","","","",""
"","6475.110000001267","survey-multi-choice","74","337851","0.0-20.0","SS1618435639017","math_question","","","","","","","","","","","","{""Q0"":""2""}","[0]","2","",""
"","null","html-keyboard-response","75","339132","0.0-21.0-0.0","SS1618435639017","","","null","","","","","","<p><img src= images/blank.png width =""600"" height = ""600"" style=""position:fixed;top:50%; left:50%; transform: translate(-50%, -50%); border:5px solid black"">","","","","","","","",""
"","45.83500000083586","sequential-stimulus-presentation-old","76","344183","0.0-21.0-1.0","SS1618435639017","trial","","40","500","545.8350000008359","images/stimuli/spore_stims/simple_15_A_a.gif","images/stimuli/spore_stims/simple_01_A_b.gif","forced_long","","6","simple_dissimilar","images/stimuli/spore_stims/simple_01_A_b.gif","","","","",""
"","null","html-keyboard-response","77","345281","0.0-21.0-0.1","SS1618435639017","","","null","","","","","","<p><img src= images/blank.png width =""600"" height = ""600"" style=""position:fixed;top:50%; left:50%; transform: translate(-50%, -50%); border:5px solid black"">","","","","","","","",""
"","382.3100000008708","sequential-stimulus-presentation-old","78","346167","0.0-21.0-1.1","SS1618435639017","trial","","40","500","882.3100000008708","images/stimuli/spore_stims/simple_15_A_a.gif","images/stimuli/spore_stims/simple_01_A_b.gif","forced_long","","6","simple_dissimilar","images/stimuli/spore_stims/simple_01_A_b.gif","","","","",""
"","null","html-keyboard-response","79","347002","0.0-21.0-0.2","SS1618435639017","","","null","","","","","","<p><img src= images/blank.png width =""600"" height = ""600"" style=""position:fixed;top:50%; left:50%; transform: translate(-50%, -50%); border:5px solid black"">","","","","","","","",""
"","117.11999999900581","sequential-stimulus-presentation-old","80","347632","0.0-21.0-1.2","SS1618435639017","trial","","40","500","617.1199999990058","images/stimuli/spore_stims/simple_15_A_a.gif","images/stimuli/spore_stims/simple_01_A_b.gif","forced_long","","6","simple_dissimilar","images/stimuli/spore_stims/simple_01_A_b.gif","","","","",""
"","null","html-keyboard-response","81","348440","0.0-21.0-0.3","SS1618435639017","","","null","","","","","","<p><img src= images/blank.png width =""600"" height = ""600"" style=""position:fixed;top:50%; left:50%; transform: translate(-50%, -50%); border:5px solid black"">","","","","","","","",""
"","158.1850000002305","sequential-stimulus-presentation-old","82","349112","0.0-21.0-1.3","SS1618435639017","trial","","40","500","658.1850000002305","images/stimuli/spore_stims/simple_15_A_a.gif","images/stimuli/spore_stims/simple_01_A_b.gif","forced_long","","6","simple_dissimilar","images/stimuli/spore_stims/simple_01_A_b.gif","","","","",""
"","null","html-keyboard-response","83","350115","0.0-21.0-0.4","SS1618435639017","","","null","","","","","","<p><img src= images/blank.png width =""600"" height = ""600"" style=""position:fixed;top:50%; left:50%; transform: translate(-50%, -50%); border:5px solid black"">","","","","","","","",""
"","187.75499999901513","sequential-stimulus-presentation-old","84","350807","0.0-21.0-1.4","SS1618435639017","trial","","40","500","687.7549999990151","images/stimuli/spore_stims/simple_15_A_a.gif","images/stimuli/spore_stims/simple_01_A_b.gif","forced_long","","6","simple_dissimilar","images/stimuli/spore_stims/simple_15_A_a.gif","","","","",""
"","5831.2249999999185","survey-multi-choice","85","356642","0.0-22.0","SS1618435639017","math_question","","","","","","","","","","","","{""Q0"":""17""}","[0]","17","",""
"","null","html-keyboard-response","86","357482","0.0-23.0-0.0","SS1618435639017","","","null","","","","","","<p><img src= images/blank.png width =""600"" height = ""600"" style=""position:fixed;top:50%; left:50%; transform: translate(-50%, -50%); border:5px solid black"">","","","","","","","",""
"","17807.930000000808","sequential-stimulus-presentation-old","87","375344","0.0-23.0-1.0","SS1618435639017","trial","","40","500","18307.930000000808","images/stimuli/spore_stims/complex_19_A_b.gif","images/stimuli/spore_stims/complex_12_A_a.gif","forced_short","","7","complex_dissimilar","images/stimuli/spore_stims/complex_12_A_a.gif","","","","",""
"","null","html-keyboard-response","88","376328","0.0-23.0-0.1","SS1618435639017","","","null","","","","","","<p><img src= images/blank.png width =""600"" height = ""600"" style=""position:fixed;top:50%; left:50%; transform: translate(-50%, -50%); border:5px solid black"">","","","","","","","",""
"","102.32499999983702","sequential-stimulus-presentation-old","89","376935","0.0-23.0-1.1","SS1618435639017","trial","","40","500","602.324999999837","images/stimuli/spore_stims/complex_19_A_b.gif","images/stimuli/spore_stims/complex_12_A_a.gif","forced_short","","7","complex_dissimilar","images/stimuli/spore_stims/complex_19_A_b.gif","","","","",""
"","null","html-keyboard-response","90","377932","0.0-23.0-0.2","SS1618435639017","","","null","","","","","","<p><img src= images/blank.png width =""600"" height = ""600"" style=""position:fixed;top:50%; left:50%; transform: translate(-50%, -50%); border:5px solid black"">","","","","","","","",""
"","919.7000000003609","sequential-stimulus-presentation-old","91","379368","0.0-23.0-1.2","SS1618435639017","trial","","40","500","1419.700000000361","images/stimuli/spore_stims/complex_19_A_b.gif","images/stimuli/spore_stims/complex_12_A_a.gif","forced_short","","7","complex_dissimilar","images/stimuli/spore_stims/complex_12_A_a.gif","","","","",""
"","null","html-keyboard-response","92","380494","0.0-23.0-0.3","SS1618435639017","","","null","","","","","","<p><img src= images/blank.png width =""600"" height = ""600"" style=""position:fixed;top:50%; left:50%; transform: translate(-50%, -50%); border:5px solid black"">","","","","","","","",""
"","232.6449999982142","sequential-stimulus-presentation-old","93","381232","0.0-23.0-1.3","SS1618435639017","trial","","40","500","732.6449999982142","images/stimuli/spore_stims/complex_19_A_b.gif","images/stimuli/spore_stims/complex_12_A_a.gif","forced_short","","7","complex_dissimilar","images/stimuli/spore_stims/complex_12_A_a.gif","","","","",""
"","null","html-keyboard-response","94","382189","0.0-23.0-0.4","SS1618435639017","","","null","","","","","","<p><img src= images/blank.png width =""600"" height = ""600"" style=""position:fixed;top:50%; left:50%; transform: translate(-50%, -50%); border:5px solid black"">","","","","","","","",""
"","665.65000000078","sequential-stimulus-presentation-old","95","383359","0.0-23.0-1.4","SS1618435639017","trial","","40","500","1165.65000000078","images/stimuli/spore_stims/complex_19_A_b.gif","images/stimuli/spore_stims/complex_12_A_a.gif","forced_short","","7","complex_dissimilar","images/stimuli/spore_stims/complex_19_A_b.gif","","","","",""
"","null","html-keyboard-response","96","384328","0.0-23.0-0.5","SS1618435639017","","","null","","","","","","<p><img src= images/blank.png width =""600"" height = ""600"" style=""position:fixed;top:50%; left:50%; transform: translate(-50%, -50%); border:5px solid black"">","","","","","","","",""
"","39.575000000651926","sequential-stimulus-presentation-old","97","384887","0.0-23.0-1.5","SS1618435639017","trial","","40","500","539.5750000006519","images/stimuli/spore_stims/complex_19_A_b.gif","images/stimuli/spore_stims/complex_12_A_a.gif","forced_short","","7","complex_dissimilar","images/stimuli/spore_stims/complex_12_A_a.gif","","","","",""
"","6354.86499999935","survey-multi-choice","98","391245","0.0-24.0","SS1618435639017","math_question","","","","","","","","","","","","{""Q0"":""11""}","[0]","11","",""
"","null","html-keyboard-response","99","392464","0.0-25.0-0.0","SS1618435639017","","","null","","","","","","<p><img src= images/blank.png width =""600"" height = ""600"" style=""position:fixed;top:50%; left:50%; transform: translate(-50%, -50%); border:5px solid black"">","","","","","","","",""
"","22.579999998910353","sequential-stimulus-presentation-old","100","397494","0.0-25.0-1.0","SS1618435639017","trial","","40","500","522.5799999989104","images/stimuli/spore_stims/simple_08_A_a.gif","images/stimuli/spore_stims/simple_12_A_b.gif","forced_long","","8","simple_dissimilar","images/stimuli/spore_stims/simple_12_A_b.gif","","","","",""
"","null","html-keyboard-response","101","398697","0.0-25.0-0.1","SS1618435639017","","","null","","","","","","<p><img src= images/blank.png width =""600"" height = ""600"" style=""position:fixed;top:50%; left:50%; transform: translate(-50%, -50%); border:5px solid black"">","","","","","","","",""
"","20.775000000896398","sequential-stimulus-presentation-old","102","399222","0.0-25.0-1.1","SS1618435639017","trial","","40","500","520.7750000008964","images/stimuli/spore_stims/simple_08_A_a.gif","images/stimuli/spore_stims/simple_12_A_b.gif","forced_long","","8","simple_dissimilar","images/stimuli/spore_stims/simple_12_A_b.gif","","","","",""
"","null","html-keyboard-response","103","400262","0.0-25.0-0.2","SS1618435639017","","","null","","","","","","<p><img src= images/blank.png width =""600"" height = ""600"" style=""position:fixed;top:50%; left:50%; transform: translate(-50%, -50%); border:5px solid black"">","","","","","","","",""
"","33.53499999869382","sequential-stimulus-presentation-old","104","400799","0.0-25.0-1.2","SS1618435639017","trial","","40","500","533.5349999986938","images/stimuli/spore_stims/simple_08_A_a.gif","images/stimuli/spore_stims/simple_12_A_b.gif","forced_long","","8","simple_dissimilar","images/stimuli/spore_stims/simple_12_A_b.gif","","","","",""
"","null","html-keyboard-response","105","402109","0.0-25.0-0.3","SS1618435639017","","","null","","","","","","<p><img src= images/blank.png width =""600"" height = ""600"" style=""position:fixed;top:50%; left:50%; transform: translate(-50%, -50%); border:5px solid black"">","","","","","","","",""
"","489.98500000016065","sequential-stimulus-presentation-old","106","403103","0.0-25.0-1.3","SS1618435639017","trial","","40","500","989.9850000001607","images/stimuli/spore_stims/simple_08_A_a.gif","images/stimuli/spore_stims/simple_12_A_b.gif","forced_long","","8","simple_dissimilar","images/stimuli/spore_stims/simple_12_A_b.gif","","","","",""
"","null","html-keyboard-response","107","403928","0.0-25.0-0.4","SS1618435639017","","","null","","","","","","<p><img src= images/blank.png width =""600"" height = ""600"" style=""position:fixed;top:50%; left:50%; transform: translate(-50%, -50%); border:5px solid black"">","","","","","","","",""
"","269.64500000030966","sequential-stimulus-presentation-old","108","404711","0.0-25.0-1.4","SS1618435639017","trial","","40","500","769.6450000003097","images/stimuli/spore_stims/simple_08_A_a.gif","images/stimuli/spore_stims/simple_12_A_b.gif","forced_long","","8","simple_dissimilar","images/stimuli/spore_stims/simple_08_A_a.gif","","","","",""
"","null","html-keyboard-response","109","405999","0.0-25.0-0.5","SS1618435639017","","","null","","","","","","<p><img src= images/blank.png width =""600"" height = ""600"" style=""position:fixed;top:50%; left:50%; transform: translate(-50%, -50%); border:5px solid black"">","","","","","","","",""
"","215.52500000147847","sequential-stimulus-presentation-old","110","406719","0.0-25.0-1.5","SS1618435639017","trial","","40","500","715.5250000014785","images/stimuli/spore_stims/simple_08_A_a.gif","images/stimuli/spore_stims/simple_12_A_b.gif","forced_long","","8","simple_dissimilar","images/stimuli/spore_stims/simple_12_A_b.gif","","","","",""
"","3840.0000000001746","survey-multi-choice","111","410563","0.0-26.0","SS1618435639017","math_question","","","","","","","","","","","","{""Q0"":""11""}","[0]","11","",""
"","null","html-keyboard-response","112","411547","0.0-27.0-0.0","SS1618435639017","","","null","","","","","","<p><img src= images/blank.png width =""600"" height = ""600"" style=""position:fixed;top:50%; left:50%; transform: translate(-50%, -50%); border:5px solid black"">","","","","","","","",""
"","877.6300000008196","sequential-stimulus-presentation-old","113","412487","0.0-27.0-1.0","SS1618435639017","trial","","40","500","1377.6300000008196","images/stimuli/spore_stims/simple_07_A_a.gif","images/stimuli/spore_stims/simple_06_A_b.gif","forced_short","","9","simple_dissimilar","images/stimuli/spore_stims/simple_06_A_b.gif","","","","",""
"","null","html-keyboard-response","114","413485","0.0-27.0-0.1","SS1618435639017","","","null","","","","","","<p><img src= images/blank.png width =""600"" height = ""600"" style=""position:fixed;top:50%; left:50%; transform: translate(-50%, -50%); border:5px solid black"">","","","","","","","",""
"","66.1300000010524","sequential-stimulus-presentation-old","115","414055","0.0-27.0-1.1","SS1618435639017","trial","","40","500","566.1300000010524","images/stimuli/spore_stims/simple_07_A_a.gif","images/stimuli/spore_stims/simple_06_A_b.gif","forced_short","","9","simple_dissimilar","images/stimuli/spore_stims/simple_06_A_b.gif","","","","",""
"","null","html-keyboard-response","116","414969","0.0-27.0-0.2","SS1618435639017","","","null","","","","","","<p><img src= images/blank.png width =""600"" height = ""600"" style=""position:fixed;top:50%; left:50%; transform: translate(-50%, -50%); border:5px solid black"">","","","","","","","",""
"","106.16999999911059","sequential-stimulus-presentation-old","117","415590","0.0-27.0-1.2","SS1618435639017","trial","","40","500","606.1699999991106","images/stimuli/spore_stims/simple_07_A_a.gif","images/stimuli/spore_stims/simple_06_A_b.gif","forced_short","","9","simple_dissimilar","images/stimuli/spore_stims/simple_06_A_b.gif","","","","",""
"","null","html-keyboard-response","118","416540","0.0-27.0-0.3","SS1618435639017","","","null","","","","","","<p><img src= images/blank.png width =""600"" height = ""600"" style=""position:fixed;top:50%; left:50%; transform: translate(-50%, -50%); border:5px solid black"">","","","","","","","",""
"","26.490000000223517","sequential-stimulus-presentation-old","119","417071","0.0-27.0-1.3","SS1618435639017","trial","","40","500","526.4900000002235","images/stimuli/spore_stims/simple_07_A_a.gif","images/stimuli/spore_stims/simple_06_A_b.gif","forced_short","","9","simple_dissimilar","images/stimuli/spore_stims/simple_06_A_b.gif","","","","",""
"","null","html-keyboard-response","120","418150","0.0-27.0-0.4","SS1618435639017","","","null","","","","","","<p><img src= images/blank.png width =""600"" height = ""600"" style=""position:fixed;top:50%; left:50%; transform: translate(-50%, -50%); border:5px solid black"">","","","","","","","",""
"","23.93499999929918","sequential-stimulus-presentation-old","121","418679","0.0-27.0-1.4","SS1618435639017","trial","","40","500","523.9349999992992","images/stimuli/spore_stims/simple_07_A_a.gif","images/stimuli/spore_stims/simple_06_A_b.gif","forced_short","","9","simple_dissimilar","images/stimuli/spore_stims/simple_07_A_a.gif","","","","",""
"","3182.624999999476","survey-multi-choice","122","421865","0.0-28.0","SS1618435639017","math_question","","","","","","","","","","","","{""Q0"":""10""}","[0]","10","",""
"","null","html-keyboard-response","123","422670","0.0-29.0-0.0","SS1618435639017","","","null","","","","","","<p><img src= images/blank.png width =""600"" height = ""600"" style=""position:fixed;top:50%; left:50%; transform: translate(-50%, -50%); border:5px solid black"">","","","","","","","",""
"","734.260000001057","sequential-stimulus-presentation-old","124","423919","0.0-29.0-1.0","SS1618435639017","trial","","40","500","1234.260000001057","images/stimuli/spore_stims/simple_20_A_a.gif","images/stimuli/spore_stims/simple_15_A_b.gif","self_paced","","10","simple_dissimilar","images/stimuli/spore_stims/simple_15_A_b.gif","","","","",""
"","null","html-keyboard-response","125","425124","0.0-29.0-0.1","SS1618435639017","","","null","","","","","","<p><img src= images/blank.png width =""600"" height = ""600"" style=""position:fixed;top:50%; left:50%; transform: translate(-50%, -50%); border:5px solid black"">","","","","","","","",""
"","122.32499999844003","sequential-stimulus-presentation-old","126","425758","0.0-29.0-1.1","SS1618435639017","trial","","40","500","622.32499999844","images/stimuli/spore_stims/simple_20_A_a.gif","images/stimuli/spore_stims/simple_15_A_b.gif","self_paced","","10","simple_dissimilar","images/stimuli/spore_stims/simple_15_A_b.gif","","","","",""
"","null","html-keyboard-response","127","427019","0.0-29.0-0.2","SS1618435639017","","","null","","","","","","<p><img src= images/blank.png width =""600"" height = ""600"" style=""position:fixed;top:50%; left:50%; transform: translate(-50%, -50%); border:5px solid black"">","","","","","","","",""
"","10.969999999331776","sequential-stimulus-presentation-old","128","427535","0.0-29.0-1.2","SS1618435639017","trial","","40","500","510.9699999993318","images/stimuli/spore_stims/simple_20_A_a.gif","images/stimuli/spore_stims/simple_15_A_b.gif","self_paced","","10","simple_dissimilar","images/stimuli/spore_stims/simple_15_A_b.gif","","","","",""
"","null","html-keyboard-response","129","428696","0.0-29.0-0.3","SS1618435639017","","","null","","","","","","<p><img src= images/blank.png width =""600"" height = ""600"" style=""position:fixed;top:50%; left:50%; transform: translate(-50%, -50%); border:5px solid black"">","","","","","","","",""
"","31.46500000002561","sequential-stimulus-presentation-old","130","429231","0.0-29.0-1.3","SS1618435639017","trial","","40","500","531.4650000000256","images/stimuli/spore_stims/simple_20_A_a.gif","images/stimuli/spore_stims/simple_15_A_b.gif","self_paced","","10","simple_dissimilar","images/stimuli/spore_stims/simple_15_A_b.gif","","","","",""
"","null","html-keyboard-response","131","430297","0.0-29.0-0.4","SS1618435639017","","","null","","","","","","<p><img src= images/blank.png width =""600"" height = ""600"" style=""position:fixed;top:50%; left:50%; transform: translate(-50%, -50%); border:5px solid black"">","","","","","","","",""
"","187.24499999918044","sequential-stimulus-presentation-old","132","430999","0.0-29.0-1.4","SS1618435639017","trial","","40","500","687.2449999991804","images/stimuli/spore_stims/simple_20_A_a.gif","images/stimuli/spore_stims/simple_15_A_b.gif","self_paced","","10","simple_dissimilar","images/stimuli/spore_stims/simple_15_A_b.gif","","","","",""
"","null","html-keyboard-response","133","432180","0.0-29.0-0.5","SS1618435639017","","","null","","","","","","<p><img src= images/blank.png width =""600"" height = ""600"" style=""position:fixed;top:50%; left:50%; transform: translate(-50%, -50%); border:5px solid black"">","","","","","","","",""
"","20318.755000000237","sequential-stimulus-presentation-old","134","453008","0.0-29.0-1.5","SS1618435639017","trial","","40","500","20818.755000000237","images/stimuli/spore_stims/simple_20_A_a.gif","images/stimuli/spore_stims/simple_15_A_b.gif","self_paced","","10","simple_dissimilar","images/stimuli/spore_stims/simple_20_A_a.gif","","","","",""
"","4814.7400000016205","survey-multi-choice","135","457827","0.0-30.0","SS1618435639017","math_question","","","","","","","","","","","","{""Q0"":""9""}","[0]","9","",""
"","null","html-keyboard-response","136","459094","0.0-31.0-0.0","SS1618435639017","","","null","","","","","","<p><img src= images/blank.png width =""600"" height = ""600"" style=""position:fixed;top:50%; left:50%; transform: translate(-50%, -50%); border:5px solid black"">","","","","","","","",""
"","78.84499999997206","sequential-stimulus-presentation-old","137","459679","0.0-31.0-1.0","SS1618435639017","trial","","40","500","578.8449999999721","images/stimuli/spore_stims/complex_05_A_b.gif","images/stimuli/spore_stims/complex_07_A_a.gif","self_paced","","11","complex_dissimilar","images/stimuli/spore_stims/complex_07_A_a.gif","","","","",""
"","null","html-keyboard-response","138","460698","0.0-31.0-0.1","SS1618435639017","","","null","","","","","","<p><img src= images/blank.png width =""600"" height = ""600"" style=""position:fixed;top:50%; left:50%; transform: translate(-50%, -50%); border:5px solid black"">","","","","","","","",""
"","149.90000000031432","sequential-stimulus-presentation-old","139","461351","0.0-31.0-1.1","SS1618435639017","trial","","40","500","649.9000000003143","images/stimuli/spore_stims/complex_05_A_b.gif","images/stimuli/spore_stims/complex_07_A_a.gif","self_paced","","11","complex_dissimilar","images/stimuli/spore_stims/complex_07_A_a.gif","","","","",""
"","null","html-keyboard-response","140","462440","0.0-31.0-0.2","SS1618435639017","","","null","","","","","","<p><img src= images/blank.png width =""600"" height = ""600"" style=""position:fixed;top:50%; left:50%; transform: translate(-50%, -50%); border:5px solid black"">","","","","","","","",""
"","271.5250000001397","sequential-stimulus-presentation-old","141","463215","0.0-31.0-1.2","SS1618435639017","trial","","40","500","771.5250000001397","images/stimuli/spore_stims/complex_05_A_b.gif","images/stimuli/spore_stims/complex_07_A_a.gif","self_paced","","11","complex_dissimilar","images/stimuli/spore_stims/complex_07_A_a.gif","","","","",""
"","null","html-keyboard-response","142","464328","0.0-31.0-0.3","SS1618435639017","","","null","","","","","","<p><img src= images/blank.png width =""600"" height = ""600"" style=""position:fixed;top:50%; left:50%; transform: translate(-50%, -50%); border:5px solid black"">","","","","","","","",""
"","22895.899999999558","sequential-stimulus-presentation-old","143","487728","0.0-31.0-1.3","SS1618435639017","trial","","40","500","23395.899999999558","images/stimuli/spore_stims/complex_05_A_b.gif","images/stimuli/spore_stims/complex_07_A_a.gif","self_paced","","11","complex_dissimilar","images/stimuli/spore_stims/complex_07_A_a.gif","","","","",""
"","null","html-keyboard-response","144","488615","0.0-31.0-0.4","SS1618435639017","","","null","","","","","","<p><img src= images/blank.png width =""600"" height = ""600"" style=""position:fixed;top:50%; left:50%; transform: translate(-50%, -50%); border:5px solid black"">","","","","","","","",""
"","213.99500000005355","sequential-stimulus-presentation-old","145","489335","0.0-31.0-1.4","SS1618435639017","trial","","40","500","713.9950000000536","images/stimuli/spore_stims/complex_05_A_b.gif","images/stimuli/spore_stims/complex_07_A_a.gif","self_paced","","11","complex_dissimilar","images/stimuli/spore_stims/complex_07_A_a.gif","","","","",""
"","null","html-keyboard-response","146","490181","0.0-31.0-0.5","SS1618435639017","","","null","","","","","","<p><img src= images/blank.png width =""600"" height = ""600"" style=""position:fixed;top:50%; left:50%; transform: translate(-50%, -50%); border:5px solid black"">","","","","","","","",""
"","225.36500000022352","sequential-stimulus-presentation-old","147","490911","0.0-31.0-1.5","SS1618435639017","trial","","40","500","725.3650000002235","images/stimuli/spore_stims/complex_05_A_b.gif","images/stimuli/spore_stims/complex_07_A_a.gif","self_paced","","11","complex_dissimilar","images/stimuli/spore_stims/complex_07_A_a.gif","","","","",""
"[{""page_index"":0,""viewing_time"":4557.1449999988545}]","4557.394999999844","instructions","148","495471","0.0-32.0","SS1618435639017","instructions","","","","","","","","","","","","","","","",""
"","4229.560000001569","survey-likert","149","499703","0.0-33.0","SS1618435639017","similarity_question","","","","","","","","","","","","{""Q0"":2}","[0]","","images/stimuli/spore_stims/complex_10_A_b.gif","images/stimuli/spore_stims/complex_18_A_a.gif"
"","8430.92000000074","survey-likert","150","508137","0.0-34.0","SS1618435639017","similarity_question","","","","","","","","","","","","{""Q0"":2}","[0]","","images/stimuli/spore_stims/complex_02_A_b.gif","images/stimuli/spore_stims/complex_17_A_a.gif"
"","3212.9899999999907","survey-likert","151","511354","0.0-35.0","SS1618435639017","similarity_question","","","","","","","","","","","","{""Q0"":2}","[0]","","images/stimuli/spore_stims/simple_07_A_a.gif","images/stimuli/spore_stims/simple_06_A_b.gif"
"","3841.3550000005052","survey-likert","152","515198","0.0-36.0","SS1618435639017","similarity_question","","","","","","","","","","","","{""Q0"":1}","[0]","","images/stimuli/spore_stims/complex_12_A_b.gif","images/stimuli/spore_stims/complex_05_A_a.gif"
"","1928.5900000013062","survey-likert","153","517129","0.0-37.0","SS1618435639017","similarity_question","","","","","","","","","","","","{""Q0"":1}","[0]","","images/stimuli/spore_stims/complex_07_A_a.gif","images/stimuli/spore_stims/complex_05_A_b.gif"
"","3099.6500000000233","survey-likert","154","520232","0.0-38.0","SS1618435639017","similarity_question","","","","","","","","","","","","{""Q0"":1}","[0]","","images/stimuli/spore_stims/complex_12_A_a.gif","images/stimuli/spore_stims/complex_19_A_b.gif"
"","3716.570000000531","survey-likert","155","523952","0.0-39.0","SS1618435639017","similarity_question","","","","","","","","","","","","{""Q0"":4}","[0]","","images/stimuli/spore_stims/simple_16_A_a.gif","images/stimuli/spore_stims/simple_08_A_b.gif"
"","2677.9550000011222","survey-likert","156","526633","0.0-40.0","SS1618435639017","similarity_question","","","","","","","","","","","","{""Q0"":4}","[0]","","images/stimuli/spore_stims/simple_15_A_a.gif","images/stimuli/spore_stims/simple_01_A_b.gif"
"","2376.914999998873","survey-likert","157","529013","0.0-41.0","SS1618435639017","similarity_question","","","","","","","","","","","","{""Q0"":1}","[0]","","images/stimuli/spore_stims/complex_02_A_a.gif","images/stimuli/spore_stims/complex_07_A_b.gif"
"","2435.224999999278","survey-likert","158","531451","0.0-42.0","SS1618435639017","similarity_question","","","","","","","","","","","","{""Q0"":5}","[0]","","images/stimuli/spore_stims/simple_20_A_a.gif","images/stimuli/spore_stims/simple_15_A_b.gif"
"","1733.0449999989942","survey-likert","159","533187","0.0-43.0","SS1618435639017","similarity_question","","","","","","","","","","","","{""Q0"":5}","[0]","","images/stimuli/spore_stims/simple_12_A_b.gif","images/stimuli/spore_stims/simple_08_A_a.gif"
"","2428.410000000382","survey-likert","160","535619","0.0-44.0","SS1618435639017","similarity_question","","","","","","","","","","","","{""Q0"":5}","[0]","","images/stimuli/spore_stims/simple_03_A_b.gif","images/stimuli/spore_stims/simple_09_A_a.gif"
"[{""page_index"":0,""viewing_time"":1189.2550000011688}]","1189.4450000000652","instructions","161","536810","0.0-45.0","SS1618435639017","instructions","","","","","","","","","","","","","","","",""
"","4174.269999999553","survey-likert","162","540987","0.0-46.0","SS1618435639017","","","","","","","","","images/stimuli/spore_stims/complex_07_A_b.gif","","","","{""Q0"":6}","[0]","","",""
"","1863.9149999999208","survey-likert","163","542855","0.0-47.0","SS1618435639017","","","","","","","","","images/stimuli/spore_stims/complex_17_A_a.gif","","","","{""Q0"":6}","[0]","","",""
"","3666.424999999348","survey-likert","164","546524","0.0-48.0","SS1618435639017","","","","","","","","","images/stimuli/spore_stims/simple_09_A_a.gif","","","","{""Q0"":0}","[0]","","",""
"","1573.8600000004517","survey-likert","165","548101","0.0-49.0","SS1618435639017","","","","","","","","","images/stimuli/spore_stims/simple_01_A_b.gif","","","","{""Q0"":0}","[0]","","",""
"","2084.0850000004284","survey-likert","166","550188","0.0-50.0","SS1618435639017","","","","","","","","","images/stimuli/spore_stims/simple_06_A_b.gif","","","","{""Q0"":0}","[0]","","",""
"","3333.215000000666","survey-likert","167","553525","0.0-51.0","SS1618435639017","","","","","","","","","images/stimuli/spore_stims/complex_05_A_a.gif","","","","{""Q0"":5}","[0]","","",""
"","1801.5199999990873","survey-likert","168","555329","0.0-52.0","SS1618435639017","","","","","","","","","images/stimuli/spore_stims/simple_15_A_b.gif","","","","{""Q0"":0}","[0]","","",""
"","2005.3100000005215","survey-likert","169","557337","0.0-53.0","SS1618435639017","","","","","","","","","images/stimuli/spore_stims/complex_07_A_a.gif","","","","{""Q0"":6}","[0]","","",""
"","2546.8449999989243","survey-likert","170","559887","0.0-54.0","SS1618435639017","","","","","","","","","images/stimuli/spore_stims/simple_08_A_b.gif","","","","{""Q0"":0}","[0]","","",""
"","1937.545000000624","survey-likert","171","561827","0.0-55.0","SS1618435639017","","","","","","","","","images/stimuli/spore_stims/complex_19_A_b.gif","","","","{""Q0"":6}","[0]","","",""
"","1637.215000000666","survey-likert","172","563467","0.0-56.0","SS1618435639017","","","","","","","","","images/stimuli/spore_stims/simple_12_A_b.gif","","","","{""Q0"":0}","[0]","","",""
"","2714.964999999269","survey-likert","173","566185","0.0-57.0","SS1618435639017","","","","","","","","","images/stimuli/spore_stims/complex_10_A_b.gif","","","","{""Q0"":6}","[0]","","",""
"[{""page_index"":0,""viewing_time"":865.305000001099}]","865.5500000003958","instructions","174","567052","0.0-58.0","SS1618435639017","instructions","","","","","","","","","","","","","","","",""
"","2402.529999999446","demog-age","175","569459","0.0-59.0","SS1618435639017","","","","","","","","","","","","","{""age"":""21""}","","","",""
"","7906.074999998906","demog-ethnic-US","176","577370","0.0-60.0","SS1618435639017","","","","","","","","","","","","","{""ethnicity"":[""White""]}","[0]","","",""
"","5890.675000000629","demog-gender-and-education","177","583264","0.0-61.0","SS1618435639017","","","","","","","","","","","","","{""gender"":""Female"",""education"":""Master's Degree""}","[0,1]","","",""
"","60606.6449999999","survey-text","178","643873","0.0-62.0","SS1618435639017","feedback","","","","","","","","","","","","{""Q0"":""no""}","","","",""
"[{""page_index"":0,""viewing_time"":1394.744999999646}]","1394.920000000624","instructions","179","645270","0.0-63.0","SS1618435639017","instructions","","","","","","","","","","","","","","","",""
