"view_history","rt","trial_type","trial_index","time_elapsed","internal_node_id","subject","stimulus_type","trial_stimulus","key_press","minimum_viewing_duration","trial_looking_time","block_deviant","block_background","exposure_type","stimulus","block_number","block_type","stimulus_displayed","responses","question_order","math_correct_answer","stimulus_left","stimulus_right"
"[{""page_index"":0,""viewing_time"":7963.709999981802}]","7964.099999982864","instructions","0","7965","0.0-0.0","SS1618435647239","","","","","","","","","","","","","","","","",""
"[{""page_index"":0,""viewing_time"":14002.169999992475},{""page_index"":1,""viewing_time"":5520.030000014231}]","19522.33000000706","instructions","1","29490","0.0-1.0","SS1618435647239","instructions","","","","","","","","","","","","","","","",""
"","7397.8550000465475","sequential-stimulus-presentation-old","2","37389","0.0-2.0","SS1618435647239","","","40","500","7897.8550000465475","null","null","self_paced","","","","","","","","",""
"","5756.119999976363","sequential-stimulus-presentation-old","3","43646","0.0-3.0","SS1618435647239","","","40","500","6256.119999976363","null","null","self_paced","","","","","","","","",""
"[{""page_index"":0,""viewing_time"":21603.54500001995}]","21603.69499999797","instructions","4","65250","0.0-4.0","SS1618435647239","instructions","","","","","","","","","","","","","","","",""
"","5084.310000005644","sequential-stimulus-presentation-old","5","75336","0.0-5.0","SS1618435647239","","","40","500","5584.310000005644","null","null","forced_long","","","","","","","","",""
"","11357.03499999363","sequential-stimulus-presentation-old","6","86744","0.0-6.0","SS1618435647239","","","40","50","11407.03499999363","null","null","forced_long","","","","","","","","",""
"[{""page_index"":0,""viewing_time"":4660.149999952409}]","4660.2749999728985","instructions","7","91405","0.0-7.0","SS1618435647239","instructions","","","","","","","","","","","","","","","",""
"[{""page_index"":0,""viewing_time"":10914.289999986067},{""page_index"":1,""viewing_time"":8803.97999996785},{""page_index"":2,""viewing_time"":6751.36500003282},{""page_index"":3,""viewing_time"":1950.0099999713711},{""page_index"":4,""viewing_time"":1276.0899999993853}]","29695.85499999812","instructions","8","121102","0.0-8.0","SS1618435647239","instructions","","","","","","","","","","","","","","","",""
"","null","html-keyboard-response","9","122413","0.0-9.0-0.0","SS1618435647239","","","null","","","","","","<p><img src= images/blank.png width =""600"" height = ""600"" style=""position:fixed;top:50%; left:50%; transform: translate(-50%, -50%); border:5px solid black"">","","","","","","","",""
"","508.19000002229586","sequential-stimulus-presentation-old","10","127923","0.0-9.0-1.0","SS1618435647239","trial","","40","500","1008.1900000222959","images/stimuli/spore_stims/complex_14_A_a.gif","images/stimuli/spore_stims/complex_15_A_b.gif","forced_long","","0","complex_dissimilar","images/stimuli/spore_stims/complex_15_A_b.gif","","","","",""
"","null","html-keyboard-response","11","128866","0.0-9.0-0.1","SS1618435647239","","","null","","","","","","<p><img src= images/blank.png width =""600"" height = ""600"" style=""position:fixed;top:50%; left:50%; transform: translate(-50%, -50%); border:5px solid black"">","","","","","","","",""
"","13263.425000011921","sequential-stimulus-presentation-old","12","142630","0.0-9.0-1.1","SS1618435647239","trial","","40","500","13763.425000011921","images/stimuli/spore_stims/complex_14_A_a.gif","images/stimuli/spore_stims/complex_15_A_b.gif","forced_long","","0","complex_dissimilar","images/stimuli/spore_stims/complex_15_A_b.gif","","","","",""
"","null","html-keyboard-response","13","143609","0.0-9.0-0.2","SS1618435647239","","","null","","","","","","<p><img src= images/blank.png width =""600"" height = ""600"" style=""position:fixed;top:50%; left:50%; transform: translate(-50%, -50%); border:5px solid black"">","","","","","","","",""
"","10388.970000029076","sequential-stimulus-presentation-old","14","154499","0.0-9.0-1.2","SS1618435647239","trial","","40","500","10888.970000029076","images/stimuli/spore_stims/complex_14_A_a.gif","images/stimuli/spore_stims/complex_15_A_b.gif","forced_long","","0","complex_dissimilar","images/stimuli/spore_stims/complex_15_A_b.gif","","","","",""
"","null","html-keyboard-response","15","155535","0.0-9.0-0.3","SS1618435647239","","","null","","","","","","<p><img src= images/blank.png width =""600"" height = ""600"" style=""position:fixed;top:50%; left:50%; transform: translate(-50%, -50%); border:5px solid black"">","","","","","","","",""
"","7785.4199999710545","sequential-stimulus-presentation-old","16","163822","0.0-9.0-1.3","SS1618435647239","trial","","40","500","8285.419999971054","images/stimuli/spore_stims/complex_14_A_a.gif","images/stimuli/spore_stims/complex_15_A_b.gif","forced_long","","0","complex_dissimilar","images/stimuli/spore_stims/complex_15_A_b.gif","","","","",""
"","2785.154999990482","survey-multi-choice","17","166608","0.0-10.0","SS1618435647239","math_question","","","","","","","","","","","","{""Q0"":""10""}","[0]","10","",""
"","null","html-keyboard-response","18","167864","0.0-11.0-0.0","SS1618435647239","","","null","","","","","","<p><img src= images/blank.png width =""600"" height = ""600"" style=""position:fixed;top:50%; left:50%; transform: translate(-50%, -50%); border:5px solid black"">","","","","","","","",""
"","616.5449999971315","sequential-stimulus-presentation-old","19","173484","0.0-11.0-1.0","SS1618435647239","trial","","40","500","1116.5449999971315","images/stimuli/spore_stims/complex_11_A_a.gif","images/stimuli/spore_stims/complex_18_A_b.gif","forced_long","","1","complex_dissimilar","images/stimuli/spore_stims/complex_18_A_b.gif","","","","",""
"","null","html-keyboard-response","20","174723","0.0-11.0-0.1","SS1618435647239","","","null","","","","","","<p><img src= images/blank.png width =""600"" height = ""600"" style=""position:fixed;top:50%; left:50%; transform: translate(-50%, -50%); border:5px solid black"">","","","","","","","",""
"","15897.189999988768","sequential-stimulus-presentation-old","21","191122","0.0-11.0-1.1","SS1618435647239","trial","","40","500","16397.18999998877","images/stimuli/spore_stims/complex_11_A_a.gif","images/stimuli/spore_stims/complex_18_A_b.gif","forced_long","","1","complex_dissimilar","images/stimuli/spore_stims/complex_18_A_b.gif","","","","",""
"","null","html-keyboard-response","22","192421","0.0-11.0-0.2","SS1618435647239","","","null","","","","","","<p><img src= images/blank.png width =""600"" height = ""600"" style=""position:fixed;top:50%; left:50%; transform: translate(-50%, -50%); border:5px solid black"">","","","","","","","",""
"","13049.79000001913","sequential-stimulus-presentation-old","23","205973","0.0-11.0-1.2","SS1618435647239","trial","","40","500","13549.79000001913","images/stimuli/spore_stims/complex_11_A_a.gif","images/stimuli/spore_stims/complex_18_A_b.gif","forced_long","","1","complex_dissimilar","images/stimuli/spore_stims/complex_18_A_b.gif","","","","",""
"","null","html-keyboard-response","24","207199","0.0-11.0-0.3","SS1618435647239","","","null","","","","","","<p><img src= images/blank.png width =""600"" height = ""600"" style=""position:fixed;top:50%; left:50%; transform: translate(-50%, -50%); border:5px solid black"">","","","","","","","",""
"","13480.779999983497","sequential-stimulus-presentation-old","25","221182","0.0-11.0-1.3","SS1618435647239","trial","","40","500","13980.779999983497","images/stimuli/spore_stims/complex_11_A_a.gif","images/stimuli/spore_stims/complex_18_A_b.gif","forced_long","","1","complex_dissimilar","images/stimuli/spore_stims/complex_18_A_b.gif","","","","",""
"","null","html-keyboard-response","26","222130","0.0-11.0-0.4","SS1618435647239","","","null","","","","","","<p><img src= images/blank.png width =""600"" height = ""600"" style=""position:fixed;top:50%; left:50%; transform: translate(-50%, -50%); border:5px solid black"">","","","","","","","",""
"","11511.950000014622","sequential-stimulus-presentation-old","27","234144","0.0-11.0-1.4","SS1618435647239","trial","","40","500","12011.950000014622","images/stimuli/spore_stims/complex_11_A_a.gif","images/stimuli/spore_stims/complex_18_A_b.gif","forced_long","","1","complex_dissimilar","images/stimuli/spore_stims/complex_18_A_b.gif","","","","",""
"","2530.0749999587424","survey-multi-choice","28","236675","0.0-12.0","SS1618435647239","math_question","","","","","","","","","","","","{""Q0"":""7""}","[0]","7","",""
"","null","html-keyboard-response","29","237769","0.0-13.0-0.0","SS1618435647239","","","null","","","","","","<p><img src= images/blank.png width =""600"" height = ""600"" style=""position:fixed;top:50%; left:50%; transform: translate(-50%, -50%); border:5px solid black"">","","","","","","","",""
"","10544.744999962859","sequential-stimulus-presentation-old","30","248817","0.0-13.0-1.0","SS1618435647239","trial","","40","500","11044.744999962859","images/stimuli/spore_stims/simple_04_A_a.gif","images/stimuli/spore_stims/simple_02_A_b.gif","self_paced","","2","simple_dissimilar","images/stimuli/spore_stims/simple_02_A_b.gif","","","","",""
"","null","html-keyboard-response","31","249999","0.0-13.0-0.1","SS1618435647239","","","null","","","","","","<p><img src= images/blank.png width =""600"" height = ""600"" style=""position:fixed;top:50%; left:50%; transform: translate(-50%, -50%); border:5px solid black"">","","","","","","","",""
"","12877.819999994244","sequential-stimulus-presentation-old","32","263380","0.0-13.0-1.1","SS1618435647239","trial","","40","500","13377.819999994244","images/stimuli/spore_stims/simple_04_A_a.gif","images/stimuli/spore_stims/simple_02_A_b.gif","self_paced","","2","simple_dissimilar","images/stimuli/spore_stims/simple_02_A_b.gif","","","","",""
"","null","html-keyboard-response","33","264309","0.0-13.0-0.2","SS1618435647239","","","null","","","","","","<p><img src= images/blank.png width =""600"" height = ""600"" style=""position:fixed;top:50%; left:50%; transform: translate(-50%, -50%); border:5px solid black"">","","","","","","","",""
"","13342.699999979232","sequential-stimulus-presentation-old","34","278154","0.0-13.0-1.2","SS1618435647239","trial","","40","500","13842.699999979232","images/stimuli/spore_stims/simple_04_A_a.gif","images/stimuli/spore_stims/simple_02_A_b.gif","self_paced","","2","simple_dissimilar","images/stimuli/spore_stims/simple_04_A_a.gif","","","","",""
"","null","html-keyboard-response","35","279411","0.0-13.0-0.3","SS1618435647239","","","null","","","","","","<p><img src= images/blank.png width =""600"" height = ""600"" style=""position:fixed;top:50%; left:50%; transform: translate(-50%, -50%); border:5px solid black"">","","","","","","","",""
"","9657.77499997057","sequential-stimulus-presentation-old","36","289571","0.0-13.0-1.3","SS1618435647239","trial","","40","500","10157.77499997057","images/stimuli/spore_stims/simple_04_A_a.gif","images/stimuli/spore_stims/simple_02_A_b.gif","self_paced","","2","simple_dissimilar","images/stimuli/spore_stims/simple_02_A_b.gif","","","","",""
"","null","html-keyboard-response","37","290399","0.0-13.0-0.4","SS1618435647239","","","null","","","","","","<p><img src= images/blank.png width =""600"" height = ""600"" style=""position:fixed;top:50%; left:50%; transform: translate(-50%, -50%); border:5px solid black"">","","","","","","","",""
"","12543.854999996256","sequential-stimulus-presentation-old","38","303445","0.0-13.0-1.4","SS1618435647239","trial","","40","500","13043.854999996256","images/stimuli/spore_stims/simple_04_A_a.gif","images/stimuli/spore_stims/simple_02_A_b.gif","self_paced","","2","simple_dissimilar","images/stimuli/spore_stims/simple_02_A_b.gif","","","","",""
"","null","html-keyboard-response","39","304713","0.0-13.0-0.5","SS1618435647239","","","null","","","","","","<p><img src= images/blank.png width =""600"" height = ""600"" style=""position:fixed;top:50%; left:50%; transform: translate(-50%, -50%); border:5px solid black"">","","","","","","","",""
"","11108.565000002272","sequential-stimulus-presentation-old","40","316324","0.0-13.0-1.5","SS1618435647239","trial","","40","500","11608.565000002272","images/stimuli/spore_stims/simple_04_A_a.gif","images/stimuli/spore_stims/simple_02_A_b.gif","self_paced","","2","simple_dissimilar","images/stimuli/spore_stims/simple_04_A_a.gif","","","","",""
"","2698.485000000801","survey-multi-choice","41","319023","0.0-14.0","SS1618435647239","math_question","","","","","","","","","","","","{""Q0"":""6""}","[0]","6","",""
"","null","html-keyboard-response","42","319913","0.0-15.0-0.0","SS1618435647239","","","null","","","","","","<p><img src= images/blank.png width =""600"" height = ""600"" style=""position:fixed;top:50%; left:50%; transform: translate(-50%, -50%); border:5px solid black"">","","","","","","","",""
"","11482.590000028722","sequential-stimulus-presentation-old","43","331898","0.0-15.0-1.0","SS1618435647239","trial","","40","500","11982.590000028722","images/stimuli/spore_stims/complex_19_A_a.gif","images/stimuli/spore_stims/complex_11_A_b.gif","self_paced","","3","complex_dissimilar","images/stimuli/spore_stims/complex_11_A_b.gif","","","","",""
"","null","html-keyboard-response","44","333078","0.0-15.0-0.1","SS1618435647239","","","null","","","","","","<p><img src= images/blank.png width =""600"" height = ""600"" style=""position:fixed;top:50%; left:50%; transform: translate(-50%, -50%); border:5px solid black"">","","","","","","","",""
"","7430.549999990035","sequential-stimulus-presentation-old","45","341010","0.0-15.0-1.1","SS1618435647239","trial","","40","500","7930.549999990035","images/stimuli/spore_stims/complex_19_A_a.gif","images/stimuli/spore_stims/complex_11_A_b.gif","self_paced","","3","complex_dissimilar","images/stimuli/spore_stims/complex_19_A_a.gif","","","","",""
"","null","html-keyboard-response","46","342021","0.0-15.0-0.2","SS1618435647239","","","null","","","","","","<p><img src= images/blank.png width =""600"" height = ""600"" style=""position:fixed;top:50%; left:50%; transform: translate(-50%, -50%); border:5px solid black"">","","","","","","","",""
"","8699.099999968894","sequential-stimulus-presentation-old","47","351222","0.0-15.0-1.2","SS1618435647239","trial","","40","500","9199.099999968894","images/stimuli/spore_stims/complex_19_A_a.gif","images/stimuli/spore_stims/complex_11_A_b.gif","self_paced","","3","complex_dissimilar","images/stimuli/spore_stims/complex_19_A_a.gif","","","","",""
"","null","html-keyboard-response","48","352152","0.0-15.0-0.3","SS1618435647239","","","null","","","","","","<p><img src= images/blank.png width =""600"" height = ""600"" style=""position:fixed;top:50%; left:50%; transform: translate(-50%, -50%); border:5px solid black"">","","","","","","","",""
"","8078.414999996312","sequential-stimulus-presentation-old","49","360733","0.0-15.0-1.3","SS1618435647239","trial","","40","500","8578.414999996312","images/stimuli/spore_stims/complex_19_A_a.gif","images/stimuli/spore_stims/complex_11_A_b.gif","self_paced","","3","complex_dissimilar","images/stimuli/spore_stims/complex_11_A_b.gif","","","","",""
"","null","html-keyboard-response","50","361677","0.0-15.0-0.4","SS1618435647239","","","null","","","","","","<p><img src= images/blank.png width =""600"" height = ""600"" style=""position:fixed;top:50%; left:50%; transform: translate(-50%, -50%); border:5px solid black"">","","","","","","","",""
"","6153.334999980871","sequential-stimulus-presentation-old","51","368333","0.0-15.0-1.4","SS1618435647239","trial","","40","500","6653.334999980871","images/stimuli/spore_stims/complex_19_A_a.gif","images/stimuli/spore_stims/complex_11_A_b.gif","self_paced","","3","complex_dissimilar","images/stimuli/spore_stims/complex_11_A_b.gif","","","","",""
"","2188.244999968447","survey-multi-choice","52","370522","0.0-16.0","SS1618435647239","math_question","","","","","","","","","","","","{""Q0"":""9""}","[0]","9","",""
"","null","html-keyboard-response","53","371404","0.0-17.0-0.0","SS1618435647239","","","null","","","","","","<p><img src= images/blank.png width =""600"" height = ""600"" style=""position:fixed;top:50%; left:50%; transform: translate(-50%, -50%); border:5px solid black"">","","","","","","","",""
"","682.5800000224262","sequential-stimulus-presentation-old","54","377089","0.0-17.0-1.0","SS1618435647239","trial","","40","500","1182.5800000224262","images/stimuli/spore_stims/simple_17_A_a.gif","images/stimuli/spore_stims/simple_04_A_b.gif","forced_long","","4","simple_dissimilar","images/stimuli/spore_stims/simple_04_A_b.gif","","","","",""
"","null","html-keyboard-response","55","378011","0.0-17.0-0.1","SS1618435647239","","","null","","","","","","<p><img src= images/blank.png width =""600"" height = ""600"" style=""position:fixed;top:50%; left:50%; transform: translate(-50%, -50%); border:5px solid black"">","","","","","","","",""
"","9835.580000013579","sequential-stimulus-presentation-old","56","388348","0.0-17.0-1.1","SS1618435647239","trial","","40","500","10335.580000013579","images/stimuli/spore_stims/simple_17_A_a.gif","images/stimuli/spore_stims/simple_04_A_b.gif","forced_long","","4","simple_dissimilar","images/stimuli/spore_stims/simple_17_A_a.gif","","","","",""
"","null","html-keyboard-response","57","389205","0.0-17.0-0.2","SS1618435647239","","","null","","","","","","<p><img src= images/blank.png width =""600"" height = ""600"" style=""position:fixed;top:50%; left:50%; transform: translate(-50%, -50%); border:5px solid black"">","","","","","","","",""
"","5093.259999994189","sequential-stimulus-presentation-old","58","394800","0.0-17.0-1.2","SS1618435647239","trial","","40","500","5593.259999994189","images/stimuli/spore_stims/simple_17_A_a.gif","images/stimuli/spore_stims/simple_04_A_b.gif","forced_long","","4","simple_dissimilar","images/stimuli/spore_stims/simple_04_A_b.gif","","","","",""
"","null","html-keyboard-response","59","396011","0.0-17.0-0.3","SS1618435647239","","","null","","","","","","<p><img src= images/blank.png width =""600"" height = ""600"" style=""position:fixed;top:50%; left:50%; transform: translate(-50%, -50%); border:5px solid black"">","","","","","","","",""
"","6470.804999989923","sequential-stimulus-presentation-old","60","402984","0.0-17.0-1.3","SS1618435647239","trial","","40","500","6970.804999989923","images/stimuli/spore_stims/simple_17_A_a.gif","images/stimuli/spore_stims/simple_04_A_b.gif","forced_long","","4","simple_dissimilar","images/stimuli/spore_stims/simple_04_A_b.gif","","","","",""
"","null","html-keyboard-response","61","404017","0.0-17.0-0.4","SS1618435647239","","","null","","","","","","<p><img src= images/blank.png width =""600"" height = ""600"" style=""position:fixed;top:50%; left:50%; transform: translate(-50%, -50%); border:5px solid black"">","","","","","","","",""
"","9783.529999956954","sequential-stimulus-presentation-old","62","414304","0.0-17.0-1.4","SS1618435647239","trial","","40","500","10283.529999956954","images/stimuli/spore_stims/simple_17_A_a.gif","images/stimuli/spore_stims/simple_04_A_b.gif","forced_long","","4","simple_dissimilar","images/stimuli/spore_stims/simple_17_A_a.gif","","","","",""
"","2803.910000016913","survey-multi-choice","63","417109","0.0-18.0","SS1618435647239","math_question","","","","","","","","","","","","{""Q0"":""4""}","[0]","4","",""
"","null","html-keyboard-response","64","418347","0.0-19.0-0.0","SS1618435647239","","","null","","","","","","<p><img src= images/blank.png width =""600"" height = ""600"" style=""position:fixed;top:50%; left:50%; transform: translate(-50%, -50%); border:5px solid black"">","","","","","","","",""
"","1008.3949999534525","sequential-stimulus-presentation-old","65","419407","0.0-19.0-1.0","SS1618435647239","trial","","40","500","1508.3949999534525","images/stimuli/spore_stims/simple_01_A_a.gif","images/stimuli/spore_stims/simple_05_A_b.gif","forced_short","","5","simple_dissimilar","images/stimuli/spore_stims/simple_05_A_b.gif","","","","",""
"","null","html-keyboard-response","66","420556","0.0-19.0-0.1","SS1618435647239","","","null","","","","","","<p><img src= images/blank.png width =""600"" height = ""600"" style=""position:fixed;top:50%; left:50%; transform: translate(-50%, -50%); border:5px solid black"">","","","","","","","",""
"","5370.620000001509","sequential-stimulus-presentation-old","67","426428","0.0-19.0-1.1","SS1618435647239","trial","","40","500","5870.620000001509","images/stimuli/spore_stims/simple_01_A_a.gif","images/stimuli/spore_stims/simple_05_A_b.gif","forced_short","","5","simple_dissimilar","images/stimuli/spore_stims/simple_05_A_b.gif","","","","",""
"","null","html-keyboard-response","68","427415","0.0-19.0-0.2","SS1618435647239","","","null","","","","","","<p><img src= images/blank.png width =""600"" height = ""600"" style=""position:fixed;top:50%; left:50%; transform: translate(-50%, -50%); border:5px solid black"">","","","","","","","",""
"","5967.459999956191","sequential-stimulus-presentation-old","69","433886","0.0-19.0-1.2","SS1618435647239","trial","","40","500","6467.459999956191","images/stimuli/spore_stims/simple_01_A_a.gif","images/stimuli/spore_stims/simple_05_A_b.gif","forced_short","","5","simple_dissimilar","images/stimuli/spore_stims/simple_05_A_b.gif","","","","",""
"","null","html-keyboard-response","70","434769","0.0-19.0-0.3","SS1618435647239","","","null","","","","","","<p><img src= images/blank.png width =""600"" height = ""600"" style=""position:fixed;top:50%; left:50%; transform: translate(-50%, -50%); border:5px solid black"">","","","","","","","",""
"","4925.974999961909","sequential-stimulus-presentation-old","71","440197","0.0-19.0-1.3","SS1618435647239","trial","","40","500","5425.974999961909","images/stimuli/spore_stims/simple_01_A_a.gif","images/stimuli/spore_stims/simple_05_A_b.gif","forced_short","","5","simple_dissimilar","images/stimuli/spore_stims/simple_01_A_a.gif","","","","",""
"","null","html-keyboard-response","72","441265","0.0-19.0-0.4","SS1618435647239","","","null","","","","","","<p><img src= images/blank.png width =""600"" height = ""600"" style=""position:fixed;top:50%; left:50%; transform: translate(-50%, -50%); border:5px solid black"">","","","","","","","",""
"","6203.485000005458","sequential-stimulus-presentation-old","73","447971","0.0-19.0-1.4","SS1618435647239","trial","","40","500","6703.485000005458","images/stimuli/spore_stims/simple_01_A_a.gif","images/stimuli/spore_stims/simple_05_A_b.gif","forced_short","","5","simple_dissimilar","images/stimuli/spore_stims/simple_01_A_a.gif","","","","",""
"","2706.1249999678694","survey-multi-choice","74","450678","0.0-20.0","SS1618435647239","math_question","","","","","","","","","","","","{""Q0"":""4""}","[0]","4","",""
"","null","html-keyboard-response","75","451666","0.0-21.0-0.0","SS1618435647239","","","null","","","","","","<p><img src= images/blank.png width =""600"" height = ""600"" style=""position:fixed;top:50%; left:50%; transform: translate(-50%, -50%); border:5px solid black"">","","","","","","","",""
"","4883.314999984577","sequential-stimulus-presentation-old","76","457053","0.0-21.0-1.0","SS1618435647239","trial","","40","500","5383.314999984577","images/stimuli/spore_stims/simple_14_A_a.gif","images/stimuli/spore_stims/simple_13_A_b.gif","self_paced","","6","simple_dissimilar","images/stimuli/spore_stims/simple_13_A_b.gif","","","","",""
"","null","html-keyboard-response","77","458015","0.0-21.0-0.1","SS1618435647239","","","null","","","","","","<p><img src= images/blank.png width =""600"" height = ""600"" style=""position:fixed;top:50%; left:50%; transform: translate(-50%, -50%); border:5px solid black"">","","","","","","","",""
"","5949.789999984205","sequential-stimulus-presentation-old","78","464468","0.0-21.0-1.1","SS1618435647239","trial","","40","500","6449.789999984205","images/stimuli/spore_stims/simple_14_A_a.gif","images/stimuli/spore_stims/simple_13_A_b.gif","self_paced","","6","simple_dissimilar","images/stimuli/spore_stims/simple_13_A_b.gif","","","","",""
"","null","html-keyboard-response","79","465501","0.0-21.0-0.2","SS1618435647239","","","null","","","","","","<p><img src= images/blank.png width =""600"" height = ""600"" style=""position:fixed;top:50%; left:50%; transform: translate(-50%, -50%); border:5px solid black"">","","","","","","","",""
"","6161.48999996949","sequential-stimulus-presentation-old","80","472164","0.0-21.0-1.2","SS1618435647239","trial","","40","500","6661.48999996949","images/stimuli/spore_stims/simple_14_A_a.gif","images/stimuli/spore_stims/simple_13_A_b.gif","self_paced","","6","simple_dissimilar","images/stimuli/spore_stims/simple_13_A_b.gif","","","","",""
"","null","html-keyboard-response","81","473106","0.0-21.0-0.3","SS1618435647239","","","null","","","","","","<p><img src= images/blank.png width =""600"" height = ""600"" style=""position:fixed;top:50%; left:50%; transform: translate(-50%, -50%); border:5px solid black"">","","","","","","","",""
"","7310.690000012983","sequential-stimulus-presentation-old","82","480919","0.0-21.0-1.3","SS1618435647239","trial","","40","500","7810.690000012983","images/stimuli/spore_stims/simple_14_A_a.gif","images/stimuli/spore_stims/simple_13_A_b.gif","self_paced","","6","simple_dissimilar","images/stimuli/spore_stims/simple_14_A_a.gif","","","","",""
"","2426.2650000164285","survey-multi-choice","83","483346","0.0-22.0","SS1618435647239","math_question","","","","","","","","","","","","{""Q0"":""4""}","[0]","4","",""
"","null","html-keyboard-response","84","484379","0.0-23.0-0.0","SS1618435647239","","","null","","","","","","<p><img src= images/blank.png width =""600"" height = ""600"" style=""position:fixed;top:50%; left:50%; transform: translate(-50%, -50%); border:5px solid black"">","","","","","","","",""
"","929.2699999641627","sequential-stimulus-presentation-old","85","485360","0.0-23.0-1.0","SS1618435647239","trial","","40","500","1429.2699999641627","images/stimuli/spore_stims/simple_12_A_b.gif","images/stimuli/spore_stims/simple_09_A_a.gif","forced_short","","7","simple_dissimilar","images/stimuli/spore_stims/simple_09_A_a.gif","","","","",""
"","null","html-keyboard-response","86","486518","0.0-23.0-0.1","SS1618435647239","","","null","","","","","","<p><img src= images/blank.png width =""600"" height = ""600"" style=""position:fixed;top:50%; left:50%; transform: translate(-50%, -50%); border:5px solid black"">","","","","","","","",""
"","5459.340000001248","sequential-stimulus-presentation-old","87","492480","0.0-23.0-1.1","SS1618435647239","trial","","40","500","5959.340000001248","images/stimuli/spore_stims/simple_12_A_b.gif","images/stimuli/spore_stims/simple_09_A_a.gif","forced_short","","7","simple_dissimilar","images/stimuli/spore_stims/simple_09_A_a.gif","","","","",""
"","null","html-keyboard-response","88","493752","0.0-23.0-0.2","SS1618435647239","","","null","","","","","","<p><img src= images/blank.png width =""600"" height = ""600"" style=""position:fixed;top:50%; left:50%; transform: translate(-50%, -50%); border:5px solid black"">","","","","","","","",""
"","4577.720000001136","sequential-stimulus-presentation-old","89","498831","0.0-23.0-1.2","SS1618435647239","trial","","40","500","5077.720000001136","images/stimuli/spore_stims/simple_12_A_b.gif","images/stimuli/spore_stims/simple_09_A_a.gif","forced_short","","7","simple_dissimilar","images/stimuli/spore_stims/simple_09_A_a.gif","","","","",""
"","null","html-keyboard-response","90","499894","0.0-23.0-0.3","SS1618435647239","","","null","","","","","","<p><img src= images/blank.png width =""600"" height = ""600"" style=""position:fixed;top:50%; left:50%; transform: translate(-50%, -50%); border:5px solid black"">","","","","","","","",""
"","4809.624999994412","sequential-stimulus-presentation-old","91","505206","0.0-23.0-1.3","SS1618435647239","trial","","40","500","5309.624999994412","images/stimuli/spore_stims/simple_12_A_b.gif","images/stimuli/spore_stims/simple_09_A_a.gif","forced_short","","7","simple_dissimilar","images/stimuli/spore_stims/simple_09_A_a.gif","","","","",""
"","3403.2700000097975","survey-multi-choice","92","508610","0.0-24.0","SS1618435647239","math_question","","","","","","","","","","","","{""Q0"":""14""}","[0]","14","",""
"","null","html-keyboard-response","93","509649","0.0-25.0-0.0","SS1618435647239","","","null","","","","","","<p><img src= images/blank.png width =""600"" height = ""600"" style=""position:fixed;top:50%; left:50%; transform: translate(-50%, -50%); border:5px solid black"">","","","","","","","",""
"","762.5700000207871","sequential-stimulus-presentation-old","94","510464","0.0-25.0-1.0","SS1618435647239","trial","","40","500","1262.5700000207871","images/stimuli/spore_stims/complex_12_A_a.gif","images/stimuli/spore_stims/complex_03_A_b.gif","forced_short","","8","complex_dissimilar","images/stimuli/spore_stims/complex_03_A_b.gif","","","","",""
"","null","html-keyboard-response","95","511284","0.0-25.0-0.1","SS1618435647239","","","null","","","","","","<p><img src= images/blank.png width =""600"" height = ""600"" style=""position:fixed;top:50%; left:50%; transform: translate(-50%, -50%); border:5px solid black"">","","","","","","","",""
"","5617.895000032149","sequential-stimulus-presentation-old","96","517405","0.0-25.0-1.1","SS1618435647239","trial","","40","500","6117.895000032149","images/stimuli/spore_stims/complex_12_A_a.gif","images/stimuli/spore_stims/complex_03_A_b.gif","forced_short","","8","complex_dissimilar","images/stimuli/spore_stims/complex_03_A_b.gif","","","","",""
"","null","html-keyboard-response","97","518331","0.0-25.0-0.2","SS1618435647239","","","null","","","","","","<p><img src= images/blank.png width =""600"" height = ""600"" style=""position:fixed;top:50%; left:50%; transform: translate(-50%, -50%); border:5px solid black"">","","","","","","","",""
"","5301.630000001751","sequential-stimulus-presentation-old","98","524135","0.0-25.0-1.2","SS1618435647239","trial","","40","500","5801.630000001751","images/stimuli/spore_stims/complex_12_A_a.gif","images/stimuli/spore_stims/complex_03_A_b.gif","forced_short","","8","complex_dissimilar","images/stimuli/spore_stims/complex_12_A_a.gif","","","","",""
"","null","html-keyboard-response","99","525081","0.0-25.0-0.3","SS1618435647239","","","null","","","","","","<p><img src= images/blank.png width =""600"" height = ""600"" style=""position:fixed;top:50%; left:50%; transform: translate(-50%, -50%); border:5px solid black"">","","","","","","","",""
"","6531.810000014957","sequential-stimulus-presentation-old","100","532116","0.0-25.0-1.3","SS1618435647239","trial","","40","500","7031.810000014957","images/stimuli/spore_stims/complex_12_A_a.gif","images/stimuli/spore_stims/complex_03_A_b.gif","forced_short","","8","complex_dissimilar","images/stimuli/spore_stims/complex_12_A_a.gif","","","","",""
"","null","html-keyboard-response","101","533051","0.0-25.0-0.4","SS1618435647239","","","null","","","","","","<p><img src= images/blank.png width =""600"" height = ""600"" style=""position:fixed;top:50%; left:50%; transform: translate(-50%, -50%); border:5px solid black"">","","","","","","","",""
"","6893.295000016224","sequential-stimulus-presentation-old","102","540446","0.0-25.0-1.4","SS1618435647239","trial","","40","500","7393.295000016224","images/stimuli/spore_stims/complex_12_A_a.gif","images/stimuli/spore_stims/complex_03_A_b.gif","forced_short","","8","complex_dissimilar","images/stimuli/spore_stims/complex_03_A_b.gif","","","","",""
"","2709.740000020247","survey-multi-choice","103","543157","0.0-26.0","SS1618435647239","math_question","","","","","","","","","","","","{""Q0"":""7""}","[0]","7","",""
"","null","html-keyboard-response","104","544119","0.0-27.0-0.0","SS1618435647239","","","null","","","","","","<p><img src= images/blank.png width =""600"" height = ""600"" style=""position:fixed;top:50%; left:50%; transform: translate(-50%, -50%); border:5px solid black"">","","","","","","","",""
"","999.4099999894388","sequential-stimulus-presentation-old","105","545172","0.0-27.0-1.0","SS1618435647239","trial","","40","500","1499.4099999894388","images/stimuli/spore_stims/complex_05_A_a.gif","images/stimuli/spore_stims/complex_17_A_b.gif","forced_short","","9","complex_dissimilar","images/stimuli/spore_stims/complex_17_A_b.gif","","","","",""
"","null","html-keyboard-response","106","546238","0.0-27.0-0.1","SS1618435647239","","","null","","","","","","<p><img src= images/blank.png width =""600"" height = ""600"" style=""position:fixed;top:50%; left:50%; transform: translate(-50%, -50%); border:5px solid black"">","","","","","","","",""
"","5416.650000028312","sequential-stimulus-presentation-old","107","552157","0.0-27.0-1.1","SS1618435647239","trial","","40","500","5916.650000028312","images/stimuli/spore_stims/complex_05_A_a.gif","images/stimuli/spore_stims/complex_17_A_b.gif","forced_short","","9","complex_dissimilar","images/stimuli/spore_stims/complex_17_A_b.gif","","","","",""
"","null","html-keyboard-response","108","553329","0.0-27.0-0.2","SS1618435647239","","","null","","","","","","<p><img src= images/blank.png width =""600"" height = ""600"" style=""position:fixed;top:50%; left:50%; transform: translate(-50%, -50%); border:5px solid black"">","","","","","","","",""
"","5943.759999994654","sequential-stimulus-presentation-old","109","559775","0.0-27.0-1.2","SS1618435647239","trial","","40","500","6443.759999994654","images/stimuli/spore_stims/complex_05_A_a.gif","images/stimuli/spore_stims/complex_17_A_b.gif","forced_short","","9","complex_dissimilar","images/stimuli/spore_stims/complex_17_A_b.gif","","","","",""
"","null","html-keyboard-response","110","560602","0.0-27.0-0.3","SS1618435647239","","","null","","","","","","<p><img src= images/blank.png width =""600"" height = ""600"" style=""position:fixed;top:50%; left:50%; transform: translate(-50%, -50%); border:5px solid black"">","","","","","","","",""
"","6144.305000023451","sequential-stimulus-presentation-old","111","567249","0.0-27.0-1.3","SS1618435647239","trial","","40","500","6644.305000023451","images/stimuli/spore_stims/complex_05_A_a.gif","images/stimuli/spore_stims/complex_17_A_b.gif","forced_short","","9","complex_dissimilar","images/stimuli/spore_stims/complex_17_A_b.gif","","","","",""
"","null","html-keyboard-response","112","568088","0.0-27.0-0.4","SS1618435647239","","","null","","","","","","<p><img src= images/blank.png width =""600"" height = ""600"" style=""position:fixed;top:50%; left:50%; transform: translate(-50%, -50%); border:5px solid black"">","","","","","","","",""
"","4618.774999980815","sequential-stimulus-presentation-old","113","573210","0.0-27.0-1.4","SS1618435647239","trial","","40","500","5118.774999980815","images/stimuli/spore_stims/complex_05_A_a.gif","images/stimuli/spore_stims/complex_17_A_b.gif","forced_short","","9","complex_dissimilar","images/stimuli/spore_stims/complex_17_A_b.gif","","","","",""
"","2151.654999994207","survey-multi-choice","114","575363","0.0-28.0","SS1618435647239","math_question","","","","","","","","","","","","{""Q0"":""5""}","[0]","5","",""
"","null","html-keyboard-response","115","576324","0.0-29.0-0.0","SS1618435647239","","","null","","","","","","<p><img src= images/blank.png width =""600"" height = ""600"" style=""position:fixed;top:50%; left:50%; transform: translate(-50%, -50%); border:5px solid black"">","","","","","","","",""
"","5327.6199999963865","sequential-stimulus-presentation-old","116","582154","0.0-29.0-1.0","SS1618435647239","trial","","40","500","5827.6199999963865","images/stimuli/spore_stims/complex_02_A_b.gif","images/stimuli/spore_stims/complex_10_A_a.gif","self_paced","","10","complex_dissimilar","images/stimuli/spore_stims/complex_10_A_a.gif","","","","",""
"","null","html-keyboard-response","117","583199","0.0-29.0-0.1","SS1618435647239","","","null","","","","","","<p><img src= images/blank.png width =""600"" height = ""600"" style=""position:fixed;top:50%; left:50%; transform: translate(-50%, -50%); border:5px solid black"">","","","","","","","",""
"","5792.109999980312","sequential-stimulus-presentation-old","118","589496","0.0-29.0-1.1","SS1618435647239","trial","","40","500","6292.109999980312","images/stimuli/spore_stims/complex_02_A_b.gif","images/stimuli/spore_stims/complex_10_A_a.gif","self_paced","","10","complex_dissimilar","images/stimuli/spore_stims/complex_10_A_a.gif","","","","",""
"","null","html-keyboard-response","119","590718","0.0-29.0-0.2","SS1618435647239","","","null","","","","","","<p><img src= images/blank.png width =""600"" height = ""600"" style=""position:fixed;top:50%; left:50%; transform: translate(-50%, -50%); border:5px solid black"">","","","","","","","",""
"","5582.81499997247","sequential-stimulus-presentation-old","120","596804","0.0-29.0-1.2","SS1618435647239","trial","","40","500","6082.81499997247","images/stimuli/spore_stims/complex_02_A_b.gif","images/stimuli/spore_stims/complex_10_A_a.gif","self_paced","","10","complex_dissimilar","images/stimuli/spore_stims/complex_10_A_a.gif","","","","",""
"","null","html-keyboard-response","121","598005","0.0-29.0-0.3","SS1618435647239","","","null","","","","","","<p><img src= images/blank.png width =""600"" height = ""600"" style=""position:fixed;top:50%; left:50%; transform: translate(-50%, -50%); border:5px solid black"">","","","","","","","",""
"","2750.9200000204146","sequential-stimulus-presentation-old","122","601259","0.0-29.0-1.3","SS1618435647239","trial","","40","500","3250.9200000204146","images/stimuli/spore_stims/complex_02_A_b.gif","images/stimuli/spore_stims/complex_10_A_a.gif","self_paced","","10","complex_dissimilar","images/stimuli/spore_stims/complex_02_A_b.gif","","","","",""
"","3244.810000003781","survey-multi-choice","123","604505","0.0-30.0","SS1618435647239","math_question","","","","","","","","","","","","{""Q0"":""15""}","[0]","15","",""
"","null","html-keyboard-response","124","605498","0.0-31.0-0.0","SS1618435647239","","","null","","","","","","<p><img src= images/blank.png width =""600"" height = ""600"" style=""position:fixed;top:50%; left:50%; transform: translate(-50%, -50%); border:5px solid black"">","","","","","","","",""
"","498.10500000603497","sequential-stimulus-presentation-old","125","610999","0.0-31.0-1.0","SS1618435647239","trial","","40","500","998.105000006035","images/stimuli/spore_stims/simple_07_A_b.gif","images/stimuli/spore_stims/simple_02_A_a.gif","forced_long","","11","simple_dissimilar","images/stimuli/spore_stims/simple_02_A_a.gif","","","","",""
"","null","html-keyboard-response","126","612048","0.0-31.0-0.1","SS1618435647239","","","null","","","","","","<p><img src= images/blank.png width =""600"" height = ""600"" style=""position:fixed;top:50%; left:50%; transform: translate(-50%, -50%); border:5px solid black"">","","","","","","","",""
"","5830.674999975599","sequential-stimulus-presentation-old","127","618381","0.0-31.0-1.1","SS1618435647239","trial","","40","500","6330.674999975599","images/stimuli/spore_stims/simple_07_A_b.gif","images/stimuli/spore_stims/simple_02_A_a.gif","forced_long","","11","simple_dissimilar","images/stimuli/spore_stims/simple_02_A_a.gif","","","","",""
"","null","html-keyboard-response","128","619387","0.0-31.0-0.2","SS1618435647239","","","null","","","","","","<p><img src= images/blank.png width =""600"" height = ""600"" style=""position:fixed;top:50%; left:50%; transform: translate(-50%, -50%); border:5px solid black"">","","","","","","","",""
"","6013.130000035744","sequential-stimulus-presentation-old","129","625905","0.0-31.0-1.2","SS1618435647239","trial","","40","500","6513.130000035744","images/stimuli/spore_stims/simple_07_A_b.gif","images/stimuli/spore_stims/simple_02_A_a.gif","forced_long","","11","simple_dissimilar","images/stimuli/spore_stims/simple_02_A_a.gif","","","","",""
"","null","html-keyboard-response","130","626927","0.0-31.0-0.3","SS1618435647239","","","null","","","","","","<p><img src= images/blank.png width =""600"" height = ""600"" style=""position:fixed;top:50%; left:50%; transform: translate(-50%, -50%); border:5px solid black"">","","","","","","","",""
"","4727.469999983441","sequential-stimulus-presentation-old","131","632158","0.0-31.0-1.3","SS1618435647239","trial","","40","500","5227.469999983441","images/stimuli/spore_stims/simple_07_A_b.gif","images/stimuli/spore_stims/simple_02_A_a.gif","forced_long","","11","simple_dissimilar","images/stimuli/spore_stims/simple_07_A_b.gif","","","","",""
"","null","html-keyboard-response","132","633162","0.0-31.0-0.4","SS1618435647239","","","null","","","","","","<p><img src= images/blank.png width =""600"" height = ""600"" style=""position:fixed;top:50%; left:50%; transform: translate(-50%, -50%); border:5px solid black"">","","","","","","","",""
"","4818.130000028759","sequential-stimulus-presentation-old","133","638483","0.0-31.0-1.4","SS1618435647239","trial","","40","500","5318.130000028759","images/stimuli/spore_stims/simple_07_A_b.gif","images/stimuli/spore_stims/simple_02_A_a.gif","forced_long","","11","simple_dissimilar","images/stimuli/spore_stims/simple_02_A_a.gif","","","","",""
"","null","html-keyboard-response","134","639453","0.0-31.0-0.5","SS1618435647239","","","null","","","","","","<p><img src= images/blank.png width =""600"" height = ""600"" style=""position:fixed;top:50%; left:50%; transform: translate(-50%, -50%); border:5px solid black"">","","","","","","","",""
"","6105.609999969602","sequential-stimulus-presentation-old","135","646061","0.0-31.0-1.5","SS1618435647239","trial","","40","500","6605.609999969602","images/stimuli/spore_stims/simple_07_A_b.gif","images/stimuli/spore_stims/simple_02_A_a.gif","forced_long","","11","simple_dissimilar","images/stimuli/spore_stims/simple_02_A_a.gif","","","","",""
"[{""page_index"":0,""viewing_time"":4646.559999964666}]","4646.735000016633","instructions","136","650709","0.0-32.0","SS1618435647239","instructions","","","","","","","","","","","","","","","",""
"","5572.760000010021","survey-likert","137","656284","0.0-33.0","SS1618435647239","similarity_question","","","","","","","","","","","","{""Q0"":1}","[0]","","images/stimuli/spore_stims/simple_02_A_b.gif","images/stimuli/spore_stims/simple_04_A_a.gif"
"","5577.004999970086","survey-likert","138","661862","0.0-34.0","SS1618435647239","similarity_question","","","","","","","","","","","","{""Q0"":1}","[0]","","images/stimuli/spore_stims/complex_03_A_b.gif","images/stimuli/spore_stims/complex_12_A_a.gif"
"","5890.080000041053","survey-likert","139","667754","0.0-35.0","SS1618435647239","similarity_question","","","","","","","","","","","","{""Q0"":0}","[0]","","images/stimuli/spore_stims/complex_17_A_b.gif","images/stimuli/spore_stims/complex_05_A_a.gif"
"","3934.9849999998696","survey-likert","140","671691","0.0-36.0","SS1618435647239","similarity_question","","","","","","","","","","","","{""Q0"":0}","[0]","","images/stimuli/spore_stims/complex_11_A_b.gif","images/stimuli/spore_stims/complex_19_A_a.gif"
"","6805.72000000393","survey-likert","141","678499","0.0-37.0","SS1618435647239","similarity_question","","","","","","","","","","","","{""Q0"":4}","[0]","","images/stimuli/spore_stims/simple_04_A_b.gif","images/stimuli/spore_stims/simple_17_A_a.gif"
"","4312.210000003688","survey-likert","142","682813","0.0-38.0","SS1618435647239","similarity_question","","","","","","","","","","","","{""Q0"":0}","[0]","","images/stimuli/spore_stims/complex_14_A_a.gif","images/stimuli/spore_stims/complex_15_A_b.gif"
"","4500.44999999227","survey-likert","143","687315","0.0-39.0","SS1618435647239","similarity_question","","","","","","","","","","","","{""Q0"":5}","[0]","","images/stimuli/spore_stims/simple_09_A_a.gif","images/stimuli/spore_stims/simple_12_A_b.gif"
"","2439.7699999972247","survey-likert","144","689756","0.0-40.0","SS1618435647239","similarity_question","","","","","","","","","","","","{""Q0"":4}","[0]","","images/stimuli/spore_stims/simple_07_A_b.gif","images/stimuli/spore_stims/simple_02_A_a.gif"
"","2820.4549999791197","survey-likert","145","692579","0.0-41.0","SS1618435647239","similarity_question","","","","","","","","","","","","{""Q0"":4}","[0]","","images/stimuli/spore_stims/simple_01_A_a.gif","images/stimuli/spore_stims/simple_05_A_b.gif"
"","5934.295000042766","survey-likert","146","698515","0.0-42.0","SS1618435647239","similarity_question","","","","","","","","","","","","{""Q0"":1}","[0]","","images/stimuli/spore_stims/complex_10_A_a.gif","images/stimuli/spore_stims/complex_02_A_b.gif"
"","2837.759999965783","survey-likert","147","701355","0.0-43.0","SS1618435647239","similarity_question","","","","","","","","","","","","{""Q0"":4}","[0]","","images/stimuli/spore_stims/simple_14_A_a.gif","images/stimuli/spore_stims/simple_13_A_b.gif"
"","3434.9700000020675","survey-likert","148","704791","0.0-44.0","SS1618435647239","similarity_question","","","","","","","","","","","","{""Q0"":1}","[0]","","images/stimuli/spore_stims/complex_18_A_b.gif","images/stimuli/spore_stims/complex_11_A_a.gif"
"[{""page_index"":0,""viewing_time"":3275.439999997616}]","3275.5699999979697","instructions","149","708068","0.0-45.0","SS1618435647239","instructions","","","","","","","","","","","","","","","",""
"","5573.405000031926","survey-likert","150","713643","0.0-46.0","SS1618435647239","","","","","","","","","images/stimuli/spore_stims/complex_02_A_b.gif","","","","{""Q0"":4}","[0]","","",""
"","2588.9449999667704","survey-likert","151","716234","0.0-47.0","SS1618435647239","","","","","","","","","images/stimuli/spore_stims/simple_17_A_a.gif","","","","{""Q0"":1}","[0]","","",""
"","4372.344999981578","survey-likert","152","720609","0.0-48.0","SS1618435647239","","","","","","","","","images/stimuli/spore_stims/complex_11_A_a.gif","","","","{""Q0"":4}","[0]","","",""
"","3401.9749999861233","survey-likert","153","724012","0.0-49.0","SS1618435647239","","","","","","","","","images/stimuli/spore_stims/simple_01_A_a.gif","","","","{""Q0"":0}","[0]","","",""
"","2277.7750000241213","survey-likert","154","726292","0.0-50.0","SS1618435647239","","","","","","","","","images/stimuli/spore_stims/complex_17_A_b.gif","","","","{""Q0"":5}","[0]","","",""
"","4307.884999958333","survey-likert","155","730602","0.0-51.0","SS1618435647239","","","","","","","","","images/stimuli/spore_stims/simple_09_A_a.gif","","","","{""Q0"":1}","[0]","","",""
"","2984.6900000120513","survey-likert","156","733588","0.0-52.0","SS1618435647239","","","","","","","","","images/stimuli/spore_stims/simple_02_A_b.gif","","","","{""Q0"":0}","[0]","","",""
"","4071.98500004597","survey-likert","157","737662","0.0-53.0","SS1618435647239","","","","","","","","","images/stimuli/spore_stims/complex_03_A_b.gif","","","","{""Q0"":4}","[0]","","",""
"","2877.360000042245","survey-likert","158","740541","0.0-54.0","SS1618435647239","","","","","","","","","images/stimuli/spore_stims/complex_15_A_b.gif","","","","{""Q0"":5}","[0]","","",""
"","2156.0300000128336","survey-likert","159","742699","0.0-55.0","SS1618435647239","","","","","","","","","images/stimuli/spore_stims/complex_19_A_a.gif","","","","{""Q0"":5}","[0]","","",""
"","4091.214999963995","survey-likert","160","746793","0.0-56.0","SS1618435647239","","","","","","","","","images/stimuli/spore_stims/simple_07_A_b.gif","","","","{""Q0"":1}","[0]","","",""
"","2422.6699999999255","survey-likert","161","749217","0.0-57.0","SS1618435647239","","","","","","","","","images/stimuli/spore_stims/simple_13_A_b.gif","","","","{""Q0"":0}","[0]","","",""
"[{""page_index"":0,""viewing_time"":1191.6049999999814}]","1191.7350000003353","instructions","162","750411","0.0-58.0","SS1618435647239","instructions","","","","","","","","","","","","","","","",""
"","2841.695000010077","demog-age","163","753255","0.0-59.0","SS1618435647239","","","","","","","","","","","","","{""age"":""26""}","","","",""
"","6411.069999972824","demog-ethnic-US","164","759669","0.0-60.0","SS1618435647239","","","","","","","","","","","","","{""ethnicity"":[""White""]}","[0]","","",""
"","6436.279999965336","demog-gender-and-education","165","766108","0.0-61.0","SS1618435647239","","","","","","","","","","","","","{""gender"":""Male"",""education"":""Bachelor's Degree""}","[0,1]","","",""
"","11875.075000047218","survey-text","166","777986","0.0-62.0","SS1618435647239","feedback","","","","","","","","","","","","{""Q0"":""No""}","","","",""
"[{""page_index"":0,""viewing_time"":1406.070000026375}]","1406.1900000087917","instructions","167","779394","0.0-63.0","SS1618435647239","instructions","","","","","","","","","","","","","","","",""
