"view_history","rt","trial_type","trial_index","time_elapsed","internal_node_id","subject","stimulus_type","trial_stimulus","key_press","minimum_viewing_duration","trial_looking_time","block_deviant","block_background","exposure_type","stimulus","block_number","block_type","stimulus_displayed","responses","question_order","math_correct_answer","stimulus_left","stimulus_right"
"[{""page_index"":0,""viewing_time"":20724}]","20724","instructions","0","20727","0.0-0.0","SS1618435635264","","","","","","","","","","","","","","","","",""
"[{""page_index"":0,""viewing_time"":16059},{""page_index"":1,""viewing_time"":7380}]","23440","instructions","1","46183","0.0-1.0","SS1618435635264","instructions","","","","","","","","","","","","","","","",""
"","10045","sequential-stimulus-presentation-old","2","56741","0.0-2.0","SS1618435635264","","","40","500","10545","null","null","self_paced","","","","","","","","",""
"","9621","sequential-stimulus-presentation-old","3","66881","0.0-3.0","SS1618435635264","","","40","500","10121","null","null","self_paced","","","","","","","","",""
"[{""page_index"":0,""viewing_time"":26767}]","26767","instructions","4","93654","0.0-4.0","SS1618435635264","instructions","","","","","","","","","","","","","","","",""
"","2610","sequential-stimulus-presentation-old","5","101282","0.0-5.0","SS1618435635264","","","40","500","3110","null","null","forced_long","","","","","","","","",""
"","4436","sequential-stimulus-presentation-old","6","105774","0.0-6.0","SS1618435635264","","","40","50","4486","null","null","forced_long","","","","","","","","",""
"[{""page_index"":0,""viewing_time"":3600}]","3600","instructions","7","109377","0.0-7.0","SS1618435635264","instructions","","","","","","","","","","","","","","","",""
"[{""page_index"":0,""viewing_time"":7458},{""page_index"":1,""viewing_time"":17633},{""page_index"":2,""viewing_time"":3006},{""page_index"":3,""viewing_time"":1935},{""page_index"":4,""viewing_time"":1791}]","31824","instructions","8","141202","0.0-8.0","SS1618435635264","instructions","","","","","","","","","","","","","","","",""
"","null","html-keyboard-response","9","142247","0.0-9.0-0.0","SS1618435635264","","","null","","","","","","<p><img src= images/blank.png width =""600"" height = ""600"" style=""position:fixed;top:50%; left:50%; transform: translate(-50%, -50%); border:5px solid black"">","","","","","","","",""
"","3537","sequential-stimulus-presentation-old","10","145846","0.0-9.0-1.0","SS1618435635264","trial","","40","500","4037","images/stimuli/spore_stims/complex_09_A_a.gif","images/stimuli/spore_stims/complex_10_A_b.gif","forced_short","","0","complex_dissimilar","images/stimuli/spore_stims/complex_10_A_b.gif","","","","",""
"","null","html-keyboard-response","11","146837","0.0-9.0-0.1","SS1618435635264","","","null","","","","","","<p><img src= images/blank.png width =""600"" height = ""600"" style=""position:fixed;top:50%; left:50%; transform: translate(-50%, -50%); border:5px solid black"">","","","","","","","",""
"","10224","sequential-stimulus-presentation-old","12","157572","0.0-9.0-1.1","SS1618435635264","trial","","40","500","10724","images/stimuli/spore_stims/complex_09_A_a.gif","images/stimuli/spore_stims/complex_10_A_b.gif","forced_short","","0","complex_dissimilar","images/stimuli/spore_stims/complex_10_A_b.gif","","","","",""
"","null","html-keyboard-response","13","158526","0.0-9.0-0.2","SS1618435635264","","","null","","","","","","<p><img src= images/blank.png width =""600"" height = ""600"" style=""position:fixed;top:50%; left:50%; transform: translate(-50%, -50%); border:5px solid black"">","","","","","","","",""
"","3189","sequential-stimulus-presentation-old","14","162232","0.0-9.0-1.2","SS1618435635264","trial","","40","500","3689","images/stimuli/spore_stims/complex_09_A_a.gif","images/stimuli/spore_stims/complex_10_A_b.gif","forced_short","","0","complex_dissimilar","images/stimuli/spore_stims/complex_10_A_b.gif","","","","",""
"","null","html-keyboard-response","15","163206","0.0-9.0-0.3","SS1618435635264","","","null","","","","","","<p><img src= images/blank.png width =""600"" height = ""600"" style=""position:fixed;top:50%; left:50%; transform: translate(-50%, -50%); border:5px solid black"">","","","","","","","",""
"","4209","sequential-stimulus-presentation-old","16","167925","0.0-9.0-1.3","SS1618435635264","trial","","40","500","4709","images/stimuli/spore_stims/complex_09_A_a.gif","images/stimuli/spore_stims/complex_10_A_b.gif","forced_short","","0","complex_dissimilar","images/stimuli/spore_stims/complex_10_A_b.gif","","","","",""
"","null","html-keyboard-response","17","169209","0.0-9.0-0.4","SS1618435635264","","","null","","","","","","<p><img src= images/blank.png width =""600"" height = ""600"" style=""position:fixed;top:50%; left:50%; transform: translate(-50%, -50%); border:5px solid black"">","","","","","","","",""
"","3903","sequential-stimulus-presentation-old","18","173628","0.0-9.0-1.4","SS1618435635264","trial","","40","500","4403","images/stimuli/spore_stims/complex_09_A_a.gif","images/stimuli/spore_stims/complex_10_A_b.gif","forced_short","","0","complex_dissimilar","images/stimuli/spore_stims/complex_10_A_b.gif","","","","",""
"","3213","survey-multi-choice","19","176847","0.0-10.0","SS1618435635264","math_question","","","","","","","","","","","","{""Q0"":""10""}","[0]","10","",""
"","null","html-keyboard-response","20","177732","0.0-11.0-0.0","SS1618435635264","","","null","","","","","","<p><img src= images/blank.png width =""600"" height = ""600"" style=""position:fixed;top:50%; left:50%; transform: translate(-50%, -50%); border:5px solid black"">","","","","","","","",""
"","1925","sequential-stimulus-presentation-old","21","179718","0.0-11.0-1.0","SS1618435635264","trial","","40","500","2425","images/stimuli/spore_stims/complex_10_A_a.gif","images/stimuli/spore_stims/complex_07_A_b.gif","forced_short","","1","complex_dissimilar","images/stimuli/spore_stims/complex_07_A_b.gif","","","","",""
"","null","html-keyboard-response","22","180972","0.0-11.0-0.1","SS1618435635264","","","null","","","","","","<p><img src= images/blank.png width =""600"" height = ""600"" style=""position:fixed;top:50%; left:50%; transform: translate(-50%, -50%); border:5px solid black"">","","","","","","","",""
"","5779","sequential-stimulus-presentation-old","23","187261","0.0-11.0-1.1","SS1618435635264","trial","","40","500","6279","images/stimuli/spore_stims/complex_10_A_a.gif","images/stimuli/spore_stims/complex_07_A_b.gif","forced_short","","1","complex_dissimilar","images/stimuli/spore_stims/complex_07_A_b.gif","","","","",""
"","null","html-keyboard-response","24","188208","0.0-11.0-0.2","SS1618435635264","","","null","","","","","","<p><img src= images/blank.png width =""600"" height = ""600"" style=""position:fixed;top:50%; left:50%; transform: translate(-50%, -50%); border:5px solid black"">","","","","","","","",""
"","5972","sequential-stimulus-presentation-old","25","194691","0.0-11.0-1.2","SS1618435635264","trial","","40","500","6472","images/stimuli/spore_stims/complex_10_A_a.gif","images/stimuli/spore_stims/complex_07_A_b.gif","forced_short","","1","complex_dissimilar","images/stimuli/spore_stims/complex_10_A_a.gif","","","","",""
"","null","html-keyboard-response","26","195646","0.0-11.0-0.3","SS1618435635264","","","null","","","","","","<p><img src= images/blank.png width =""600"" height = ""600"" style=""position:fixed;top:50%; left:50%; transform: translate(-50%, -50%); border:5px solid black"">","","","","","","","",""
"","8128","sequential-stimulus-presentation-old","27","204284","0.0-11.0-1.3","SS1618435635264","trial","","40","500","8628","images/stimuli/spore_stims/complex_10_A_a.gif","images/stimuli/spore_stims/complex_07_A_b.gif","forced_short","","1","complex_dissimilar","images/stimuli/spore_stims/complex_07_A_b.gif","","","","",""
"","2673","survey-multi-choice","28","206963","0.0-12.0","SS1618435635264","math_question","","","","","","","","","","","","{""Q0"":""10""}","[0]","10","",""
"","null","html-keyboard-response","29","207903","0.0-13.0-0.0","SS1618435635264","","","null","","","","","","<p><img src= images/blank.png width =""600"" height = ""600"" style=""position:fixed;top:50%; left:50%; transform: translate(-50%, -50%); border:5px solid black"">","","","","","","","",""
"","1709","sequential-stimulus-presentation-old","30","209672","0.0-13.0-1.0","SS1618435635264","trial","","40","500","2209","images/stimuli/spore_stims/simple_06_A_a.gif","images/stimuli/spore_stims/simple_14_A_b.gif","forced_short","","2","simple_dissimilar","images/stimuli/spore_stims/simple_14_A_b.gif","","","","",""
"","null","html-keyboard-response","31","210573","0.0-13.0-0.1","SS1618435635264","","","null","","","","","","<p><img src= images/blank.png width =""600"" height = ""600"" style=""position:fixed;top:50%; left:50%; transform: translate(-50%, -50%); border:5px solid black"">","","","","","","","",""
"","3288","sequential-stimulus-presentation-old","32","214369","0.0-13.0-1.1","SS1618435635264","trial","","40","500","3788","images/stimuli/spore_stims/simple_06_A_a.gif","images/stimuli/spore_stims/simple_14_A_b.gif","forced_short","","2","simple_dissimilar","images/stimuli/spore_stims/simple_06_A_a.gif","","","","",""
"","null","html-keyboard-response","33","215189","0.0-13.0-0.2","SS1618435635264","","","null","","","","","","<p><img src= images/blank.png width =""600"" height = ""600"" style=""position:fixed;top:50%; left:50%; transform: translate(-50%, -50%); border:5px solid black"">","","","","","","","",""
"","2520","sequential-stimulus-presentation-old","34","218222","0.0-13.0-1.2","SS1618435635264","trial","","40","500","3020","images/stimuli/spore_stims/simple_06_A_a.gif","images/stimuli/spore_stims/simple_14_A_b.gif","forced_short","","2","simple_dissimilar","images/stimuli/spore_stims/simple_14_A_b.gif","","","","",""
"","null","html-keyboard-response","35","219466","0.0-13.0-0.3","SS1618435635264","","","null","","","","","","<p><img src= images/blank.png width =""600"" height = ""600"" style=""position:fixed;top:50%; left:50%; transform: translate(-50%, -50%); border:5px solid black"">","","","","","","","",""
"","1113","sequential-stimulus-presentation-old","36","221094","0.0-13.0-1.3","SS1618435635264","trial","","40","500","1613","images/stimuli/spore_stims/simple_06_A_a.gif","images/stimuli/spore_stims/simple_14_A_b.gif","forced_short","","2","simple_dissimilar","images/stimuli/spore_stims/simple_14_A_b.gif","","","","",""
"","null","html-keyboard-response","37","221941","0.0-13.0-0.4","SS1618435635264","","","null","","","","","","<p><img src= images/blank.png width =""600"" height = ""600"" style=""position:fixed;top:50%; left:50%; transform: translate(-50%, -50%); border:5px solid black"">","","","","","","","",""
"","1444","sequential-stimulus-presentation-old","38","223898","0.0-13.0-1.4","SS1618435635264","trial","","40","500","1944","images/stimuli/spore_stims/simple_06_A_a.gif","images/stimuli/spore_stims/simple_14_A_b.gif","forced_short","","2","simple_dissimilar","images/stimuli/spore_stims/simple_06_A_a.gif","","","","",""
"","2826","survey-multi-choice","39","226731","0.0-14.0","SS1618435635264","math_question","","","","","","","","","","","","{""Q0"":""4""}","[0]","4","",""
"","null","html-keyboard-response","40","227684","0.0-15.0-0.0","SS1618435635264","","","null","","","","","","<p><img src= images/blank.png width =""600"" height = ""600"" style=""position:fixed;top:50%; left:50%; transform: translate(-50%, -50%); border:5px solid black"">","","","","","","","",""
"","2345","sequential-stimulus-presentation-old","41","235039","0.0-15.0-1.0","SS1618435635264","trial","","40","500","2845","images/stimuli/spore_stims/simple_15_A_b.gif","images/stimuli/spore_stims/simple_07_A_a.gif","forced_long","","3","simple_dissimilar","images/stimuli/spore_stims/simple_07_A_a.gif","","","","",""
"","null","html-keyboard-response","42","236311","0.0-15.0-0.1","SS1618435635264","","","null","","","","","","<p><img src= images/blank.png width =""600"" height = ""600"" style=""position:fixed;top:50%; left:50%; transform: translate(-50%, -50%); border:5px solid black"">","","","","","","","",""
"","2653","sequential-stimulus-presentation-old","43","239478","0.0-15.0-1.1","SS1618435635264","trial","","40","500","3153","images/stimuli/spore_stims/simple_15_A_b.gif","images/stimuli/spore_stims/simple_07_A_a.gif","forced_long","","3","simple_dissimilar","images/stimuli/spore_stims/simple_15_A_b.gif","","","","",""
"","null","html-keyboard-response","44","240503","0.0-15.0-0.2","SS1618435635264","","","null","","","","","","<p><img src= images/blank.png width =""600"" height = ""600"" style=""position:fixed;top:50%; left:50%; transform: translate(-50%, -50%); border:5px solid black"">","","","","","","","",""
"","519","sequential-stimulus-presentation-old","45","241541","0.0-15.0-1.2","SS1618435635264","trial","","40","500","1019","images/stimuli/spore_stims/simple_15_A_b.gif","images/stimuli/spore_stims/simple_07_A_a.gif","forced_long","","3","simple_dissimilar","images/stimuli/spore_stims/simple_07_A_a.gif","","","","",""
"","null","html-keyboard-response","46","242551","0.0-15.0-0.3","SS1618435635264","","","null","","","","","","<p><img src= images/blank.png width =""600"" height = ""600"" style=""position:fixed;top:50%; left:50%; transform: translate(-50%, -50%); border:5px solid black"">","","","","","","","",""
"","915","sequential-stimulus-presentation-old","47","243980","0.0-15.0-1.3","SS1618435635264","trial","","40","500","1415","images/stimuli/spore_stims/simple_15_A_b.gif","images/stimuli/spore_stims/simple_07_A_a.gif","forced_long","","3","simple_dissimilar","images/stimuli/spore_stims/simple_07_A_a.gif","","","","",""
"","null","html-keyboard-response","48","245219","0.0-15.0-0.4","SS1618435635264","","","null","","","","","","<p><img src= images/blank.png width =""600"" height = ""600"" style=""position:fixed;top:50%; left:50%; transform: translate(-50%, -50%); border:5px solid black"">","","","","","","","",""
"","865","sequential-stimulus-presentation-old","49","246599","0.0-15.0-1.4","SS1618435635264","trial","","40","500","1365","images/stimuli/spore_stims/simple_15_A_b.gif","images/stimuli/spore_stims/simple_07_A_a.gif","forced_long","","3","simple_dissimilar","images/stimuli/spore_stims/simple_07_A_a.gif","","","","",""
"","null","html-keyboard-response","50","247444","0.0-15.0-0.5","SS1618435635264","","","null","","","","","","<p><img src= images/blank.png width =""600"" height = ""600"" style=""position:fixed;top:50%; left:50%; transform: translate(-50%, -50%); border:5px solid black"">","","","","","","","",""
"","669","sequential-stimulus-presentation-old","51","248625","0.0-15.0-1.5","SS1618435635264","trial","","40","500","1169","images/stimuli/spore_stims/simple_15_A_b.gif","images/stimuli/spore_stims/simple_07_A_a.gif","forced_long","","3","simple_dissimilar","images/stimuli/spore_stims/simple_07_A_a.gif","","","","",""
"","2597","survey-multi-choice","52","251226","0.0-16.0","SS1618435635264","math_question","","","","","","","","","","","","{""Q0"":""12""}","[0]","12","",""
"","null","html-keyboard-response","53","252140","0.0-17.0-0.0","SS1618435635264","","","null","","","","","","<p><img src= images/blank.png width =""600"" height = ""600"" style=""position:fixed;top:50%; left:50%; transform: translate(-50%, -50%); border:5px solid black"">","","","","","","","",""
"","5088","sequential-stimulus-presentation-old","54","257743","0.0-17.0-1.0","SS1618435635264","trial","","40","500","5588","images/stimuli/spore_stims/complex_17_A_a.gif","images/stimuli/spore_stims/complex_18_A_b.gif","self_paced","","4","complex_dissimilar","images/stimuli/spore_stims/complex_18_A_b.gif","","","","",""
"","null","html-keyboard-response","55","258659","0.0-17.0-0.1","SS1618435635264","","","null","","","","","","<p><img src= images/blank.png width =""600"" height = ""600"" style=""position:fixed;top:50%; left:50%; transform: translate(-50%, -50%); border:5px solid black"">","","","","","","","",""
"","984","sequential-stimulus-presentation-old","56","260156","0.0-17.0-1.1","SS1618435635264","trial","","40","500","1484","images/stimuli/spore_stims/complex_17_A_a.gif","images/stimuli/spore_stims/complex_18_A_b.gif","self_paced","","4","complex_dissimilar","images/stimuli/spore_stims/complex_18_A_b.gif","","","","",""
"","null","html-keyboard-response","57","261394","0.0-17.0-0.2","SS1618435635264","","","null","","","","","","<p><img src= images/blank.png width =""600"" height = ""600"" style=""position:fixed;top:50%; left:50%; transform: translate(-50%, -50%); border:5px solid black"">","","","","","","","",""
"","1098","sequential-stimulus-presentation-old","58","263001","0.0-17.0-1.2","SS1618435635264","trial","","40","500","1598","images/stimuli/spore_stims/complex_17_A_a.gif","images/stimuli/spore_stims/complex_18_A_b.gif","self_paced","","4","complex_dissimilar","images/stimuli/spore_stims/complex_18_A_b.gif","","","","",""
"","null","html-keyboard-response","59","263967","0.0-17.0-0.3","SS1618435635264","","","null","","","","","","<p><img src= images/blank.png width =""600"" height = ""600"" style=""position:fixed;top:50%; left:50%; transform: translate(-50%, -50%); border:5px solid black"">","","","","","","","",""
"","4051","sequential-stimulus-presentation-old","60","268533","0.0-17.0-1.3","SS1618435635264","trial","","40","500","4551","images/stimuli/spore_stims/complex_17_A_a.gif","images/stimuli/spore_stims/complex_18_A_b.gif","self_paced","","4","complex_dissimilar","images/stimuli/spore_stims/complex_17_A_a.gif","","","","",""
"","2438","survey-multi-choice","61","270976","0.0-18.0","SS1618435635264","math_question","","","","","","","","","","","","{""Q0"":""5""}","[0]","5","",""
"","null","html-keyboard-response","62","272040","0.0-19.0-0.0","SS1618435635264","","","null","","","","","","<p><img src= images/blank.png width =""600"" height = ""600"" style=""position:fixed;top:50%; left:50%; transform: translate(-50%, -50%); border:5px solid black"">","","","","","","","",""
"","971","sequential-stimulus-presentation-old","63","278026","0.0-19.0-1.0","SS1618435635264","trial","","40","500","1471","images/stimuli/spore_stims/complex_04_A_a.gif","images/stimuli/spore_stims/complex_12_A_b.gif","forced_long","","5","complex_dissimilar","images/stimuli/spore_stims/complex_12_A_b.gif","","","","",""
"","null","html-keyboard-response","64","279242","0.0-19.0-0.1","SS1618435635264","","","null","","","","","","<p><img src= images/blank.png width =""600"" height = ""600"" style=""position:fixed;top:50%; left:50%; transform: translate(-50%, -50%); border:5px solid black"">","","","","","","","",""
"","5083","sequential-stimulus-presentation-old","65","284842","0.0-19.0-1.1","SS1618435635264","trial","","40","500","5583","images/stimuli/spore_stims/complex_04_A_a.gif","images/stimuli/spore_stims/complex_12_A_b.gif","forced_long","","5","complex_dissimilar","images/stimuli/spore_stims/complex_12_A_b.gif","","","","",""
"","null","html-keyboard-response","66","285901","0.0-19.0-0.2","SS1618435635264","","","null","","","","","","<p><img src= images/blank.png width =""600"" height = ""600"" style=""position:fixed;top:50%; left:50%; transform: translate(-50%, -50%); border:5px solid black"">","","","","","","","",""
"","3559","sequential-stimulus-presentation-old","67","289970","0.0-19.0-1.2","SS1618435635264","trial","","40","500","4059","images/stimuli/spore_stims/complex_04_A_a.gif","images/stimuli/spore_stims/complex_12_A_b.gif","forced_long","","5","complex_dissimilar","images/stimuli/spore_stims/complex_12_A_b.gif","","","","",""
"","null","html-keyboard-response","68","291086","0.0-19.0-0.3","SS1618435635264","","","null","","","","","","<p><img src= images/blank.png width =""600"" height = ""600"" style=""position:fixed;top:50%; left:50%; transform: translate(-50%, -50%); border:5px solid black"">","","","","","","","",""
"","206","sequential-stimulus-presentation-old","69","291802","0.0-19.0-1.3","SS1618435635264","trial","","40","500","706","images/stimuli/spore_stims/complex_04_A_a.gif","images/stimuli/spore_stims/complex_12_A_b.gif","forced_long","","5","complex_dissimilar","images/stimuli/spore_stims/complex_12_A_b.gif","","","","",""
"","null","html-keyboard-response","70","292740","0.0-19.0-0.4","SS1618435635264","","","null","","","","","","<p><img src= images/blank.png width =""600"" height = ""600"" style=""position:fixed;top:50%; left:50%; transform: translate(-50%, -50%); border:5px solid black"">","","","","","","","",""
"","1520","sequential-stimulus-presentation-old","71","294775","0.0-19.0-1.4","SS1618435635264","trial","","40","500","2020","images/stimuli/spore_stims/complex_04_A_a.gif","images/stimuli/spore_stims/complex_12_A_b.gif","forced_long","","5","complex_dissimilar","images/stimuli/spore_stims/complex_12_A_b.gif","","","","",""
"","2453","survey-multi-choice","72","297234","0.0-20.0","SS1618435635264","math_question","","","","","","","","","","","","{""Q0"":""2""}","[0]","2","",""
"","null","html-keyboard-response","73","298254","0.0-21.0-0.0","SS1618435635264","","","null","","","","","","<p><img src= images/blank.png width =""600"" height = ""600"" style=""position:fixed;top:50%; left:50%; transform: translate(-50%, -50%); border:5px solid black"">","","","","","","","",""
"","1742","sequential-stimulus-presentation-old","74","305010","0.0-21.0-1.0","SS1618435635264","trial","","40","500","2242","images/stimuli/spore_stims/complex_14_A_a.gif","images/stimuli/spore_stims/complex_03_A_b.gif","forced_long","","6","complex_dissimilar","images/stimuli/spore_stims/complex_03_A_b.gif","","","","",""
"","null","html-keyboard-response","75","306260","0.0-21.0-0.1","SS1618435635264","","","null","","","","","","<p><img src= images/blank.png width =""600"" height = ""600"" style=""position:fixed;top:50%; left:50%; transform: translate(-50%, -50%); border:5px solid black"">","","","","","","","",""
"","4637","sequential-stimulus-presentation-old","76","311408","0.0-21.0-1.1","SS1618435635264","trial","","40","500","5137","images/stimuli/spore_stims/complex_14_A_a.gif","images/stimuli/spore_stims/complex_03_A_b.gif","forced_long","","6","complex_dissimilar","images/stimuli/spore_stims/complex_03_A_b.gif","","","","",""
"","null","html-keyboard-response","77","312265","0.0-21.0-0.2","SS1618435635264","","","null","","","","","","<p><img src= images/blank.png width =""600"" height = ""600"" style=""position:fixed;top:50%; left:50%; transform: translate(-50%, -50%); border:5px solid black"">","","","","","","","",""
"","809","sequential-stimulus-presentation-old","78","313582","0.0-21.0-1.2","SS1618435635264","trial","","40","500","1309","images/stimuli/spore_stims/complex_14_A_a.gif","images/stimuli/spore_stims/complex_03_A_b.gif","forced_long","","6","complex_dissimilar","images/stimuli/spore_stims/complex_03_A_b.gif","","","","",""
"","null","html-keyboard-response","79","314503","0.0-21.0-0.3","SS1618435635264","","","null","","","","","","<p><img src= images/blank.png width =""600"" height = ""600"" style=""position:fixed;top:50%; left:50%; transform: translate(-50%, -50%); border:5px solid black"">","","","","","","","",""
"","1107","sequential-stimulus-presentation-old","80","316118","0.0-21.0-1.3","SS1618435635264","trial","","40","500","1607","images/stimuli/spore_stims/complex_14_A_a.gif","images/stimuli/spore_stims/complex_03_A_b.gif","forced_long","","6","complex_dissimilar","images/stimuli/spore_stims/complex_03_A_b.gif","","","","",""
"","null","html-keyboard-response","81","317380","0.0-21.0-0.4","SS1618435635264","","","null","","","","","","<p><img src= images/blank.png width =""600"" height = ""600"" style=""position:fixed;top:50%; left:50%; transform: translate(-50%, -50%); border:5px solid black"">","","","","","","","",""
"","3847","sequential-stimulus-presentation-old","82","321735","0.0-21.0-1.4","SS1618435635264","trial","","40","500","4347","images/stimuli/spore_stims/complex_14_A_a.gif","images/stimuli/spore_stims/complex_03_A_b.gif","forced_long","","6","complex_dissimilar","images/stimuli/spore_stims/complex_14_A_a.gif","","","","",""
"","null","html-keyboard-response","83","323019","0.0-21.0-0.5","SS1618435635264","","","null","","","","","","<p><img src= images/blank.png width =""600"" height = ""600"" style=""position:fixed;top:50%; left:50%; transform: translate(-50%, -50%); border:5px solid black"">","","","","","","","",""
"","2442","sequential-stimulus-presentation-old","84","325968","0.0-21.0-1.5","SS1618435635264","trial","","40","500","2942","images/stimuli/spore_stims/complex_14_A_a.gif","images/stimuli/spore_stims/complex_03_A_b.gif","forced_long","","6","complex_dissimilar","images/stimuli/spore_stims/complex_14_A_a.gif","","","","",""
"","2450","survey-multi-choice","85","328425","0.0-22.0","SS1618435635264","math_question","","","","","","","","","","","","{""Q0"":""14""}","[0]","14","",""
"","null","html-keyboard-response","86","329285","0.0-23.0-0.0","SS1618435635264","","","null","","","","","","<p><img src= images/blank.png width =""600"" height = ""600"" style=""position:fixed;top:50%; left:50%; transform: translate(-50%, -50%); border:5px solid black"">","","","","","","","",""
"","1015","sequential-stimulus-presentation-old","87","330361","0.0-23.0-1.0","SS1618435635264","trial","","40","500","1515","images/stimuli/spore_stims/simple_03_A_b.gif","images/stimuli/spore_stims/simple_15_A_a.gif","forced_short","","7","simple_dissimilar","images/stimuli/spore_stims/simple_15_A_a.gif","","","","",""
"","null","html-keyboard-response","88","331656","0.0-23.0-0.1","SS1618435635264","","","null","","","","","","<p><img src= images/blank.png width =""600"" height = ""600"" style=""position:fixed;top:50%; left:50%; transform: translate(-50%, -50%); border:5px solid black"">","","","","","","","",""
"","1292","sequential-stimulus-presentation-old","89","333458","0.0-23.0-1.1","SS1618435635264","trial","","40","500","1792","images/stimuli/spore_stims/simple_03_A_b.gif","images/stimuli/spore_stims/simple_15_A_a.gif","forced_short","","7","simple_dissimilar","images/stimuli/spore_stims/simple_15_A_a.gif","","","","",""
"","null","html-keyboard-response","90","334499","0.0-23.0-0.2","SS1618435635264","","","null","","","","","","<p><img src= images/blank.png width =""600"" height = ""600"" style=""position:fixed;top:50%; left:50%; transform: translate(-50%, -50%); border:5px solid black"">","","","","","","","",""
"","925","sequential-stimulus-presentation-old","91","335942","0.0-23.0-1.2","SS1618435635264","trial","","40","500","1425","images/stimuli/spore_stims/simple_03_A_b.gif","images/stimuli/spore_stims/simple_15_A_a.gif","forced_short","","7","simple_dissimilar","images/stimuli/spore_stims/simple_15_A_a.gif","","","","",""
"","null","html-keyboard-response","92","336841","0.0-23.0-0.3","SS1618435635264","","","null","","","","","","<p><img src= images/blank.png width =""600"" height = ""600"" style=""position:fixed;top:50%; left:50%; transform: translate(-50%, -50%); border:5px solid black"">","","","","","","","",""
"","93","sequential-stimulus-presentation-old","93","337455","0.0-23.0-1.3","SS1618435635264","trial","","40","500","593","images/stimuli/spore_stims/simple_03_A_b.gif","images/stimuli/spore_stims/simple_15_A_a.gif","forced_short","","7","simple_dissimilar","images/stimuli/spore_stims/simple_15_A_a.gif","","","","",""
"","2423","survey-multi-choice","94","339884","0.0-24.0","SS1618435635264","math_question","","","","","","","","","","","","{""Q0"":""15""}","[0]","15","",""
"","null","html-keyboard-response","95","340848","0.0-25.0-0.0","SS1618435635264","","","null","","","","","","<p><img src= images/blank.png width =""600"" height = ""600"" style=""position:fixed;top:50%; left:50%; transform: translate(-50%, -50%); border:5px solid black"">","","","","","","","",""
"","2297","sequential-stimulus-presentation-old","96","343668","0.0-25.0-1.0","SS1618435635264","trial","","40","500","2797","images/stimuli/spore_stims/simple_08_A_b.gif","images/stimuli/spore_stims/simple_18_A_a.gif","self_paced","","8","simple_dissimilar","images/stimuli/spore_stims/simple_18_A_a.gif","","","","",""
"","null","html-keyboard-response","97","344552","0.0-25.0-0.1","SS1618435635264","","","null","","","","","","<p><img src= images/blank.png width =""600"" height = ""600"" style=""position:fixed;top:50%; left:50%; transform: translate(-50%, -50%); border:5px solid black"">","","","","","","","",""
"","742","sequential-stimulus-presentation-old","98","345808","0.0-25.0-1.1","SS1618435635264","trial","","40","500","1242","images/stimuli/spore_stims/simple_08_A_b.gif","images/stimuli/spore_stims/simple_18_A_a.gif","self_paced","","8","simple_dissimilar","images/stimuli/spore_stims/simple_08_A_b.gif","","","","",""
"","null","html-keyboard-response","99","346808","0.0-25.0-0.2","SS1618435635264","","","null","","","","","","<p><img src= images/blank.png width =""600"" height = ""600"" style=""position:fixed;top:50%; left:50%; transform: translate(-50%, -50%); border:5px solid black"">","","","","","","","",""
"","3","sequential-stimulus-presentation-old","100","347323","0.0-25.0-1.2","SS1618435635264","trial","","40","500","503","images/stimuli/spore_stims/simple_08_A_b.gif","images/stimuli/spore_stims/simple_18_A_a.gif","self_paced","","8","simple_dissimilar","images/stimuli/spore_stims/simple_18_A_a.gif","","","","",""
"","null","html-keyboard-response","101","348150","0.0-25.0-0.3","SS1618435635264","","","null","","","","","","<p><img src= images/blank.png width =""600"" height = ""600"" style=""position:fixed;top:50%; left:50%; transform: translate(-50%, -50%); border:5px solid black"">","","","","","","","",""
"","295","sequential-stimulus-presentation-old","102","348959","0.0-25.0-1.3","SS1618435635264","trial","","40","500","795","images/stimuli/spore_stims/simple_08_A_b.gif","images/stimuli/spore_stims/simple_18_A_a.gif","self_paced","","8","simple_dissimilar","images/stimuli/spore_stims/simple_18_A_a.gif","","","","",""
"","null","html-keyboard-response","103","349997","0.0-25.0-0.4","SS1618435635264","","","null","","","","","","<p><img src= images/blank.png width =""600"" height = ""600"" style=""position:fixed;top:50%; left:50%; transform: translate(-50%, -50%); border:5px solid black"">","","","","","","","",""
"","340","sequential-stimulus-presentation-old","104","350849","0.0-25.0-1.4","SS1618435635264","trial","","40","500","840","images/stimuli/spore_stims/simple_08_A_b.gif","images/stimuli/spore_stims/simple_18_A_a.gif","self_paced","","8","simple_dissimilar","images/stimuli/spore_stims/simple_18_A_a.gif","","","","",""
"","null","html-keyboard-response","105","351684","0.0-25.0-0.5","SS1618435635264","","","null","","","","","","<p><img src= images/blank.png width =""600"" height = ""600"" style=""position:fixed;top:50%; left:50%; transform: translate(-50%, -50%); border:5px solid black"">","","","","","","","",""
"","519","sequential-stimulus-presentation-old","106","352714","0.0-25.0-1.5","SS1618435635264","trial","","40","500","1019","images/stimuli/spore_stims/simple_08_A_b.gif","images/stimuli/spore_stims/simple_18_A_a.gif","self_paced","","8","simple_dissimilar","images/stimuli/spore_stims/simple_18_A_a.gif","","","","",""
"","2124","survey-multi-choice","107","354846","0.0-26.0","SS1618435635264","math_question","","","","","","","","","","","","{""Q0"":""18""}","[0]","18","",""
"","null","html-keyboard-response","108","355848","0.0-27.0-0.0","SS1618435635264","","","null","","","","","","<p><img src= images/blank.png width =""600"" height = ""600"" style=""position:fixed;top:50%; left:50%; transform: translate(-50%, -50%); border:5px solid black"">","","","","","","","",""
"","1548","sequential-stimulus-presentation-old","109","357912","0.0-27.0-1.0","SS1618435635264","trial","","40","500","2048","images/stimuli/spore_stims/simple_20_A_a.gif","images/stimuli/spore_stims/simple_18_A_b.gif","self_paced","","9","simple_dissimilar","images/stimuli/spore_stims/simple_18_A_b.gif","","","","",""
"","null","html-keyboard-response","110","358955","0.0-27.0-0.1","SS1618435635264","","","null","","","","","","<p><img src= images/blank.png width =""600"" height = ""600"" style=""position:fixed;top:50%; left:50%; transform: translate(-50%, -50%); border:5px solid black"">","","","","","","","",""
"","806","sequential-stimulus-presentation-old","111","360280","0.0-27.0-1.1","SS1618435635264","trial","","40","500","1306","images/stimuli/spore_stims/simple_20_A_a.gif","images/stimuli/spore_stims/simple_18_A_b.gif","self_paced","","9","simple_dissimilar","images/stimuli/spore_stims/simple_18_A_b.gif","","","","",""
"","null","html-keyboard-response","112","361296","0.0-27.0-0.2","SS1618435635264","","","null","","","","","","<p><img src= images/blank.png width =""600"" height = ""600"" style=""position:fixed;top:50%; left:50%; transform: translate(-50%, -50%); border:5px solid black"">","","","","","","","",""
"","3449","sequential-stimulus-presentation-old","113","365263","0.0-27.0-1.2","SS1618435635264","trial","","40","500","3949","images/stimuli/spore_stims/simple_20_A_a.gif","images/stimuli/spore_stims/simple_18_A_b.gif","self_paced","","9","simple_dissimilar","images/stimuli/spore_stims/simple_18_A_b.gif","","","","",""
"","null","html-keyboard-response","114","366181","0.0-27.0-0.3","SS1618435635264","","","null","","","","","","<p><img src= images/blank.png width =""600"" height = ""600"" style=""position:fixed;top:50%; left:50%; transform: translate(-50%, -50%); border:5px solid black"">","","","","","","","",""
"","955","sequential-stimulus-presentation-old","115","367645","0.0-27.0-1.3","SS1618435635264","trial","","40","500","1455","images/stimuli/spore_stims/simple_20_A_a.gif","images/stimuli/spore_stims/simple_18_A_b.gif","self_paced","","9","simple_dissimilar","images/stimuli/spore_stims/simple_18_A_b.gif","","","","",""
"","2336","survey-multi-choice","116","369990","0.0-28.0","SS1618435635264","math_question","","","","","","","","","","","","{""Q0"":""9""}","[0]","9","",""
"","null","html-keyboard-response","117","370830","0.0-29.0-0.0","SS1618435635264","","","null","","","","","","<p><img src= images/blank.png width =""600"" height = ""600"" style=""position:fixed;top:50%; left:50%; transform: translate(-50%, -50%); border:5px solid black"">","","","","","","","",""
"","3508","sequential-stimulus-presentation-old","118","374860","0.0-29.0-1.0","SS1618435635264","trial","","40","500","4008","images/stimuli/spore_stims/complex_08_A_b.gif","images/stimuli/spore_stims/complex_19_A_a.gif","self_paced","","10","complex_dissimilar","images/stimuli/spore_stims/complex_19_A_a.gif","","","","",""
"","null","html-keyboard-response","119","375920","0.0-29.0-0.1","SS1618435635264","","","null","","","","","","<p><img src= images/blank.png width =""600"" height = ""600"" style=""position:fixed;top:50%; left:50%; transform: translate(-50%, -50%); border:5px solid black"">","","","","","","","",""
"","3174","sequential-stimulus-presentation-old","120","379615","0.0-29.0-1.1","SS1618435635264","trial","","40","500","3674","images/stimuli/spore_stims/complex_08_A_b.gif","images/stimuli/spore_stims/complex_19_A_a.gif","self_paced","","10","complex_dissimilar","images/stimuli/spore_stims/complex_19_A_a.gif","","","","",""
"","null","html-keyboard-response","121","380597","0.0-29.0-0.2","SS1618435635264","","","null","","","","","","<p><img src= images/blank.png width =""600"" height = ""600"" style=""position:fixed;top:50%; left:50%; transform: translate(-50%, -50%); border:5px solid black"">","","","","","","","",""
"","3472","sequential-stimulus-presentation-old","122","384579","0.0-29.0-1.2","SS1618435635264","trial","","40","500","3972","images/stimuli/spore_stims/complex_08_A_b.gif","images/stimuli/spore_stims/complex_19_A_a.gif","self_paced","","10","complex_dissimilar","images/stimuli/spore_stims/complex_08_A_b.gif","","","","",""
"","null","html-keyboard-response","123","385546","0.0-29.0-0.3","SS1618435635264","","","null","","","","","","<p><img src= images/blank.png width =""600"" height = ""600"" style=""position:fixed;top:50%; left:50%; transform: translate(-50%, -50%); border:5px solid black"">","","","","","","","",""
"","3271","sequential-stimulus-presentation-old","124","389326","0.0-29.0-1.3","SS1618435635264","trial","","40","500","3771","images/stimuli/spore_stims/complex_08_A_b.gif","images/stimuli/spore_stims/complex_19_A_a.gif","self_paced","","10","complex_dissimilar","images/stimuli/spore_stims/complex_19_A_a.gif","","","","",""
"","2276","survey-multi-choice","125","391611","0.0-30.0","SS1618435635264","math_question","","","","","","","","","","","","{""Q0"":""10""}","[0]","10","",""
"","null","html-keyboard-response","126","392592","0.0-31.0-0.0","SS1618435635264","","","null","","","","","","<p><img src= images/blank.png width =""600"" height = ""600"" style=""position:fixed;top:50%; left:50%; transform: translate(-50%, -50%); border:5px solid black"">","","","","","","","",""
"","193","sequential-stimulus-presentation-old","127","397794","0.0-31.0-1.0","SS1618435635264","trial","","40","500","693","images/stimuli/spore_stims/simple_17_A_a.gif","images/stimuli/spore_stims/simple_09_A_b.gif","forced_long","","11","simple_dissimilar","images/stimuli/spore_stims/simple_09_A_b.gif","","","","",""
"","null","html-keyboard-response","128","398618","0.0-31.0-0.1","SS1618435635264","","","null","","","","","","<p><img src= images/blank.png width =""600"" height = ""600"" style=""position:fixed;top:50%; left:50%; transform: translate(-50%, -50%); border:5px solid black"">","","","","","","","",""
"","2483","sequential-stimulus-presentation-old","129","401619","0.0-31.0-1.1","SS1618435635264","trial","","40","500","2983","images/stimuli/spore_stims/simple_17_A_a.gif","images/stimuli/spore_stims/simple_09_A_b.gif","forced_long","","11","simple_dissimilar","images/stimuli/spore_stims/simple_17_A_a.gif","","","","",""
"","null","html-keyboard-response","130","402845","0.0-31.0-0.2","SS1618435635264","","","null","","","","","","<p><img src= images/blank.png width =""600"" height = ""600"" style=""position:fixed;top:50%; left:50%; transform: translate(-50%, -50%); border:5px solid black"">","","","","","","","",""
"","1095","sequential-stimulus-presentation-old","131","404452","0.0-31.0-1.2","SS1618435635264","trial","","40","500","1595","images/stimuli/spore_stims/simple_17_A_a.gif","images/stimuli/spore_stims/simple_09_A_b.gif","forced_long","","11","simple_dissimilar","images/stimuli/spore_stims/simple_09_A_b.gif","","","","",""
"","null","html-keyboard-response","132","405312","0.0-31.0-0.3","SS1618435635264","","","null","","","","","","<p><img src= images/blank.png width =""600"" height = ""600"" style=""position:fixed;top:50%; left:50%; transform: translate(-50%, -50%); border:5px solid black"">","","","","","","","",""
"","363","sequential-stimulus-presentation-old","133","406189","0.0-31.0-1.3","SS1618435635264","trial","","40","500","863","images/stimuli/spore_stims/simple_17_A_a.gif","images/stimuli/spore_stims/simple_09_A_b.gif","forced_long","","11","simple_dissimilar","images/stimuli/spore_stims/simple_09_A_b.gif","","","","",""
"","null","html-keyboard-response","134","407412","0.0-31.0-0.4","SS1618435635264","","","null","","","","","","<p><img src= images/blank.png width =""600"" height = ""600"" style=""position:fixed;top:50%; left:50%; transform: translate(-50%, -50%); border:5px solid black"">","","","","","","","",""
"","1528","sequential-stimulus-presentation-old","135","409450","0.0-31.0-1.4","SS1618435635264","trial","","40","500","2028","images/stimuli/spore_stims/simple_17_A_a.gif","images/stimuli/spore_stims/simple_09_A_b.gif","forced_long","","11","simple_dissimilar","images/stimuli/spore_stims/simple_17_A_a.gif","","","","",""
"[{""page_index"":0,""viewing_time"":3854}]","3854","instructions","136","413312","0.0-32.0","SS1618435635264","instructions","","","","","","","","","","","","","","","",""
"","10942","survey-likert","137","424257","0.0-33.0","SS1618435635264","similarity_question","","","","","","","","","","","","{""Q0"":1}","[0]","","images/stimuli/spore_stims/complex_10_A_a.gif","images/stimuli/spore_stims/complex_07_A_b.gif"
"","4723","survey-likert","138","428984","0.0-34.0","SS1618435635264","similarity_question","","","","","","","","","","","","{""Q0"":3}","[0]","","images/stimuli/spore_stims/simple_03_A_b.gif","images/stimuli/spore_stims/simple_15_A_a.gif"
"","3298","survey-likert","139","432286","0.0-35.0","SS1618435635264","similarity_question","","","","","","","","","","","","{""Q0"":2}","[0]","","images/stimuli/spore_stims/simple_18_A_a.gif","images/stimuli/spore_stims/simple_08_A_b.gif"
"","2362","survey-likert","140","434652","0.0-36.0","SS1618435635264","similarity_question","","","","","","","","","","","","{""Q0"":2}","[0]","","images/stimuli/spore_stims/simple_06_A_a.gif","images/stimuli/spore_stims/simple_14_A_b.gif"
"","3424","survey-likert","141","438078","0.0-37.0","SS1618435635264","similarity_question","","","","","","","","","","","","{""Q0"":4}","[0]","","images/stimuli/spore_stims/simple_20_A_a.gif","images/stimuli/spore_stims/simple_18_A_b.gif"
"","6764","survey-likert","142","444847","0.0-38.0","SS1618435635264","similarity_question","","","","","","","","","","","","{""Q0"":2}","[0]","","images/stimuli/spore_stims/complex_04_A_a.gif","images/stimuli/spore_stims/complex_12_A_b.gif"
"","9261","survey-likert","143","454111","0.0-39.0","SS1618435635264","similarity_question","","","","","","","","","","","","{""Q0"":1}","[0]","","images/stimuli/spore_stims/complex_19_A_a.gif","images/stimuli/spore_stims/complex_08_A_b.gif"
"","4924","survey-likert","144","459039","0.0-40.0","SS1618435635264","similarity_question","","","","","","","","","","","","{""Q0"":2}","[0]","","images/stimuli/spore_stims/simple_07_A_a.gif","images/stimuli/spore_stims/simple_15_A_b.gif"
"","3351","survey-likert","145","462393","0.0-41.0","SS1618435635264","similarity_question","","","","","","","","","","","","{""Q0"":0}","[0]","","images/stimuli/spore_stims/complex_17_A_a.gif","images/stimuli/spore_stims/complex_18_A_b.gif"
"","6237","survey-likert","146","468635","0.0-42.0","SS1618435635264","similarity_question","","","","","","","","","","","","{""Q0"":0}","[0]","","images/stimuli/spore_stims/complex_09_A_a.gif","images/stimuli/spore_stims/complex_10_A_b.gif"
"","2495","survey-likert","147","471133","0.0-43.0","SS1618435635264","similarity_question","","","","","","","","","","","","{""Q0"":2}","[0]","","images/stimuli/spore_stims/simple_17_A_a.gif","images/stimuli/spore_stims/simple_09_A_b.gif"
"","3172","survey-likert","148","474308","0.0-44.0","SS1618435635264","similarity_question","","","","","","","","","","","","{""Q0"":0}","[0]","","images/stimuli/spore_stims/complex_14_A_a.gif","images/stimuli/spore_stims/complex_03_A_b.gif"
"[{""page_index"":0,""viewing_time"":4192}]","4192","instructions","149","478503","0.0-45.0","SS1618435635264","instructions","","","","","","","","","","","","","","","",""
"","4061","survey-likert","150","482567","0.0-46.0","SS1618435635264","","","","","","","","","images/stimuli/spore_stims/simple_07_A_a.gif","","","","{""Q0"":1}","[0]","","",""
"","3201","survey-likert","151","485772","0.0-47.0","SS1618435635264","","","","","","","","","images/stimuli/spore_stims/complex_08_A_b.gif","","","","{""Q0"":4}","[0]","","",""
"","1960","survey-likert","152","487736","0.0-48.0","SS1618435635264","","","","","","","","","images/stimuli/spore_stims/simple_08_A_b.gif","","","","{""Q0"":0}","[0]","","",""
"","2228","survey-likert","153","489967","0.0-49.0","SS1618435635264","","","","","","","","","images/stimuli/spore_stims/complex_12_A_b.gif","","","","{""Q0"":5}","[0]","","",""
"","3462","survey-likert","154","493433","0.0-50.0","SS1618435635264","","","","","","","","","images/stimuli/spore_stims/complex_14_A_a.gif","","","","{""Q0"":3}","[0]","","",""
"","3730","survey-likert","155","497168","0.0-51.0","SS1618435635264","","","","","","","","","images/stimuli/spore_stims/complex_10_A_b.gif","","","","{""Q0"":4}","[0]","","",""
"","2109","survey-likert","156","499280","0.0-52.0","SS1618435635264","","","","","","","","","images/stimuli/spore_stims/simple_09_A_b.gif","","","","{""Q0"":0}","[0]","","",""
"","4695","survey-likert","157","503979","0.0-53.0","SS1618435635264","","","","","","","","","images/stimuli/spore_stims/complex_07_A_b.gif","","","","{""Q0"":4}","[0]","","",""
"","2426","survey-likert","158","506408","0.0-54.0","SS1618435635264","","","","","","","","","images/stimuli/spore_stims/simple_20_A_a.gif","","","","{""Q0"":1}","[0]","","",""
"","3737","survey-likert","159","510149","0.0-55.0","SS1618435635264","","","","","","","","","images/stimuli/spore_stims/complex_18_A_b.gif","","","","{""Q0"":5}","[0]","","",""
"","2272","survey-likert","160","512425","0.0-56.0","SS1618435635264","","","","","","","","","images/stimuli/spore_stims/simple_06_A_a.gif","","","","{""Q0"":0}","[0]","","",""
"","1673","survey-likert","161","514102","0.0-57.0","SS1618435635264","","","","","","","","","images/stimuli/spore_stims/simple_03_A_b.gif","","","","{""Q0"":1}","[0]","","",""
"[{""page_index"":0,""viewing_time"":1477}]","1477","instructions","162","515583","0.0-58.0","SS1618435635264","instructions","","","","","","","","","","","","","","","",""
"","2097","demog-age","163","517685","0.0-59.0","SS1618435635264","","","","","","","","","","","","","{""age"":""23""}","","","",""
"","2582","demog-ethnic-US","164","520271","0.0-60.0","SS1618435635264","","","","","","","","","","","","","{""ethnicity"":[""White""]}","[0]","","",""
"","15994","demog-gender-and-education","165","536269","0.0-61.0","SS1618435635264","","","","","","","","","","","","","{""gender"":""Male"",""education"":""High school diploma""}","[0,1]","","",""
"","295852","survey-text","166","832125","0.0-62.0","SS1618435635264","feedback","","","","","","","","","","","","{""Q0"":""Everything was ok. I liked the look of some creatures. They looked very similar to creatures in video game called \""Spore\"" which is neat.""}","","","",""
"[{""page_index"":0,""viewing_time"":1619}]","1619","instructions","167","833748","0.0-63.0","SS1618435635264","instructions","","","","","","","","","","","","","","","",""
