,prolific_id,trial_type,rt,background,deviant,block_type,trial_index,fam_trial,total_rt,response,question_order,rating_type,response
0,,preload,,,,,0,,,,,,
1,,preload,,,,,0,,,,,,
2,,fullscreen,,,,,1,,,,,,
3,,instructions,996.0,,,,2,,,,,,
4,,instructions,1905.0,,,,3,,,,,,
5,,curtain-display,,,,,4,,,,,,
6,,curtain-display,,,,,5,,,,,,
7,,curtain-display,84.0,,,,6,,584.0,,,,
8,,instructions,3898.0,,,,7,,,,,,
9,,curtain-display,,media/animal_stim/whitened/001_left_1.gif,media/animal_stim/whitened/001_left_2.gif,all_background,8,6.0,,,,,
10,,curtain-display,,media/animal_stim/whitened/001_left_1.gif,media/animal_stim/whitened/001_left_2.gif,all_background,9,6.0,,,,,
11,,curtain-display,,media/animal_stim/whitened/001_left_1.gif,media/animal_stim/whitened/001_left_2.gif,all_background,10,6.0,,,,,
12,,curtain-display,,media/animal_stim/whitened/001_left_1.gif,media/animal_stim/whitened/001_left_2.gif,all_background,11,6.0,,,,,
13,,curtain-display,,media/animal_stim/whitened/001_left_1.gif,media/animal_stim/whitened/001_left_2.gif,all_background,12,6.0,,,,,
14,,curtain-display,,media/animal_stim/whitened/001_left_1.gif,media/animal_stim/whitened/001_left_2.gif,all_background,13,6.0,,,,,
15,,curtain-display,3880.0,media/animal_stim/whitened/001_left_1.gif,media/animal_stim/whitened/001_left_2.gif,all_background,14,6.0,4380.0,,,,
16,,survey-likert,1814.0,,,,15,,,{'Q0': 3},[0],background,{'Q0': 3}
17,,curtain-display,,media/animal_stim/whitened/003_left_2.gif,media/animal_stim/whitened/003_right_1.gif,deviant,16,5.0,,,,,
18,,curtain-display,,media/animal_stim/whitened/003_left_2.gif,media/animal_stim/whitened/003_right_1.gif,deviant,17,5.0,,,,,
19,,curtain-display,,media/animal_stim/whitened/003_left_2.gif,media/animal_stim/whitened/003_right_1.gif,deviant,18,5.0,,,,,
20,,curtain-display,,media/animal_stim/whitened/003_left_2.gif,media/animal_stim/whitened/003_right_1.gif,deviant,19,5.0,,,,,
21,,curtain-display,,media/animal_stim/whitened/003_left_2.gif,media/animal_stim/whitened/003_right_1.gif,deviant,20,5.0,,,,,
22,,curtain-display,3770.0,media/animal_stim/whitened/003_left_2.gif,media/animal_stim/whitened/003_right_1.gif,deviant,21,5.0,4270.0,,,,
23,,survey-likert,1539.0,,,,22,,,{'Q0': 3},[0],background,{'Q0': 3}
24,,curtain-display,,media/animal_stim/whitened/004_right_1.gif,media/animal_stim/whitened/004_left_2.gif,deviant,23,2.0,,,,,
25,,curtain-display,,media/animal_stim/whitened/004_right_1.gif,media/animal_stim/whitened/004_left_2.gif,deviant,24,2.0,,,,,
26,,curtain-display,723.0,media/animal_stim/whitened/004_right_1.gif,media/animal_stim/whitened/004_left_2.gif,deviant,25,2.0,1223.0,,,,
27,,survey-likert,5147.0,,,,26,,,{'Q0': 3},[0],background,{'Q0': 3}
28,,curtain-display,,media/animal_stim/whitened/002_left_2.gif,media/animal_stim/whitened/002_left_1.gif,deviant,27,6.0,,,,,
29,,curtain-display,,media/animal_stim/whitened/002_left_2.gif,media/animal_stim/whitened/002_left_1.gif,deviant,28,6.0,,,,,
30,,curtain-display,,media/animal_stim/whitened/002_left_2.gif,media/animal_stim/whitened/002_left_1.gif,deviant,29,6.0,,,,,
31,,curtain-display,,media/animal_stim/whitened/002_left_2.gif,media/animal_stim/whitened/002_left_1.gif,deviant,30,6.0,,,,,
32,,curtain-display,,media/animal_stim/whitened/002_left_2.gif,media/animal_stim/whitened/002_left_1.gif,deviant,31,6.0,,,,,
33,,curtain-display,,media/animal_stim/whitened/002_left_2.gif,media/animal_stim/whitened/002_left_1.gif,deviant,32,6.0,,,,,
34,,curtain-display,3513.0,media/animal_stim/whitened/002_left_2.gif,media/animal_stim/whitened/002_left_1.gif,deviant,33,6.0,4013.0,,,,
35,,survey-likert,1541.0,,,,34,,,{'Q0': 3},[0],background,{'Q0': 3}
36,,curtain-display,,media/animal_stim/whitened/006_right_2.gif,media/animal_stim/whitened/006_right_1.gif,all_background,35,5.0,,,,,
37,,curtain-display,,media/animal_stim/whitened/006_right_2.gif,media/animal_stim/whitened/006_right_1.gif,all_background,36,5.0,,,,,
38,,curtain-display,,media/animal_stim/whitened/006_right_2.gif,media/animal_stim/whitened/006_right_1.gif,all_background,37,5.0,,,,,
39,,curtain-display,,media/animal_stim/whitened/006_right_2.gif,media/animal_stim/whitened/006_right_1.gif,all_background,38,5.0,,,,,
40,,curtain-display,,media/animal_stim/whitened/006_right_2.gif,media/animal_stim/whitened/006_right_1.gif,all_background,39,5.0,,,,,
41,,curtain-display,3394.0,media/animal_stim/whitened/006_right_2.gif,media/animal_stim/whitened/006_right_1.gif,all_background,40,5.0,3894.0,,,,
42,,survey-likert,1714.0,,,,41,,,{'Q0': 3},[0],background,{'Q0': 3}
43,,curtain-display,,media/animal_stim/whitened/005_left_1.gif,media/animal_stim/whitened/005_right_2.gif,all_background,42,2.0,,,,,
44,,curtain-display,,media/animal_stim/whitened/005_left_1.gif,media/animal_stim/whitened/005_right_2.gif,all_background,43,2.0,,,,,
45,,curtain-display,3345.0,media/animal_stim/whitened/005_left_1.gif,media/animal_stim/whitened/005_right_2.gif,all_background,44,2.0,3845.0,,,,
46,,survey-likert,1567.0,,,,45,,,{'Q0': 2},[0],background,{'Q0': 2}
47,,html-button-response,1587.0,,,,46,,,0,,,0
48,,survey-text,1620.0,,,,47,,,{'Q0': 'haha'},,,{'Q0': 'haha'}
49,,survey-multi-select,3724.0,,,,48,,,{'ethnicity': ['Hispanic or Latino']},[0],,{'ethnicity': ['Hispanic or Latino']}
50,,survey-text,926.0,,,,49,,,{'Q0': 's'},,,{'Q0': 's'}
51,,survey-multi-choice,2343.0,,,,50,,,{'education': 'Associate Degree/Technical certification'},[0],,{'education': 'Associate Degree/Technical certification'}
52,,fullscreen,,,,,51,,,,,,
53,613d2a7208f243bb8693418e,preload,,,,,0,,,,,,
54,613d2a7208f243bb8693418e,preload,,,,,0,,,,,,
55,613d2a7208f243bb8693418e,fullscreen,,,,,1,,,,,,
56,613d2a7208f243bb8693418e,instructions,6452.0,,,,2,,,,,,
57,63f148d5e42992d5bd3a2d61,preload,,,,,0,,,,,,
58,63f148d5e42992d5bd3a2d61,preload,,,,,0,,,,,,
59,613d2a7208f243bb8693418e,instructions,21193.0,,,,3,,,,,,
60,63f148d5e42992d5bd3a2d61,fullscreen,,,,,1,,,,,,
61,613d2a7208f243bb8693418e,curtain-display,,,,,4,,,,,,
62,613d2a7208f243bb8693418e,curtain-display,,,,,5,,,,,,
63,613d2a7208f243bb8693418e,curtain-display,2776.0,,,,6,,3276.0,,,,
64,63f148d5e42992d5bd3a2d61,instructions,15793.0,,,,2,,,,,,
65,651829bea42b62b2aef0d41c,preload,,,,,0,,,,,,
66,651829bea42b62b2aef0d41c,preload,,,,,0,,,,,,
67,651829bea42b62b2aef0d41c,fullscreen,,,,,1,,,,,,
68,64eebd7fddf76c686ac9e56d,preload,,,,,0,,,,,,
69,64eebd7fddf76c686ac9e56d,preload,,,,,0,,,,,,
70,651829bea42b62b2aef0d41c,instructions,1154.0,,,,2,,,,,,
71,651829bea42b62b2aef0d41c,instructions,2855.0,,,,3,,,,,,
72,64eebd7fddf76c686ac9e56d,fullscreen,,,,,1,,,,,,
73,613d2a7208f243bb8693418e,instructions,22287.0,,,,7,,,,,,
74,651829bea42b62b2aef0d41c,curtain-display,,,,,4,,,,,,
75,613d2a7208f243bb8693418e,curtain-display,,media/animal_stim/whitened/003_right_2.gif,media/animal_stim/whitened/003_left_1.gif,all_background,8,5.0,,,,,
76,651829bea42b62b2aef0d41c,curtain-display,,,,,5,,,,,,
77,64eebd7fddf76c686ac9e56d,instructions,8419.0,,,,2,,,,,,
78,613d2a7208f243bb8693418e,curtain-display,,media/animal_stim/whitened/003_right_2.gif,media/animal_stim/whitened/003_left_1.gif,all_background,9,5.0,,,,,
79,651829bea42b62b2aef0d41c,curtain-display,2626.0,,,,6,,3126.0,,,,
80,613d2a7208f243bb8693418e,curtain-display,,media/animal_stim/whitened/003_right_2.gif,media/animal_stim/whitened/003_left_1.gif,all_background,10,5.0,,,,,
81,613d2a7208f243bb8693418e,curtain-display,,media/animal_stim/whitened/003_right_2.gif,media/animal_stim/whitened/003_left_1.gif,all_background,11,5.0,,,,,
82,613d2a7208f243bb8693418e,curtain-display,,media/animal_stim/whitened/003_right_2.gif,media/animal_stim/whitened/003_left_1.gif,all_background,12,5.0,,,,,
83,651829bea42b62b2aef0d41c,instructions,13264.0,,,,7,,,,,,
84,613d2a7208f243bb8693418e,curtain-display,6663.0,media/animal_stim/whitened/003_right_2.gif,media/animal_stim/whitened/003_left_1.gif,all_background,13,5.0,7163.0,,,,
85,651829bea42b62b2aef0d41c,curtain-display,,media/animal_stim/whitened/003_left_2.gif,media/animal_stim/whitened/003_left_1.gif,all_background,8,6.0,,,,,
86,63f148d5e42992d5bd3a2d61,instructions,41219.0,,,,3,,,,,,
87,651829bea42b62b2aef0d41c,curtain-display,,media/animal_stim/whitened/003_left_2.gif,media/animal_stim/whitened/003_left_1.gif,all_background,9,6.0,,,,,
88,613d2a7208f243bb8693418e,survey-likert,4416.0,,,,14,,,{'Q0': 2},[0],background,{'Q0': 2}
89,63f148d5e42992d5bd3a2d61,curtain-display,,,,,4,,,,,,
90,651829bea42b62b2aef0d41c,curtain-display,,media/animal_stim/whitened/003_left_2.gif,media/animal_stim/whitened/003_left_1.gif,all_background,10,6.0,,,,,
91,613d2a7208f243bb8693418e,curtain-display,,media/animal_stim/whitened/005_right_1.gif,media/animal_stim/whitened/005_left_2.gif,deviant,15,2.0,,,,,
92,63f148d5e42992d5bd3a2d61,curtain-display,,,,,5,,,,,,
93,651829bea42b62b2aef0d41c,curtain-display,,media/animal_stim/whitened/003_left_2.gif,media/animal_stim/whitened/003_left_1.gif,all_background,11,6.0,,,,,
94,613d2a7208f243bb8693418e,curtain-display,,media/animal_stim/whitened/005_right_1.gif,media/animal_stim/whitened/005_left_2.gif,deviant,16,2.0,,,,,
95,651829bea42b62b2aef0d41c,curtain-display,,media/animal_stim/whitened/003_left_2.gif,media/animal_stim/whitened/003_left_1.gif,all_background,12,6.0,,,,,
96,64eebd7fddf76c686ac9e56d,instructions,32158.0,,,,3,,,,,,
97,651829bea42b62b2aef0d41c,curtain-display,,media/animal_stim/whitened/003_left_2.gif,media/animal_stim/whitened/003_left_1.gif,all_background,13,6.0,,,,,
98,63f148d5e42992d5bd3a2d61,curtain-display,7383.0,,,,6,,7883.0,,,,
99,64eebd7fddf76c686ac9e56d,curtain-display,,,,,4,,,,,,
100,651829bea42b62b2aef0d41c,curtain-display,1371.0,media/animal_stim/whitened/003_left_2.gif,media/animal_stim/whitened/003_left_1.gif,all_background,14,6.0,1871.0,,,,
101,613d2a7208f243bb8693418e,curtain-display,7903.0,media/animal_stim/whitened/005_right_1.gif,media/animal_stim/whitened/005_left_2.gif,deviant,17,2.0,8403.0,,,,
102,64eebd7fddf76c686ac9e56d,curtain-display,,,,,5,,,,,,
103,613d2a7208f243bb8693418e,survey-likert,3165.0,,,,18,,,{'Q0': 1},[0],background,{'Q0': 1}
104,64eebd7fddf76c686ac9e56d,curtain-display,1924.0,,,,6,,2424.0,,,,
105,613d2a7208f243bb8693418e,curtain-display,,media/animal_stim/whitened/002_right_1.gif,media/animal_stim/whitened/002_right_2.gif,deviant,19,6.0,,,,,
106,613d2a7208f243bb8693418e,curtain-display,,media/animal_stim/whitened/002_right_1.gif,media/animal_stim/whitened/002_right_2.gif,deviant,20,6.0,,,,,
107,613d2a7208f243bb8693418e,curtain-display,,media/animal_stim/whitened/002_right_1.gif,media/animal_stim/whitened/002_right_2.gif,deviant,21,6.0,,,,,
108,613d2a7208f243bb8693418e,curtain-display,,media/animal_stim/whitened/002_right_1.gif,media/animal_stim/whitened/002_right_2.gif,deviant,22,6.0,,,,,
109,651829bea42b62b2aef0d41c,survey-likert,17950.0,,,,15,,,{'Q0': 3},[0],background,{'Q0': 3}
110,613d2a7208f243bb8693418e,curtain-display,,media/animal_stim/whitened/002_right_1.gif,media/animal_stim/whitened/002_right_2.gif,deviant,23,6.0,,,,,
111,651829bea42b62b2aef0d41c,curtain-display,,media/animal_stim/whitened/004_left_2.gif,media/animal_stim/whitened/004_left_1.gif,deviant,16,5.0,,,,,
112,613d2a7208f243bb8693418e,curtain-display,,media/animal_stim/whitened/002_right_1.gif,media/animal_stim/whitened/002_right_2.gif,deviant,24,6.0,,,,,
113,63f148d5e42992d5bd3a2d61,instructions,26228.0,,,,7,,,,,,
114,651829bea42b62b2aef0d41c,curtain-display,,media/animal_stim/whitened/004_left_2.gif,media/animal_stim/whitened/004_left_1.gif,deviant,17,5.0,,,,,
115,64eebd7fddf76c686ac9e56d,instructions,19532.0,,,,7,,,,,,
116,63f148d5e42992d5bd3a2d61,curtain-display,,media/animal_stim/whitened/002_right_1.gif,media/animal_stim/whitened/002_right_2.gif,deviant,8,5.0,,,,,
117,651829bea42b62b2aef0d41c,curtain-display,,media/animal_stim/whitened/004_left_2.gif,media/animal_stim/whitened/004_left_1.gif,deviant,18,5.0,,,,,
118,64eebd7fddf76c686ac9e56d,curtain-display,,media/animal_stim/whitened/004_left_1.gif,media/animal_stim/whitened/004_left_2.gif,all_background,8,2.0,,,,,
119,61483c4b10ea5d16c71d6b9e,preload,,,,,0,,,,,,
120,61483c4b10ea5d16c71d6b9e,preload,,,,,0,,,,,,
121,63f148d5e42992d5bd3a2d61,curtain-display,,media/animal_stim/whitened/002_right_1.gif,media/animal_stim/whitened/002_right_2.gif,deviant,9,5.0,,,,,
122,651829bea42b62b2aef0d41c,curtain-display,,media/animal_stim/whitened/004_left_2.gif,media/animal_stim/whitened/004_left_1.gif,deviant,19,5.0,,,,,
123,64eebd7fddf76c686ac9e56d,curtain-display,,media/animal_stim/whitened/004_left_1.gif,media/animal_stim/whitened/004_left_2.gif,all_background,9,2.0,,,,,
124,64eebd7fddf76c686ac9e56d,curtain-display,452.0,media/animal_stim/whitened/004_left_1.gif,media/animal_stim/whitened/004_left_2.gif,all_background,10,2.0,952.0,,,,
125,61483c4b10ea5d16c71d6b9e,fullscreen,,,,,1,,,,,,
126,613d2a7208f243bb8693418e,curtain-display,9352.0,media/animal_stim/whitened/002_right_1.gif,media/animal_stim/whitened/002_right_2.gif,deviant,25,6.0,9852.0,,,,
127,63f148d5e42992d5bd3a2d61,curtain-display,,media/animal_stim/whitened/002_right_1.gif,media/animal_stim/whitened/002_right_2.gif,deviant,10,5.0,,,,,
128,651829bea42b62b2aef0d41c,curtain-display,,media/animal_stim/whitened/004_left_2.gif,media/animal_stim/whitened/004_left_1.gif,deviant,20,5.0,,,,,
129,607760884d66833ee83aa987,preload,,,,,0,,,,,,
130,607760884d66833ee83aa987,preload,,,,,0,,,,,,
131,613d2a7208f243bb8693418e,survey-likert,3190.0,,,,26,,,{'Q0': 3},[0],background,{'Q0': 3}
132,64eebd7fddf76c686ac9e56d,survey-likert,4420.0,,,,11,,,{'Q0': 3},[0],background,{'Q0': 3}
133,63f148d5e42992d5bd3a2d61,curtain-display,,media/animal_stim/whitened/002_right_1.gif,media/animal_stim/whitened/002_right_2.gif,deviant,11,5.0,,,,,
134,613d2a7208f243bb8693418e,curtain-display,,media/animal_stim/whitened/004_left_1.gif,media/animal_stim/whitened/004_right_2.gif,all_background,27,2.0,,,,,
135,64eebd7fddf76c686ac9e56d,curtain-display,,media/animal_stim/whitened/005_left_1.gif,media/animal_stim/whitened/005_right_2.gif,all_background,12,5.0,,,,,
136,63f148d5e42992d5bd3a2d61,curtain-display,,media/animal_stim/whitened/002_right_1.gif,media/animal_stim/whitened/002_right_2.gif,deviant,12,5.0,,,,,
137,607760884d66833ee83aa987,fullscreen,,,,,1,,,,,,
138,613d2a7208f243bb8693418e,curtain-display,,media/animal_stim/whitened/004_left_1.gif,media/animal_stim/whitened/004_right_2.gif,all_background,28,2.0,,,,,
139,64eebd7fddf76c686ac9e56d,curtain-display,,media/animal_stim/whitened/005_left_1.gif,media/animal_stim/whitened/005_right_2.gif,all_background,13,5.0,,,,,
140,613d2a7208f243bb8693418e,curtain-display,2130.0,media/animal_stim/whitened/004_left_1.gif,media/animal_stim/whitened/004_right_2.gif,all_background,29,2.0,2630.0,,,,
141,64eebd7fddf76c686ac9e56d,curtain-display,,media/animal_stim/whitened/005_left_1.gif,media/animal_stim/whitened/005_right_2.gif,all_background,14,5.0,,,,,
142,651829bea42b62b2aef0d41c,curtain-display,,media/animal_stim/whitened/004_left_2.gif,media/animal_stim/whitened/004_left_1.gif,deviant,21,5.0,,,,,
143,613d2a7208f243bb8693418e,survey-likert,3594.0,,,,30,,,{'Q0': 1},[0],background,{'Q0': 1}
144,64eebd7fddf76c686ac9e56d,curtain-display,,media/animal_stim/whitened/005_left_1.gif,media/animal_stim/whitened/005_right_2.gif,all_background,15,5.0,,,,,
145,651829bea42b62b2aef0d41c,survey-likert,3418.0,,,,22,,,{'Q0': 4},[0],background,{'Q0': 4}
146,613d2a7208f243bb8693418e,curtain-display,,media/animal_stim/whitened/001_right_1.gif,media/animal_stim/whitened/001_right_2.gif,deviant,31,5.0,,,,,
147,64eebd7fddf76c686ac9e56d,curtain-display,,media/animal_stim/whitened/005_left_1.gif,media/animal_stim/whitened/005_right_2.gif,all_background,16,5.0,,,,,
148,63f148d5e42992d5bd3a2d61,curtain-display,,media/animal_stim/whitened/002_right_1.gif,media/animal_stim/whitened/002_right_2.gif,deviant,13,5.0,,,,,
149,651829bea42b62b2aef0d41c,curtain-display,,media/animal_stim/whitened/001_right_2.gif,media/animal_stim/whitened/001_left_1.gif,deviant,23,2.0,,,,,
150,64eebd7fddf76c686ac9e56d,curtain-display,470.0,media/animal_stim/whitened/005_left_1.gif,media/animal_stim/whitened/005_right_2.gif,all_background,17,5.0,970.0,,,,
151,613d2a7208f243bb8693418e,curtain-display,,media/animal_stim/whitened/001_right_1.gif,media/animal_stim/whitened/001_right_2.gif,deviant,32,5.0,,,,,
152,64eebd7fddf76c686ac9e56d,survey-likert,3012.0,,,,18,,,{'Q0': 4},[0],background,{'Q0': 4}
153,651829bea42b62b2aef0d41c,curtain-display,,media/animal_stim/whitened/001_right_2.gif,media/animal_stim/whitened/001_left_1.gif,deviant,24,2.0,,,,,
154,613d2a7208f243bb8693418e,curtain-display,,media/animal_stim/whitened/001_right_1.gif,media/animal_stim/whitened/001_right_2.gif,deviant,33,5.0,,,,,
155,61483c4b10ea5d16c71d6b9e,instructions,28160.0,,,,2,,,,,,
156,64eebd7fddf76c686ac9e56d,curtain-display,,media/animal_stim/whitened/002_left_2.gif,media/animal_stim/whitened/002_right_1.gif,all_background,19,6.0,,,,,
157,613d2a7208f243bb8693418e,curtain-display,,media/animal_stim/whitened/001_right_1.gif,media/animal_stim/whitened/001_right_2.gif,deviant,34,5.0,,,,,
158,63f148d5e42992d5bd3a2d61,survey-likert,8924.0,,,,14,,,{'Q0': 3},[0],background,{'Q0': 3}
159,64eebd7fddf76c686ac9e56d,curtain-display,,media/animal_stim/whitened/002_left_2.gif,media/animal_stim/whitened/002_right_1.gif,all_background,20,6.0,,,,,
160,613d2a7208f243bb8693418e,curtain-display,,media/animal_stim/whitened/001_right_1.gif,media/animal_stim/whitened/001_right_2.gif,deviant,35,5.0,,,,,
161,63f148d5e42992d5bd3a2d61,curtain-display,,media/animal_stim/whitened/001_right_2.gif,media/animal_stim/whitened/001_right_1.gif,all_background,15,2.0,,,,,
162,64eebd7fddf76c686ac9e56d,curtain-display,,media/animal_stim/whitened/002_left_2.gif,media/animal_stim/whitened/002_right_1.gif,all_background,21,6.0,,,,,
163,63f148d5e42992d5bd3a2d61,curtain-display,,media/animal_stim/whitened/001_right_2.gif,media/animal_stim/whitened/001_right_1.gif,all_background,16,2.0,,,,,
164,64eebd7fddf76c686ac9e56d,curtain-display,,media/animal_stim/whitened/002_left_2.gif,media/animal_stim/whitened/002_right_1.gif,all_background,22,6.0,,,,,
165,613d2a7208f243bb8693418e,curtain-display,5105.0,media/animal_stim/whitened/001_right_1.gif,media/animal_stim/whitened/001_right_2.gif,deviant,36,5.0,5605.0,,,,
166,651829bea42b62b2aef0d41c,curtain-display,,media/animal_stim/whitened/001_right_2.gif,media/animal_stim/whitened/001_left_1.gif,deviant,25,2.0,,,,,
167,63f148d5e42992d5bd3a2d61,curtain-display,33111.0,media/animal_stim/whitened/001_right_2.gif,media/animal_stim/whitened/001_right_1.gif,all_background,17,2.0,33611.0,,,,
168,607760884d66833ee83aa987,instructions,34338.0,,,,2,,,,,,
169,64eebd7fddf76c686ac9e56d,curtain-display,,media/animal_stim/whitened/002_left_2.gif,media/animal_stim/whitened/002_right_1.gif,all_background,23,6.0,,,,,
170,613d2a7208f243bb8693418e,survey-likert,4217.0,,,,37,,,{'Q0': 2},[0],background,{'Q0': 2}
171,63f148d5e42992d5bd3a2d61,survey-likert,4990.0,,,,18,,,{'Q0': 1},[0],background,{'Q0': 1}
172,64eebd7fddf76c686ac9e56d,curtain-display,,media/animal_stim/whitened/002_left_2.gif,media/animal_stim/whitened/002_right_1.gif,all_background,24,6.0,,,,,
173,64eebd7fddf76c686ac9e56d,curtain-display,149.0,media/animal_stim/whitened/002_left_2.gif,media/animal_stim/whitened/002_right_1.gif,all_background,25,6.0,649.0,,,,
174,613d2a7208f243bb8693418e,curtain-display,,media/animal_stim/whitened/006_right_2.gif,media/animal_stim/whitened/006_left_1.gif,all_background,38,6.0,,,,,
175,63f148d5e42992d5bd3a2d61,curtain-display,,media/animal_stim/whitened/006_left_1.gif,media/animal_stim/whitened/006_left_2.gif,deviant,19,2.0,,,,,
176,64eebd7fddf76c686ac9e56d,survey-likert,2281.0,,,,26,,,{'Q0': 1},[0],background,{'Q0': 1}
177,613d2a7208f243bb8693418e,curtain-display,,media/animal_stim/whitened/006_right_2.gif,media/animal_stim/whitened/006_left_1.gif,all_background,39,6.0,,,,,
178,5c935050c719fc00147defbc,preload,,,,,0,,,,,,
179,5c935050c719fc00147defbc,preload,,,,,0,,,,,,
180,60d78cd9ff61ba5de66359ea,preload,,,,,0,,,,,,
181,60d78cd9ff61ba5de66359ea,preload,,,,,0,,,,,,
182,63f148d5e42992d5bd3a2d61,curtain-display,,media/animal_stim/whitened/006_left_1.gif,media/animal_stim/whitened/006_left_2.gif,deviant,20,2.0,,,,,
183,64eebd7fddf76c686ac9e56d,curtain-display,,media/animal_stim/whitened/001_right_1.gif,media/animal_stim/whitened/001_right_2.gif,deviant,27,5.0,,,,,
184,63f148d5e42992d5bd3a2d61,curtain-display,253.0,media/animal_stim/whitened/006_left_1.gif,media/animal_stim/whitened/006_left_2.gif,deviant,21,2.0,753.0,,,,
185,613d2a7208f243bb8693418e,curtain-display,,media/animal_stim/whitened/006_right_2.gif,media/animal_stim/whitened/006_left_1.gif,all_background,40,6.0,,,,,
186,651829bea42b62b2aef0d41c,survey-likert,15743.0,,,,26,,,{'Q0': 4},[0],background,{'Q0': 4}
187,64eebd7fddf76c686ac9e56d,curtain-display,,media/animal_stim/whitened/001_right_1.gif,media/animal_stim/whitened/001_right_2.gif,deviant,28,5.0,,,,,
188,613d2a7208f243bb8693418e,curtain-display,,media/animal_stim/whitened/006_right_2.gif,media/animal_stim/whitened/006_left_1.gif,all_background,41,6.0,,,,,
189,63f148d5e42992d5bd3a2d61,survey-likert,4537.0,,,,22,,,{'Q0': 0},[0],background,{'Q0': 0}
190,60d78cd9ff61ba5de66359ea,fullscreen,,,,,1,,,,,,
191,651829bea42b62b2aef0d41c,curtain-display,,media/animal_stim/whitened/006_left_2.gif,media/animal_stim/whitened/006_right_1.gif,deviant,27,6.0,,,,,
192,64eebd7fddf76c686ac9e56d,curtain-display,,media/animal_stim/whitened/001_right_1.gif,media/animal_stim/whitened/001_right_2.gif,deviant,29,5.0,,,,,
193,60d78cd9ff61ba5de66359ea,instructions,2009.0,,,,2,,,,,,
194,5c935050c719fc00147defbc,fullscreen,,,,,1,,,,,,
195,613d2a7208f243bb8693418e,curtain-display,,media/animal_stim/whitened/006_right_2.gif,media/animal_stim/whitened/006_left_1.gif,all_background,42,6.0,,,,,
196,63f148d5e42992d5bd3a2d61,curtain-display,,media/animal_stim/whitened/005_left_2.gif,media/animal_stim/whitened/005_left_1.gif,all_background,23,5.0,,,,,
197,651829bea42b62b2aef0d41c,curtain-display,,media/animal_stim/whitened/006_left_2.gif,media/animal_stim/whitened/006_right_1.gif,deviant,28,6.0,,,,,
198,64eebd7fddf76c686ac9e56d,curtain-display,,media/animal_stim/whitened/001_right_1.gif,media/animal_stim/whitened/001_right_2.gif,deviant,30,5.0,,,,,
199,613d2a7208f243bb8693418e,curtain-display,,media/animal_stim/whitened/006_right_2.gif,media/animal_stim/whitened/006_left_1.gif,all_background,43,6.0,,,,,
200,63f148d5e42992d5bd3a2d61,curtain-display,,media/animal_stim/whitened/005_left_2.gif,media/animal_stim/whitened/005_left_1.gif,all_background,24,5.0,,,,,
201,649622da02d0cd201c80a0df,preload,,,,,0,,,,,,
202,649622da02d0cd201c80a0df,preload,,,,,0,,,,,,
203,651829bea42b62b2aef0d41c,curtain-display,,media/animal_stim/whitened/006_left_2.gif,media/animal_stim/whitened/006_right_1.gif,deviant,29,6.0,,,,,
204,5c935050c719fc00147defbc,instructions,5652.0,,,,2,,,,,,
205,64eebd7fddf76c686ac9e56d,curtain-display,,media/animal_stim/whitened/001_right_1.gif,media/animal_stim/whitened/001_right_2.gif,deviant,31,5.0,,,,,
206,613d2a7208f243bb8693418e,curtain-display,1295.0,media/animal_stim/whitened/006_right_2.gif,media/animal_stim/whitened/006_left_1.gif,all_background,44,6.0,1795.0,,,,
207,651033d039c135459ac83d8f,preload,,,,,0,,,,,,
208,651033d039c135459ac83d8f,preload,,,,,0,,,,,,
209,63f148d5e42992d5bd3a2d61,curtain-display,,media/animal_stim/whitened/005_left_2.gif,media/animal_stim/whitened/005_left_1.gif,all_background,25,5.0,,,,,
210,64eebd7fddf76c686ac9e56d,curtain-display,1775.0,media/animal_stim/whitened/001_right_1.gif,media/animal_stim/whitened/001_right_2.gif,deviant,32,5.0,2275.0,,,,
211,651829bea42b62b2aef0d41c,curtain-display,,media/animal_stim/whitened/006_left_2.gif,media/animal_stim/whitened/006_right_1.gif,deviant,30,6.0,,,,,
212,649622da02d0cd201c80a0df,fullscreen,,,,,1,,,,,,
213,613d2a7208f243bb8693418e,survey-likert,4473.0,,,,45,,,{'Q0': 3},[0],background,{'Q0': 3}
214,63f148d5e42992d5bd3a2d61,curtain-display,,media/animal_stim/whitened/005_left_2.gif,media/animal_stim/whitened/005_left_1.gif,all_background,26,5.0,,,,,
215,651829bea42b62b2aef0d41c,curtain-display,,media/animal_stim/whitened/006_left_2.gif,media/animal_stim/whitened/006_right_1.gif,deviant,31,6.0,,,,,
216,614cd51715e662889e0211a0,preload,,,,,0,,,,,,
217,614cd51715e662889e0211a0,preload,,,,,0,,,,,,
218,6106be7d513dcab805d524b8,preload,,,,,0,,,,,,
219,6106be7d513dcab805d524b8,preload,,,,,0,,,,,,
220,64eebd7fddf76c686ac9e56d,survey-likert,5297.0,,,,33,,,{'Q0': 3},[0],background,{'Q0': 3}
221,613d2a7208f243bb8693418e,html-button-response,3524.0,,,,46,,,0,,,0
222,63f148d5e42992d5bd3a2d61,curtain-display,,media/animal_stim/whitened/005_left_2.gif,media/animal_stim/whitened/005_left_1.gif,all_background,27,5.0,,,,,
223,651829bea42b62b2aef0d41c,curtain-display,,media/animal_stim/whitened/006_left_2.gif,media/animal_stim/whitened/006_right_1.gif,deviant,32,6.0,,,,,
224,613d2a7208f243bb8693418e,survey-text,2552.0,,,,47,,,{'Q0': '34'},,,{'Q0': '34'}
225,651033d039c135459ac83d8f,fullscreen,,,,,1,,,,,,
226,649622da02d0cd201c80a0df,instructions,7928.0,,,,2,,,,,,
227,64eebd7fddf76c686ac9e56d,curtain-display,,media/animal_stim/whitened/003_right_1.gif,media/animal_stim/whitened/003_left_2.gif,deviant,34,6.0,,,,,
228,61483c4b10ea5d16c71d6b9e,instructions,50892.0,,,,3,,,,,,
229,63f148d5e42992d5bd3a2d61,curtain-display,3282.0,media/animal_stim/whitened/005_left_2.gif,media/animal_stim/whitened/005_left_1.gif,all_background,28,5.0,3782.0,,,,
230,613d2a7208f243bb8693418e,survey-multi-select,3915.0,,,,48,,,{'ethnicity': ['Hispanic or Latino']},[0],,{'ethnicity': ['Hispanic or Latino']}
231,64eebd7fddf76c686ac9e56d,curtain-display,,media/animal_stim/whitened/003_right_1.gif,media/animal_stim/whitened/003_left_2.gif,deviant,35,6.0,,,,,
232,61483c4b10ea5d16c71d6b9e,curtain-display,,,,,4,,,,,,
233,60e4a5d4b0e40567e60146e4,preload,,,,,0,,,,,,
234,60e4a5d4b0e40567e60146e4,preload,,,,,0,,,,,,
235,64eebd7fddf76c686ac9e56d,curtain-display,,media/animal_stim/whitened/003_right_1.gif,media/animal_stim/whitened/003_left_2.gif,deviant,36,6.0,,,,,
236,63f148d5e42992d5bd3a2d61,survey-likert,6460.0,,,,29,,,{'Q0': 0},[0],background,{'Q0': 0}
237,61483c4b10ea5d16c71d6b9e,curtain-display,,,,,5,,,,,,
238,6106be7d513dcab805d524b8,fullscreen,,,,,1,,,,,,
239,613d2a7208f243bb8693418e,survey-text,6682.0,,,,49,,,{'Q0': 'male'},,,{'Q0': 'male'}
240,64eebd7fddf76c686ac9e56d,curtain-display,,media/animal_stim/whitened/003_right_1.gif,media/animal_stim/whitened/003_left_2.gif,deviant,37,6.0,,,,,
241,63f148d5e42992d5bd3a2d61,curtain-display,,media/animal_stim/whitened/004_left_1.gif,media/animal_stim/whitened/004_right_2.gif,deviant,30,6.0,,,,,
242,61483c4b10ea5d16c71d6b9e,curtain-display,3578.0,,,,6,,4078.0,,,,
243,651829bea42b62b2aef0d41c,curtain-display,,media/animal_stim/whitened/006_left_2.gif,media/animal_stim/whitened/006_right_1.gif,deviant,33,6.0,,,,,
244,64eebd7fddf76c686ac9e56d,curtain-display,,media/animal_stim/whitened/003_right_1.gif,media/animal_stim/whitened/003_left_2.gif,deviant,38,6.0,,,,,
245,613d2a7208f243bb8693418e,survey-multi-choice,5330.0,,,,50,,,"{'education': ""Master's Degree""}",[0],,"{'education': ""Master's Degree""}"
246,613d2a7208f243bb8693418e,fullscreen,,,,,51,,,,,,
247,63f148d5e42992d5bd3a2d61,curtain-display,,media/animal_stim/whitened/004_left_1.gif,media/animal_stim/whitened/004_right_2.gif,deviant,31,6.0,,,,,
248,64eebd7fddf76c686ac9e56d,curtain-display,,media/animal_stim/whitened/003_right_1.gif,media/animal_stim/whitened/003_left_2.gif,deviant,39,6.0,,,,,
249,63f148d5e42992d5bd3a2d61,curtain-display,,media/animal_stim/whitened/004_left_1.gif,media/animal_stim/whitened/004_right_2.gif,deviant,32,6.0,,,,,
250,64eebd7fddf76c686ac9e56d,curtain-display,370.0,media/animal_stim/whitened/003_right_1.gif,media/animal_stim/whitened/003_left_2.gif,deviant,40,6.0,870.0,,,,
251,60e4a5d4b0e40567e60146e4,fullscreen,,,,,1,,,,,,
252,607760884d66833ee83aa987,instructions,56118.0,,,,3,,,,,,
253,5c935050c719fc00147defbc,instructions,31711.0,,,,3,,,,,,
254,63f148d5e42992d5bd3a2d61,curtain-display,,media/animal_stim/whitened/004_left_1.gif,media/animal_stim/whitened/004_right_2.gif,deviant,33,6.0,,,,,
255,651033d039c135459ac83d8f,instructions,23049.0,,,,2,,,,,,
256,607760884d66833ee83aa987,curtain-display,,,,,4,,,,,,
257,5c935050c719fc00147defbc,curtain-display,,,,,4,,,,,,
258,63f148d5e42992d5bd3a2d61,curtain-display,,media/animal_stim/whitened/004_left_1.gif,media/animal_stim/whitened/004_right_2.gif,deviant,34,6.0,,,,,
259,651829bea42b62b2aef0d41c,survey-likert,13299.0,,,,34,,,{'Q0': 4},[0],background,{'Q0': 4}
260,64eebd7fddf76c686ac9e56d,survey-likert,8043.0,,,,41,,,{'Q0': 4},[0],background,{'Q0': 4}
261,607760884d66833ee83aa987,curtain-display,,,,,5,,,,,,
262,5db5fa693d2b8e01654d351c,preload,,,,,0,,,,,,
263,5db5fa693d2b8e01654d351c,preload,,,,,0,,,,,,
264,5c935050c719fc00147defbc,curtain-display,,,,,5,,,,,,
265,63f148d5e42992d5bd3a2d61,curtain-display,,media/animal_stim/whitened/004_left_1.gif,media/animal_stim/whitened/004_right_2.gif,deviant,35,6.0,,,,,
266,651829bea42b62b2aef0d41c,curtain-display,,media/animal_stim/whitened/005_left_1.gif,media/animal_stim/whitened/005_left_2.gif,all_background,35,2.0,,,,,
267,64eebd7fddf76c686ac9e56d,curtain-display,,media/animal_stim/whitened/006_left_2.gif,media/animal_stim/whitened/006_right_1.gif,deviant,42,2.0,,,,,
268,5db5fa693d2b8e01654d351c,fullscreen,,,,,1,,,,,,
269,607760884d66833ee83aa987,curtain-display,4259.0,,,,6,,4759.0,,,,
270,651829bea42b62b2aef0d41c,curtain-display,,media/animal_stim/whitened/005_left_1.gif,media/animal_stim/whitened/005_left_2.gif,all_background,36,2.0,,,,,
271,5db5fa693d2b8e01654d351c,instructions,1064.0,,,,2,,,,,,
272,64eebd7fddf76c686ac9e56d,curtain-display,,media/animal_stim/whitened/006_left_2.gif,media/animal_stim/whitened/006_right_1.gif,deviant,43,2.0,,,,,
273,60d78cd9ff61ba5de66359ea,instructions,49763.0,,,,3,,,,,,
274,6106be7d513dcab805d524b8,instructions,25337.0,,,,2,,,,,,
275,613d2a7208f243bb8693418e,html-button-response,19200.0,,,,52,,,0,,,0
276,5c935050c719fc00147defbc,curtain-display,7164.0,,,,6,,7664.0,,,,
277,60d78cd9ff61ba5de66359ea,curtain-display,,,,,4,,,,,,
278,60e4a5d4b0e40567e60146e4,instructions,19422.0,,,,2,,,,,,
279,64eebd7fddf76c686ac9e56d,curtain-display,3779.0,media/animal_stim/whitened/006_left_2.gif,media/animal_stim/whitened/006_right_1.gif,deviant,44,2.0,4279.0,,,,
280,63f148d5e42992d5bd3a2d61,curtain-display,10321.0,media/animal_stim/whitened/004_left_1.gif,media/animal_stim/whitened/004_right_2.gif,deviant,36,6.0,10821.0,,,,
281,60d78cd9ff61ba5de66359ea,curtain-display,,,,,5,,,,,,
282,649622da02d0cd201c80a0df,instructions,39808.0,,,,3,,,,,,
283,64eebd7fddf76c686ac9e56d,survey-likert,2717.0,,,,45,,,{'Q0': 3},[0],background,{'Q0': 3}
284,64eebd7fddf76c686ac9e56d,html-button-response,2107.0,,,,46,,,0,,,0
285,60d78cd9ff61ba5de66359ea,curtain-display,2444.0,,,,6,,2944.0,,,,
286,63f148d5e42992d5bd3a2d61,survey-likert,4118.0,,,,37,,,{'Q0': 4},[0],background,{'Q0': 4}
287,649622da02d0cd201c80a0df,curtain-display,,,,,4,,,,,,
288,64eebd7fddf76c686ac9e56d,survey-text,2044.0,,,,47,,,{'Q0': '21'},,,{'Q0': '21'}
289,5db5fa693d2b8e01654d351c,instructions,10885.0,,,,3,,,,,,
290,63f148d5e42992d5bd3a2d61,curtain-display,,media/animal_stim/whitened/003_left_2.gif,media/animal_stim/whitened/003_left_1.gif,all_background,38,6.0,,,,,
291,651829bea42b62b2aef0d41c,curtain-display,,media/animal_stim/whitened/005_left_1.gif,media/animal_stim/whitened/005_left_2.gif,all_background,37,2.0,,,,,
292,649622da02d0cd201c80a0df,curtain-display,,,,,5,,,,,,
293,64eebd7fddf76c686ac9e56d,survey-multi-select,3358.0,,,,48,,,{'ethnicity': ['Hispanic or Latino']},[0],,{'ethnicity': ['Hispanic or Latino']}
294,5db5fa693d2b8e01654d351c,curtain-display,,,,,4,,,,,,
295,64eebd7fddf76c686ac9e56d,survey-text,2031.0,,,,49,,,{'Q0': 'male'},,,{'Q0': 'male'}
296,63f148d5e42992d5bd3a2d61,curtain-display,,media/animal_stim/whitened/003_left_2.gif,media/animal_stim/whitened/003_left_1.gif,all_background,39,6.0,,,,,
297,649622da02d0cd201c80a0df,curtain-display,3121.0,,,,6,,3621.0,,,,
298,5db5fa693d2b8e01654d351c,curtain-display,,,,,5,,,,,,
299,651033d039c135459ac83d8f,instructions,30639.0,,,,3,,,,,,
300,63f148d5e42992d5bd3a2d61,curtain-display,,media/animal_stim/whitened/003_left_2.gif,media/animal_stim/whitened/003_left_1.gif,all_background,40,6.0,,,,,
301,651829bea42b62b2aef0d41c,survey-likert,7462.0,,,,38,,,{'Q0': 4},[0],background,{'Q0': 4}
302,5db5fa693d2b8e01654d351c,curtain-display,1239.0,,,,6,,1739.0,,,,
303,651033d039c135459ac83d8f,curtain-display,,,,,4,,,,,,
304,5eb3a51f58efe718f5cffdb4,preload,,,,,0,,,,,,
305,5eb3a51f58efe718f5cffdb4,preload,,,,,0,,,,,,
306,63f148d5e42992d5bd3a2d61,curtain-display,,media/animal_stim/whitened/003_left_2.gif,media/animal_stim/whitened/003_left_1.gif,all_background,41,6.0,,,,,
307,651829bea42b62b2aef0d41c,curtain-display,,media/animal_stim/whitened/002_right_2.gif,media/animal_stim/whitened/002_left_1.gif,all_background,39,5.0,,,,,
308,651033d039c135459ac83d8f,curtain-display,,,,,5,,,,,,
309,651829bea42b62b2aef0d41c,curtain-display,140487.0,media/animal_stim/whitened/002_right_2.gif,media/animal_stim/whitened/002_left_1.gif,all_background,40,5.0,140987.0,,,,
310,63f148d5e42992d5bd3a2d61,curtain-display,,media/animal_stim/whitened/003_left_2.gif,media/animal_stim/whitened/003_left_1.gif,all_background,42,6.0,,,,,
311,5db5fa693d2b8e01654d351c,instructions,6033.0,,,,7,,,,,,
312,64eebd7fddf76c686ac9e56d,survey-multi-choice,12626.0,,,,50,,,{'education': 'Some high school'},[0],,{'education': 'Some high school'}
313,64eebd7fddf76c686ac9e56d,fullscreen,,,,,51,,,,,,
314,61483c4b10ea5d16c71d6b9e,instructions,51691.0,,,,7,,,,,,
315,651033d039c135459ac83d8f,curtain-display,1752.0,,,,6,,2252.0,,,,
316,63f148d5e42992d5bd3a2d61,curtain-display,,media/animal_stim/whitened/003_left_2.gif,media/animal_stim/whitened/003_left_1.gif,all_background,43,6.0,,,,,
317,651829bea42b62b2aef0d41c,curtain-display,,media/animal_stim/whitened/002_right_2.gif,media/animal_stim/whitened/002_left_1.gif,all_background,41,5.0,,,,,
318,5db5fa693d2b8e01654d351c,curtain-display,,media/animal_stim/whitened/004_left_1.gif,media/animal_stim/whitened/004_right_2.gif,all_background,8,6.0,,,,,
319,5c935050c719fc00147defbc,instructions,28832.0,,,,7,,,,,,
320,64eebd7fddf76c686ac9e56d,html-button-response,3005.0,,,,52,,,0,,,0
321,63f148d5e42992d5bd3a2d61,curtain-display,765.0,media/animal_stim/whitened/003_left_2.gif,media/animal_stim/whitened/003_left_1.gif,all_background,44,6.0,1265.0,,,,
322,61483c4b10ea5d16c71d6b9e,curtain-display,,media/animal_stim/whitened/006_right_1.gif,media/animal_stim/whitened/006_right_2.gif,deviant,8,5.0,,,,,
323,651829bea42b62b2aef0d41c,curtain-display,,media/animal_stim/whitened/002_right_2.gif,media/animal_stim/whitened/002_left_1.gif,all_background,42,5.0,,,,,
324,5db5fa693d2b8e01654d351c,curtain-display,,media/animal_stim/whitened/004_left_1.gif,media/animal_stim/whitened/004_right_2.gif,all_background,9,6.0,,,,,
325,5c935050c719fc00147defbc,curtain-display,,media/animal_stim/whitened/006_right_1.gif,media/animal_stim/whitened/006_right_2.gif,deviant,8,2.0,,,,,
326,63f148d5e42992d5bd3a2d61,survey-likert,2791.0,,,,45,,,{'Q0': 0},[0],background,{'Q0': 0}
327,60fd76f8fbbc23113b72821f,preload,,,,,0,,,,,,
328,60fd76f8fbbc23113b72821f,preload,,,,,0,,,,,,
329,61483c4b10ea5d16c71d6b9e,curtain-display,,media/animal_stim/whitened/006_right_1.gif,media/animal_stim/whitened/006_right_2.gif,deviant,9,5.0,,,,,
330,651829bea42b62b2aef0d41c,curtain-display,,media/animal_stim/whitened/002_right_2.gif,media/animal_stim/whitened/002_left_1.gif,all_background,43,5.0,,,,,
331,5db5fa693d2b8e01654d351c,curtain-display,,media/animal_stim/whitened/004_left_1.gif,media/animal_stim/whitened/004_right_2.gif,all_background,10,6.0,,,,,
332,5c935050c719fc00147defbc,curtain-display,,media/animal_stim/whitened/006_right_1.gif,media/animal_stim/whitened/006_right_2.gif,deviant,9,2.0,,,,,
333,63f148d5e42992d5bd3a2d61,html-button-response,3217.0,,,,46,,,0,,,0
334,614cd51715e662889e0211a0,fullscreen,,,,,1,,,,,,
335,60e4a5d4b0e40567e60146e4,instructions,33488.0,,,,3,,,,,,
336,61483c4b10ea5d16c71d6b9e,curtain-display,,media/animal_stim/whitened/006_right_1.gif,media/animal_stim/whitened/006_right_2.gif,deviant,10,5.0,,,,,
337,5db5fa693d2b8e01654d351c,curtain-display,,media/animal_stim/whitened/004_left_1.gif,media/animal_stim/whitened/004_right_2.gif,all_background,11,6.0,,,,,
338,63f148d5e42992d5bd3a2d61,survey-text,3503.0,,,,47,,,{'Q0': '26'},,,{'Q0': '26'}
339,60e4a5d4b0e40567e60146e4,curtain-display,,,,,4,,,,,,
340,607760884d66833ee83aa987,instructions,45056.0,,,,7,,,,,,
341,61483c4b10ea5d16c71d6b9e,curtain-display,,media/animal_stim/whitened/006_right_1.gif,media/animal_stim/whitened/006_right_2.gif,deviant,11,5.0,,,,,
342,6010571dc1152033ac3bc4ca,preload,,,,,0,,,,,,
343,60fd76f8fbbc23113b72821f,fullscreen,,,,,1,,,,,,
344,6010571dc1152033ac3bc4ca,preload,,,,,0,,,,,,
345,5c935050c719fc00147defbc,curtain-display,4823.0,media/animal_stim/whitened/006_right_1.gif,media/animal_stim/whitened/006_right_2.gif,deviant,10,2.0,5323.0,,,,
346,5db5fa693d2b8e01654d351c,curtain-display,,media/animal_stim/whitened/004_left_1.gif,media/animal_stim/whitened/004_right_2.gif,all_background,12,6.0,,,,,
347,6106be7d513dcab805d524b8,instructions,44346.0,,,,3,,,,,,
348,60e4a5d4b0e40567e60146e4,curtain-display,,,,,5,,,,,,
349,607760884d66833ee83aa987,curtain-display,,media/animal_stim/whitened/003_right_1.gif,media/animal_stim/whitened/003_right_2.gif,deviant,8,2.0,,,,,
350,61483c4b10ea5d16c71d6b9e,curtain-display,,media/animal_stim/whitened/006_right_1.gif,media/animal_stim/whitened/006_right_2.gif,deviant,12,5.0,,,,,
351,614cd51715e662889e0211a0,instructions,8959.0,,,,2,,,,,,
352,5db5fa693d2b8e01654d351c,curtain-display,,media/animal_stim/whitened/004_left_1.gif,media/animal_stim/whitened/004_right_2.gif,all_background,13,6.0,,,,,
353,6106be7d513dcab805d524b8,curtain-display,,,,,4,,,,,,
354,649622da02d0cd201c80a0df,instructions,32090.0,,,,7,,,,,,
355,607760884d66833ee83aa987,curtain-display,,media/animal_stim/whitened/003_right_1.gif,media/animal_stim/whitened/003_right_2.gif,deviant,9,2.0,,,,,
356,5db5fa693d2b8e01654d351c,curtain-display,420.0,media/animal_stim/whitened/004_left_1.gif,media/animal_stim/whitened/004_right_2.gif,all_background,14,6.0,920.0,,,,
357,63f148d5e42992d5bd3a2d61,survey-multi-select,7890.0,,,,48,,,{'ethnicity': ['Asian']},[0],,{'ethnicity': ['Asian']}
358,60fd76f8fbbc23113b72821f,instructions,6126.0,,,,2,,,,,,
359,651829bea42b62b2aef0d41c,curtain-display,11701.0,media/animal_stim/whitened/002_right_2.gif,media/animal_stim/whitened/002_left_1.gif,all_background,44,5.0,12201.0,,,,
360,61483c4b10ea5d16c71d6b9e,curtain-display,4015.0,media/animal_stim/whitened/006_right_1.gif,media/animal_stim/whitened/006_right_2.gif,deviant,13,5.0,4515.0,,,,
361,6106be7d513dcab805d524b8,curtain-display,,,,,5,,,,,,
362,5db5fa693d2b8e01654d351c,survey-likert,3152.0,,,,15,,,{'Q0': 3},[0],background,{'Q0': 3}
363,649622da02d0cd201c80a0df,curtain-display,,media/animal_stim/whitened/003_left_1.gif,media/animal_stim/whitened/003_left_2.gif,all_background,8,6.0,,,,,
364,5fc429047f2ae3825eb811a4,preload,,,,,0,,,,,,
365,5fc429047f2ae3825eb811a4,preload,,,,,0,,,,,,
366,60e4a5d4b0e40567e60146e4,curtain-display,6399.0,,,,6,,6899.0,,,,
367,5c935050c719fc00147defbc,survey-likert,11086.0,,,,11,,,{'Q0': 1},[0],background,{'Q0': 1}
368,63f148d5e42992d5bd3a2d61,survey-text,6039.0,,,,49,,,{'Q0': 'Male'},,,{'Q0': 'Male'}
369,5db5fa693d2b8e01654d351c,curtain-display,,media/animal_stim/whitened/001_left_2.gif,media/animal_stim/whitened/001_right_1.gif,all_background,16,2.0,,,,,
370,649622da02d0cd201c80a0df,curtain-display,,media/animal_stim/whitened/003_left_1.gif,media/animal_stim/whitened/003_left_2.gif,all_background,9,6.0,,,,,
371,607760884d66833ee83aa987,curtain-display,5860.0,media/animal_stim/whitened/003_right_1.gif,media/animal_stim/whitened/003_right_2.gif,deviant,10,2.0,6360.0,,,,
372,651829bea42b62b2aef0d41c,survey-likert,7792.0,,,,45,,,{'Q0': 3},[0],background,{'Q0': 3}
373,6106be7d513dcab805d524b8,curtain-display,5269.0,,,,6,,5769.0,,,,
374,5c935050c719fc00147defbc,curtain-display,,media/animal_stim/whitened/003_right_2.gif,media/animal_stim/whitened/003_right_1.gif,all_background,12,6.0,,,,,
375,651033d039c135459ac83d8f,instructions,29695.0,,,,7,,,,,,
376,5db5fa693d2b8e01654d351c,curtain-display,,media/animal_stim/whitened/001_left_2.gif,media/animal_stim/whitened/001_right_1.gif,all_background,17,2.0,,,,,
377,5fc429047f2ae3825eb811a4,fullscreen,,,,,1,,,,,,
378,649622da02d0cd201c80a0df,curtain-display,,media/animal_stim/whitened/003_left_1.gif,media/animal_stim/whitened/003_left_2.gif,all_background,10,6.0,,,,,
379,63f148d5e42992d5bd3a2d61,survey-multi-choice,4396.0,,,,50,,,"{'education': ""Master's Degree""}",[0],,"{'education': ""Master's Degree""}"
380,63f148d5e42992d5bd3a2d61,fullscreen,,,,,51,,,,,,
381,5db5fa693d2b8e01654d351c,curtain-display,735.0,media/animal_stim/whitened/001_left_2.gif,media/animal_stim/whitened/001_right_1.gif,all_background,18,2.0,1235.0,,,,
382,60a53519043904037bac8c91,preload,,,,,0,,,,,,
383,60a53519043904037bac8c91,preload,,,,,0,,,,,,
384,651829bea42b62b2aef0d41c,html-button-response,4450.0,,,,46,,,0,,,0
385,5c935050c719fc00147defbc,curtain-display,,media/animal_stim/whitened/003_right_2.gif,media/animal_stim/whitened/003_right_1.gif,all_background,13,6.0,,,,,
386,651033d039c135459ac83d8f,curtain-display,,media/animal_stim/whitened/006_right_2.gif,media/animal_stim/whitened/006_left_1.gif,deviant,8,2.0,,,,,
387,5fc429047f2ae3825eb811a4,instructions,3299.0,,,,2,,,,,,
388,607760884d66833ee83aa987,survey-likert,6694.0,,,,11,,,{'Q0': 3},[0],background,{'Q0': 3}
389,649622da02d0cd201c80a0df,curtain-display,,media/animal_stim/whitened/003_left_1.gif,media/animal_stim/whitened/003_left_2.gif,all_background,11,6.0,,,,,
390,63f148d5e42992d5bd3a2d61,html-button-response,4094.0,,,,52,,,0,,,0
391,5db5fa693d2b8e01654d351c,survey-likert,3524.0,,,,19,,,{'Q0': 3},[0],background,{'Q0': 3}
392,61483c4b10ea5d16c71d6b9e,survey-likert,14009.0,,,,14,,,{'Q0': 3},[0],background,{'Q0': 3}
393,651829bea42b62b2aef0d41c,survey-text,3457.0,,,,47,,,{'Q0': '22'},,,{'Q0': '22'}
394,5c935050c719fc00147defbc,curtain-display,,media/animal_stim/whitened/003_right_2.gif,media/animal_stim/whitened/003_right_1.gif,all_background,14,6.0,,,,,
395,651033d039c135459ac83d8f,curtain-display,,media/animal_stim/whitened/006_right_2.gif,media/animal_stim/whitened/006_left_1.gif,deviant,9,2.0,,,,,
396,607760884d66833ee83aa987,curtain-display,,media/animal_stim/whitened/002_right_2.gif,media/animal_stim/whitened/002_left_1.gif,all_background,12,5.0,,,,,
397,649622da02d0cd201c80a0df,curtain-display,,media/animal_stim/whitened/003_left_1.gif,media/animal_stim/whitened/003_left_2.gif,all_background,12,6.0,,,,,
398,613b7bdc3a329ab20c067d1a,preload,,,,,0,,,,,,
399,613b7bdc3a329ab20c067d1a,preload,,,,,0,,,,,,
400,651033d039c135459ac83d8f,curtain-display,355.0,media/animal_stim/whitened/006_right_2.gif,media/animal_stim/whitened/006_left_1.gif,deviant,10,2.0,855.0,,,,
401,5db5fa693d2b8e01654d351c,curtain-display,,media/animal_stim/whitened/003_left_2.gif,media/animal_stim/whitened/003_left_1.gif,deviant,20,6.0,,,,,
402,651829bea42b62b2aef0d41c,survey-multi-select,2882.0,,,,48,,,{'ethnicity': ['White']},[0],,{'ethnicity': ['White']}
403,61483c4b10ea5d16c71d6b9e,curtain-display,,media/animal_stim/whitened/002_right_1.gif,media/animal_stim/whitened/002_left_2.gif,deviant,15,6.0,,,,,
404,5c935050c719fc00147defbc,curtain-display,,media/animal_stim/whitened/003_right_2.gif,media/animal_stim/whitened/003_right_1.gif,all_background,15,6.0,,,,,
405,607760884d66833ee83aa987,curtain-display,,media/animal_stim/whitened/002_right_2.gif,media/animal_stim/whitened/002_left_1.gif,all_background,13,5.0,,,,,
406,649622da02d0cd201c80a0df,curtain-display,,media/animal_stim/whitened/003_left_1.gif,media/animal_stim/whitened/003_left_2.gif,all_background,13,6.0,,,,,
407,60d78cd9ff61ba5de66359ea,instructions,62214.0,,,,7,,,,,,
408,5db5fa693d2b8e01654d351c,curtain-display,,media/animal_stim/whitened/003_left_2.gif,media/animal_stim/whitened/003_left_1.gif,deviant,21,6.0,,,,,
409,651829bea42b62b2aef0d41c,survey-text,3821.0,,,,49,,,{'Q0': 'Male'},,,{'Q0': 'Male'}
410,61483c4b10ea5d16c71d6b9e,curtain-display,,media/animal_stim/whitened/002_right_1.gif,media/animal_stim/whitened/002_left_2.gif,deviant,16,6.0,,,,,
411,5c935050c719fc00147defbc,curtain-display,,media/animal_stim/whitened/003_right_2.gif,media/animal_stim/whitened/003_right_1.gif,all_background,16,6.0,,,,,
412,607760884d66833ee83aa987,curtain-display,,media/animal_stim/whitened/002_right_2.gif,media/animal_stim/whitened/002_left_1.gif,all_background,14,5.0,,,,,
413,651033d039c135459ac83d8f,survey-likert,6816.0,,,,11,,,{'Q0': 0},[0],background,{'Q0': 0}
414,60d78cd9ff61ba5de66359ea,curtain-display,,media/animal_stim/whitened/001_right_1.gif,media/animal_stim/whitened/001_right_2.gif,all_background,8,2.0,,,,,
415,5db5fa693d2b8e01654d351c,curtain-display,,media/animal_stim/whitened/003_left_2.gif,media/animal_stim/whitened/003_left_1.gif,deviant,22,6.0,,,,,
416,651829bea42b62b2aef0d41c,survey-multi-choice,3169.0,,,,50,,,{'education': 'High school diploma'},[0],,{'education': 'High school diploma'}
417,651829bea42b62b2aef0d41c,fullscreen,,,,,51,,,,,,
418,649622da02d0cd201c80a0df,curtain-display,4591.0,media/animal_stim/whitened/003_left_1.gif,media/animal_stim/whitened/003_left_2.gif,all_background,14,6.0,5091.0,,,,
419,61483c4b10ea5d16c71d6b9e,curtain-display,,media/animal_stim/whitened/002_right_1.gif,media/animal_stim/whitened/002_left_2.gif,deviant,17,6.0,,,,,
420,60e4a5d4b0e40567e60146e4,instructions,23815.0,,,,7,,,,,,
421,607760884d66833ee83aa987,curtain-display,,media/animal_stim/whitened/002_right_2.gif,media/animal_stim/whitened/002_left_1.gif,all_background,15,5.0,,,,,
422,5c935050c719fc00147defbc,curtain-display,,media/animal_stim/whitened/003_right_2.gif,media/animal_stim/whitened/003_right_1.gif,all_background,17,6.0,,,,,
423,651033d039c135459ac83d8f,curtain-display,,media/animal_stim/whitened/002_left_1.gif,media/animal_stim/whitened/002_right_2.gif,deviant,12,6.0,,,,,
424,60d78cd9ff61ba5de66359ea,curtain-display,,media/animal_stim/whitened/001_right_1.gif,media/animal_stim/whitened/001_right_2.gif,all_background,9,2.0,,,,,
425,5db5fa693d2b8e01654d351c,curtain-display,,media/animal_stim/whitened/003_left_2.gif,media/animal_stim/whitened/003_left_1.gif,deviant,23,6.0,,,,,
426,61483c4b10ea5d16c71d6b9e,curtain-display,,media/animal_stim/whitened/002_right_1.gif,media/animal_stim/whitened/002_left_2.gif,deviant,18,6.0,,,,,
427,60fd76f8fbbc23113b72821f,instructions,28193.0,,,,3,,,,,,
428,60e4a5d4b0e40567e60146e4,curtain-display,,media/animal_stim/whitened/006_right_2.gif,media/animal_stim/whitened/006_right_1.gif,all_background,8,5.0,,,,,
429,607760884d66833ee83aa987,curtain-display,,media/animal_stim/whitened/002_right_2.gif,media/animal_stim/whitened/002_left_1.gif,all_background,16,5.0,,,,,
430,651033d039c135459ac83d8f,curtain-display,,media/animal_stim/whitened/002_left_1.gif,media/animal_stim/whitened/002_right_2.gif,deviant,13,6.0,,,,,
431,60d78cd9ff61ba5de66359ea,curtain-display,3182.0,media/animal_stim/whitened/001_right_1.gif,media/animal_stim/whitened/001_right_2.gif,all_background,10,2.0,3682.0,,,,
432,5db5fa693d2b8e01654d351c,curtain-display,,media/animal_stim/whitened/003_left_2.gif,media/animal_stim/whitened/003_left_1.gif,deviant,24,6.0,,,,,
433,61483c4b10ea5d16c71d6b9e,curtain-display,,media/animal_stim/whitened/002_right_1.gif,media/animal_stim/whitened/002_left_2.gif,deviant,19,6.0,,,,,
434,60fd76f8fbbc23113b72821f,curtain-display,,,,,4,,,,,,
435,60e4a5d4b0e40567e60146e4,curtain-display,,media/animal_stim/whitened/006_right_2.gif,media/animal_stim/whitened/006_right_1.gif,all_background,9,5.0,,,,,
436,649622da02d0cd201c80a0df,survey-likert,8351.0,,,,15,,,{'Q0': 2},[0],background,{'Q0': 2}
437,651033d039c135459ac83d8f,curtain-display,,media/animal_stim/whitened/002_left_1.gif,media/animal_stim/whitened/002_right_2.gif,deviant,14,6.0,,,,,
438,607760884d66833ee83aa987,curtain-display,3356.0,media/animal_stim/whitened/002_right_2.gif,media/animal_stim/whitened/002_left_1.gif,all_background,17,5.0,3856.0,,,,
439,5db5fa693d2b8e01654d351c,curtain-display,,media/animal_stim/whitened/003_left_2.gif,media/animal_stim/whitened/003_left_1.gif,deviant,25,6.0,,,,,
440,61483c4b10ea5d16c71d6b9e,curtain-display,,media/animal_stim/whitened/002_right_1.gif,media/animal_stim/whitened/002_left_2.gif,deviant,20,6.0,,,,,
441,5c935050c719fc00147defbc,curtain-display,8823.0,media/animal_stim/whitened/003_right_2.gif,media/animal_stim/whitened/003_right_1.gif,all_background,18,6.0,9323.0,,,,
442,60e4a5d4b0e40567e60146e4,curtain-display,,media/animal_stim/whitened/006_right_2.gif,media/animal_stim/whitened/006_right_1.gif,all_background,10,5.0,,,,,
443,60fd76f8fbbc23113b72821f,curtain-display,,,,,5,,,,,,
444,649622da02d0cd201c80a0df,curtain-display,,media/animal_stim/whitened/001_left_1.gif,media/animal_stim/whitened/001_left_2.gif,deviant,16,5.0,,,,,
445,651033d039c135459ac83d8f,curtain-display,,media/animal_stim/whitened/002_left_1.gif,media/animal_stim/whitened/002_right_2.gif,deviant,15,6.0,,,,,
446,61676931204ff555c7609795,preload,,,,,0,,,,,,
447,61676931204ff555c7609795,preload,,,,,0,,,,,,
448,60d78cd9ff61ba5de66359ea,survey-likert,6353.0,,,,11,,,{'Q0': 1},[0],background,{'Q0': 1}
449,61483c4b10ea5d16c71d6b9e,curtain-display,1826.0,media/animal_stim/whitened/002_right_1.gif,media/animal_stim/whitened/002_left_2.gif,deviant,21,6.0,2326.0,,,,
450,5db5fa693d2b8e01654d351c,curtain-display,2658.0,media/animal_stim/whitened/003_left_2.gif,media/animal_stim/whitened/003_left_1.gif,deviant,26,6.0,3158.0,,,,
451,5f0a79cdff3278354b2016b7,preload,,,,,0,,,,,,
452,5f0a79cdff3278354b2016b7,preload,,,,,0,,,,,,
453,607760884d66833ee83aa987,survey-likert,5814.0,,,,18,,,{'Q0': 0},[0],background,{'Q0': 0}
454,60e4a5d4b0e40567e60146e4,curtain-display,,media/animal_stim/whitened/006_right_2.gif,media/animal_stim/whitened/006_right_1.gif,all_background,11,5.0,,,,,
455,649622da02d0cd201c80a0df,curtain-display,,media/animal_stim/whitened/001_left_1.gif,media/animal_stim/whitened/001_left_2.gif,deviant,17,5.0,,,,,
456,5c935050c719fc00147defbc,survey-likert,3831.0,,,,19,,,{'Q0': 3},[0],background,{'Q0': 3}
457,5db5fa693d2b8e01654d351c,survey-likert,1824.0,,,,27,,,{'Q0': 2},[0],background,{'Q0': 2}
458,651033d039c135459ac83d8f,curtain-display,,media/animal_stim/whitened/002_left_1.gif,media/animal_stim/whitened/002_right_2.gif,deviant,16,6.0,,,,,
459,60a53519043904037bac8c91,fullscreen,,,,,1,,,,,,
460,60d78cd9ff61ba5de66359ea,curtain-display,,media/animal_stim/whitened/003_left_2.gif,media/animal_stim/whitened/003_left_1.gif,deviant,12,5.0,,,,,
461,61676931204ff555c7609795,fullscreen,,,,,1,,,,,,
462,60fd76f8fbbc23113b72821f,curtain-display,4727.0,,,,6,,5227.0,,,,
463,5f0a79cdff3278354b2016b7,fullscreen,,,,,1,,,,,,
464,607760884d66833ee83aa987,curtain-display,,media/animal_stim/whitened/005_right_1.gif,media/animal_stim/whitened/005_right_2.gif,deviant,19,6.0,,,,,
465,60e4a5d4b0e40567e60146e4,curtain-display,,media/animal_stim/whitened/006_right_2.gif,media/animal_stim/whitened/006_right_1.gif,all_background,12,5.0,,,,,
466,61676931204ff555c7609795,instructions,1873.0,,,,2,,,,,,
467,649622da02d0cd201c80a0df,curtain-display,,media/animal_stim/whitened/001_left_1.gif,media/animal_stim/whitened/001_left_2.gif,deviant,18,5.0,,,,,
468,61483c4b10ea5d16c71d6b9e,survey-likert,5123.0,,,,22,,,{'Q0': 0},[0],background,{'Q0': 0}
469,5c935050c719fc00147defbc,curtain-display,,media/animal_stim/whitened/002_left_2.gif,media/animal_stim/whitened/002_right_1.gif,deviant,20,5.0,,,,,
470,5db5fa693d2b8e01654d351c,curtain-display,,media/animal_stim/whitened/002_right_1.gif,media/animal_stim/whitened/002_right_2.gif,deviant,28,5.0,,,,,
471,651033d039c135459ac83d8f,curtain-display,,media/animal_stim/whitened/002_left_1.gif,media/animal_stim/whitened/002_right_2.gif,deviant,17,6.0,,,,,
472,5fc429047f2ae3825eb811a4,instructions,30470.0,,,,3,,,,,,
473,60d78cd9ff61ba5de66359ea,curtain-display,,media/animal_stim/whitened/003_left_2.gif,media/animal_stim/whitened/003_left_1.gif,deviant,13,5.0,,,,,
474,6148baf1d5974f3958c332d2,preload,,,,,0,,,,,,
475,6148baf1d5974f3958c332d2,preload,,,,,0,,,,,,
476,607760884d66833ee83aa987,curtain-display,,media/animal_stim/whitened/005_right_1.gif,media/animal_stim/whitened/005_right_2.gif,deviant,20,6.0,,,,,
477,649622da02d0cd201c80a0df,curtain-display,,media/animal_stim/whitened/001_left_1.gif,media/animal_stim/whitened/001_left_2.gif,deviant,19,5.0,,,,,
478,61483c4b10ea5d16c71d6b9e,curtain-display,,media/animal_stim/whitened/005_left_1.gif,media/animal_stim/whitened/005_right_2.gif,all_background,23,2.0,,,,,
479,60e4a5d4b0e40567e60146e4,curtain-display,2829.0,media/animal_stim/whitened/006_right_2.gif,media/animal_stim/whitened/006_right_1.gif,all_background,13,5.0,3329.0,,,,
480,5db5fa693d2b8e01654d351c,curtain-display,,media/animal_stim/whitened/002_right_1.gif,media/animal_stim/whitened/002_right_2.gif,deviant,29,5.0,,,,,
481,5c935050c719fc00147defbc,curtain-display,,media/animal_stim/whitened/002_left_2.gif,media/animal_stim/whitened/002_right_1.gif,deviant,21,5.0,,,,,
482,5fc429047f2ae3825eb811a4,curtain-display,,,,,4,,,,,,
483,6106be7d513dcab805d524b8,instructions,40875.0,,,,7,,,,,,
484,60d78cd9ff61ba5de66359ea,curtain-display,,media/animal_stim/whitened/003_left_2.gif,media/animal_stim/whitened/003_left_1.gif,deviant,14,5.0,,,,,
485,651033d039c135459ac83d8f,curtain-display,3286.0,media/animal_stim/whitened/002_left_1.gif,media/animal_stim/whitened/002_right_2.gif,deviant,18,6.0,3786.0,,,,
486,613b7bdc3a329ab20c067d1a,fullscreen,,,,,1,,,,,,
487,607760884d66833ee83aa987,curtain-display,,media/animal_stim/whitened/005_right_1.gif,media/animal_stim/whitened/005_right_2.gif,deviant,21,6.0,,,,,
488,649622da02d0cd201c80a0df,curtain-display,,media/animal_stim/whitened/001_left_1.gif,media/animal_stim/whitened/001_left_2.gif,deviant,20,5.0,,,,,
489,61483c4b10ea5d16c71d6b9e,curtain-display,,media/animal_stim/whitened/005_left_1.gif,media/animal_stim/whitened/005_right_2.gif,all_background,24,2.0,,,,,
490,5db5fa693d2b8e01654d351c,curtain-display,,media/animal_stim/whitened/002_right_1.gif,media/animal_stim/whitened/002_right_2.gif,deviant,30,5.0,,,,,
491,5f0a79cdff3278354b2016b7,instructions,8847.0,,,,2,,,,,,
492,5c935050c719fc00147defbc,curtain-display,,media/animal_stim/whitened/002_left_2.gif,media/animal_stim/whitened/002_right_1.gif,deviant,22,5.0,,,,,
493,5fc429047f2ae3825eb811a4,curtain-display,,,,,5,,,,,,
494,60d78cd9ff61ba5de66359ea,curtain-display,,media/animal_stim/whitened/003_left_2.gif,media/animal_stim/whitened/003_left_1.gif,deviant,15,5.0,,,,,
495,6106be7d513dcab805d524b8,curtain-display,,media/animal_stim/whitened/004_right_1.gif,media/animal_stim/whitened/004_right_2.gif,deviant,8,6.0,,,,,
496,60e4a5d4b0e40567e60146e4,survey-likert,5225.0,,,,14,,,{'Q0': 1},[0],background,{'Q0': 1}
497,651033d039c135459ac83d8f,survey-likert,4980.0,,,,19,,,{'Q0': 2},[0],background,{'Q0': 2}
498,607760884d66833ee83aa987,curtain-display,,media/animal_stim/whitened/005_right_1.gif,media/animal_stim/whitened/005_right_2.gif,deviant,22,6.0,,,,,
499,5db5fa693d2b8e01654d351c,curtain-display,,media/animal_stim/whitened/002_right_1.gif,media/animal_stim/whitened/002_right_2.gif,deviant,31,5.0,,,,,
500,5fc429047f2ae3825eb811a4,curtain-display,2096.0,,,,6,,2596.0,,,,
501,5c935050c719fc00147defbc,curtain-display,,media/animal_stim/whitened/002_left_2.gif,media/animal_stim/whitened/002_right_1.gif,deviant,23,5.0,,,,,
502,60d78cd9ff61ba5de66359ea,curtain-display,,media/animal_stim/whitened/003_left_2.gif,media/animal_stim/whitened/003_left_1.gif,deviant,16,5.0,,,,,
503,6106be7d513dcab805d524b8,curtain-display,,media/animal_stim/whitened/004_right_1.gif,media/animal_stim/whitened/004_right_2.gif,deviant,9,6.0,,,,,
504,60e4a5d4b0e40567e60146e4,curtain-display,,media/animal_stim/whitened/004_left_1.gif,media/animal_stim/whitened/004_right_2.gif,deviant,15,6.0,,,,,
505,649622da02d0cd201c80a0df,curtain-display,4672.0,media/animal_stim/whitened/001_left_1.gif,media/animal_stim/whitened/001_left_2.gif,deviant,21,5.0,5172.0,,,,
506,5f4b49d8b1b5480008d21a11,preload,,,,,0,,,,,,
507,5f4b49d8b1b5480008d21a11,preload,,,,,0,,,,,,
508,614cd51715e662889e0211a0,instructions,58581.0,,,,3,,,,,,
509,651033d039c135459ac83d8f,curtain-display,,media/animal_stim/whitened/005_right_2.gif,media/animal_stim/whitened/005_right_1.gif,all_background,20,5.0,,,,,
510,607760884d66833ee83aa987,curtain-display,,media/animal_stim/whitened/005_right_1.gif,media/animal_stim/whitened/005_right_2.gif,deviant,23,6.0,,,,,
511,61483c4b10ea5d16c71d6b9e,curtain-display,5740.0,media/animal_stim/whitened/005_left_1.gif,media/animal_stim/whitened/005_right_2.gif,all_background,25,2.0,6240.0,,,,
512,5db5fa693d2b8e01654d351c,curtain-display,,media/animal_stim/whitened/002_right_1.gif,media/animal_stim/whitened/002_right_2.gif,deviant,32,5.0,,,,,
513,5c935050c719fc00147defbc,curtain-display,,media/animal_stim/whitened/002_left_2.gif,media/animal_stim/whitened/002_right_1.gif,deviant,24,5.0,,,,,
514,6106be7d513dcab805d524b8,curtain-display,,media/animal_stim/whitened/004_right_1.gif,media/animal_stim/whitened/004_right_2.gif,deviant,10,6.0,,,,,
515,60d78cd9ff61ba5de66359ea,curtain-display,2650.0,media/animal_stim/whitened/003_left_2.gif,media/animal_stim/whitened/003_left_1.gif,deviant,17,5.0,3150.0,,,,
516,5f4b49d8b1b5480008d21a11,fullscreen,,,,,1,,,,,,
517,60e4a5d4b0e40567e60146e4,curtain-display,,media/animal_stim/whitened/004_left_1.gif,media/animal_stim/whitened/004_right_2.gif,deviant,16,6.0,,,,,
518,614cd51715e662889e0211a0,curtain-display,,,,,4,,,,,,
519,60fd76f8fbbc23113b72821f,instructions,18303.0,,,,7,,,,,,
520,651033d039c135459ac83d8f,curtain-display,,media/animal_stim/whitened/005_right_2.gif,media/animal_stim/whitened/005_right_1.gif,all_background,21,5.0,,,,,
521,607760884d66833ee83aa987,curtain-display,,media/animal_stim/whitened/005_right_1.gif,media/animal_stim/whitened/005_right_2.gif,deviant,24,6.0,,,,,
522,60a53519043904037bac8c91,instructions,19991.0,,,,2,,,,,,
523,61483c4b10ea5d16c71d6b9e,survey-likert,4341.0,,,,26,,,{'Q0': 0},[0],background,{'Q0': 0}
524,5f4b49d8b1b5480008d21a11,instructions,2480.0,,,,2,,,,,,
525,5db5fa693d2b8e01654d351c,curtain-display,3360.0,media/animal_stim/whitened/002_right_1.gif,media/animal_stim/whitened/002_right_2.gif,deviant,33,5.0,3860.0,,,,
526,6106be7d513dcab805d524b8,curtain-display,,media/animal_stim/whitened/004_right_1.gif,media/animal_stim/whitened/004_right_2.gif,deviant,11,6.0,,,,,
527,5e799af10b2d8255586ad5b2,preload,,,,,0,,,,,,
528,5e799af10b2d8255586ad5b2,preload,,,,,0,,,,,,
529,6148baf1d5974f3958c332d2,fullscreen,,,,,1,,,,,,
530,60e4a5d4b0e40567e60146e4,curtain-display,,media/animal_stim/whitened/004_left_1.gif,media/animal_stim/whitened/004_right_2.gif,deviant,17,6.0,,,,,
531,649622da02d0cd201c80a0df,survey-likert,6801.0,,,,22,,,{'Q0': 3},[0],background,{'Q0': 3}
532,614cd51715e662889e0211a0,curtain-display,,,,,5,,,,,,
533,60fd76f8fbbc23113b72821f,curtain-display,,media/animal_stim/whitened/006_left_1.gif,media/animal_stim/whitened/006_right_2.gif,deviant,8,5.0,,,,,
534,651033d039c135459ac83d8f,curtain-display,,media/animal_stim/whitened/005_right_2.gif,media/animal_stim/whitened/005_right_1.gif,all_background,22,5.0,,,,,
535,60d78cd9ff61ba5de66359ea,survey-likert,5624.0,,,,18,,,{'Q0': 3},[0],background,{'Q0': 3}
536,61483c4b10ea5d16c71d6b9e,curtain-display,,media/animal_stim/whitened/004_right_2.gif,media/animal_stim/whitened/004_left_1.gif,all_background,27,5.0,,,,,
537,5c935050c719fc00147defbc,curtain-display,5703.0,media/animal_stim/whitened/002_left_2.gif,media/animal_stim/whitened/002_right_1.gif,deviant,25,5.0,6203.0,,,,
538,5e799af10b2d8255586ad5b2,fullscreen,,,,,1,,,,,,
539,5db5fa693d2b8e01654d351c,survey-likert,3565.0,,,,34,,,{'Q0': 4},[0],background,{'Q0': 4}
540,6106be7d513dcab805d524b8,curtain-display,,media/animal_stim/whitened/004_right_1.gif,media/animal_stim/whitened/004_right_2.gif,deviant,12,6.0,,,,,
541,61676931204ff555c7609795,instructions,20956.0,,,,3,,,,,,
542,60e4a5d4b0e40567e60146e4,curtain-display,,media/animal_stim/whitened/004_left_1.gif,media/animal_stim/whitened/004_right_2.gif,deviant,18,6.0,,,,,
543,649622da02d0cd201c80a0df,curtain-display,,media/animal_stim/whitened/006_right_2.gif,media/animal_stim/whitened/006_right_1.gif,deviant,23,2.0,,,,,
544,60fd76f8fbbc23113b72821f,curtain-display,,media/animal_stim/whitened/006_left_1.gif,media/animal_stim/whitened/006_right_2.gif,deviant,9,5.0,,,,,
545,651033d039c135459ac83d8f,curtain-display,,media/animal_stim/whitened/005_right_2.gif,media/animal_stim/whitened/005_right_1.gif,all_background,23,5.0,,,,,
546,5c534e802a52960001fe264f,preload,,,,,0,,,,,,
547,5c534e802a52960001fe264f,preload,,,,,0,,,,,,
548,60d78cd9ff61ba5de66359ea,curtain-display,,media/animal_stim/whitened/005_left_1.gif,media/animal_stim/whitened/005_right_2.gif,deviant,19,6.0,,,,,
549,60e33263f1759a9611770793,preload,,,,,0,,,,,,
550,60e33263f1759a9611770793,preload,,,,,0,,,,,,
551,61483c4b10ea5d16c71d6b9e,curtain-display,,media/animal_stim/whitened/004_right_2.gif,media/animal_stim/whitened/004_left_1.gif,all_background,28,5.0,,,,,
552,5db5fa693d2b8e01654d351c,curtain-display,,media/animal_stim/whitened/005_right_1.gif,media/animal_stim/whitened/005_right_2.gif,deviant,35,2.0,,,,,
553,607760884d66833ee83aa987,curtain-display,7699.0,media/animal_stim/whitened/005_right_1.gif,media/animal_stim/whitened/005_right_2.gif,deviant,25,6.0,8199.0,,,,
554,5c935050c719fc00147defbc,survey-likert,3978.0,,,,26,,,{'Q0': 1},[0],background,{'Q0': 1}
555,6106be7d513dcab805d524b8,curtain-display,,media/animal_stim/whitened/004_right_1.gif,media/animal_stim/whitened/004_right_2.gif,deviant,13,6.0,,,,,
556,61676931204ff555c7609795,curtain-display,,,,,4,,,,,,
557,60e4a5d4b0e40567e60146e4,curtain-display,,media/animal_stim/whitened/004_left_1.gif,media/animal_stim/whitened/004_right_2.gif,deviant,19,6.0,,,,,
558,649622da02d0cd201c80a0df,curtain-display,,media/animal_stim/whitened/006_right_2.gif,media/animal_stim/whitened/006_right_1.gif,deviant,24,2.0,,,,,
559,60fd76f8fbbc23113b72821f,curtain-display,,media/animal_stim/whitened/006_left_1.gif,media/animal_stim/whitened/006_right_2.gif,deviant,10,5.0,,,,,
560,651033d039c135459ac83d8f,curtain-display,,media/animal_stim/whitened/005_right_2.gif,media/animal_stim/whitened/005_right_1.gif,all_background,24,5.0,,,,,
561,5c534e802a52960001fe264f,fullscreen,,,,,1,,,,,,
562,60d78cd9ff61ba5de66359ea,curtain-display,,media/animal_stim/whitened/005_left_1.gif,media/animal_stim/whitened/005_right_2.gif,deviant,20,6.0,,,,,
563,61483c4b10ea5d16c71d6b9e,curtain-display,,media/animal_stim/whitened/004_right_2.gif,media/animal_stim/whitened/004_left_1.gif,all_background,29,5.0,,,,,
564,5e799af10b2d8255586ad5b2,instructions,7182.0,,,,2,,,,,,
565,5db5fa693d2b8e01654d351c,curtain-display,,media/animal_stim/whitened/005_right_1.gif,media/animal_stim/whitened/005_right_2.gif,deviant,36,2.0,,,,,
566,5c935050c719fc00147defbc,curtain-display,,media/animal_stim/whitened/005_left_1.gif,media/animal_stim/whitened/005_left_2.gif,all_background,27,2.0,,,,,
567,61676931204ff555c7609795,curtain-display,,,,,5,,,,,,
568,60e4a5d4b0e40567e60146e4,curtain-display,,media/animal_stim/whitened/004_left_1.gif,media/animal_stim/whitened/004_right_2.gif,deviant,20,6.0,,,,,
569,60fd76f8fbbc23113b72821f,curtain-display,,media/animal_stim/whitened/006_left_1.gif,media/animal_stim/whitened/006_right_2.gif,deviant,11,5.0,,,,,
570,5db5fa693d2b8e01654d351c,curtain-display,861.0,media/animal_stim/whitened/005_right_1.gif,media/animal_stim/whitened/005_right_2.gif,deviant,37,2.0,1361.0,,,,
571,6148baf1d5974f3958c332d2,instructions,12090.0,,,,2,,,,,,
572,60d78cd9ff61ba5de66359ea,curtain-display,,media/animal_stim/whitened/005_left_1.gif,media/animal_stim/whitened/005_right_2.gif,deviant,21,6.0,,,,,
573,61483c4b10ea5d16c71d6b9e,curtain-display,,media/animal_stim/whitened/004_right_2.gif,media/animal_stim/whitened/004_left_1.gif,all_background,30,5.0,,,,,
574,651033d039c135459ac83d8f,curtain-display,3677.0,media/animal_stim/whitened/005_right_2.gif,media/animal_stim/whitened/005_right_1.gif,all_background,25,5.0,4177.0,,,,
575,5db5fa693d2b8e01654d351c,survey-likert,1800.0,,,,38,,,{'Q0': 2},[0],background,{'Q0': 2}
576,60e33263f1759a9611770793,fullscreen,,,,,1,,,,,,
577,5c935050c719fc00147defbc,curtain-display,,media/animal_stim/whitened/005_left_1.gif,media/animal_stim/whitened/005_left_2.gif,all_background,28,2.0,,,,,
578,6106be7d513dcab805d524b8,curtain-display,7213.0,media/animal_stim/whitened/004_right_1.gif,media/animal_stim/whitened/004_right_2.gif,deviant,14,6.0,7713.0,,,,
579,60fd76f8fbbc23113b72821f,curtain-display,,media/animal_stim/whitened/006_left_1.gif,media/animal_stim/whitened/006_right_2.gif,deviant,12,5.0,,,,,
580,614cd51715e662889e0211a0,curtain-display,13711.0,,,,6,,14211.0,,,,
581,5f0a79cdff3278354b2016b7,instructions,25742.0,,,,3,,,,,,
582,60d78cd9ff61ba5de66359ea,curtain-display,,media/animal_stim/whitened/005_left_1.gif,media/animal_stim/whitened/005_right_2.gif,deviant,22,6.0,,,,,
583,61483c4b10ea5d16c71d6b9e,curtain-display,,media/animal_stim/whitened/004_right_2.gif,media/animal_stim/whitened/004_left_1.gif,all_background,31,5.0,,,,,
584,607760884d66833ee83aa987,survey-likert,10253.0,,,,26,,,{'Q0': 2},[0],background,{'Q0': 2}
585,5e6babd0d0031115b8a7bbbf,preload,,,,,0,,,,,,
586,5e6babd0d0031115b8a7bbbf,preload,,,,,0,,,,,,
587,5db5fa693d2b8e01654d351c,curtain-display,,media/animal_stim/whitened/006_right_1.gif,media/animal_stim/whitened/006_left_2.gif,all_background,39,5.0,,,,,
588,651033d039c135459ac83d8f,survey-likert,4733.0,,,,26,,,{'Q0': 1},[0],background,{'Q0': 1}
589,61676931204ff555c7609795,curtain-display,6021.0,,,,6,,6521.0,,,,
590,649622da02d0cd201c80a0df,curtain-display,9679.0,media/animal_stim/whitened/006_right_2.gif,media/animal_stim/whitened/006_right_1.gif,deviant,25,2.0,10179.0,,,,
591,60e4a5d4b0e40567e60146e4,curtain-display,7603.0,media/animal_stim/whitened/004_left_1.gif,media/animal_stim/whitened/004_right_2.gif,deviant,21,6.0,8103.0,,,,
592,5f0a79cdff3278354b2016b7,curtain-display,,,,,4,,,,,,
593,60d78cd9ff61ba5de66359ea,curtain-display,,media/animal_stim/whitened/005_left_1.gif,media/animal_stim/whitened/005_right_2.gif,deviant,23,6.0,,,,,
594,5fc429047f2ae3825eb811a4,instructions,28395.0,,,,7,,,,,,
595,5e6babd0d0031115b8a7bbbf,fullscreen,,,,,1,,,,,,
596,607760884d66833ee83aa987,curtain-display,,media/animal_stim/whitened/004_left_2.gif,media/animal_stim/whitened/004_left_1.gif,all_background,27,6.0,,,,,
597,5db5fa693d2b8e01654d351c,curtain-display,,media/animal_stim/whitened/006_right_1.gif,media/animal_stim/whitened/006_left_2.gif,all_background,40,5.0,,,,,
598,5f4b49d8b1b5480008d21a11,instructions,19709.0,,,,3,,,,,,
599,61483c4b10ea5d16c71d6b9e,curtain-display,3582.0,media/animal_stim/whitened/004_right_2.gif,media/animal_stim/whitened/004_left_1.gif,all_background,32,5.0,4082.0,,,,
600,651033d039c135459ac83d8f,curtain-display,,media/animal_stim/whitened/003_right_2.gif,media/animal_stim/whitened/003_left_1.gif,all_background,27,2.0,,,,,
601,5f0a79cdff3278354b2016b7,curtain-display,,,,,5,,,,,,
602,60d78cd9ff61ba5de66359ea,curtain-display,,media/animal_stim/whitened/005_left_1.gif,media/animal_stim/whitened/005_right_2.gif,deviant,24,6.0,,,,,
603,5eb3a51f58efe718f5cffdb4,fullscreen,,,,,1,,,,,,
604,5c935050c719fc00147defbc,curtain-display,7725.0,media/animal_stim/whitened/005_left_1.gif,media/animal_stim/whitened/005_left_2.gif,all_background,29,2.0,8225.0,,,,
605,5fc429047f2ae3825eb811a4,curtain-display,,media/animal_stim/whitened/002_left_1.gif,media/animal_stim/whitened/002_left_2.gif,deviant,8,6.0,,,,,
606,607760884d66833ee83aa987,curtain-display,,media/animal_stim/whitened/004_left_2.gif,media/animal_stim/whitened/004_left_1.gif,all_background,28,6.0,,,,,
607,5c534e802a52960001fe264f,instructions,15231.0,,,,2,,,,,,
608,5db5fa693d2b8e01654d351c,curtain-display,,media/animal_stim/whitened/006_right_1.gif,media/animal_stim/whitened/006_left_2.gif,all_background,41,5.0,,,,,
609,649622da02d0cd201c80a0df,survey-likert,6236.0,,,,26,,,{'Q0': 3},[0],background,{'Q0': 3}
610,5f4b49d8b1b5480008d21a11,curtain-display,,,,,4,,,,,,
611,60e4a5d4b0e40567e60146e4,survey-likert,5076.0,,,,22,,,{'Q0': 2},[0],background,{'Q0': 2}
612,651033d039c135459ac83d8f,curtain-display,,media/animal_stim/whitened/003_right_2.gif,media/animal_stim/whitened/003_left_1.gif,all_background,28,2.0,,,,,
613,60e33263f1759a9611770793,instructions,12040.0,,,,2,,,,,,
614,5fc429047f2ae3825eb811a4,curtain-display,,media/animal_stim/whitened/002_left_1.gif,media/animal_stim/whitened/002_left_2.gif,deviant,9,6.0,,,,,
615,607760884d66833ee83aa987,curtain-display,,media/animal_stim/whitened/004_left_2.gif,media/animal_stim/whitened/004_left_1.gif,all_background,29,6.0,,,,,
616,5b89d11c19110c0001eb75e5,preload,,,,,0,,,,,,
617,5b89d11c19110c0001eb75e5,preload,,,,,0,,,,,,
618,5db5fa693d2b8e01654d351c,curtain-display,,media/animal_stim/whitened/006_right_1.gif,media/animal_stim/whitened/006_left_2.gif,all_background,42,5.0,,,,,
619,649622da02d0cd201c80a0df,curtain-display,,media/animal_stim/whitened/005_right_2.gif,media/animal_stim/whitened/005_left_1.gif,all_background,27,5.0,,,,,
620,61483c4b10ea5d16c71d6b9e,survey-likert,6703.0,,,,33,,,{'Q0': 0},[0],background,{'Q0': 0}
621,5f4b49d8b1b5480008d21a11,curtain-display,,,,,5,,,,,,
622,60e4a5d4b0e40567e60146e4,curtain-display,,media/animal_stim/whitened/001_right_2.gif,media/animal_stim/whitened/001_right_1.gif,deviant,23,5.0,,,,,
623,5e6babd0d0031115b8a7bbbf,instructions,8068.0,,,,2,,,,,,
624,5c935050c719fc00147defbc,survey-likert,6485.0,,,,30,,,{'Q0': 3},[0],background,{'Q0': 3}
625,60fd76f8fbbc23113b72821f,curtain-display,,media/animal_stim/whitened/006_left_1.gif,media/animal_stim/whitened/006_right_2.gif,deviant,13,5.0,,,,,
626,6106be7d513dcab805d524b8,survey-likert,15485.0,,,,15,,,{'Q0': 2},[0],background,{'Q0': 2}
627,5fc429047f2ae3825eb811a4,curtain-display,,media/animal_stim/whitened/002_left_1.gif,media/animal_stim/whitened/002_left_2.gif,deviant,10,6.0,,,,,
628,607760884d66833ee83aa987,curtain-display,,media/animal_stim/whitened/004_left_2.gif,media/animal_stim/whitened/004_left_1.gif,all_background,30,6.0,,,,,
629,5db5fa693d2b8e01654d351c,curtain-display,,media/animal_stim/whitened/006_right_1.gif,media/animal_stim/whitened/006_left_2.gif,all_background,43,5.0,,,,,
630,649622da02d0cd201c80a0df,curtain-display,,media/animal_stim/whitened/005_right_2.gif,media/animal_stim/whitened/005_left_1.gif,all_background,28,5.0,,,,,
631,5eb3a51f58efe718f5cffdb4,instructions,7958.0,,,,2,,,,,,
632,61483c4b10ea5d16c71d6b9e,curtain-display,,media/animal_stim/whitened/001_left_1.gif,media/animal_stim/whitened/001_left_2.gif,all_background,34,6.0,,,,,
633,60e4a5d4b0e40567e60146e4,curtain-display,,media/animal_stim/whitened/001_right_2.gif,media/animal_stim/whitened/001_right_1.gif,deviant,24,5.0,,,,,
634,5f0a79cdff3278354b2016b7,curtain-display,7557.0,,,,6,,8057.0,,,,
635,5f4b49d8b1b5480008d21a11,curtain-display,3890.0,,,,6,,4390.0,,,,
636,5db5fa693d2b8e01654d351c,curtain-display,732.0,media/animal_stim/whitened/006_right_1.gif,media/animal_stim/whitened/006_left_2.gif,all_background,44,5.0,1232.0,,,,
637,651033d039c135459ac83d8f,curtain-display,7169.0,media/animal_stim/whitened/003_right_2.gif,media/animal_stim/whitened/003_left_1.gif,all_background,29,2.0,7669.0,,,,
638,5b89d11c19110c0001eb75e5,fullscreen,,,,,1,,,,,,
639,5c935050c719fc00147defbc,curtain-display,,media/animal_stim/whitened/004_right_1.gif,media/animal_stim/whitened/004_right_2.gif,all_background,31,5.0,,,,,
640,5fc429047f2ae3825eb811a4,curtain-display,,media/animal_stim/whitened/002_left_1.gif,media/animal_stim/whitened/002_left_2.gif,deviant,11,6.0,,,,,
641,6106be7d513dcab805d524b8,curtain-display,,media/animal_stim/whitened/001_right_2.gif,media/animal_stim/whitened/001_left_1.gif,all_background,16,5.0,,,,,
642,607760884d66833ee83aa987,curtain-display,,media/animal_stim/whitened/004_left_2.gif,media/animal_stim/whitened/004_left_1.gif,all_background,31,6.0,,,,,
643,649622da02d0cd201c80a0df,curtain-display,,media/animal_stim/whitened/005_right_2.gif,media/animal_stim/whitened/005_left_1.gif,all_background,29,5.0,,,,,
644,61483c4b10ea5d16c71d6b9e,curtain-display,,media/animal_stim/whitened/001_left_1.gif,media/animal_stim/whitened/001_left_2.gif,all_background,35,6.0,,,,,
645,60e4a5d4b0e40567e60146e4,curtain-display,,media/animal_stim/whitened/001_right_2.gif,media/animal_stim/whitened/001_right_1.gif,deviant,25,5.0,,,,,
646,5db5fa693d2b8e01654d351c,survey-likert,2891.0,,,,45,,,{'Q0': 1},[0],background,{'Q0': 1}
647,5c935050c719fc00147defbc,curtain-display,,media/animal_stim/whitened/004_right_1.gif,media/animal_stim/whitened/004_right_2.gif,all_background,32,5.0,,,,,
648,60fd76f8fbbc23113b72821f,survey-likert,7344.0,,,,14,,,{'Q0': 1},[0],background,{'Q0': 1}
649,6106be7d513dcab805d524b8,curtain-display,,media/animal_stim/whitened/001_right_2.gif,media/animal_stim/whitened/001_left_1.gif,all_background,17,5.0,,,,,
650,651033d039c135459ac83d8f,survey-likert,4790.0,,,,30,,,{'Q0': 0},[0],background,{'Q0': 0}
651,607760884d66833ee83aa987,curtain-display,,media/animal_stim/whitened/004_left_2.gif,media/animal_stim/whitened/004_left_1.gif,all_background,32,6.0,,,,,
652,649622da02d0cd201c80a0df,curtain-display,,media/animal_stim/whitened/005_right_2.gif,media/animal_stim/whitened/005_left_1.gif,all_background,30,5.0,,,,,
653,60d78cd9ff61ba5de66359ea,curtain-display,,media/animal_stim/whitened/005_left_1.gif,media/animal_stim/whitened/005_right_2.gif,deviant,25,6.0,,,,,
654,5db5fa693d2b8e01654d351c,html-button-response,2673.0,,,,46,,,0,,,0
655,61483c4b10ea5d16c71d6b9e,curtain-display,,media/animal_stim/whitened/001_left_1.gif,media/animal_stim/whitened/001_left_2.gif,all_background,36,6.0,,,,,
656,60e4a5d4b0e40567e60146e4,curtain-display,,media/animal_stim/whitened/001_right_2.gif,media/animal_stim/whitened/001_right_1.gif,deviant,26,5.0,,,,,
657,60a53519043904037bac8c91,instructions,38887.0,,,,3,,,,,,
658,61676931204ff555c7609795,instructions,21285.0,,,,7,,,,,,
659,6460e22e1be052a4c5e14c2d,preload,,,,,0,,,,,,
660,6460e22e1be052a4c5e14c2d,preload,,,,,0,,,,,,
661,5db5fa693d2b8e01654d351c,survey-text,2118.0,,,,47,,,{'Q0': '24'},,,{'Q0': '24'}
662,5c935050c719fc00147defbc,curtain-display,,media/animal_stim/whitened/004_right_1.gif,media/animal_stim/whitened/004_right_2.gif,all_background,33,5.0,,,,,
663,5fc429047f2ae3825eb811a4,curtain-display,,media/animal_stim/whitened/002_left_1.gif,media/animal_stim/whitened/002_left_2.gif,deviant,12,6.0,,,,,
664,60e33263f1759a9611770793,instructions,13137.0,,,,3,,,,,,
665,60fd76f8fbbc23113b72821f,curtain-display,,media/animal_stim/whitened/003_right_1.gif,media/animal_stim/whitened/003_right_2.gif,all_background,15,6.0,,,,,
666,651033d039c135459ac83d8f,curtain-display,,media/animal_stim/whitened/001_left_2.gif,media/animal_stim/whitened/001_right_1.gif,all_background,31,6.0,,,,,
667,6106be7d513dcab805d524b8,curtain-display,,media/animal_stim/whitened/001_right_2.gif,media/animal_stim/whitened/001_left_1.gif,all_background,18,5.0,,,,,
668,5fc429047f2ae3825eb811a4,curtain-display,,media/animal_stim/whitened/002_left_1.gif,media/animal_stim/whitened/002_left_2.gif,deviant,13,6.0,,,,,
669,607760884d66833ee83aa987,curtain-display,2596.0,media/animal_stim/whitened/004_left_2.gif,media/animal_stim/whitened/004_left_1.gif,all_background,33,6.0,3096.0,,,,
670,60d78cd9ff61ba5de66359ea,survey-likert,3275.0,,,,26,,,{'Q0': 3},[0],background,{'Q0': 3}
671,649622da02d0cd201c80a0df,curtain-display,,media/animal_stim/whitened/005_right_2.gif,media/animal_stim/whitened/005_left_1.gif,all_background,31,5.0,,,,,
672,61483c4b10ea5d16c71d6b9e,curtain-display,,media/animal_stim/whitened/001_left_1.gif,media/animal_stim/whitened/001_left_2.gif,all_background,37,6.0,,,,,
673,60e4a5d4b0e40567e60146e4,curtain-display,,media/animal_stim/whitened/001_right_2.gif,media/animal_stim/whitened/001_right_1.gif,deviant,27,5.0,,,,,
674,60a53519043904037bac8c91,curtain-display,,,,,4,,,,,,
675,61676931204ff555c7609795,curtain-display,,media/animal_stim/whitened/006_right_2.gif,media/animal_stim/whitened/006_left_1.gif,all_background,8,2.0,,,,,
676,5b89d11c19110c0001eb75e5,instructions,10503.0,,,,2,,,,,,
677,5e799af10b2d8255586ad5b2,instructions,32044.0,,,,3,,,,,,
678,5db5fa693d2b8e01654d351c,survey-multi-select,3829.0,,,,48,,,"{'ethnicity': ['Black or African American', 'White']}",[0],,"{'ethnicity': ['Black or African American', 'White']}"
679,5c935050c719fc00147defbc,curtain-display,,media/animal_stim/whitened/004_right_1.gif,media/animal_stim/whitened/004_right_2.gif,all_background,34,5.0,,,,,
680,60fd76f8fbbc23113b72821f,curtain-display,,media/animal_stim/whitened/003_right_1.gif,media/animal_stim/whitened/003_right_2.gif,all_background,16,6.0,,,,,
681,651033d039c135459ac83d8f,curtain-display,,media/animal_stim/whitened/001_left_2.gif,media/animal_stim/whitened/001_right_1.gif,all_background,32,6.0,,,,,
682,60e33263f1759a9611770793,curtain-display,,,,,4,,,,,,
683,6106be7d513dcab805d524b8,curtain-display,,media/animal_stim/whitened/001_right_2.gif,media/animal_stim/whitened/001_left_1.gif,all_background,19,5.0,,,,,
684,60d78cd9ff61ba5de66359ea,curtain-display,,media/animal_stim/whitened/002_left_1.gif,media/animal_stim/whitened/002_left_2.gif,deviant,27,2.0,,,,,
685,61483c4b10ea5d16c71d6b9e,curtain-display,,media/animal_stim/whitened/001_left_1.gif,media/animal_stim/whitened/001_left_2.gif,all_background,38,6.0,,,,,
686,60a53519043904037bac8c91,curtain-display,,,,,5,,,,,,
687,61676931204ff555c7609795,curtain-display,,media/animal_stim/whitened/006_right_2.gif,media/animal_stim/whitened/006_left_1.gif,all_background,9,2.0,,,,,
688,5fc429047f2ae3825eb811a4,curtain-display,4355.0,media/animal_stim/whitened/002_left_1.gif,media/animal_stim/whitened/002_left_2.gif,deviant,14,6.0,4855.0,,,,
689,60e4a5d4b0e40567e60146e4,curtain-display,4114.0,media/animal_stim/whitened/001_right_2.gif,media/animal_stim/whitened/001_right_1.gif,deviant,28,5.0,4614.0,,,,
690,5e799af10b2d8255586ad5b2,curtain-display,,,,,4,,,,,,
691,5db5fa693d2b8e01654d351c,survey-text,3341.0,,,,49,,,{'Q0': 'male'},,,{'Q0': 'male'}
692,60fd76f8fbbc23113b72821f,curtain-display,,media/animal_stim/whitened/003_right_1.gif,media/animal_stim/whitened/003_right_2.gif,all_background,17,6.0,,,,,
693,60e33263f1759a9611770793,curtain-display,,,,,5,,,,,,
694,651033d039c135459ac83d8f,curtain-display,,media/animal_stim/whitened/001_left_2.gif,media/animal_stim/whitened/001_right_1.gif,all_background,33,6.0,,,,,
695,649622da02d0cd201c80a0df,curtain-display,5636.0,media/animal_stim/whitened/005_right_2.gif,media/animal_stim/whitened/005_left_1.gif,all_background,32,5.0,6136.0,,,,
696,6106be7d513dcab805d524b8,curtain-display,,media/animal_stim/whitened/001_right_2.gif,media/animal_stim/whitened/001_left_1.gif,all_background,20,5.0,,,,,
697,60d78cd9ff61ba5de66359ea,curtain-display,,media/animal_stim/whitened/002_left_1.gif,media/animal_stim/whitened/002_left_2.gif,deviant,28,2.0,,,,,
698,5f0a79cdff3278354b2016b7,instructions,17225.0,,,,7,,,,,,
699,5c935050c719fc00147defbc,curtain-display,,media/animal_stim/whitened/004_right_1.gif,media/animal_stim/whitened/004_right_2.gif,all_background,35,5.0,,,,,
700,6460e22e1be052a4c5e14c2d,fullscreen,,,,,1,,,,,,
701,61483c4b10ea5d16c71d6b9e,curtain-display,,media/animal_stim/whitened/001_left_1.gif,media/animal_stim/whitened/001_left_2.gif,all_background,39,6.0,,,,,
702,614cd51715e662889e0211a0,instructions,33903.0,,,,7,,,,,,
703,5f4b49d8b1b5480008d21a11,instructions,17278.0,,,,7,,,,,,
704,6460e22e1be052a4c5e14c2d,instructions,1640.0,,,,2,,,,,,
705,5e799af10b2d8255586ad5b2,curtain-display,,,,,5,,,,,,
706,5db5fa693d2b8e01654d351c,survey-multi-choice,3362.0,,,,50,,,{'education': 'High school diploma'},[0],,{'education': 'High school diploma'}
707,5db5fa693d2b8e01654d351c,fullscreen,,,,,51,,,,,,
708,60fd76f8fbbc23113b72821f,curtain-display,,media/animal_stim/whitened/003_right_1.gif,media/animal_stim/whitened/003_right_2.gif,all_background,18,6.0,,,,,
709,651033d039c135459ac83d8f,curtain-display,,media/animal_stim/whitened/001_left_2.gif,media/animal_stim/whitened/001_right_1.gif,all_background,34,6.0,,,,,
710,649622da02d0cd201c80a0df,survey-likert,4000.0,,,,33,,,{'Q0': 3},[0],background,{'Q0': 3}
711,5f0a79cdff3278354b2016b7,curtain-display,,media/animal_stim/whitened/006_right_1.gif,media/animal_stim/whitened/006_left_2.gif,all_background,8,5.0,,,,,
712,614cd51715e662889e0211a0,curtain-display,,media/animal_stim/whitened/001_left_1.gif,media/animal_stim/whitened/001_right_2.gif,all_background,8,6.0,,,,,
713,60d78cd9ff61ba5de66359ea,curtain-display,3001.0,media/animal_stim/whitened/002_left_1.gif,media/animal_stim/whitened/002_left_2.gif,deviant,29,2.0,3501.0,,,,
714,60e4a5d4b0e40567e60146e4,survey-likert,6017.0,,,,29,,,{'Q0': 2},[0],background,{'Q0': 2}
715,61676931204ff555c7609795,curtain-display,6296.0,media/animal_stim/whitened/006_right_2.gif,media/animal_stim/whitened/006_left_1.gif,all_background,10,2.0,6796.0,,,,
716,6148baf1d5974f3958c332d2,instructions,39601.0,,,,3,,,,,,
717,5f4b49d8b1b5480008d21a11,curtain-display,,media/animal_stim/whitened/004_right_1.gif,media/animal_stim/whitened/004_right_2.gif,deviant,8,6.0,,,,,
718,607760884d66833ee83aa987,survey-likert,13008.0,,,,34,,,{'Q0': 3},[0],background,{'Q0': 3}
719,5e799af10b2d8255586ad5b2,curtain-display,3057.0,,,,6,,3557.0,,,,
720,5fc429047f2ae3825eb811a4,survey-likert,5287.0,,,,15,,,{'Q0': 3},[0],background,{'Q0': 3}
721,5c935050c719fc00147defbc,curtain-display,5132.0,media/animal_stim/whitened/004_right_1.gif,media/animal_stim/whitened/004_right_2.gif,all_background,36,5.0,5632.0,,,,
722,60fd76f8fbbc23113b72821f,curtain-display,,media/animal_stim/whitened/003_right_1.gif,media/animal_stim/whitened/003_right_2.gif,all_background,19,6.0,,,,,
723,651033d039c135459ac83d8f,curtain-display,,media/animal_stim/whitened/001_left_2.gif,media/animal_stim/whitened/001_right_1.gif,all_background,35,6.0,,,,,
724,60d78cd9ff61ba5de66359ea,survey-likert,2345.0,,,,30,,,{'Q0': 0},[0],background,{'Q0': 0}
725,5fc429047f2ae3825eb811a4,curtain-display,,media/animal_stim/whitened/001_left_1.gif,media/animal_stim/whitened/001_right_2.gif,deviant,16,2.0,,,,,
726,649622da02d0cd201c80a0df,curtain-display,,media/animal_stim/whitened/002_left_1.gif,media/animal_stim/whitened/002_left_2.gif,deviant,34,6.0,,,,,
727,5f0a79cdff3278354b2016b7,curtain-display,,media/animal_stim/whitened/006_right_1.gif,media/animal_stim/whitened/006_left_2.gif,all_background,9,5.0,,,,,
728,614cd51715e662889e0211a0,curtain-display,,media/animal_stim/whitened/001_left_1.gif,media/animal_stim/whitened/001_right_2.gif,all_background,9,6.0,,,,,
729,60e4a5d4b0e40567e60146e4,curtain-display,,media/animal_stim/whitened/005_left_1.gif,media/animal_stim/whitened/005_right_2.gif,all_background,30,6.0,,,,,
730,61483c4b10ea5d16c71d6b9e,curtain-display,6731.0,media/animal_stim/whitened/001_left_1.gif,media/animal_stim/whitened/001_left_2.gif,all_background,40,6.0,7231.0,,,,
731,5f4b49d8b1b5480008d21a11,curtain-display,,media/animal_stim/whitened/004_right_1.gif,media/animal_stim/whitened/004_right_2.gif,deviant,9,6.0,,,,,
732,6148baf1d5974f3958c332d2,curtain-display,,,,,4,,,,,,
733,607760884d66833ee83aa987,curtain-display,,media/animal_stim/whitened/001_left_1.gif,media/animal_stim/whitened/001_left_2.gif,all_background,35,2.0,,,,,
734,5c935050c719fc00147defbc,survey-likert,2755.0,,,,37,,,{'Q0': 3},[0],background,{'Q0': 3}
735,60fd76f8fbbc23113b72821f,curtain-display,,media/animal_stim/whitened/003_right_1.gif,media/animal_stim/whitened/003_right_2.gif,all_background,20,6.0,,,,,
736,651033d039c135459ac83d8f,curtain-display,,media/animal_stim/whitened/001_left_2.gif,media/animal_stim/whitened/001_right_1.gif,all_background,36,6.0,,,,,
737,60d78cd9ff61ba5de66359ea,curtain-display,,media/animal_stim/whitened/004_left_2.gif,media/animal_stim/whitened/004_right_1.gif,all_background,31,6.0,,,,,
738,649622da02d0cd201c80a0df,curtain-display,,media/animal_stim/whitened/002_left_1.gif,media/animal_stim/whitened/002_left_2.gif,deviant,35,6.0,,,,,
739,5f0a79cdff3278354b2016b7,curtain-display,,media/animal_stim/whitened/006_right_1.gif,media/animal_stim/whitened/006_left_2.gif,all_background,10,5.0,,,,,
740,614cd51715e662889e0211a0,curtain-display,,media/animal_stim/whitened/001_left_1.gif,media/animal_stim/whitened/001_right_2.gif,all_background,10,6.0,,,,,
741,60e4a5d4b0e40567e60146e4,curtain-display,,media/animal_stim/whitened/005_left_1.gif,media/animal_stim/whitened/005_right_2.gif,all_background,31,6.0,,,,,
742,61483c4b10ea5d16c71d6b9e,survey-likert,3518.0,,,,41,,,{'Q0': 0},[0],background,{'Q0': 0}
743,5f4b49d8b1b5480008d21a11,curtain-display,,media/animal_stim/whitened/004_right_1.gif,media/animal_stim/whitened/004_right_2.gif,deviant,10,6.0,,,,,
744,6148baf1d5974f3958c332d2,curtain-display,,,,,5,,,,,,
745,60a53519043904037bac8c91,curtain-display,,,,,6,,,,,,
746,5fc429047f2ae3825eb811a4,curtain-display,,media/animal_stim/whitened/001_left_1.gif,media/animal_stim/whitened/001_right_2.gif,deviant,17,2.0,,,,,
747,60fd76f8fbbc23113b72821f,curtain-display,44949.0,media/animal_stim/whitened/003_right_1.gif,media/animal_stim/whitened/003_right_2.gif,all_background,21,6.0,45449.0,,,,
748,6460e22e1be052a4c5e14c2d,instructions,8670.0,,,,3,,,,,,
749,61676931204ff555c7609795,survey-likert,7914.0,,,,11,,,{'Q0': 3},[0],background,{'Q0': 3}
750,652540ba17c106066d7453fe,preload,,,,,0,,,,,,
751,652540ba17c106066d7453fe,preload,,,,,0,,,,,,
752,607760884d66833ee83aa987,curtain-display,,media/animal_stim/whitened/001_left_1.gif,media/animal_stim/whitened/001_left_2.gif,all_background,36,2.0,,,,,
753,5c935050c719fc00147defbc,curtain-display,,media/animal_stim/whitened/001_right_2.gif,media/animal_stim/whitened/001_left_1.gif,deviant,38,6.0,,,,,
754,5fc429047f2ae3825eb811a4,curtain-display,1689.0,media/animal_stim/whitened/001_left_1.gif,media/animal_stim/whitened/001_right_2.gif,deviant,18,2.0,2189.0,,,,
755,60d78cd9ff61ba5de66359ea,curtain-display,,media/animal_stim/whitened/004_left_2.gif,media/animal_stim/whitened/004_right_1.gif,all_background,32,6.0,,,,,
756,6106be7d513dcab805d524b8,curtain-display,13105.0,media/animal_stim/whitened/001_right_2.gif,media/animal_stim/whitened/001_left_1.gif,all_background,21,5.0,13605.0,,,,
757,649622da02d0cd201c80a0df,curtain-display,,media/animal_stim/whitened/002_left_1.gif,media/animal_stim/whitened/002_left_2.gif,deviant,36,6.0,,,,,
758,5f0a79cdff3278354b2016b7,curtain-display,,media/animal_stim/whitened/006_right_1.gif,media/animal_stim/whitened/006_left_2.gif,all_background,11,5.0,,,,,
759,60e33263f1759a9611770793,curtain-display,,,,,6,,,,,,
760,614cd51715e662889e0211a0,curtain-display,,media/animal_stim/whitened/001_left_1.gif,media/animal_stim/whitened/001_right_2.gif,all_background,11,6.0,,,,,
761,607760884d66833ee83aa987,curtain-display,1090.0,media/animal_stim/whitened/001_left_1.gif,media/animal_stim/whitened/001_left_2.gif,all_background,37,2.0,1590.0,,,,
762,60e4a5d4b0e40567e60146e4,curtain-display,,media/animal_stim/whitened/005_left_1.gif,media/animal_stim/whitened/005_right_2.gif,all_background,32,6.0,,,,,
763,61483c4b10ea5d16c71d6b9e,curtain-display,,media/animal_stim/whitened/003_left_1.gif,media/animal_stim/whitened/003_right_2.gif,deviant,42,2.0,,,,,
764,5f4b49d8b1b5480008d21a11,curtain-display,,media/animal_stim/whitened/004_right_1.gif,media/animal_stim/whitened/004_right_2.gif,deviant,11,6.0,,,,,
765,651033d039c135459ac83d8f,curtain-display,4462.0,media/animal_stim/whitened/001_left_2.gif,media/animal_stim/whitened/001_right_1.gif,all_background,37,6.0,4962.0,,,,
766,5db5fa693d2b8e01654d351c,html-button-response,13690.0,,,,52,,,0,,,0
767,6460e22e1be052a4c5e14c2d,curtain-display,,,,,4,,,,,,
768,61676931204ff555c7609795,curtain-display,,media/animal_stim/whitened/005_left_2.gif,media/animal_stim/whitened/005_left_1.gif,deviant,12,5.0,,,,,
769,5eb3a51f58efe718f5cffdb4,instructions,31968.0,,,,3,,,,,,
770,5c935050c719fc00147defbc,curtain-display,,media/animal_stim/whitened/001_right_2.gif,media/animal_stim/whitened/001_left_1.gif,deviant,39,6.0,,,,,
771,5e6babd0d0031115b8a7bbbf,instructions,35296.0,,,,3,,,,,,
772,5fc429047f2ae3825eb811a4,survey-likert,3743.0,,,,19,,,{'Q0': 3},[0],background,{'Q0': 3}
773,5b94bd5e24fca300016a9425,preload,,,,,0,,,,,,
774,5b94bd5e24fca300016a9425,preload,,,,,0,,,,,,
775,60d78cd9ff61ba5de66359ea,curtain-display,,media/animal_stim/whitened/004_left_2.gif,media/animal_stim/whitened/004_right_1.gif,all_background,33,6.0,,,,,
776,649622da02d0cd201c80a0df,curtain-display,,media/animal_stim/whitened/002_left_1.gif,media/animal_stim/whitened/002_left_2.gif,deviant,37,6.0,,,,,
777,5f0a79cdff3278354b2016b7,curtain-display,,media/animal_stim/whitened/006_right_1.gif,media/animal_stim/whitened/006_left_2.gif,all_background,12,5.0,,,,,
778,614cd51715e662889e0211a0,curtain-display,,media/animal_stim/whitened/001_left_1.gif,media/animal_stim/whitened/001_right_2.gif,all_background,12,6.0,,,,,
779,60e4a5d4b0e40567e60146e4,curtain-display,,media/animal_stim/whitened/005_left_1.gif,media/animal_stim/whitened/005_right_2.gif,all_background,33,6.0,,,,,
780,61483c4b10ea5d16c71d6b9e,curtain-display,,media/animal_stim/whitened/003_left_1.gif,media/animal_stim/whitened/003_right_2.gif,deviant,43,2.0,,,,,
781,5f4b49d8b1b5480008d21a11,curtain-display,,media/animal_stim/whitened/004_right_1.gif,media/animal_stim/whitened/004_right_2.gif,deviant,12,6.0,,,,,
782,6148baf1d5974f3958c332d2,curtain-display,5650.0,,,,6,,6150.0,,,,
783,60fd76f8fbbc23113b72821f,survey-likert,6873.0,,,,22,,,{'Q0': 0},[0],background,{'Q0': 0}
784,6460e22e1be052a4c5e14c2d,curtain-display,,,,,5,,,,,,
785,61676931204ff555c7609795,curtain-display,,media/animal_stim/whitened/005_left_2.gif,media/animal_stim/whitened/005_left_1.gif,deviant,13,5.0,,,,,
786,5eb3a51f58efe718f5cffdb4,curtain-display,,,,,4,,,,,,
787,607760884d66833ee83aa987,survey-likert,5036.0,,,,38,,,{'Q0': 4},[0],background,{'Q0': 4}
788,5c935050c719fc00147defbc,curtain-display,,media/animal_stim/whitened/001_right_2.gif,media/animal_stim/whitened/001_left_1.gif,deviant,40,6.0,,,,,
789,5e6babd0d0031115b8a7bbbf,curtain-display,,,,,4,,,,,,
790,60d78cd9ff61ba5de66359ea,curtain-display,,media/animal_stim/whitened/004_left_2.gif,media/animal_stim/whitened/004_right_1.gif,all_background,34,6.0,,,,,
791,649622da02d0cd201c80a0df,curtain-display,,media/animal_stim/whitened/002_left_1.gif,media/animal_stim/whitened/002_left_2.gif,deviant,38,6.0,,,,,
792,651033d039c135459ac83d8f,survey-likert,5612.0,,,,38,,,{'Q0': 1},[0],background,{'Q0': 1}
793,6460e22e1be052a4c5e14c2d,curtain-display,1148.0,,,,6,,1648.0,,,,
794,614cd51715e662889e0211a0,curtain-display,,media/animal_stim/whitened/001_left_1.gif,media/animal_stim/whitened/001_right_2.gif,all_background,13,6.0,,,,,
795,60e4a5d4b0e40567e60146e4,curtain-display,,media/animal_stim/whitened/005_left_1.gif,media/animal_stim/whitened/005_right_2.gif,all_background,34,6.0,,,,,
796,5f4b49d8b1b5480008d21a11,curtain-display,,media/animal_stim/whitened/004_right_1.gif,media/animal_stim/whitened/004_right_2.gif,deviant,13,6.0,,,,,
797,5fc429047f2ae3825eb811a4,curtain-display,,media/animal_stim/whitened/003_left_1.gif,media/animal_stim/whitened/003_right_2.gif,all_background,20,6.0,,,,,
798,61483c4b10ea5d16c71d6b9e,curtain-display,2931.0,media/animal_stim/whitened/003_left_1.gif,media/animal_stim/whitened/003_right_2.gif,deviant,44,2.0,3431.0,,,,
799,60fd76f8fbbc23113b72821f,curtain-display,,media/animal_stim/whitened/001_right_2.gif,media/animal_stim/whitened/001_right_1.gif,all_background,23,5.0,,,,,
800,61676931204ff555c7609795,curtain-display,,media/animal_stim/whitened/005_left_2.gif,media/animal_stim/whitened/005_left_1.gif,deviant,14,5.0,,,,,
801,648b920a66c5e3040ab14f6a,preload,,,,,0,,,,,,
802,648b920a66c5e3040ab14f6a,preload,,,,,0,,,,,,
803,5eb3a51f58efe718f5cffdb4,curtain-display,,,,,5,,,,,,
804,607760884d66833ee83aa987,curtain-display,,media/animal_stim/whitened/006_right_2.gif,media/animal_stim/whitened/006_right_1.gif,deviant,39,5.0,,,,,
805,5e6babd0d0031115b8a7bbbf,curtain-display,,,,,5,,,,,,
806,5c935050c719fc00147defbc,curtain-display,,media/animal_stim/whitened/001_right_2.gif,media/animal_stim/whitened/001_left_1.gif,deviant,41,6.0,,,,,
807,5fc429047f2ae3825eb811a4,curtain-display,,media/animal_stim/whitened/003_left_1.gif,media/animal_stim/whitened/003_right_2.gif,all_background,21,6.0,,,,,
808,60d78cd9ff61ba5de66359ea,curtain-display,,media/animal_stim/whitened/004_left_2.gif,media/animal_stim/whitened/004_right_1.gif,all_background,35,6.0,,,,,
809,649622da02d0cd201c80a0df,curtain-display,,media/animal_stim/whitened/002_left_1.gif,media/animal_stim/whitened/002_left_2.gif,deviant,39,6.0,,,,,
810,651033d039c135459ac83d8f,curtain-display,,media/animal_stim/whitened/004_right_1.gif,media/animal_stim/whitened/004_right_2.gif,deviant,39,5.0,,,,,
811,6106be7d513dcab805d524b8,survey-likert,11369.0,,,,22,,,{'Q0': 2},[0],background,{'Q0': 2}
812,61483c4b10ea5d16c71d6b9e,survey-likert,3001.0,,,,45,,,{'Q0': 0},[0],background,{'Q0': 0}
813,60e4a5d4b0e40567e60146e4,curtain-display,,media/animal_stim/whitened/005_left_1.gif,media/animal_stim/whitened/005_right_2.gif,all_background,35,6.0,,,,,
814,5f0a79cdff3278354b2016b7,curtain-display,7033.0,media/animal_stim/whitened/006_right_1.gif,media/animal_stim/whitened/006_left_2.gif,all_background,13,5.0,7533.0,,,,
815,614cd51715e662889e0211a0,curtain-display,3290.0,media/animal_stim/whitened/001_left_1.gif,media/animal_stim/whitened/001_right_2.gif,all_background,14,6.0,3790.0,,,,
816,648b920a66c5e3040ab14f6a,fullscreen,,,,,1,,,,,,
817,652540ba17c106066d7453fe,fullscreen,,,,,1,,,,,,
818,60fd76f8fbbc23113b72821f,curtain-display,,media/animal_stim/whitened/001_right_2.gif,media/animal_stim/whitened/001_right_1.gif,all_background,24,5.0,,,,,
819,5eb3a51f58efe718f5cffdb4,curtain-display,1988.0,,,,6,,2488.0,,,,
820,61676931204ff555c7609795,curtain-display,,media/animal_stim/whitened/005_left_2.gif,media/animal_stim/whitened/005_left_1.gif,deviant,15,5.0,,,,,
821,607760884d66833ee83aa987,curtain-display,,media/animal_stim/whitened/006_right_2.gif,media/animal_stim/whitened/006_right_1.gif,deviant,40,5.0,,,,,
822,5fc429047f2ae3825eb811a4,curtain-display,,media/animal_stim/whitened/003_left_1.gif,media/animal_stim/whitened/003_right_2.gif,all_background,22,6.0,,,,,
823,649622da02d0cd201c80a0df,curtain-display,2069.0,media/animal_stim/whitened/002_left_1.gif,media/animal_stim/whitened/002_left_2.gif,deviant,40,6.0,2569.0,,,,
824,5c935050c719fc00147defbc,curtain-display,,media/animal_stim/whitened/001_right_2.gif,media/animal_stim/whitened/001_left_1.gif,deviant,42,6.0,,,,,
825,60d78cd9ff61ba5de66359ea,curtain-display,,media/animal_stim/whitened/004_left_2.gif,media/animal_stim/whitened/004_right_1.gif,all_background,36,6.0,,,,,
826,651033d039c135459ac83d8f,curtain-display,,media/animal_stim/whitened/004_right_1.gif,media/animal_stim/whitened/004_right_2.gif,deviant,40,5.0,,,,,
827,5fdcc082dfad1528dad65346,preload,,,,,0,,,,,,
828,5fdcc082dfad1528dad65346,preload,,,,,0,,,,,,
829,6455490f7c5f35e4221a810a,preload,,,,,0,,,,,,
830,6455490f7c5f35e4221a810a,preload,,,,,0,,,,,,
831,6106be7d513dcab805d524b8,curtain-display,,media/animal_stim/whitened/006_right_1.gif,media/animal_stim/whitened/006_right_2.gif,all_background,23,2.0,,,,,
832,652540ba17c106066d7453fe,instructions,2986.0,,,,2,,,,,,
833,61483c4b10ea5d16c71d6b9e,html-button-response,3524.0,,,,46,,,0,,,0
834,60e4a5d4b0e40567e60146e4,curtain-display,2841.0,media/animal_stim/whitened/005_left_1.gif,media/animal_stim/whitened/005_right_2.gif,all_background,36,6.0,3341.0,,,,
835,60fd76f8fbbc23113b72821f,curtain-display,,media/animal_stim/whitened/001_right_2.gif,media/animal_stim/whitened/001_right_1.gif,all_background,25,5.0,,,,,
836,5e6babd0d0031115b8a7bbbf,curtain-display,5205.0,,,,6,,5705.0,,,,
837,6460e22e1be052a4c5e14c2d,instructions,8593.0,,,,7,,,,,,
838,61676931204ff555c7609795,curtain-display,,media/animal_stim/whitened/005_left_2.gif,media/animal_stim/whitened/005_left_1.gif,deviant,16,5.0,,,,,
839,607760884d66833ee83aa987,curtain-display,,media/animal_stim/whitened/006_right_2.gif,media/animal_stim/whitened/006_right_1.gif,deviant,41,5.0,,,,,
840,5b89d11c19110c0001eb75e5,instructions,33627.0,,,,3,,,,,,
841,649622da02d0cd201c80a0df,survey-likert,3041.0,,,,41,,,{'Q0': 4},[0],background,{'Q0': 4}
842,5fc429047f2ae3825eb811a4,curtain-display,,media/animal_stim/whitened/003_left_1.gif,media/animal_stim/whitened/003_right_2.gif,all_background,23,6.0,,,,,
843,5c935050c719fc00147defbc,curtain-display,,media/animal_stim/whitened/001_right_2.gif,media/animal_stim/whitened/001_left_1.gif,deviant,43,6.0,,,,,
844,5f4b49d8b1b5480008d21a11,curtain-display,8093.0,media/animal_stim/whitened/004_right_1.gif,media/animal_stim/whitened/004_right_2.gif,deviant,14,6.0,8593.0,,,,
845,651033d039c135459ac83d8f,curtain-display,,media/animal_stim/whitened/004_right_1.gif,media/animal_stim/whitened/004_right_2.gif,deviant,41,5.0,,,,,
846,60d78cd9ff61ba5de66359ea,curtain-display,2705.0,media/animal_stim/whitened/004_left_2.gif,media/animal_stim/whitened/004_right_1.gif,all_background,37,6.0,3205.0,,,,
847,6106be7d513dcab805d524b8,curtain-display,,media/animal_stim/whitened/006_right_1.gif,media/animal_stim/whitened/006_right_2.gif,all_background,24,2.0,,,,,
848,5f0a79cdff3278354b2016b7,survey-likert,7284.0,,,,14,,,{'Q0': 2},[0],background,{'Q0': 2}
849,60fd76f8fbbc23113b72821f,curtain-display,,media/animal_stim/whitened/001_right_2.gif,media/animal_stim/whitened/001_right_1.gif,all_background,26,5.0,,,,,
850,61483c4b10ea5d16c71d6b9e,survey-text,4440.0,,,,47,,,{'Q0': '23'},,,{'Q0': '23'}
851,60e4a5d4b0e40567e60146e4,survey-likert,4280.0,,,,37,,,{'Q0': 3},[0],background,{'Q0': 3}
852,6460e22e1be052a4c5e14c2d,curtain-display,,media/animal_stim/whitened/003_right_2.gif,media/animal_stim/whitened/003_left_1.gif,all_background,8,5.0,,,,,
853,648b920a66c5e3040ab14f6a,instructions,7916.0,,,,2,,,,,,
854,607760884d66833ee83aa987,curtain-display,,media/animal_stim/whitened/006_right_2.gif,media/animal_stim/whitened/006_right_1.gif,deviant,42,5.0,,,,,
855,5b89d11c19110c0001eb75e5,curtain-display,,,,,4,,,,,,
856,649622da02d0cd201c80a0df,curtain-display,,media/animal_stim/whitened/004_left_1.gif,media/animal_stim/whitened/004_right_2.gif,all_background,42,2.0,,,,,
857,6455490f7c5f35e4221a810a,fullscreen,,,,,1,,,,,,
858,60e0fc6ba2a0b43c2e64fefb,preload,,,,,0,,,,,,
859,5fc429047f2ae3825eb811a4,curtain-display,,media/animal_stim/whitened/003_left_1.gif,media/animal_stim/whitened/003_right_2.gif,all_background,24,6.0,,,,,
860,60e0fc6ba2a0b43c2e64fefb,preload,,,,,0,,,,,,
861,651033d039c135459ac83d8f,curtain-display,,media/animal_stim/whitened/004_right_1.gif,media/animal_stim/whitened/004_right_2.gif,deviant,42,5.0,,,,,
862,5f4b49d8b1b5480008d21a11,survey-likert,3883.0,,,,15,,,{'Q0': 3},[0],background,{'Q0': 3}
863,60d78cd9ff61ba5de66359ea,survey-likert,3563.0,,,,38,,,{'Q0': 3},[0],background,{'Q0': 3}
864,5e799af10b2d8255586ad5b2,instructions,29732.0,,,,7,,,,,,
865,5f0a79cdff3278354b2016b7,curtain-display,,media/animal_stim/whitened/002_right_1.gif,media/animal_stim/whitened/002_right_2.gif,deviant,15,6.0,,,,,
866,5c935050c719fc00147defbc,curtain-display,3721.0,media/animal_stim/whitened/001_right_2.gif,media/animal_stim/whitened/001_left_1.gif,deviant,44,6.0,4221.0,,,,
867,5fdcc082dfad1528dad65346,fullscreen,,,,,1,,,,,,
868,60fd76f8fbbc23113b72821f,curtain-display,,media/animal_stim/whitened/001_right_2.gif,media/animal_stim/whitened/001_right_1.gif,all_background,27,5.0,,,,,
