,prolific_id,trial_type,rt,background,deviant,block_type,trial_index,fam_trial,total_rt,response,question_order,rating_type,response
0,,preload,,,,,0,,,,,,
1,,preload,,,,,0,,,,,,
2,,fullscreen,,,,,1,,,,,,
3,,instructions,1420.0,,,,2,,,,,,
4,,instructions,1469.0,,,,3,,,,,,
5,,curtain-display,,,,,4,,,,,,
6,,curtain-display,,,,,5,,,,,,
7,,curtain-display,242.0,,,,6,,742.0,,,,
8,,instructions,3032.0,,,,7,,,,,,
9,,curtain-display,,media/animal_stim/whitened/006_right_2.gif,media/animal_stim/whitened/006_left_1.gif,all_background,8,8.0,,,,,
10,,curtain-display,,media/animal_stim/whitened/006_right_2.gif,media/animal_stim/whitened/006_left_1.gif,all_background,9,8.0,,,,,
11,,curtain-display,,media/animal_stim/whitened/006_right_2.gif,media/animal_stim/whitened/006_left_1.gif,all_background,10,8.0,,,,,
12,,curtain-display,,media/animal_stim/whitened/006_right_2.gif,media/animal_stim/whitened/006_left_1.gif,all_background,11,8.0,,,,,
13,,curtain-display,,media/animal_stim/whitened/006_right_2.gif,media/animal_stim/whitened/006_left_1.gif,all_background,12,8.0,,,,,
14,,curtain-display,,media/animal_stim/whitened/006_right_2.gif,media/animal_stim/whitened/006_left_1.gif,all_background,13,8.0,,,,,
15,,curtain-display,,media/animal_stim/whitened/006_right_2.gif,media/animal_stim/whitened/006_left_1.gif,all_background,14,8.0,,,,,
16,,curtain-display,,media/animal_stim/whitened/006_right_2.gif,media/animal_stim/whitened/006_left_1.gif,all_background,15,8.0,,,,,
17,,curtain-display,150.0,media/animal_stim/whitened/006_right_2.gif,media/animal_stim/whitened/006_left_1.gif,all_background,16,8.0,650.0,,,,
18,61491ef3328d677fb0a59699,preload,,,,,0,,,,,,
19,61491ef3328d677fb0a59699,preload,,,,,0,,,,,,
20,61491ef3328d677fb0a59699,fullscreen,,,,,1,,,,,,
21,61491ef3328d677fb0a59699,instructions,4161.0,,,,2,,,,,,
22,605d880baff3193baf90c875,preload,,,,,0,,,,,,
23,605d880baff3193baf90c875,preload,,,,,0,,,,,,
24,60476ecfdd72a724ee081741,preload,,,,,0,,,,,,
25,60476ecfdd72a724ee081741,preload,,,,,0,,,,,,
26,605d880baff3193baf90c875,fullscreen,,,,,1,,,,,,
27,605d880baff3193baf90c875,instructions,1716.0,,,,2,,,,,,
28,60476ecfdd72a724ee081741,fullscreen,,,,,1,,,,,,
29,605d880baff3193baf90c875,instructions,4740.0,,,,3,,,,,,
30,605d880baff3193baf90c875,curtain-display,,,,,4,,,,,,
31,613aa9ee188e0f9351987678,preload,,,,,0,,,,,,
32,613aa9ee188e0f9351987678,preload,,,,,0,,,,,,
33,60476ecfdd72a724ee081741,instructions,12584.0,,,,2,,,,,,
34,605d880baff3193baf90c875,curtain-display,,,,,5,,,,,,
35,605d880baff3193baf90c875,curtain-display,2352.0,,,,6,,2852.0,,,,
36,610bd70078f2a0fdaf675802,preload,,,,,0,,,,,,
37,610bd70078f2a0fdaf675802,preload,,,,,0,,,,,,
38,5eb544fbef7dae3ce4d05d89,preload,,,,,0,,,,,,
39,5eb544fbef7dae3ce4d05d89,preload,,,,,0,,,,,,
40,605d880baff3193baf90c875,instructions,10131.0,,,,7,,,,,,
41,5eb544fbef7dae3ce4d05d89,fullscreen,,,,,1,,,,,,
42,605d880baff3193baf90c875,curtain-display,,media/animal_stim/whitened/002_left_2.gif,media/animal_stim/whitened/002_right_1.gif,deviant,8,8.0,,,,,
43,5e847ca988ac1c018e653765,preload,,,,,0,,,,,,
44,5e847ca988ac1c018e653765,preload,,,,,0,,,,,,
45,60f2893b3b82491a793d2085,preload,,,,,0,,,,,,
46,60f2893b3b82491a793d2085,preload,,,,,0,,,,,,
47,605d880baff3193baf90c875,curtain-display,,media/animal_stim/whitened/002_left_2.gif,media/animal_stim/whitened/002_right_1.gif,deviant,9,8.0,,,,,
48,614bb4f23c6700d9c9675b7f,preload,,,,,0,,,,,,
49,614bb4f23c6700d9c9675b7f,preload,,,,,0,,,,,,
50,5e847ca988ac1c018e653765,fullscreen,,,,,1,,,,,,
51,60f2893b3b82491a793d2085,fullscreen,,,,,1,,,,,,
52,605d880baff3193baf90c875,curtain-display,,media/animal_stim/whitened/002_left_2.gif,media/animal_stim/whitened/002_right_1.gif,deviant,10,8.0,,,,,
53,5c431f3db00b3300018f3ce5,preload,,,,,0,,,,,,
54,5c431f3db00b3300018f3ce5,preload,,,,,0,,,,,,
55,613aa9ee188e0f9351987678,fullscreen,,,,,1,,,,,,
56,603b0cceef3baf7b6df2d475,preload,,,,,0,,,,,,
57,603b0cceef3baf7b6df2d475,preload,,,,,0,,,,,,
58,5eb544fbef7dae3ce4d05d89,instructions,10952.0,,,,2,,,,,,
59,605d880baff3193baf90c875,curtain-display,,media/animal_stim/whitened/002_left_2.gif,media/animal_stim/whitened/002_right_1.gif,deviant,11,8.0,,,,,
60,5c431f3db00b3300018f3ce5,fullscreen,,,,,1,,,,,,
61,651659b4017f7a6da9b60ded,preload,,,,,0,,,,,,
62,651659b4017f7a6da9b60ded,preload,,,,,0,,,,,,
63,5d6d82acab68f90001f53194,preload,,,,,0,,,,,,
64,5d6d82acab68f90001f53194,preload,,,,,0,,,,,,
65,605d880baff3193baf90c875,curtain-display,,media/animal_stim/whitened/002_left_2.gif,media/animal_stim/whitened/002_right_1.gif,deviant,12,8.0,,,,,
66,645518d454a9276752174fd6,preload,,,,,0,,,,,,
67,645518d454a9276752174fd6,preload,,,,,0,,,,,,
68,603b0cceef3baf7b6df2d475,fullscreen,,,,,1,,,,,,
69,60f2893b3b82491a793d2085,instructions,8278.0,,,,2,,,,,,
70,5e847ca988ac1c018e653765,instructions,9343.0,,,,2,,,,,,
71,603b0cceef3baf7b6df2d475,instructions,1630.0,,,,2,,,,,,
72,60476ecfdd72a724ee081741,instructions,31996.0,,,,3,,,,,,
73,605d880baff3193baf90c875,curtain-display,,media/animal_stim/whitened/002_left_2.gif,media/animal_stim/whitened/002_right_1.gif,deviant,13,8.0,,,,,
74,5e8df4ff41edd907ccc32428,preload,,,,,0,,,,,,
75,5e8df4ff41edd907ccc32428,preload,,,,,0,,,,,,
76,651659b4017f7a6da9b60ded,fullscreen,,,,,1,,,,,,
77,60476ecfdd72a724ee081741,curtain-display,,,,,4,,,,,,
78,613aa9ee188e0f9351987678,instructions,12281.0,,,,2,,,,,,
79,605d880baff3193baf90c875,curtain-display,,media/animal_stim/whitened/002_left_2.gif,media/animal_stim/whitened/002_right_1.gif,deviant,14,8.0,,,,,
80,651659b4017f7a6da9b60ded,instructions,2005.0,,,,2,,,,,,
81,5d6d82acab68f90001f53194,fullscreen,,,,,1,,,,,,
82,61491ef3328d677fb0a59699,instructions,66292.0,,,,3,,,,,,
83,5d6d82acab68f90001f53194,instructions,1876.0,,,,2,,,,,,
84,60476ecfdd72a724ee081741,curtain-display,,,,,5,,,,,,
85,605d880baff3193baf90c875,curtain-display,,media/animal_stim/whitened/002_left_2.gif,media/animal_stim/whitened/002_right_1.gif,deviant,15,8.0,,,,,
86,5c431f3db00b3300018f3ce5,instructions,13633.0,,,,2,,,,,,
87,5e8df4ff41edd907ccc32428,fullscreen,,,,,1,,,,,,
88,61491ef3328d677fb0a59699,curtain-display,,,,,4,,,,,,
89,603b0cceef3baf7b6df2d475,instructions,7818.0,,,,3,,,,,,
90,605d880baff3193baf90c875,curtain-display,956.0,media/animal_stim/whitened/002_left_2.gif,media/animal_stim/whitened/002_right_1.gif,deviant,16,8.0,1456.0,,,,
91,60c1889edf71db16c09529fc,preload,,,,,0,,,,,,
92,60c1889edf71db16c09529fc,preload,,,,,0,,,,,,
93,61491ef3328d677fb0a59699,curtain-display,,,,,5,,,,,,
94,603b0cceef3baf7b6df2d475,curtain-display,,,,,4,,,,,,
95,605d880baff3193baf90c875,survey-likert,4011.0,,,,17,,,{'Q0': 3},[0],background,{'Q0': 3}
96,60476ecfdd72a724ee081741,curtain-display,5833.0,,,,6,,6333.0,,,,
97,61491ef3328d677fb0a59699,curtain-display,1272.0,,,,6,,1772.0,,,,
98,603b0cceef3baf7b6df2d475,curtain-display,,,,,5,,,,,,
99,605d880baff3193baf90c875,curtain-display,,media/animal_stim/whitened/006_right_2.gif,media/animal_stim/whitened/006_right_1.gif,all_background,18,8.0,,,,,
100,60c1889edf71db16c09529fc,fullscreen,,,,,1,,,,,,
101,645518d454a9276752174fd6,fullscreen,,,,,1,,,,,,
102,5e89dda1762f3c66d9b9ca68,preload,,,,,0,,,,,,
103,5e89dda1762f3c66d9b9ca68,preload,,,,,0,,,,,,
104,603b0cceef3baf7b6df2d475,curtain-display,2481.0,,,,6,,2981.0,,,,
105,645518d454a9276752174fd6,instructions,1839.0,,,,2,,,,,,
106,5e8df4ff41edd907ccc32428,instructions,11729.0,,,,2,,,,,,
107,605d880baff3193baf90c875,curtain-display,,media/animal_stim/whitened/006_right_2.gif,media/animal_stim/whitened/006_right_1.gif,all_background,19,8.0,,,,,
108,5eb544fbef7dae3ce4d05d89,instructions,25275.0,,,,3,,,,,,
109,60f2893b3b82491a793d2085,instructions,21374.0,,,,3,,,,,,
110,651659b4017f7a6da9b60ded,instructions,16290.0,,,,3,,,,,,
111,612e780e6c97ea0e89274e66,preload,,,,,0,,,,,,
112,612e780e6c97ea0e89274e66,preload,,,,,0,,,,,,
113,60c1889edf71db16c09529fc,instructions,6006.0,,,,2,,,,,,
114,605d880baff3193baf90c875,curtain-display,,media/animal_stim/whitened/006_right_2.gif,media/animal_stim/whitened/006_right_1.gif,all_background,20,8.0,,,,,
115,645518d454a9276752174fd6,instructions,2268.0,,,,3,,,,,,
116,5eb544fbef7dae3ce4d05d89,curtain-display,,,,,4,,,,,,
117,60f2893b3b82491a793d2085,curtain-display,,,,,4,,,,,,
118,651659b4017f7a6da9b60ded,curtain-display,,,,,4,,,,,,
119,605d880baff3193baf90c875,curtain-display,,media/animal_stim/whitened/006_right_2.gif,media/animal_stim/whitened/006_right_1.gif,all_background,21,8.0,,,,,
120,5eb544fbef7dae3ce4d05d89,curtain-display,,,,,5,,,,,,
121,645518d454a9276752174fd6,curtain-display,,,,,4,,,,,,
122,612e780e6c97ea0e89274e66,fullscreen,,,,,1,,,,,,
123,60f2893b3b82491a793d2085,curtain-display,,,,,5,,,,,,
124,651659b4017f7a6da9b60ded,curtain-display,,,,,5,,,,,,
125,60f1afe91e1121676c67ebf5,preload,,,,,0,,,,,,
126,60f1afe91e1121676c67ebf5,preload,,,,,0,,,,,,
127,605d880baff3193baf90c875,curtain-display,,media/animal_stim/whitened/006_right_2.gif,media/animal_stim/whitened/006_right_1.gif,all_background,22,8.0,,,,,
128,60f2893b3b82491a793d2085,curtain-display,1545.0,,,,6,,2045.0,,,,
129,645518d454a9276752174fd6,curtain-display,,,,,5,,,,,,
130,5eb544fbef7dae3ce4d05d89,curtain-display,4415.0,,,,6,,4915.0,,,,
131,605d880baff3193baf90c875,curtain-display,,media/animal_stim/whitened/006_right_2.gif,media/animal_stim/whitened/006_right_1.gif,all_background,23,8.0,,,,,
132,614bb4f23c6700d9c9675b7f,fullscreen,,,,,1,,,,,,
133,6154b3a7e4bc93e1ce93c6bc,preload,,,,,0,,,,,,
134,6154b3a7e4bc93e1ce93c6bc,preload,,,,,0,,,,,,
135,651659b4017f7a6da9b60ded,curtain-display,5220.0,,,,6,,5720.0,,,,
136,5fa4721c8826280efc7ea386,preload,,,,,0,,,,,,
137,5fa4721c8826280efc7ea386,preload,,,,,0,,,,,,
138,605d880baff3193baf90c875,curtain-display,,media/animal_stim/whitened/006_right_2.gif,media/animal_stim/whitened/006_right_1.gif,all_background,24,8.0,,,,,
139,645518d454a9276752174fd6,curtain-display,5526.0,,,,6,,6026.0,,,,
140,613aa9ee188e0f9351987678,instructions,33425.0,,,,3,,,,,,
141,612e780e6c97ea0e89274e66,instructions,12405.0,,,,2,,,,,,
142,605cfe0825d0e0494ad7dc58,preload,,,,,0,,,,,,
143,605cfe0825d0e0494ad7dc58,preload,,,,,0,,,,,,
144,605d880baff3193baf90c875,curtain-display,,media/animal_stim/whitened/006_right_2.gif,media/animal_stim/whitened/006_right_1.gif,all_background,25,8.0,,,,,
145,613aa9ee188e0f9351987678,curtain-display,,,,,4,,,,,,
146,605d880baff3193baf90c875,curtain-display,735.0,media/animal_stim/whitened/006_right_2.gif,media/animal_stim/whitened/006_right_1.gif,all_background,26,8.0,1235.0,,,,
147,5e847ca988ac1c018e653765,instructions,42351.0,,,,3,,,,,,
148,61019aaf0ae83dd2c1f7a889,preload,,,,,0,,,,,,
149,61019aaf0ae83dd2c1f7a889,preload,,,,,0,,,,,,
150,5fbd6522ba05ae1194aa9cba,preload,,,,,0,,,,,,
151,5fbd6522ba05ae1194aa9cba,preload,,,,,0,,,,,,
152,60c1889edf71db16c09529fc,instructions,19622.0,,,,3,,,,,,
153,5fc3e4692ee48e75801407f2,preload,,,,,0,,,,,,
154,5fc3e4692ee48e75801407f2,preload,,,,,0,,,,,,
155,5e8df4ff41edd907ccc32428,instructions,24176.0,,,,3,,,,,,
156,613aa9ee188e0f9351987678,curtain-display,,,,,5,,,,,,
157,645518d454a9276752174fd6,instructions,8535.0,,,,7,,,,,,
158,5e847ca988ac1c018e653765,curtain-display,,,,,4,,,,,,
159,605d880baff3193baf90c875,survey-likert,4148.0,,,,27,,,{'Q0': 3},[0],background,{'Q0': 3}
160,5fbd6522ba05ae1194aa9cba,fullscreen,,,,,1,,,,,,
161,61019aaf0ae83dd2c1f7a889,fullscreen,,,,,1,,,,,,
162,6154b3a7e4bc93e1ce93c6bc,fullscreen,,,,,1,,,,,,
163,60c1889edf71db16c09529fc,curtain-display,,,,,4,,,,,,
164,5d6d82acab68f90001f53194,instructions,41030.0,,,,3,,,,,,
165,60f2893b3b82491a793d2085,instructions,18023.0,,,,7,,,,,,
166,613aa9ee188e0f9351987678,curtain-display,2317.0,,,,6,,2817.0,,,,
167,5e8df4ff41edd907ccc32428,curtain-display,,,,,4,,,,,,
168,645518d454a9276752174fd6,curtain-display,,media/animal_stim/whitened/005_right_2.gif,media/animal_stim/whitened/005_left_1.gif,deviant,8,8.0,,,,,
169,5e847ca988ac1c018e653765,curtain-display,,,,,5,,,,,,
170,61019aaf0ae83dd2c1f7a889,instructions,2358.0,,,,2,,,,,,
171,605d880baff3193baf90c875,curtain-display,,media/animal_stim/whitened/005_right_1.gif,media/animal_stim/whitened/005_left_2.gif,all_background,28,4.0,,,,,
172,614bb4f23c6700d9c9675b7f,instructions,16362.0,,,,2,,,,,,
173,5fbd6522ba05ae1194aa9cba,instructions,3265.0,,,,2,,,,,,
174,603b0cceef3baf7b6df2d475,instructions,32010.0,,,,7,,,,,,
175,60c1889edf71db16c09529fc,curtain-display,,,,,5,,,,,,
176,5d6d82acab68f90001f53194,curtain-display,,,,,4,,,,,,
177,6154b3a7e4bc93e1ce93c6bc,instructions,4226.0,,,,2,,,,,,
178,60f2893b3b82491a793d2085,curtain-display,2684.0,media/animal_stim/whitened/004_left_1.gif,media/animal_stim/whitened/004_left_2.gif,deviant,8,0.0,3184.0,,,,
179,603b0cceef3baf7b6df2d475,curtain-display,425.0,media/animal_stim/whitened/005_right_2.gif,media/animal_stim/whitened/005_right_1.gif,deviant,8,0.0,925.0,,,,
180,5c431f3db00b3300018f3ce5,instructions,43879.0,,,,3,,,,,,
181,5e8df4ff41edd907ccc32428,curtain-display,,,,,5,,,,,,
182,645518d454a9276752174fd6,curtain-display,,media/animal_stim/whitened/005_right_2.gif,media/animal_stim/whitened/005_left_1.gif,deviant,9,8.0,,,,,
183,605d880baff3193baf90c875,curtain-display,,media/animal_stim/whitened/005_right_1.gif,media/animal_stim/whitened/005_left_2.gif,all_background,29,4.0,,,,,
184,5e847ca988ac1c018e653765,curtain-display,3367.0,,,,6,,3867.0,,,,
185,651659b4017f7a6da9b60ded,instructions,19277.0,,,,7,,,,,,
186,60476ecfdd72a724ee081741,instructions,41271.0,,,,7,,,,,,
187,5d6d82acab68f90001f53194,curtain-display,,,,,5,,,,,,
188,5c431f3db00b3300018f3ce5,curtain-display,,,,,4,,,,,,
189,645518d454a9276752174fd6,curtain-display,,media/animal_stim/whitened/005_right_2.gif,media/animal_stim/whitened/005_left_1.gif,deviant,10,8.0,,,,,
190,60c1889edf71db16c09529fc,curtain-display,4314.0,,,,6,,4814.0,,,,
191,605d880baff3193baf90c875,curtain-display,,media/animal_stim/whitened/005_right_1.gif,media/animal_stim/whitened/005_left_2.gif,all_background,30,4.0,,,,,
192,647896fae4473728c2db49cb,preload,,,,,0,,,,,,
193,647896fae4473728c2db49cb,preload,,,,,0,,,,,,
194,60f2893b3b82491a793d2085,survey-likert,5300.0,,,,9,,,{'Q0': 3},[0],background,{'Q0': 3}
195,5eb544fbef7dae3ce4d05d89,instructions,25569.0,,,,7,,,,,,
196,60476ecfdd72a724ee081741,curtain-display,,media/animal_stim/whitened/006_left_2.gif,media/animal_stim/whitened/006_right_1.gif,deviant,8,4.0,,,,,
197,603b0cceef3baf7b6df2d475,survey-likert,6116.0,,,,9,,,{'Q0': 3},[0],background,{'Q0': 3}
198,5c431f3db00b3300018f3ce5,curtain-display,,,,,5,,,,,,
199,651659b4017f7a6da9b60ded,curtain-display,4582.0,media/animal_stim/whitened/005_right_2.gif,media/animal_stim/whitened/005_left_1.gif,deviant,8,0.0,5082.0,,,,
200,645518d454a9276752174fd6,curtain-display,,media/animal_stim/whitened/005_right_2.gif,media/animal_stim/whitened/005_left_1.gif,deviant,11,8.0,,,,,
201,605d880baff3193baf90c875,curtain-display,,media/animal_stim/whitened/005_right_1.gif,media/animal_stim/whitened/005_left_2.gif,all_background,31,4.0,,,,,
202,60f2893b3b82491a793d2085,curtain-display,,media/animal_stim/whitened/006_left_2.gif,media/animal_stim/whitened/006_right_1.gif,deviant,10,8.0,,,,,
203,5eb544fbef7dae3ce4d05d89,curtain-display,,media/animal_stim/whitened/001_left_2.gif,media/animal_stim/whitened/001_left_1.gif,deviant,8,8.0,,,,,
204,60476ecfdd72a724ee081741,curtain-display,,media/animal_stim/whitened/006_left_2.gif,media/animal_stim/whitened/006_right_1.gif,deviant,9,4.0,,,,,
205,647896fae4473728c2db49cb,fullscreen,,,,,1,,,,,,
206,603b0cceef3baf7b6df2d475,curtain-display,,media/animal_stim/whitened/001_right_1.gif,media/animal_stim/whitened/001_right_2.gif,all_background,10,8.0,,,,,
207,605d880baff3193baf90c875,curtain-display,816.0,media/animal_stim/whitened/005_right_1.gif,media/animal_stim/whitened/005_left_2.gif,all_background,32,4.0,1316.0,,,,
208,5ea37cd0e9fb242ff94ccbc3,preload,,,,,0,,,,,,
209,5ea37cd0e9fb242ff94ccbc3,preload,,,,,0,,,,,,
210,5c19da4c5ead950001bdbe86,preload,,,,,0,,,,,,
211,5c19da4c5ead950001bdbe86,preload,,,,,0,,,,,,
212,647896fae4473728c2db49cb,instructions,1836.0,,,,2,,,,,,
213,5e8df4ff41edd907ccc32428,curtain-display,9744.0,,,,6,,10244.0,,,,
214,645518d454a9276752174fd6,curtain-display,,media/animal_stim/whitened/005_right_2.gif,media/animal_stim/whitened/005_left_1.gif,deviant,12,8.0,,,,,
215,60f2893b3b82491a793d2085,curtain-display,,media/animal_stim/whitened/006_left_2.gif,media/animal_stim/whitened/006_right_1.gif,deviant,11,8.0,,,,,
216,651659b4017f7a6da9b60ded,survey-likert,4838.0,,,,9,,,{'Q0': 2},[0],background,{'Q0': 2}
217,5eb544fbef7dae3ce4d05d89,curtain-display,,media/animal_stim/whitened/001_left_2.gif,media/animal_stim/whitened/001_left_1.gif,deviant,9,8.0,,,,,
218,60476ecfdd72a724ee081741,curtain-display,,media/animal_stim/whitened/006_left_2.gif,media/animal_stim/whitened/006_right_1.gif,deviant,10,4.0,,,,,
219,60ee4a789df895b03c75495b,preload,,,,,0,,,,,,
220,60ee4a789df895b03c75495b,preload,,,,,0,,,,,,
221,603b0cceef3baf7b6df2d475,curtain-display,,media/animal_stim/whitened/001_right_1.gif,media/animal_stim/whitened/001_right_2.gif,all_background,11,8.0,,,,,
222,5c431f3db00b3300018f3ce5,curtain-display,5775.0,,,,6,,6275.0,,,,
223,648251f5f13f3cab9a86e5cc,preload,,,,,0,,,,,,
224,648251f5f13f3cab9a86e5cc,preload,,,,,0,,,,,,
225,645518d454a9276752174fd6,curtain-display,,media/animal_stim/whitened/005_right_2.gif,media/animal_stim/whitened/005_left_1.gif,deviant,13,8.0,,,,,
226,60f2893b3b82491a793d2085,curtain-display,,media/animal_stim/whitened/006_left_2.gif,media/animal_stim/whitened/006_right_1.gif,deviant,12,8.0,,,,,
227,651659b4017f7a6da9b60ded,curtain-display,,media/animal_stim/whitened/003_right_1.gif,media/animal_stim/whitened/003_right_2.gif,deviant,10,4.0,,,,,
228,5eb544fbef7dae3ce4d05d89,curtain-display,,media/animal_stim/whitened/001_left_2.gif,media/animal_stim/whitened/001_left_1.gif,deviant,10,8.0,,,,,
229,60476ecfdd72a724ee081741,curtain-display,,media/animal_stim/whitened/006_left_2.gif,media/animal_stim/whitened/006_right_1.gif,deviant,11,4.0,,,,,
230,5ea37cd0e9fb242ff94ccbc3,fullscreen,,,,,1,,,,,,
231,603b0cceef3baf7b6df2d475,curtain-display,,media/animal_stim/whitened/001_right_1.gif,media/animal_stim/whitened/001_right_2.gif,all_background,12,8.0,,,,,
232,605d880baff3193baf90c875,survey-likert,7180.0,,,,33,,,{'Q0': 2},[0],background,{'Q0': 2}
233,5d6d82acab68f90001f53194,curtain-display,13595.0,,,,6,,14095.0,,,,
234,645518d454a9276752174fd6,curtain-display,,media/animal_stim/whitened/005_right_2.gif,media/animal_stim/whitened/005_left_1.gif,deviant,14,8.0,,,,,
235,60f1afe91e1121676c67ebf5,fullscreen,,,,,1,,,,,,
236,605cfe0825d0e0494ad7dc58,fullscreen,,,,,1,,,,,,
237,60c1889edf71db16c09529fc,instructions,14568.0,,,,7,,,,,,
238,60f2893b3b82491a793d2085,curtain-display,,media/animal_stim/whitened/006_left_2.gif,media/animal_stim/whitened/006_right_1.gif,deviant,13,8.0,,,,,
239,605d880baff3193baf90c875,curtain-display,1078.0,media/animal_stim/whitened/001_left_2.gif,media/animal_stim/whitened/001_left_1.gif,deviant,34,0.0,1578.0,,,,
240,651659b4017f7a6da9b60ded,curtain-display,,media/animal_stim/whitened/003_right_1.gif,media/animal_stim/whitened/003_right_2.gif,deviant,11,4.0,,,,,
241,5eb544fbef7dae3ce4d05d89,curtain-display,,media/animal_stim/whitened/001_left_2.gif,media/animal_stim/whitened/001_left_1.gif,deviant,11,8.0,,,,,
242,648251f5f13f3cab9a86e5cc,fullscreen,,,,,1,,,,,,
243,603b0cceef3baf7b6df2d475,curtain-display,,media/animal_stim/whitened/001_right_1.gif,media/animal_stim/whitened/001_right_2.gif,all_background,13,8.0,,,,,
244,60f1afe91e1121676c67ebf5,instructions,1283.0,,,,2,,,,,,
245,612e780e6c97ea0e89274e66,instructions,31601.0,,,,3,,,,,,
246,613c542c957161802d700fb2,preload,,,,,0,,,,,,
247,613c542c957161802d700fb2,preload,,,,,0,,,,,,
248,645518d454a9276752174fd6,curtain-display,,media/animal_stim/whitened/005_right_2.gif,media/animal_stim/whitened/005_left_1.gif,deviant,15,8.0,,,,,
249,605d880baff3193baf90c875,survey-likert,3097.0,,,,35,,,{'Q0': 1},[0],background,{'Q0': 1}
250,60c1889edf71db16c09529fc,curtain-display,,media/animal_stim/whitened/002_right_1.gif,media/animal_stim/whitened/002_left_2.gif,deviant,8,8.0,,,,,
251,60f2893b3b82491a793d2085,curtain-display,,media/animal_stim/whitened/006_left_2.gif,media/animal_stim/whitened/006_right_1.gif,deviant,14,8.0,,,,,
252,651659b4017f7a6da9b60ded,curtain-display,,media/animal_stim/whitened/003_right_1.gif,media/animal_stim/whitened/003_right_2.gif,deviant,12,4.0,,,,,
253,5fc3e4692ee48e75801407f2,fullscreen,,,,,1,,,,,,
254,5eb544fbef7dae3ce4d05d89,curtain-display,,media/animal_stim/whitened/001_left_2.gif,media/animal_stim/whitened/001_left_1.gif,deviant,12,8.0,,,,,
255,613aa9ee188e0f9351987678,instructions,26539.0,,,,7,,,,,,
256,60476ecfdd72a724ee081741,curtain-display,6273.0,media/animal_stim/whitened/006_left_2.gif,media/animal_stim/whitened/006_right_1.gif,deviant,12,4.0,6773.0,,,,
257,603b0cceef3baf7b6df2d475,curtain-display,,media/animal_stim/whitened/001_right_1.gif,media/animal_stim/whitened/001_right_2.gif,all_background,14,8.0,,,,,
258,612e780e6c97ea0e89274e66,curtain-display,,,,,4,,,,,,
259,605d880baff3193baf90c875,curtain-display,,media/animal_stim/whitened/003_left_1.gif,media/animal_stim/whitened/003_right_2.gif,deviant,36,4.0,,,,,
260,60f1afe91e1121676c67ebf5,instructions,4044.0,,,,3,,,,,,
261,60c1889edf71db16c09529fc,curtain-display,,media/animal_stim/whitened/002_right_1.gif,media/animal_stim/whitened/002_left_2.gif,deviant,9,8.0,,,,,
262,60f2893b3b82491a793d2085,curtain-display,,media/animal_stim/whitened/006_left_2.gif,media/animal_stim/whitened/006_right_1.gif,deviant,15,8.0,,,,,
263,651659b4017f7a6da9b60ded,curtain-display,,media/animal_stim/whitened/003_right_1.gif,media/animal_stim/whitened/003_right_2.gif,deviant,13,4.0,,,,,
264,5ee942381a22491bbb7170f8,preload,,,,,0,,,,,,
265,5ee942381a22491bbb7170f8,preload,,,,,0,,,,,,
266,5eb544fbef7dae3ce4d05d89,curtain-display,,media/animal_stim/whitened/001_left_2.gif,media/animal_stim/whitened/001_left_1.gif,deviant,13,8.0,,,,,
267,613aa9ee188e0f9351987678,curtain-display,,media/animal_stim/whitened/003_right_2.gif,media/animal_stim/whitened/003_left_1.gif,deviant,8,4.0,,,,,
268,5fc3e4692ee48e75801407f2,instructions,3968.0,,,,2,,,,,,
269,603b0cceef3baf7b6df2d475,curtain-display,,media/animal_stim/whitened/001_right_1.gif,media/animal_stim/whitened/001_right_2.gif,all_background,15,8.0,,,,,
270,5c19da4c5ead950001bdbe86,fullscreen,,,,,1,,,,,,
271,648251f5f13f3cab9a86e5cc,instructions,7795.0,,,,2,,,,,,
272,60476ecfdd72a724ee081741,survey-likert,4375.0,,,,13,,,{'Q0': 1},[0],background,{'Q0': 1}
273,612e780e6c97ea0e89274e66,curtain-display,,,,,5,,,,,,
274,605d880baff3193baf90c875,curtain-display,,media/animal_stim/whitened/003_left_1.gif,media/animal_stim/whitened/003_right_2.gif,deviant,37,4.0,,,,,
275,60f1afe91e1121676c67ebf5,curtain-display,,,,,4,,,,,,
276,60c1889edf71db16c09529fc,curtain-display,,media/animal_stim/whitened/002_right_1.gif,media/animal_stim/whitened/002_left_2.gif,deviant,10,8.0,,,,,
277,60f2893b3b82491a793d2085,curtain-display,,media/animal_stim/whitened/006_left_2.gif,media/animal_stim/whitened/006_right_1.gif,deviant,16,8.0,,,,,
278,5ee942381a22491bbb7170f8,fullscreen,,,,,1,,,,,,
279,5eb544fbef7dae3ce4d05d89,curtain-display,,media/animal_stim/whitened/001_left_2.gif,media/animal_stim/whitened/001_left_1.gif,deviant,14,8.0,,,,,
280,613aa9ee188e0f9351987678,curtain-display,,media/animal_stim/whitened/003_right_2.gif,media/animal_stim/whitened/003_left_1.gif,deviant,9,4.0,,,,,
281,5ea37cd0e9fb242ff94ccbc3,instructions,13804.0,,,,2,,,,,,
282,603b0cceef3baf7b6df2d475,curtain-display,,media/animal_stim/whitened/001_right_1.gif,media/animal_stim/whitened/001_right_2.gif,all_background,16,8.0,,,,,
283,60476ecfdd72a724ee081741,curtain-display,,media/animal_stim/whitened/004_left_1.gif,media/animal_stim/whitened/004_right_2.gif,all_background,14,8.0,,,,,
284,5ee942381a22491bbb7170f8,instructions,3097.0,,,,2,,,,,,
285,605d880baff3193baf90c875,curtain-display,,media/animal_stim/whitened/003_left_1.gif,media/animal_stim/whitened/003_right_2.gif,deviant,38,4.0,,,,,
286,60f1afe91e1121676c67ebf5,curtain-display,,,,,5,,,,,,
287,60c1889edf71db16c09529fc,curtain-display,,media/animal_stim/whitened/002_right_1.gif,media/animal_stim/whitened/002_left_2.gif,deviant,11,8.0,,,,,
288,60f2893b3b82491a793d2085,curtain-display,,media/animal_stim/whitened/006_left_2.gif,media/animal_stim/whitened/006_right_1.gif,deviant,17,8.0,,,,,
289,5eb544fbef7dae3ce4d05d89,curtain-display,,media/animal_stim/whitened/001_left_2.gif,media/animal_stim/whitened/001_left_1.gif,deviant,15,8.0,,,,,
290,613aa9ee188e0f9351987678,curtain-display,,media/animal_stim/whitened/003_right_2.gif,media/animal_stim/whitened/003_left_1.gif,deviant,10,4.0,,,,,
291,603b0cceef3baf7b6df2d475,curtain-display,,media/animal_stim/whitened/001_right_1.gif,media/animal_stim/whitened/001_right_2.gif,all_background,17,8.0,,,,,
292,60ee4a789df895b03c75495b,fullscreen,,,,,1,,,,,,
293,60476ecfdd72a724ee081741,curtain-display,,media/animal_stim/whitened/004_left_1.gif,media/animal_stim/whitened/004_right_2.gif,all_background,15,8.0,,,,,
294,613c542c957161802d700fb2,fullscreen,,,,,1,,,,,,
295,5e847ca988ac1c018e653765,instructions,33597.0,,,,7,,,,,,
296,60ee4a789df895b03c75495b,instructions,1597.0,,,,2,,,,,,
297,60f2893b3b82491a793d2085,curtain-display,1606.0,media/animal_stim/whitened/006_left_2.gif,media/animal_stim/whitened/006_right_1.gif,deviant,18,8.0,2106.0,,,,
298,6154b3a7e4bc93e1ce93c6bc,instructions,34488.0,,,,3,,,,,,
299,5c19da4c5ead950001bdbe86,instructions,8735.0,,,,2,,,,,,
300,605d880baff3193baf90c875,curtain-display,,media/animal_stim/whitened/003_left_1.gif,media/animal_stim/whitened/003_right_2.gif,deviant,39,4.0,,,,,
301,603b0cceef3baf7b6df2d475,curtain-display,1609.0,media/animal_stim/whitened/001_right_1.gif,media/animal_stim/whitened/001_right_2.gif,all_background,18,8.0,2109.0,,,,
302,61491ef3328d677fb0a59699,instructions,75425.0,,,,7,,,,,,
303,651659b4017f7a6da9b60ded,curtain-display,9499.0,media/animal_stim/whitened/003_right_1.gif,media/animal_stim/whitened/003_right_2.gif,deviant,14,4.0,9999.0,,,,
304,645518d454a9276752174fd6,curtain-display,,media/animal_stim/whitened/005_right_2.gif,media/animal_stim/whitened/005_left_1.gif,deviant,16,8.0,,,,,
305,613aa9ee188e0f9351987678,curtain-display,,media/animal_stim/whitened/003_right_2.gif,media/animal_stim/whitened/003_left_1.gif,deviant,11,4.0,,,,,
306,60c1889edf71db16c09529fc,curtain-display,,media/animal_stim/whitened/002_right_1.gif,media/animal_stim/whitened/002_left_2.gif,deviant,12,8.0,,,,,
307,60476ecfdd72a724ee081741,curtain-display,,media/animal_stim/whitened/004_left_1.gif,media/animal_stim/whitened/004_right_2.gif,all_background,16,8.0,,,,,
308,5e847ca988ac1c018e653765,curtain-display,,media/animal_stim/whitened/004_right_2.gif,media/animal_stim/whitened/004_right_1.gif,deviant,8,4.0,,,,,
309,605d880baff3193baf90c875,curtain-display,1491.0,media/animal_stim/whitened/003_left_1.gif,media/animal_stim/whitened/003_right_2.gif,deviant,40,4.0,1991.0,,,,
310,6154b3a7e4bc93e1ce93c6bc,curtain-display,,,,,4,,,,,,
311,5c431f3db00b3300018f3ce5,instructions,25849.0,,,,7,,,,,,
312,603b0cceef3baf7b6df2d475,survey-likert,3539.0,,,,19,,,{'Q0': 4},[0],background,{'Q0': 4}
313,61491ef3328d677fb0a59699,curtain-display,,media/animal_stim/whitened/001_right_2.gif,media/animal_stim/whitened/001_left_1.gif,all_background,8,4.0,,,,,
314,60c1889edf71db16c09529fc,curtain-display,,media/animal_stim/whitened/002_right_1.gif,media/animal_stim/whitened/002_left_2.gif,deviant,13,8.0,,,,,
315,5fbd6522ba05ae1194aa9cba,instructions,40601.0,,,,3,,,,,,
316,5eb544fbef7dae3ce4d05d89,curtain-display,6473.0,media/animal_stim/whitened/001_left_2.gif,media/animal_stim/whitened/001_left_1.gif,deviant,16,8.0,6973.0,,,,
317,645518d454a9276752174fd6,survey-likert,4152.0,,,,17,,,{'Q0': 2},[0],background,{'Q0': 2}
318,605d880baff3193baf90c875,survey-likert,2417.0,,,,41,,,{'Q0': 3},[0],background,{'Q0': 3}
319,5e8df4ff41edd907ccc32428,instructions,30541.0,,,,7,,,,,,
320,60476ecfdd72a724ee081741,curtain-display,,media/animal_stim/whitened/004_left_1.gif,media/animal_stim/whitened/004_right_2.gif,all_background,17,8.0,,,,,
321,5e847ca988ac1c018e653765,curtain-display,,media/animal_stim/whitened/004_right_2.gif,media/animal_stim/whitened/004_right_1.gif,deviant,9,4.0,,,,,
322,60f2893b3b82491a793d2085,survey-likert,6810.0,,,,19,,,{'Q0': 0},[0],background,{'Q0': 0}
323,605d880baff3193baf90c875,curtain-display,765.0,media/animal_stim/whitened/004_left_2.gif,media/animal_stim/whitened/004_left_1.gif,all_background,42,0.0,1265.0,,,,
324,6154b3a7e4bc93e1ce93c6bc,curtain-display,,,,,5,,,,,,
325,612e780e6c97ea0e89274e66,curtain-display,,,,,6,,,,,,
326,5c431f3db00b3300018f3ce5,curtain-display,2274.0,media/animal_stim/whitened/003_right_1.gif,media/animal_stim/whitened/003_left_2.gif,all_background,8,0.0,2774.0,,,,
327,614a4c9d8172751921452626,preload,,,,,0,,,,,,
328,614a4c9d8172751921452626,preload,,,,,0,,,,,,
329,5d6d82acab68f90001f53194,instructions,25954.0,,,,7,,,,,,
330,651659b4017f7a6da9b60ded,survey-likert,6836.0,,,,15,,,{'Q0': 3},[0],background,{'Q0': 3}
331,61491ef3328d677fb0a59699,curtain-display,,media/animal_stim/whitened/001_right_2.gif,media/animal_stim/whitened/001_left_1.gif,all_background,9,4.0,,,,,
332,60c1889edf71db16c09529fc,curtain-display,,media/animal_stim/whitened/002_right_1.gif,media/animal_stim/whitened/002_left_2.gif,deviant,14,8.0,,,,,
333,60e9b57da8550f28be62142d,preload,,,,,0,,,,,,
334,60e9b57da8550f28be62142d,preload,,,,,0,,,,,,
335,5fbd6522ba05ae1194aa9cba,curtain-display,,,,,4,,,,,,
336,605d880baff3193baf90c875,survey-likert,1658.0,,,,43,,,{'Q0': 4},[0],background,{'Q0': 4}
337,5eb544fbef7dae3ce4d05d89,survey-likert,3813.0,,,,17,,,{'Q0': 3},[0],background,{'Q0': 3}
338,60476ecfdd72a724ee081741,curtain-display,,media/animal_stim/whitened/004_left_1.gif,media/animal_stim/whitened/004_right_2.gif,all_background,18,8.0,,,,,
339,5e8df4ff41edd907ccc32428,curtain-display,,media/animal_stim/whitened/003_left_2.gif,media/animal_stim/whitened/003_left_1.gif,all_background,8,4.0,,,,,
340,613c542c957161802d700fb2,instructions,10636.0,,,,2,,,,,,
341,613aa9ee188e0f9351987678,curtain-display,7503.0,media/animal_stim/whitened/003_right_2.gif,media/animal_stim/whitened/003_left_1.gif,deviant,12,4.0,8003.0,,,,
342,5e847ca988ac1c018e653765,curtain-display,,media/animal_stim/whitened/004_right_2.gif,media/animal_stim/whitened/004_right_1.gif,deviant,10,4.0,,,,,
343,605d880baff3193baf90c875,html-button-response,1114.0,,,,44,,,0,,,0
344,6154b3a7e4bc93e1ce93c6bc,curtain-display,1731.0,,,,6,,2231.0,,,,
345,647896fae4473728c2db49cb,instructions,32414.0,,,,3,,,,,,
346,60f2893b3b82491a793d2085,curtain-display,,media/animal_stim/whitened/002_left_1.gif,media/animal_stim/whitened/002_left_2.gif,all_background,20,8.0,,,,,
347,61491ef3328d677fb0a59699,curtain-display,,media/animal_stim/whitened/001_right_2.gif,media/animal_stim/whitened/001_left_1.gif,all_background,10,4.0,,,,,
348,60c1889edf71db16c09529fc,curtain-display,,media/animal_stim/whitened/002_right_1.gif,media/animal_stim/whitened/002_left_2.gif,deviant,15,8.0,,,,,
349,5fbd6522ba05ae1194aa9cba,curtain-display,,,,,5,,,,,,
350,5eb544fbef7dae3ce4d05d89,curtain-display,,media/animal_stim/whitened/006_left_1.gif,media/animal_stim/whitened/006_left_2.gif,all_background,18,4.0,,,,,
351,605d880baff3193baf90c875,survey-text,2637.0,,,,45,,,{'Q0': '20'},,,{'Q0': '20'}
352,648251f5f13f3cab9a86e5cc,instructions,19048.0,,,,3,,,,,,
353,60476ecfdd72a724ee081741,curtain-display,,media/animal_stim/whitened/004_left_1.gif,media/animal_stim/whitened/004_right_2.gif,all_background,19,8.0,,,,,
354,5e8df4ff41edd907ccc32428,curtain-display,,media/animal_stim/whitened/003_left_2.gif,media/animal_stim/whitened/003_left_1.gif,all_background,9,4.0,,,,,
355,647896fae4473728c2db49cb,curtain-display,,,,,4,,,,,,
356,5e847ca988ac1c018e653765,curtain-display,,media/animal_stim/whitened/004_right_2.gif,media/animal_stim/whitened/004_right_1.gif,deviant,11,4.0,,,,,
357,60f2893b3b82491a793d2085,curtain-display,,media/animal_stim/whitened/002_left_1.gif,media/animal_stim/whitened/002_left_2.gif,all_background,21,8.0,,,,,
358,5d34d232468585001a1ea5f3,preload,,,,,0,,,,,,
359,5d34d232468585001a1ea5f3,preload,,,,,0,,,,,,
360,61491ef3328d677fb0a59699,curtain-display,,media/animal_stim/whitened/001_right_2.gif,media/animal_stim/whitened/001_left_1.gif,all_background,11,4.0,,,,,
361,5c431f3db00b3300018f3ce5,survey-likert,7836.0,,,,9,,,{'Q0': 0},[0],background,{'Q0': 0}
362,60c1889edf71db16c09529fc,curtain-display,3361.0,media/animal_stim/whitened/002_right_1.gif,media/animal_stim/whitened/002_left_2.gif,deviant,16,8.0,3861.0,,,,
363,605d880baff3193baf90c875,survey-multi-select,3223.0,,,,46,,,{'ethnicity': ['Hispanic or Latino']},[0],,{'ethnicity': ['Hispanic or Latino']}
364,5eb544fbef7dae3ce4d05d89,curtain-display,,media/animal_stim/whitened/006_left_1.gif,media/animal_stim/whitened/006_left_2.gif,all_background,19,4.0,,,,,
365,648251f5f13f3cab9a86e5cc,curtain-display,,,,,4,,,,,,
366,60476ecfdd72a724ee081741,curtain-display,,media/animal_stim/whitened/004_left_1.gif,media/animal_stim/whitened/004_right_2.gif,all_background,20,8.0,,,,,
367,5e8df4ff41edd907ccc32428,curtain-display,,media/animal_stim/whitened/003_left_2.gif,media/animal_stim/whitened/003_left_1.gif,all_background,10,4.0,,,,,
368,647896fae4473728c2db49cb,curtain-display,,,,,5,,,,,,
369,5fc3e4692ee48e75801407f2,instructions,23767.0,,,,3,,,,,,
370,5d34d232468585001a1ea5f3,fullscreen,,,,,1,,,,,,
371,60f2893b3b82491a793d2085,curtain-display,,media/animal_stim/whitened/002_left_1.gif,media/animal_stim/whitened/002_left_2.gif,all_background,22,8.0,,,,,
372,651659b4017f7a6da9b60ded,curtain-display,8953.0,media/animal_stim/whitened/004_right_1.gif,media/animal_stim/whitened/004_left_2.gif,all_background,16,0.0,9453.0,,,,
373,61491ef3328d677fb0a59699,curtain-display,1969.0,media/animal_stim/whitened/001_right_2.gif,media/animal_stim/whitened/001_left_1.gif,all_background,12,4.0,2469.0,,,,
374,645518d454a9276752174fd6,curtain-display,31085.0,media/animal_stim/whitened/003_left_2.gif,media/animal_stim/whitened/003_left_1.gif,deviant,18,0.0,31585.0,,,,
375,5e847ca988ac1c018e653765,curtain-display,3530.0,media/animal_stim/whitened/004_right_2.gif,media/animal_stim/whitened/004_right_1.gif,deviant,12,4.0,4030.0,,,,
376,5c431f3db00b3300018f3ce5,curtain-display,2011.0,media/animal_stim/whitened/005_left_2.gif,media/animal_stim/whitened/005_right_1.gif,deviant,10,0.0,2511.0,,,,
377,613aa9ee188e0f9351987678,survey-likert,8928.0,,,,13,,,{'Q0': 1},[0],background,{'Q0': 1}
378,5d34d232468585001a1ea5f3,instructions,1581.0,,,,2,,,,,,
379,603b0cceef3baf7b6df2d475,curtain-display,,media/animal_stim/whitened/003_left_2.gif,media/animal_stim/whitened/003_right_1.gif,all_background,20,0.0,,,,,
380,5eb544fbef7dae3ce4d05d89,curtain-display,,media/animal_stim/whitened/006_left_1.gif,media/animal_stim/whitened/006_left_2.gif,all_background,20,4.0,,,,,
381,648251f5f13f3cab9a86e5cc,curtain-display,,,,,5,,,,,,
382,60e9b57da8550f28be62142d,fullscreen,,,,,1,,,,,,
383,5fbaee508e8e9695f06fe52e,preload,,,,,0,,,,,,
384,60476ecfdd72a724ee081741,curtain-display,,media/animal_stim/whitened/004_left_1.gif,media/animal_stim/whitened/004_right_2.gif,all_background,21,8.0,,,,,
385,5fbaee508e8e9695f06fe52e,preload,,,,,0,,,,,,
386,5e8df4ff41edd907ccc32428,curtain-display,,media/animal_stim/whitened/003_left_2.gif,media/animal_stim/whitened/003_left_1.gif,all_background,11,4.0,,,,,
387,5fc3e4692ee48e75801407f2,curtain-display,,,,,4,,,,,,
388,651659b4017f7a6da9b60ded,survey-likert,2642.0,,,,17,,,{'Q0': 4},[0],background,{'Q0': 4}
389,60c1889edf71db16c09529fc,survey-likert,4737.0,,,,17,,,{'Q0': 2},[0],background,{'Q0': 2}
390,605d880baff3193baf90c875,survey-text,4713.0,,,,47,,,{'Q0': 'male'},,,{'Q0': 'male'}
391,5d6d82acab68f90001f53194,curtain-display,12282.0,media/animal_stim/whitened/003_left_1.gif,media/animal_stim/whitened/003_right_2.gif,all_background,8,0.0,12782.0,,,,
392,60f2893b3b82491a793d2085,curtain-display,,media/animal_stim/whitened/002_left_1.gif,media/animal_stim/whitened/002_left_2.gif,all_background,23,8.0,,,,,
393,613aa9ee188e0f9351987678,curtain-display,,media/animal_stim/whitened/002_right_1.gif,media/animal_stim/whitened/002_left_2.gif,all_background,14,4.0,,,,,
394,5fbd6522ba05ae1194aa9cba,curtain-display,9004.0,,,,6,,9504.0,,,,
395,603b0cceef3baf7b6df2d475,survey-likert,3031.0,,,,21,,,{'Q0': 4},[0],background,{'Q0': 4}
396,647896fae4473728c2db49cb,curtain-display,5078.0,,,,6,,5578.0,,,,
397,645518d454a9276752174fd6,survey-likert,4617.0,,,,19,,,{'Q0': 4},[0],background,{'Q0': 4}
398,5eb544fbef7dae3ce4d05d89,curtain-display,,media/animal_stim/whitened/006_left_1.gif,media/animal_stim/whitened/006_left_2.gif,all_background,21,4.0,,,,,
399,60476ecfdd72a724ee081741,curtain-display,1984.0,media/animal_stim/whitened/004_left_1.gif,media/animal_stim/whitened/004_right_2.gif,all_background,22,8.0,2484.0,,,,
400,61491ef3328d677fb0a59699,survey-likert,5627.0,,,,13,,,{'Q0': 2},[0],background,{'Q0': 2}
401,5fc3e4692ee48e75801407f2,curtain-display,,,,,5,,,,,,
402,651659b4017f7a6da9b60ded,curtain-display,,media/animal_stim/whitened/002_right_1.gif,media/animal_stim/whitened/002_right_2.gif,deviant,18,8.0,,,,,
403,605d880baff3193baf90c875,survey-multi-choice,3586.0,,,,48,,,{'education': 'Some high school'},[0],,{'education': 'Some high school'}
404,605d880baff3193baf90c875,fullscreen,,,,,49,,,,,,
405,60f2893b3b82491a793d2085,curtain-display,,media/animal_stim/whitened/002_left_1.gif,media/animal_stim/whitened/002_left_2.gif,all_background,24,8.0,,,,,
406,645518d454a9276752174fd6,curtain-display,885.0,media/animal_stim/whitened/004_right_2.gif,media/animal_stim/whitened/004_right_1.gif,all_background,20,0.0,1385.0,,,,
407,5ec31cab8be41217405324fc,preload,,,,,0,,,,,,
408,5ec31cab8be41217405324fc,preload,,,,,0,,,,,,
409,5e847ca988ac1c018e653765,survey-likert,7218.0,,,,13,,,{'Q0': 3},[0],background,{'Q0': 3}
410,5c431f3db00b3300018f3ce5,survey-likert,7314.0,,,,11,,,{'Q0': 1},[0],background,{'Q0': 1}
411,613aa9ee188e0f9351987678,curtain-display,,media/animal_stim/whitened/002_right_1.gif,media/animal_stim/whitened/002_left_2.gif,all_background,15,4.0,,,,,
412,603b0cceef3baf7b6df2d475,curtain-display,,media/animal_stim/whitened/004_right_1.gif,media/animal_stim/whitened/004_left_2.gif,all_background,22,4.0,,,,,
413,60e9b57da8550f28be62142d,instructions,6132.0,,,,2,,,,,,
414,60ee4a789df895b03c75495b,instructions,23900.0,,,,3,,,,,,
415,60c1889edf71db16c09529fc,curtain-display,4919.0,media/animal_stim/whitened/005_left_2.gif,media/animal_stim/whitened/005_left_1.gif,all_background,18,0.0,5419.0,,,,
416,603b0cceef3baf7b6df2d475,curtain-display,21163.0,media/animal_stim/whitened/004_right_1.gif,media/animal_stim/whitened/004_left_2.gif,all_background,23,4.0,21663.0,,,,
417,5e847ca988ac1c018e653765,curtain-display,420.0,media/animal_stim/whitened/003_right_1.gif,media/animal_stim/whitened/003_right_2.gif,deviant,14,0.0,920.0,,,,
418,5d6d82acab68f90001f53194,survey-likert,6071.0,,,,9,,,{'Q0': 2},[0],background,{'Q0': 2}
419,61491ef3328d677fb0a59699,curtain-display,,media/animal_stim/whitened/006_right_2.gif,media/animal_stim/whitened/006_right_1.gif,deviant,14,4.0,,,,,
420,645518d454a9276752174fd6,survey-likert,2467.0,,,,21,,,{'Q0': 0},[0],background,{'Q0': 0}
421,651659b4017f7a6da9b60ded,curtain-display,,media/animal_stim/whitened/002_right_1.gif,media/animal_stim/whitened/002_right_2.gif,deviant,19,8.0,,,,,
422,5c19da4c5ead950001bdbe86,instructions,25109.0,,,,3,,,,,,
423,60f2893b3b82491a793d2085,curtain-display,,media/animal_stim/whitened/002_left_1.gif,media/animal_stim/whitened/002_left_2.gif,all_background,25,8.0,,,,,
424,60476ecfdd72a724ee081741,survey-likert,4974.0,,,,23,,,{'Q0': 3},[0],background,{'Q0': 3}
425,648251f5f13f3cab9a86e5cc,curtain-display,7390.0,,,,6,,7890.0,,,,
426,5eb544fbef7dae3ce4d05d89,curtain-display,4254.0,media/animal_stim/whitened/006_left_1.gif,media/animal_stim/whitened/006_left_2.gif,all_background,22,4.0,4754.0,,,,
427,614bb4f23c6700d9c9675b7f,instructions,64733.0,,,,3,,,,,,
428,613aa9ee188e0f9351987678,curtain-display,,media/animal_stim/whitened/002_right_1.gif,media/animal_stim/whitened/002_left_2.gif,all_background,16,4.0,,,,,
429,5c431f3db00b3300018f3ce5,curtain-display,,media/animal_stim/whitened/002_left_1.gif,media/animal_stim/whitened/002_left_2.gif,deviant,12,8.0,,,,,
430,60ee4a789df895b03c75495b,curtain-display,,,,,4,,,,,,
431,60c1889edf71db16c09529fc,survey-likert,3383.0,,,,19,,,{'Q0': 3},[0],background,{'Q0': 3}
432,603b0cceef3baf7b6df2d475,curtain-display,,media/animal_stim/whitened/004_right_1.gif,media/animal_stim/whitened/004_left_2.gif,all_background,24,4.0,,,,,
433,61491ef3328d677fb0a59699,curtain-display,,media/animal_stim/whitened/006_right_2.gif,media/animal_stim/whitened/006_right_1.gif,deviant,15,4.0,,,,,
434,645518d454a9276752174fd6,curtain-display,,media/animal_stim/whitened/002_right_1.gif,media/animal_stim/whitened/002_right_2.gif,all_background,22,4.0,,,,,
435,651659b4017f7a6da9b60ded,curtain-display,,media/animal_stim/whitened/002_right_1.gif,media/animal_stim/whitened/002_right_2.gif,deviant,20,8.0,,,,,
436,5c19da4c5ead950001bdbe86,curtain-display,,,,,4,,,,,,
437,60f2893b3b82491a793d2085,curtain-display,,media/animal_stim/whitened/002_left_1.gif,media/animal_stim/whitened/002_left_2.gif,all_background,26,8.0,,,,,
438,5fc3e4692ee48e75801407f2,curtain-display,7071.0,,,,6,,7571.0,,,,
439,614bb4f23c6700d9c9675b7f,curtain-display,,,,,4,,,,,,
440,612e780e6c97ea0e89274e66,instructions,25177.0,,,,7,,,,,,
441,613aa9ee188e0f9351987678,curtain-display,,media/animal_stim/whitened/002_right_1.gif,media/animal_stim/whitened/002_left_2.gif,all_background,17,4.0,,,,,
442,5c431f3db00b3300018f3ce5,curtain-display,,media/animal_stim/whitened/002_left_1.gif,media/animal_stim/whitened/002_left_2.gif,deviant,13,8.0,,,,,
443,5fac2b70a5caa5166944b377,preload,,,,,0,,,,,,
444,5fac2b70a5caa5166944b377,preload,,,,,0,,,,,,
445,60ee4a789df895b03c75495b,curtain-display,,,,,5,,,,,,
446,5c60c298af517e0001a00b00,preload,,,,,0,,,,,,
447,5c60c298af517e0001a00b00,preload,,,,,0,,,,,,
448,603b0cceef3baf7b6df2d475,curtain-display,,media/animal_stim/whitened/004_right_1.gif,media/animal_stim/whitened/004_left_2.gif,all_background,25,4.0,,,,,
449,61491ef3328d677fb0a59699,curtain-display,,media/animal_stim/whitened/006_right_2.gif,media/animal_stim/whitened/006_right_1.gif,deviant,16,4.0,,,,,
450,645518d454a9276752174fd6,curtain-display,,media/animal_stim/whitened/002_right_1.gif,media/animal_stim/whitened/002_right_2.gif,all_background,23,4.0,,,,,
451,60309a142458094108f37f73,preload,,,,,0,,,,,,
452,60309a142458094108f37f73,preload,,,,,0,,,,,,
453,651659b4017f7a6da9b60ded,curtain-display,,media/animal_stim/whitened/002_right_1.gif,media/animal_stim/whitened/002_right_2.gif,deviant,21,8.0,,,,,
454,5c19da4c5ead950001bdbe86,curtain-display,,,,,5,,,,,,
455,60f2893b3b82491a793d2085,curtain-display,,media/animal_stim/whitened/002_left_1.gif,media/animal_stim/whitened/002_left_2.gif,all_background,27,8.0,,,,,
456,5e8df4ff41edd907ccc32428,curtain-display,,media/animal_stim/whitened/003_left_2.gif,media/animal_stim/whitened/003_left_1.gif,all_background,12,4.0,,,,,
457,60ee4a789df895b03c75495b,curtain-display,1325.0,,,,6,,1825.0,,,,
458,603b0cceef3baf7b6df2d475,curtain-display,845.0,media/animal_stim/whitened/004_right_1.gif,media/animal_stim/whitened/004_left_2.gif,all_background,26,4.0,1345.0,,,,
459,5e847ca988ac1c018e653765,survey-likert,8646.0,,,,15,,,{'Q0': 3},[0],background,{'Q0': 3}
460,613aa9ee188e0f9351987678,curtain-display,1798.0,media/animal_stim/whitened/002_right_1.gif,media/animal_stim/whitened/002_left_2.gif,all_background,18,4.0,2298.0,,,,
461,614bb4f23c6700d9c9675b7f,curtain-display,,,,,5,,,,,,
462,5fac2b70a5caa5166944b377,fullscreen,,,,,1,,,,,,
463,60c1889edf71db16c09529fc,curtain-display,5064.0,media/animal_stim/whitened/004_right_2.gif,media/animal_stim/whitened/004_left_1.gif,deviant,20,0.0,5564.0,,,,
464,612e780e6c97ea0e89274e66,curtain-display,,media/animal_stim/whitened/006_left_1.gif,media/animal_stim/whitened/006_right_2.gif,deviant,8,8.0,,,,,
465,5c431f3db00b3300018f3ce5,curtain-display,,media/animal_stim/whitened/002_left_1.gif,media/animal_stim/whitened/002_left_2.gif,deviant,14,8.0,,,,,
466,5eb544fbef7dae3ce4d05d89,survey-likert,8685.0,,,,23,,,{'Q0': 1},[0],background,{'Q0': 1}
467,60476ecfdd72a724ee081741,curtain-display,8040.0,media/animal_stim/whitened/005_right_2.gif,media/animal_stim/whitened/005_left_1.gif,deviant,24,0.0,8540.0,,,,
468,603b0cceef3baf7b6df2d475,survey-likert,1736.0,,,,27,,,{'Q0': 4},[0],background,{'Q0': 4}
469,60f2893b3b82491a793d2085,curtain-display,1201.0,media/animal_stim/whitened/002_left_1.gif,media/animal_stim/whitened/002_left_2.gif,all_background,28,8.0,1701.0,,,,
470,61491ef3328d677fb0a59699,curtain-display,,media/animal_stim/whitened/006_right_2.gif,media/animal_stim/whitened/006_right_1.gif,deviant,17,4.0,,,,,
471,645518d454a9276752174fd6,curtain-display,,media/animal_stim/whitened/002_right_1.gif,media/animal_stim/whitened/002_right_2.gif,all_background,24,4.0,,,,,
472,6154b3a7e4bc93e1ce93c6bc,instructions,27823.0,,,,7,,,,,,
473,651659b4017f7a6da9b60ded,curtain-display,,media/animal_stim/whitened/002_right_1.gif,media/animal_stim/whitened/002_right_2.gif,deviant,22,8.0,,,,,
474,60c1889edf71db16c09529fc,survey-likert,2234.0,,,,21,,,{'Q0': 1},[0],background,{'Q0': 1}
475,5c19da4c5ead950001bdbe86,curtain-display,2501.0,,,,6,,3001.0,,,,
476,5e847ca988ac1c018e653765,curtain-display,,media/animal_stim/whitened/005_right_2.gif,media/animal_stim/whitened/005_left_1.gif,all_background,16,8.0,,,,,
477,612e780e6c97ea0e89274e66,curtain-display,,media/animal_stim/whitened/006_left_1.gif,media/animal_stim/whitened/006_right_2.gif,deviant,9,8.0,,,,,
478,5c431f3db00b3300018f3ce5,curtain-display,,media/animal_stim/whitened/002_left_1.gif,media/animal_stim/whitened/002_left_2.gif,deviant,15,8.0,,,,,
479,60476ecfdd72a724ee081741,survey-likert,2876.0,,,,25,,,{'Q0': 2},[0],background,{'Q0': 2}
480,5d34d232468585001a1ea5f3,instructions,19249.0,,,,3,,,,,,
481,61491ef3328d677fb0a59699,curtain-display,1787.0,media/animal_stim/whitened/006_right_2.gif,media/animal_stim/whitened/006_right_1.gif,deviant,18,4.0,2287.0,,,,
482,603b0cceef3baf7b6df2d475,curtain-display,,media/animal_stim/whitened/002_left_2.gif,media/animal_stim/whitened/002_left_1.gif,deviant,28,4.0,,,,,
483,60f2893b3b82491a793d2085,survey-likert,3794.0,,,,29,,,{'Q0': 4},[0],background,{'Q0': 4}
484,645518d454a9276752174fd6,curtain-display,,media/animal_stim/whitened/002_right_1.gif,media/animal_stim/whitened/002_right_2.gif,all_background,25,4.0,,,,,
485,6154b3a7e4bc93e1ce93c6bc,curtain-display,,media/animal_stim/whitened/002_left_2.gif,media/animal_stim/whitened/002_right_1.gif,all_background,8,8.0,,,,,
486,651659b4017f7a6da9b60ded,curtain-display,,media/animal_stim/whitened/002_right_1.gif,media/animal_stim/whitened/002_right_2.gif,deviant,23,8.0,,,,,
487,60c1889edf71db16c09529fc,curtain-display,,media/animal_stim/whitened/001_left_2.gif,media/animal_stim/whitened/001_right_1.gif,deviant,22,4.0,,,,,
488,5d6d82acab68f90001f53194,curtain-display,,media/animal_stim/whitened/005_right_2.gif,media/animal_stim/whitened/005_left_1.gif,deviant,10,0.0,,,,,
489,5e847ca988ac1c018e653765,curtain-display,,media/animal_stim/whitened/005_right_2.gif,media/animal_stim/whitened/005_left_1.gif,all_background,17,8.0,,,,,
490,614f381c62a00a9deca37834,preload,,,,,0,,,,,,
491,614f381c62a00a9deca37834,preload,,,,,0,,,,,,
492,648251f5f13f3cab9a86e5cc,instructions,14378.0,,,,7,,,,,,
493,5e8df4ff41edd907ccc32428,survey-likert,7611.0,,,,13,,,{'Q0': 1},[0],background,{'Q0': 1}
494,612e780e6c97ea0e89274e66,curtain-display,,media/animal_stim/whitened/006_left_1.gif,media/animal_stim/whitened/006_right_2.gif,deviant,10,8.0,,,,,
495,5c431f3db00b3300018f3ce5,curtain-display,,media/animal_stim/whitened/002_left_1.gif,media/animal_stim/whitened/002_left_2.gif,deviant,16,8.0,,,,,
496,60476ecfdd72a724ee081741,curtain-display,,media/animal_stim/whitened/002_left_2.gif,media/animal_stim/whitened/002_left_1.gif,deviant,26,8.0,,,,,
497,5d34d232468585001a1ea5f3,curtain-display,,,,,4,,,,,,
498,603b0cceef3baf7b6df2d475,curtain-display,,media/animal_stim/whitened/002_left_2.gif,media/animal_stim/whitened/002_left_1.gif,deviant,29,4.0,,,,,
499,5fac2b70a5caa5166944b377,instructions,8661.0,,,,2,,,,,,
500,60f2893b3b82491a793d2085,curtain-display,,media/animal_stim/whitened/005_right_2.gif,media/animal_stim/whitened/005_left_1.gif,all_background,30,4.0,,,,,
501,5ea37cd0e9fb242ff94ccbc3,instructions,48730.0,,,,3,,,,,,
502,6154b3a7e4bc93e1ce93c6bc,curtain-display,,media/animal_stim/whitened/002_left_2.gif,media/animal_stim/whitened/002_right_1.gif,all_background,9,8.0,,,,,
503,651659b4017f7a6da9b60ded,curtain-display,,media/animal_stim/whitened/002_right_1.gif,media/animal_stim/whitened/002_right_2.gif,deviant,24,8.0,,,,,
504,5d6d82acab68f90001f53194,survey-likert,3072.0,,,,11,,,{'Q0': 3},[0],background,{'Q0': 3}
505,5eb544fbef7dae3ce4d05d89,curtain-display,7131.0,media/animal_stim/whitened/005_right_1.gif,media/animal_stim/whitened/005_left_2.gif,deviant,24,0.0,7631.0,,,,
506,60c1889edf71db16c09529fc,curtain-display,,media/animal_stim/whitened/001_left_2.gif,media/animal_stim/whitened/001_right_1.gif,deviant,23,4.0,,,,,
507,6455acfdaa3afdee4d88e231,preload,,,,,0,,,,,,
508,6455acfdaa3afdee4d88e231,preload,,,,,0,,,,,,
509,5e847ca988ac1c018e653765,curtain-display,,media/animal_stim/whitened/005_right_2.gif,media/animal_stim/whitened/005_left_1.gif,all_background,18,8.0,,,,,
510,613aa9ee188e0f9351987678,survey-likert,10663.0,,,,19,,,{'Q0': 2},[0],background,{'Q0': 2}
511,5e8df4ff41edd907ccc32428,curtain-display,,media/animal_stim/whitened/004_left_1.gif,media/animal_stim/whitened/004_left_2.gif,all_background,14,8.0,,,,,
512,5c431f3db00b3300018f3ce5,curtain-display,,media/animal_stim/whitened/002_left_1.gif,media/animal_stim/whitened/002_left_2.gif,deviant,17,8.0,,,,,
513,612e780e6c97ea0e89274e66,curtain-display,,media/animal_stim/whitened/006_left_1.gif,media/animal_stim/whitened/006_right_2.gif,deviant,11,8.0,,,,,
514,60476ecfdd72a724ee081741,curtain-display,,media/animal_stim/whitened/002_left_2.gif,media/animal_stim/whitened/002_left_1.gif,deviant,27,8.0,,,,,
515,5d34d232468585001a1ea5f3,curtain-display,,,,,5,,,,,,
516,614f381c62a00a9deca37834,fullscreen,,,,,1,,,,,,
517,5eb544fbef7dae3ce4d05d89,survey-likert,2002.0,,,,25,,,{'Q0': 3},[0],background,{'Q0': 3}
518,61491ef3328d677fb0a59699,survey-likert,7140.0,,,,19,,,{'Q0': 4},[0],background,{'Q0': 4}
519,603b0cceef3baf7b6df2d475,curtain-display,,media/animal_stim/whitened/002_left_2.gif,media/animal_stim/whitened/002_left_1.gif,deviant,30,4.0,,,,,
520,614bb4f23c6700d9c9675b7f,curtain-display,11053.0,,,,6,,11553.0,,,,
521,60f2893b3b82491a793d2085,curtain-display,,media/animal_stim/whitened/005_right_2.gif,media/animal_stim/whitened/005_left_1.gif,all_background,31,4.0,,,,,
522,5ea37cd0e9fb242ff94ccbc3,curtain-display,,,,,4,,,,,,
523,6154b3a7e4bc93e1ce93c6bc,curtain-display,,media/animal_stim/whitened/002_left_2.gif,media/animal_stim/whitened/002_right_1.gif,all_background,10,8.0,,,,,
524,651659b4017f7a6da9b60ded,curtain-display,,media/animal_stim/whitened/002_right_1.gif,media/animal_stim/whitened/002_right_2.gif,deviant,25,8.0,,,,,
525,5d6d82acab68f90001f53194,curtain-display,,media/animal_stim/whitened/001_right_2.gif,media/animal_stim/whitened/001_left_1.gif,all_background,12,4.0,,,,,
526,60c1889edf71db16c09529fc,curtain-display,,media/animal_stim/whitened/001_left_2.gif,media/animal_stim/whitened/001_right_1.gif,deviant,24,4.0,,,,,
527,648251f5f13f3cab9a86e5cc,curtain-display,5301.0,media/animal_stim/whitened/006_right_2.gif,media/animal_stim/whitened/006_left_1.gif,all_background,8,0.0,5801.0,,,,
528,645518d454a9276752174fd6,curtain-display,6845.0,media/animal_stim/whitened/002_right_1.gif,media/animal_stim/whitened/002_right_2.gif,all_background,26,4.0,7345.0,,,,
529,5e8348450e128b0539d77ddc,preload,,,,,0,,,,,,
530,5e8348450e128b0539d77ddc,preload,,,,,0,,,,,,
531,5e847ca988ac1c018e653765,curtain-display,,media/animal_stim/whitened/005_right_2.gif,media/animal_stim/whitened/005_left_1.gif,all_background,19,8.0,,,,,
532,5e8df4ff41edd907ccc32428,curtain-display,,media/animal_stim/whitened/004_left_1.gif,media/animal_stim/whitened/004_left_2.gif,all_background,15,8.0,,,,,
533,5c431f3db00b3300018f3ce5,curtain-display,,media/animal_stim/whitened/002_left_1.gif,media/animal_stim/whitened/002_left_2.gif,deviant,18,8.0,,,,,
534,612e780e6c97ea0e89274e66,curtain-display,,media/animal_stim/whitened/006_left_1.gif,media/animal_stim/whitened/006_right_2.gif,deviant,12,8.0,,,,,
535,60476ecfdd72a724ee081741,curtain-display,,media/animal_stim/whitened/002_left_2.gif,media/animal_stim/whitened/002_left_1.gif,deviant,28,8.0,,,,,
536,5d34d232468585001a1ea5f3,curtain-display,2522.0,,,,6,,3022.0,,,,
537,5eb544fbef7dae3ce4d05d89,curtain-display,,media/animal_stim/whitened/004_right_1.gif,media/animal_stim/whitened/004_left_2.gif,deviant,26,4.0,,,,,
538,6455acfdaa3afdee4d88e231,fullscreen,,,,,1,,,,,,
539,603b0cceef3baf7b6df2d475,curtain-display,,media/animal_stim/whitened/002_left_2.gif,media/animal_stim/whitened/002_left_1.gif,deviant,31,4.0,,,,,
540,61491ef3328d677fb0a59699,curtain-display,3210.0,media/animal_stim/whitened/002_right_1.gif,media/animal_stim/whitened/002_left_2.gif,all_background,20,0.0,3710.0,,,,
541,6154b3a7e4bc93e1ce93c6bc,curtain-display,,media/animal_stim/whitened/002_left_2.gif,media/animal_stim/whitened/002_right_1.gif,all_background,11,8.0,,,,,
542,5a0e34c4087f2e0001eaeb47,preload,,,,,0,,,,,,
543,5a0e34c4087f2e0001eaeb47,preload,,,,,0,,,,,,
544,5ea37cd0e9fb242ff94ccbc3,curtain-display,,,,,5,,,,,,
545,5d6d82acab68f90001f53194,curtain-display,,media/animal_stim/whitened/001_right_2.gif,media/animal_stim/whitened/001_left_1.gif,all_background,13,4.0,,,,,
546,60f2893b3b82491a793d2085,curtain-display,,media/animal_stim/whitened/005_right_2.gif,media/animal_stim/whitened/005_left_1.gif,all_background,32,4.0,,,,,
547,645518d454a9276752174fd6,survey-likert,3112.0,,,,27,,,{'Q0': 0},[0],background,{'Q0': 0}
548,60c1889edf71db16c09529fc,curtain-display,,media/animal_stim/whitened/001_left_2.gif,media/animal_stim/whitened/001_right_1.gif,deviant,25,4.0,,,,,
549,647896fae4473728c2db49cb,instructions,29796.0,,,,7,,,,,,
550,648251f5f13f3cab9a86e5cc,survey-likert,3841.0,,,,9,,,{'Q0': 2},[0],background,{'Q0': 2}
551,5e847ca988ac1c018e653765,curtain-display,,media/animal_stim/whitened/005_right_2.gif,media/animal_stim/whitened/005_left_1.gif,all_background,20,8.0,,,,,
552,60ee4a789df895b03c75495b,instructions,17837.0,,,,7,,,,,,
553,5e8df4ff41edd907ccc32428,curtain-display,,media/animal_stim/whitened/004_left_1.gif,media/animal_stim/whitened/004_left_2.gif,all_background,16,8.0,,,,,
554,5c431f3db00b3300018f3ce5,curtain-display,,media/animal_stim/whitened/002_left_1.gif,media/animal_stim/whitened/002_left_2.gif,deviant,19,8.0,,,,,
555,5fb7ba6eddba6439e8717276,preload,,,,,0,,,,,,
556,5fb7ba6eddba6439e8717276,preload,,,,,0,,,,,,
557,612e780e6c97ea0e89274e66,curtain-display,,media/animal_stim/whitened/006_left_1.gif,media/animal_stim/whitened/006_right_2.gif,deviant,13,8.0,,,,,
558,60476ecfdd72a724ee081741,curtain-display,,media/animal_stim/whitened/002_left_2.gif,media/animal_stim/whitened/002_left_1.gif,deviant,29,8.0,,,,,
559,5eb544fbef7dae3ce4d05d89,curtain-display,,media/animal_stim/whitened/004_right_1.gif,media/animal_stim/whitened/004_left_2.gif,deviant,27,4.0,,,,,
560,603b0cceef3baf7b6df2d475,curtain-display,2976.0,media/animal_stim/whitened/002_left_2.gif,media/animal_stim/whitened/002_left_1.gif,deviant,32,4.0,3476.0,,,,
561,60f2893b3b82491a793d2085,curtain-display,,media/animal_stim/whitened/005_right_2.gif,media/animal_stim/whitened/005_left_1.gif,all_background,33,4.0,,,,,
562,5e8348450e128b0539d77ddc,fullscreen,,,,,1,,,,,,
563,5d6d82acab68f90001f53194,curtain-display,27238.0,media/animal_stim/whitened/001_right_2.gif,media/animal_stim/whitened/001_left_1.gif,all_background,14,4.0,27738.0,,,,
564,5ea37cd0e9fb242ff94ccbc3,curtain-display,2282.0,,,,6,,2782.0,,,,
565,6154b3a7e4bc93e1ce93c6bc,curtain-display,,media/animal_stim/whitened/002_left_2.gif,media/animal_stim/whitened/002_right_1.gif,all_background,12,8.0,,,,,
566,645518d454a9276752174fd6,curtain-display,,media/animal_stim/whitened/001_right_2.gif,media/animal_stim/whitened/001_right_1.gif,deviant,28,4.0,,,,,
567,61491ef3328d677fb0a59699,survey-likert,4142.0,,,,21,,,{'Q0': 4},[0],background,{'Q0': 4}
568,647896fae4473728c2db49cb,curtain-display,,media/animal_stim/whitened/006_right_1.gif,media/animal_stim/whitened/006_left_2.gif,all_background,8,4.0,,,,,
569,651659b4017f7a6da9b60ded,curtain-display,6528.0,media/animal_stim/whitened/002_right_1.gif,media/animal_stim/whitened/002_right_2.gif,deviant,26,8.0,7028.0,,,,
570,648251f5f13f3cab9a86e5cc,curtain-display,,media/animal_stim/whitened/005_right_2.gif,media/animal_stim/whitened/005_right_1.gif,all_background,10,8.0,,,,,
571,5e847ca988ac1c018e653765,curtain-display,,media/animal_stim/whitened/005_right_2.gif,media/animal_stim/whitened/005_left_1.gif,all_background,21,8.0,,,,,
572,5e8df4ff41edd907ccc32428,curtain-display,,media/animal_stim/whitened/004_left_1.gif,media/animal_stim/whitened/004_left_2.gif,all_background,17,8.0,,,,,
573,5c60c298af517e0001a00b00,fullscreen,,,,,1,,,,,,
574,60f2893b3b82491a793d2085,curtain-display,1033.0,media/animal_stim/whitened/005_right_2.gif,media/animal_stim/whitened/005_left_1.gif,all_background,34,4.0,1533.0,,,,
575,5ee942381a22491bbb7170f8,instructions,57376.0,,,,3,,,,,,
576,60ee4a789df895b03c75495b,curtain-display,3102.0,media/animal_stim/whitened/001_left_2.gif,media/animal_stim/whitened/001_left_1.gif,all_background,8,0.0,3602.0,,,,
577,612e780e6c97ea0e89274e66,curtain-display,,media/animal_stim/whitened/006_left_1.gif,media/animal_stim/whitened/006_right_2.gif,deviant,14,8.0,,,,,
578,60476ecfdd72a724ee081741,curtain-display,,media/animal_stim/whitened/002_left_2.gif,media/animal_stim/whitened/002_left_1.gif,deviant,30,8.0,,,,,
579,5eb544fbef7dae3ce4d05d89,curtain-display,,media/animal_stim/whitened/004_right_1.gif,media/animal_stim/whitened/004_left_2.gif,deviant,28,4.0,,,,,
580,603b0cceef3baf7b6df2d475,survey-likert,3187.0,,,,33,,,{'Q0': 4},[0],background,{'Q0': 4}
581,5d6d82acab68f90001f53194,curtain-display,,media/animal_stim/whitened/001_right_2.gif,media/animal_stim/whitened/001_left_1.gif,all_background,15,4.0,,,,,
582,6154b3a7e4bc93e1ce93c6bc,curtain-display,,media/animal_stim/whitened/002_left_2.gif,media/animal_stim/whitened/002_right_1.gif,all_background,13,8.0,,,,,
583,645518d454a9276752174fd6,curtain-display,,media/animal_stim/whitened/001_right_2.gif,media/animal_stim/whitened/001_right_1.gif,deviant,29,4.0,,,,,
584,5a0e34c4087f2e0001eaeb47,fullscreen,,,,,1,,,,,,
585,651659b4017f7a6da9b60ded,survey-likert,3233.0,,,,27,,,{'Q0': 1},[0],background,{'Q0': 1}
586,61491ef3328d677fb0a59699,curtain-display,,media/animal_stim/whitened/003_left_2.gif,media/animal_stim/whitened/003_left_1.gif,deviant,22,8.0,,,,,
587,60c1889edf71db16c09529fc,curtain-display,6309.0,media/animal_stim/whitened/001_left_2.gif,media/animal_stim/whitened/001_right_1.gif,deviant,26,4.0,6809.0,,,,
588,5c431f3db00b3300018f3ce5,curtain-display,4826.0,media/animal_stim/whitened/002_left_1.gif,media/animal_stim/whitened/002_left_2.gif,deviant,20,8.0,5326.0,,,,
589,647896fae4473728c2db49cb,curtain-display,,media/animal_stim/whitened/006_right_1.gif,media/animal_stim/whitened/006_left_2.gif,all_background,9,4.0,,,,,
590,648251f5f13f3cab9a86e5cc,curtain-display,,media/animal_stim/whitened/005_right_2.gif,media/animal_stim/whitened/005_right_1.gif,all_background,11,8.0,,,,,
591,5ee942381a22491bbb7170f8,curtain-display,,,,,4,,,,,,
592,5e847ca988ac1c018e653765,curtain-display,,media/animal_stim/whitened/005_right_2.gif,media/animal_stim/whitened/005_left_1.gif,all_background,22,8.0,,,,,
593,5e8df4ff41edd907ccc32428,curtain-display,,media/animal_stim/whitened/004_left_1.gif,media/animal_stim/whitened/004_left_2.gif,all_background,18,8.0,,,,,
594,60476ecfdd72a724ee081741,curtain-display,,media/animal_stim/whitened/002_left_2.gif,media/animal_stim/whitened/002_left_1.gif,deviant,31,8.0,,,,,
595,612e780e6c97ea0e89274e66,curtain-display,,media/animal_stim/whitened/006_left_1.gif,media/animal_stim/whitened/006_right_2.gif,deviant,15,8.0,,,,,
596,5eb544fbef7dae3ce4d05d89,curtain-display,,media/animal_stim/whitened/004_right_1.gif,media/animal_stim/whitened/004_left_2.gif,deviant,29,4.0,,,,,
597,613aa9ee188e0f9351987678,curtain-display,,media/animal_stim/whitened/001_left_1.gif,media/animal_stim/whitened/001_left_2.gif,deviant,20,0.0,,,,,
598,60f2893b3b82491a793d2085,survey-likert,4025.0,,,,35,,,{'Q0': 3},[0],background,{'Q0': 3}
599,5fc3e4692ee48e75801407f2,instructions,29759.0,,,,7,,,,,,
600,603b0cceef3baf7b6df2d475,curtain-display,,media/animal_stim/whitened/006_right_1.gif,media/animal_stim/whitened/006_right_2.gif,deviant,34,8.0,,,,,
601,60c1889edf71db16c09529fc,survey-likert,2665.0,,,,27,,,{'Q0': 1},[0],background,{'Q0': 1}
602,5d6d82acab68f90001f53194,curtain-display,2713.0,media/animal_stim/whitened/001_right_2.gif,media/animal_stim/whitened/001_left_1.gif,all_background,16,4.0,3213.0,,,,
603,6154b3a7e4bc93e1ce93c6bc,curtain-display,,media/animal_stim/whitened/002_left_2.gif,media/animal_stim/whitened/002_right_1.gif,all_background,14,8.0,,,,,
604,645518d454a9276752174fd6,curtain-display,,media/animal_stim/whitened/001_right_2.gif,media/animal_stim/whitened/001_right_1.gif,deviant,30,4.0,,,,,
605,5fbaee508e8e9695f06fe52e,fullscreen,,,,,1,,,,,,
606,651659b4017f7a6da9b60ded,curtain-display,,media/animal_stim/whitened/001_left_1.gif,media/animal_stim/whitened/001_left_2.gif,all_background,28,8.0,,,,,
607,61491ef3328d677fb0a59699,curtain-display,,media/animal_stim/whitened/003_left_2.gif,media/animal_stim/whitened/003_left_1.gif,deviant,23,8.0,,,,,
608,647896fae4473728c2db49cb,curtain-display,,media/animal_stim/whitened/006_right_1.gif,media/animal_stim/whitened/006_left_2.gif,all_background,10,4.0,,,,,
609,60ee4a789df895b03c75495b,survey-likert,5811.0,,,,9,,,{'Q0': 1},[0],background,{'Q0': 1}
610,648251f5f13f3cab9a86e5cc,curtain-display,,media/animal_stim/whitened/005_right_2.gif,media/animal_stim/whitened/005_right_1.gif,all_background,12,8.0,,,,,
611,614f381c62a00a9deca37834,instructions,16471.0,,,,2,,,,,,
612,5ee942381a22491bbb7170f8,curtain-display,,,,,5,,,,,,
613,5fb7ba6eddba6439e8717276,fullscreen,,,,,1,,,,,,
614,5e847ca988ac1c018e653765,curtain-display,,media/animal_stim/whitened/005_right_2.gif,media/animal_stim/whitened/005_left_1.gif,all_background,23,8.0,,,,,
615,5e8df4ff41edd907ccc32428,curtain-display,,media/animal_stim/whitened/004_left_1.gif,media/animal_stim/whitened/004_left_2.gif,all_background,19,8.0,,,,,
616,5c431f3db00b3300018f3ce5,survey-likert,4282.0,,,,21,,,{'Q0': 0},[0],background,{'Q0': 0}
617,5fc3e4692ee48e75801407f2,curtain-display,1479.0,media/animal_stim/whitened/003_right_2.gif,media/animal_stim/whitened/003_right_1.gif,deviant,8,0.0,1979.0,,,,
618,5fbaee508e8e9695f06fe52e,instructions,1658.0,,,,2,,,,,,
619,60476ecfdd72a724ee081741,curtain-display,,media/animal_stim/whitened/002_left_2.gif,media/animal_stim/whitened/002_left_1.gif,deviant,32,8.0,,,,,
620,60f2893b3b82491a793d2085,curtain-display,,media/animal_stim/whitened/003_right_1.gif,media/animal_stim/whitened/003_left_2.gif,deviant,36,4.0,,,,,
621,5d6d82acab68f90001f53194,survey-likert,2347.0,,,,17,,,{'Q0': 1},[0],background,{'Q0': 1}
622,603b0cceef3baf7b6df2d475,curtain-display,,media/animal_stim/whitened/006_right_1.gif,media/animal_stim/whitened/006_right_2.gif,deviant,35,8.0,,,,,
623,613aa9ee188e0f9351987678,survey-likert,4205.0,,,,21,,,{'Q0': 3},[0],background,{'Q0': 3}
624,5c60c298af517e0001a00b00,instructions,8533.0,,,,2,,,,,,
625,60c1889edf71db16c09529fc,curtain-display,,media/animal_stim/whitened/003_right_2.gif,media/animal_stim/whitened/003_right_1.gif,all_background,28,4.0,,,,,
626,6154b3a7e4bc93e1ce93c6bc,curtain-display,,media/animal_stim/whitened/002_left_2.gif,media/animal_stim/whitened/002_right_1.gif,all_background,15,8.0,,,,,
627,645518d454a9276752174fd6,curtain-display,,media/animal_stim/whitened/001_right_2.gif,media/animal_stim/whitened/001_right_1.gif,deviant,31,4.0,,,,,
628,651659b4017f7a6da9b60ded,curtain-display,,media/animal_stim/whitened/001_left_1.gif,media/animal_stim/whitened/001_left_2.gif,all_background,29,8.0,,,,,
629,61491ef3328d677fb0a59699,curtain-display,,media/animal_stim/whitened/003_left_2.gif,media/animal_stim/whitened/003_left_1.gif,deviant,24,8.0,,,,,
630,647896fae4473728c2db49cb,curtain-display,,media/animal_stim/whitened/006_right_1.gif,media/animal_stim/whitened/006_left_2.gif,all_background,11,4.0,,,,,
631,60ee4a789df895b03c75495b,curtain-display,,media/animal_stim/whitened/002_right_1.gif,media/animal_stim/whitened/002_right_2.gif,deviant,10,8.0,,,,,
632,648251f5f13f3cab9a86e5cc,curtain-display,,media/animal_stim/whitened/005_right_2.gif,media/animal_stim/whitened/005_right_1.gif,all_background,13,8.0,,,,,
633,6154b3a7e4bc93e1ce93c6bc,curtain-display,121.0,media/animal_stim/whitened/002_left_2.gif,media/animal_stim/whitened/002_right_1.gif,all_background,16,8.0,621.0,,,,
634,5e8df4ff41edd907ccc32428,curtain-display,,media/animal_stim/whitened/004_left_1.gif,media/animal_stim/whitened/004_left_2.gif,all_background,20,8.0,,,,,
635,5c431f3db00b3300018f3ce5,curtain-display,,media/animal_stim/whitened/006_right_1.gif,media/animal_stim/whitened/006_right_2.gif,all_background,22,4.0,,,,,
636,5e8348450e128b0539d77ddc,instructions,12390.0,,,,2,,,,,,
637,645518d454a9276752174fd6,curtain-display,806.0,media/animal_stim/whitened/001_right_2.gif,media/animal_stim/whitened/001_right_1.gif,deviant,32,4.0,1306.0,,,,
638,60476ecfdd72a724ee081741,curtain-display,,media/animal_stim/whitened/002_left_2.gif,media/animal_stim/whitened/002_left_1.gif,deviant,33,8.0,,,,,
639,5eb544fbef7dae3ce4d05d89,curtain-display,5890.0,media/animal_stim/whitened/004_right_1.gif,media/animal_stim/whitened/004_left_2.gif,deviant,30,4.0,6390.0,,,,
640,5c19da4c5ead950001bdbe86,instructions,29872.0,,,,7,,,,,,
641,60f2893b3b82491a793d2085,curtain-display,,media/animal_stim/whitened/003_right_1.gif,media/animal_stim/whitened/003_left_2.gif,deviant,37,4.0,,,,,
642,5d6d82acab68f90001f53194,curtain-display,,media/animal_stim/whitened/004_right_2.gif,media/animal_stim/whitened/004_right_1.gif,deviant,18,8.0,,,,,
643,603b0cceef3baf7b6df2d475,curtain-display,,media/animal_stim/whitened/006_right_1.gif,media/animal_stim/whitened/006_right_2.gif,deviant,36,8.0,,,,,
644,613aa9ee188e0f9351987678,curtain-display,,media/animal_stim/whitened/004_left_1.gif,media/animal_stim/whitened/004_left_2.gif,all_background,22,8.0,,,,,
645,60c1889edf71db16c09529fc,curtain-display,,media/animal_stim/whitened/003_right_2.gif,media/animal_stim/whitened/003_right_1.gif,all_background,29,4.0,,,,,
646,651659b4017f7a6da9b60ded,curtain-display,,media/animal_stim/whitened/001_left_1.gif,media/animal_stim/whitened/001_left_2.gif,all_background,30,8.0,,,,,
647,61491ef3328d677fb0a59699,curtain-display,,media/animal_stim/whitened/003_left_2.gif,media/animal_stim/whitened/003_left_1.gif,deviant,25,8.0,,,,,
648,645518d454a9276752174fd6,survey-likert,2050.0,,,,33,,,{'Q0': 0},[0],background,{'Q0': 0}
649,613aa9ee188e0f9351987678,curtain-display,22940.0,media/animal_stim/whitened/004_left_1.gif,media/animal_stim/whitened/004_left_2.gif,all_background,23,8.0,23440.0,,,,
650,60ee4a789df895b03c75495b,curtain-display,,media/animal_stim/whitened/002_right_1.gif,media/animal_stim/whitened/002_right_2.gif,deviant,11,8.0,,,,,
651,5e847ca988ac1c018e653765,curtain-display,5390.0,media/animal_stim/whitened/005_right_2.gif,media/animal_stim/whitened/005_left_1.gif,all_background,24,8.0,5890.0,,,,
652,648251f5f13f3cab9a86e5cc,curtain-display,,media/animal_stim/whitened/005_right_2.gif,media/animal_stim/whitened/005_right_1.gif,all_background,14,8.0,,,,,
653,5f8dc5a637ef2911ed0450c0,preload,,,,,0,,,,,,
654,5f8dc5a637ef2911ed0450c0,preload,,,,,0,,,,,,
655,5fb7ba6eddba6439e8717276,instructions,7055.0,,,,2,,,,,,
656,5ee942381a22491bbb7170f8,curtain-display,6251.0,,,,6,,6751.0,,,,
657,5eb544fbef7dae3ce4d05d89,survey-likert,2772.0,,,,31,,,{'Q0': 1},[0],background,{'Q0': 1}
658,5e8df4ff41edd907ccc32428,curtain-display,,media/animal_stim/whitened/004_left_1.gif,media/animal_stim/whitened/004_left_2.gif,all_background,21,8.0,,,,,
659,647896fae4473728c2db49cb,curtain-display,3420.0,media/animal_stim/whitened/006_right_1.gif,media/animal_stim/whitened/006_left_2.gif,all_background,12,4.0,3920.0,,,,
660,5c431f3db00b3300018f3ce5,curtain-display,,media/animal_stim/whitened/006_right_1.gif,media/animal_stim/whitened/006_right_2.gif,all_background,23,4.0,,,,,
661,5fc3e4692ee48e75801407f2,survey-likert,7256.0,,,,9,,,{'Q0': 2},[0],background,{'Q0': 2}
662,5c19da4c5ead950001bdbe86,curtain-display,,media/animal_stim/whitened/006_left_1.gif,media/animal_stim/whitened/006_right_2.gif,all_background,8,4.0,,,,,
663,60f2893b3b82491a793d2085,curtain-display,,media/animal_stim/whitened/003_right_1.gif,media/animal_stim/whitened/003_left_2.gif,deviant,38,4.0,,,,,
664,5d6d82acab68f90001f53194,curtain-display,,media/animal_stim/whitened/004_right_2.gif,media/animal_stim/whitened/004_right_1.gif,deviant,19,8.0,,,,,
665,60c939c438c389b49847c08b,preload,,,,,0,,,,,,
666,60c939c438c389b49847c08b,preload,,,,,0,,,,,,
667,603b0cceef3baf7b6df2d475,curtain-display,,media/animal_stim/whitened/006_right_1.gif,media/animal_stim/whitened/006_right_2.gif,deviant,37,8.0,,,,,
668,6154b3a7e4bc93e1ce93c6bc,survey-likert,5500.0,,,,17,,,{'Q0': 1},[0],background,{'Q0': 1}
669,60c1889edf71db16c09529fc,curtain-display,,media/animal_stim/whitened/003_right_2.gif,media/animal_stim/whitened/003_right_1.gif,all_background,30,4.0,,,,,
670,651659b4017f7a6da9b60ded,curtain-display,,media/animal_stim/whitened/001_left_1.gif,media/animal_stim/whitened/001_left_2.gif,all_background,31,8.0,,,,,
671,61491ef3328d677fb0a59699,curtain-display,,media/animal_stim/whitened/003_left_2.gif,media/animal_stim/whitened/003_left_1.gif,deviant,26,8.0,,,,,
672,645518d454a9276752174fd6,curtain-display,,media/animal_stim/whitened/006_right_2.gif,media/animal_stim/whitened/006_right_1.gif,all_background,34,8.0,,,,,
673,613aa9ee188e0f9351987678,curtain-display,,media/animal_stim/whitened/004_left_1.gif,media/animal_stim/whitened/004_left_2.gif,all_background,24,8.0,,,,,
674,60ee4a789df895b03c75495b,curtain-display,,media/animal_stim/whitened/002_right_1.gif,media/animal_stim/whitened/002_right_2.gif,deviant,12,8.0,,,,,
675,648251f5f13f3cab9a86e5cc,curtain-display,,media/animal_stim/whitened/005_right_2.gif,media/animal_stim/whitened/005_right_1.gif,all_background,15,8.0,,,,,
676,5f8dc5a637ef2911ed0450c0,fullscreen,,,,,1,,,,,,
677,6455acfdaa3afdee4d88e231,instructions,23025.0,,,,2,,,,,,
678,5e847ca988ac1c018e653765,survey-likert,3993.0,,,,25,,,{'Q0': 2},[0],background,{'Q0': 2}
679,5eb544fbef7dae3ce4d05d89,curtain-display,,media/animal_stim/whitened/002_left_2.gif,media/animal_stim/whitened/002_right_1.gif,all_background,32,8.0,,,,,
680,5c431f3db00b3300018f3ce5,curtain-display,,media/animal_stim/whitened/006_right_1.gif,media/animal_stim/whitened/006_right_2.gif,all_background,24,4.0,,,,,
681,5fc3e4692ee48e75801407f2,curtain-display,,media/animal_stim/whitened/001_right_2.gif,media/animal_stim/whitened/001_left_1.gif,deviant,10,4.0,,,,,
682,5c19da4c5ead950001bdbe86,curtain-display,,media/animal_stim/whitened/006_left_1.gif,media/animal_stim/whitened/006_right_2.gif,all_background,9,4.0,,,,,
683,60f2893b3b82491a793d2085,curtain-display,,media/animal_stim/whitened/003_right_1.gif,media/animal_stim/whitened/003_left_2.gif,deviant,39,4.0,,,,,
684,5d6d82acab68f90001f53194,curtain-display,,media/animal_stim/whitened/004_right_2.gif,media/animal_stim/whitened/004_right_1.gif,deviant,20,8.0,,,,,
685,614bb4f23c6700d9c9675b7f,instructions,27850.0,,,,7,,,,,,
686,603b0cceef3baf7b6df2d475,curtain-display,,media/animal_stim/whitened/006_right_1.gif,media/animal_stim/whitened/006_right_2.gif,deviant,38,8.0,,,,,
687,612e780e6c97ea0e89274e66,curtain-display,,media/animal_stim/whitened/006_left_1.gif,media/animal_stim/whitened/006_right_2.gif,deviant,16,8.0,,,,,
688,6154b3a7e4bc93e1ce93c6bc,curtain-display,,media/animal_stim/whitened/003_right_1.gif,media/animal_stim/whitened/003_right_2.gif,deviant,18,8.0,,,,,
689,60c1889edf71db16c09529fc,curtain-display,,media/animal_stim/whitened/003_right_2.gif,media/animal_stim/whitened/003_right_1.gif,all_background,31,4.0,,,,,
690,651659b4017f7a6da9b60ded,curtain-display,,media/animal_stim/whitened/001_left_1.gif,media/animal_stim/whitened/001_left_2.gif,all_background,32,8.0,,,,,
691,61491ef3328d677fb0a59699,curtain-display,,media/animal_stim/whitened/003_left_2.gif,media/animal_stim/whitened/003_left_1.gif,deviant,27,8.0,,,,,
692,5d34d232468585001a1ea5f3,instructions,26486.0,,,,7,,,,,,
693,645518d454a9276752174fd6,curtain-display,,media/animal_stim/whitened/006_right_2.gif,media/animal_stim/whitened/006_right_1.gif,all_background,35,8.0,,,,,
694,613aa9ee188e0f9351987678,curtain-display,,media/animal_stim/whitened/004_left_1.gif,media/animal_stim/whitened/004_left_2.gif,all_background,25,8.0,,,,,
695,60ee4a789df895b03c75495b,curtain-display,,media/animal_stim/whitened/002_right_1.gif,media/animal_stim/whitened/002_right_2.gif,deviant,13,8.0,,,,,
696,648251f5f13f3cab9a86e5cc,curtain-display,,media/animal_stim/whitened/005_right_2.gif,media/animal_stim/whitened/005_right_1.gif,all_background,16,8.0,,,,,
697,60f2893b3b82491a793d2085,curtain-display,1349.0,media/animal_stim/whitened/003_right_1.gif,media/animal_stim/whitened/003_left_2.gif,deviant,40,4.0,1849.0,,,,
698,5e847ca988ac1c018e653765,curtain-display,,media/animal_stim/whitened/006_right_1.gif,media/animal_stim/whitened/006_left_2.gif,deviant,26,8.0,,,,,
699,5eb544fbef7dae3ce4d05d89,curtain-display,,media/animal_stim/whitened/002_left_2.gif,media/animal_stim/whitened/002_right_1.gif,all_background,33,8.0,,,,,
700,5c431f3db00b3300018f3ce5,curtain-display,,media/animal_stim/whitened/006_right_1.gif,media/animal_stim/whitened/006_right_2.gif,all_background,25,4.0,,,,,
701,5fc3e4692ee48e75801407f2,curtain-display,,media/animal_stim/whitened/001_right_2.gif,media/animal_stim/whitened/001_left_1.gif,deviant,11,4.0,,,,,
702,5c19da4c5ead950001bdbe86,curtain-display,,media/animal_stim/whitened/006_left_1.gif,media/animal_stim/whitened/006_right_2.gif,all_background,10,4.0,,,,,
703,5fac2b70a5caa5166944b377,instructions,32381.0,,,,3,,,,,,
704,5d6d82acab68f90001f53194,curtain-display,,media/animal_stim/whitened/004_right_2.gif,media/animal_stim/whitened/004_right_1.gif,deviant,21,8.0,,,,,
705,614bb4f23c6700d9c9675b7f,curtain-display,,media/animal_stim/whitened/002_left_1.gif,media/animal_stim/whitened/002_left_2.gif,all_background,8,8.0,,,,,
706,603b0cceef3baf7b6df2d475,curtain-display,,media/animal_stim/whitened/006_right_1.gif,media/animal_stim/whitened/006_right_2.gif,deviant,39,8.0,,,,,
707,6154b3a7e4bc93e1ce93c6bc,curtain-display,,media/animal_stim/whitened/003_right_1.gif,media/animal_stim/whitened/003_right_2.gif,deviant,19,8.0,,,,,
708,5f8dc5a637ef2911ed0450c0,instructions,6156.0,,,,2,,,,,,
709,5c431f3db00b3300018f3ce5,curtain-display,1142.0,media/animal_stim/whitened/006_right_1.gif,media/animal_stim/whitened/006_right_2.gif,all_background,26,4.0,1642.0,,,,
710,651659b4017f7a6da9b60ded,curtain-display,,media/animal_stim/whitened/001_left_1.gif,media/animal_stim/whitened/001_left_2.gif,all_background,33,8.0,,,,,
711,61491ef3328d677fb0a59699,curtain-display,,media/animal_stim/whitened/003_left_2.gif,media/animal_stim/whitened/003_left_1.gif,deviant,28,8.0,,,,,
712,5d34d232468585001a1ea5f3,curtain-display,,media/animal_stim/whitened/003_left_1.gif,media/animal_stim/whitened/003_right_2.gif,all_background,8,8.0,,,,,
713,645518d454a9276752174fd6,curtain-display,,media/animal_stim/whitened/006_right_2.gif,media/animal_stim/whitened/006_right_1.gif,all_background,36,8.0,,,,,
714,613aa9ee188e0f9351987678,curtain-display,,media/animal_stim/whitened/004_left_1.gif,media/animal_stim/whitened/004_left_2.gif,all_background,26,8.0,,,,,
715,60ee4a789df895b03c75495b,curtain-display,,media/animal_stim/whitened/002_right_1.gif,media/animal_stim/whitened/002_right_2.gif,deviant,14,8.0,,,,,
716,648251f5f13f3cab9a86e5cc,curtain-display,,media/animal_stim/whitened/005_right_2.gif,media/animal_stim/whitened/005_right_1.gif,all_background,17,8.0,,,,,
717,5e847ca988ac1c018e653765,curtain-display,,media/animal_stim/whitened/006_right_1.gif,media/animal_stim/whitened/006_left_2.gif,deviant,27,8.0,,,,,
718,5eb544fbef7dae3ce4d05d89,curtain-display,,media/animal_stim/whitened/002_left_2.gif,media/animal_stim/whitened/002_right_1.gif,all_background,34,8.0,,,,,
719,647896fae4473728c2db49cb,survey-likert,10684.0,,,,13,,,{'Q0': 1},[0],background,{'Q0': 1}
720,60f2893b3b82491a793d2085,survey-likert,4177.0,,,,41,,,{'Q0': 4},[0],background,{'Q0': 4}
721,5fc3e4692ee48e75801407f2,curtain-display,,media/animal_stim/whitened/001_right_2.gif,media/animal_stim/whitened/001_left_1.gif,deviant,12,4.0,,,,,
722,5c19da4c5ead950001bdbe86,curtain-display,,media/animal_stim/whitened/006_left_1.gif,media/animal_stim/whitened/006_right_2.gif,all_background,11,4.0,,,,,
723,5fac2b70a5caa5166944b377,curtain-display,,,,,4,,,,,,
724,5d6d82acab68f90001f53194,curtain-display,,media/animal_stim/whitened/004_right_2.gif,media/animal_stim/whitened/004_right_1.gif,deviant,22,8.0,,,,,
725,648251f5f13f3cab9a86e5cc,curtain-display,581.0,media/animal_stim/whitened/005_right_2.gif,media/animal_stim/whitened/005_right_1.gif,all_background,18,8.0,1081.0,,,,
726,614bb4f23c6700d9c9675b7f,curtain-display,,media/animal_stim/whitened/002_left_1.gif,media/animal_stim/whitened/002_left_2.gif,all_background,9,8.0,,,,,
727,603b0cceef3baf7b6df2d475,curtain-display,,media/animal_stim/whitened/006_right_1.gif,media/animal_stim/whitened/006_right_2.gif,deviant,40,8.0,,,,,
728,60476ecfdd72a724ee081741,curtain-display,,media/animal_stim/whitened/002_left_2.gif,media/animal_stim/whitened/002_left_1.gif,deviant,34,8.0,,,,,
729,5a0e34c4087f2e0001eaeb47,instructions,23900.0,,,,2,,,,,,
730,6154b3a7e4bc93e1ce93c6bc,curtain-display,,media/animal_stim/whitened/003_right_1.gif,media/animal_stim/whitened/003_right_2.gif,deviant,20,8.0,,,,,
731,55ba8f47fdf99b404ce2490d,preload,,,,,0,,,,,,
732,55ba8f47fdf99b404ce2490d,preload,,,,,0,,,,,,
733,651659b4017f7a6da9b60ded,curtain-display,,media/animal_stim/whitened/001_left_1.gif,media/animal_stim/whitened/001_left_2.gif,all_background,34,8.0,,,,,
734,61491ef3328d677fb0a59699,curtain-display,,media/animal_stim/whitened/003_left_2.gif,media/animal_stim/whitened/003_left_1.gif,deviant,29,8.0,,,,,
735,5d34d232468585001a1ea5f3,curtain-display,,media/animal_stim/whitened/003_left_1.gif,media/animal_stim/whitened/003_right_2.gif,all_background,9,8.0,,,,,
736,5c431f3db00b3300018f3ce5,survey-likert,3801.0,,,,27,,,{'Q0': 0},[0],background,{'Q0': 0}
737,645518d454a9276752174fd6,curtain-display,,media/animal_stim/whitened/006_right_2.gif,media/animal_stim/whitened/006_right_1.gif,all_background,37,8.0,,,,,
738,613aa9ee188e0f9351987678,curtain-display,,media/animal_stim/whitened/004_left_1.gif,media/animal_stim/whitened/004_left_2.gif,all_background,27,8.0,,,,,
739,60476ecfdd72a724ee081741,survey-likert,15179.0,,,,35,,15679.0,,,background,
740,60ee4a789df895b03c75495b,curtain-display,,media/animal_stim/whitened/002_right_1.gif,media/animal_stim/whitened/002_right_2.gif,deviant,15,8.0,,,,,
741,60c1889edf71db16c09529fc,curtain-display,7065.0,media/animal_stim/whitened/003_right_2.gif,media/animal_stim/whitened/003_right_1.gif,all_background,32,4.0,7565.0,,,,
742,5e847ca988ac1c018e653765,curtain-display,,media/animal_stim/whitened/006_right_1.gif,media/animal_stim/whitened/006_left_2.gif,deviant,28,8.0,,,,,
743,5eb544fbef7dae3ce4d05d89,curtain-display,,media/animal_stim/whitened/002_left_2.gif,media/animal_stim/whitened/002_right_1.gif,all_background,35,8.0,,,,,
744,612e780e6c97ea0e89274e66,survey-likert,9135.0,,,,17,,,{'Q0': 3},[0],background,{'Q0': 3}
745,647896fae4473728c2db49cb,curtain-display,,media/animal_stim/whitened/002_right_2.gif,media/animal_stim/whitened/002_right_1.gif,deviant,14,8.0,,,,,
746,648251f5f13f3cab9a86e5cc,survey-likert,2813.0,,,,19,,,{'Q0': 0},[0],background,{'Q0': 0}
747,5fc3e4692ee48e75801407f2,curtain-display,,media/animal_stim/whitened/001_right_2.gif,media/animal_stim/whitened/001_left_1.gif,deviant,13,4.0,,,,,
748,60f2893b3b82491a793d2085,curtain-display,2670.0,media/animal_stim/whitened/001_left_2.gif,media/animal_stim/whitened/001_right_1.gif,all_background,42,0.0,3170.0,,,,
749,5c19da4c5ead950001bdbe86,curtain-display,2450.0,media/animal_stim/whitened/006_left_1.gif,media/animal_stim/whitened/006_right_2.gif,all_background,12,4.0,2950.0,,,,
750,61491ef3328d677fb0a59699,curtain-display,861.0,media/animal_stim/whitened/003_left_2.gif,media/animal_stim/whitened/003_left_1.gif,deviant,30,8.0,1361.0,,,,
751,5d6d82acab68f90001f53194,curtain-display,,media/animal_stim/whitened/004_right_2.gif,media/animal_stim/whitened/004_right_1.gif,deviant,23,8.0,,,,,
752,5fac2b70a5caa5166944b377,curtain-display,,,,,5,,,,,,
753,5e8df4ff41edd907ccc32428,curtain-display,,media/animal_stim/whitened/004_left_1.gif,media/animal_stim/whitened/004_left_2.gif,all_background,22,8.0,,,,,
754,614bb4f23c6700d9c9675b7f,curtain-display,,media/animal_stim/whitened/002_left_1.gif,media/animal_stim/whitened/002_left_2.gif,all_background,10,8.0,,,,,
755,603b0cceef3baf7b6df2d475,curtain-display,,media/animal_stim/whitened/006_right_1.gif,media/animal_stim/whitened/006_right_2.gif,deviant,41,8.0,,,,,
756,6154b3a7e4bc93e1ce93c6bc,curtain-display,,media/animal_stim/whitened/003_right_1.gif,media/animal_stim/whitened/003_right_2.gif,deviant,21,8.0,,,,,
757,651659b4017f7a6da9b60ded,curtain-display,,media/animal_stim/whitened/001_left_1.gif,media/animal_stim/whitened/001_left_2.gif,all_background,35,8.0,,,,,
758,5d34d232468585001a1ea5f3,curtain-display,,media/animal_stim/whitened/003_left_1.gif,media/animal_stim/whitened/003_right_2.gif,all_background,10,8.0,,,,,
759,5c431f3db00b3300018f3ce5,curtain-display,,media/animal_stim/whitened/001_left_1.gif,media/animal_stim/whitened/001_right_2.gif,deviant,28,4.0,,,,,
760,645518d454a9276752174fd6,curtain-display,,media/animal_stim/whitened/006_right_2.gif,media/animal_stim/whitened/006_right_1.gif,all_background,38,8.0,,,,,
761,60c1889edf71db16c09529fc,survey-likert,3367.0,,,,33,,,{'Q0': 3},[0],background,{'Q0': 3}
762,613aa9ee188e0f9351987678,curtain-display,,media/animal_stim/whitened/004_left_1.gif,media/animal_stim/whitened/004_left_2.gif,all_background,28,8.0,,,,,
763,60476ecfdd72a724ee081741,curtain-display,,media/animal_stim/whitened/001_right_1.gif,media/animal_stim/whitened/001_left_2.gif,all_background,36,4.0,,,,,
764,60ee4a789df895b03c75495b,curtain-display,,media/animal_stim/whitened/002_right_1.gif,media/animal_stim/whitened/002_right_2.gif,deviant,16,8.0,,,,,
765,60f2893b3b82491a793d2085,survey-likert,2584.0,,,,43,,,{'Q0': 4},[0],background,{'Q0': 4}
766,6052978fd989c3a10f890c3a,preload,,,,,0,,,,,,
767,6052978fd989c3a10f890c3a,preload,,,,,0,,,,,,
768,5e847ca988ac1c018e653765,curtain-display,,media/animal_stim/whitened/006_right_1.gif,media/animal_stim/whitened/006_left_2.gif,deviant,29,8.0,,,,,
769,5fac2b70a5caa5166944b377,curtain-display,1508.0,,,,6,,2008.0,,,,
770,603b0cceef3baf7b6df2d475,curtain-display,1415.0,media/animal_stim/whitened/006_right_1.gif,media/animal_stim/whitened/006_right_2.gif,deviant,42,8.0,1915.0,,,,
771,647896fae4473728c2db49cb,curtain-display,,media/animal_stim/whitened/002_right_2.gif,media/animal_stim/whitened/002_right_1.gif,deviant,15,8.0,,,,,
772,5eb544fbef7dae3ce4d05d89,curtain-display,,media/animal_stim/whitened/002_left_2.gif,media/animal_stim/whitened/002_right_1.gif,all_background,36,8.0,,,,,
773,648251f5f13f3cab9a86e5cc,curtain-display,2949.0,media/animal_stim/whitened/001_right_1.gif,media/animal_stim/whitened/001_right_2.gif,deviant,20,0.0,3449.0,,,,
774,5d6d82acab68f90001f53194,curtain-display,,media/animal_stim/whitened/004_right_2.gif,media/animal_stim/whitened/004_right_1.gif,deviant,24,8.0,,,,,
775,60c939c438c389b49847c08b,fullscreen,,,,,1,,,,,,
776,614bb4f23c6700d9c9675b7f,curtain-display,,media/animal_stim/whitened/002_left_1.gif,media/animal_stim/whitened/002_left_2.gif,all_background,11,8.0,,,,,
777,5fc3e4692ee48e75801407f2,curtain-display,3226.0,media/animal_stim/whitened/001_right_2.gif,media/animal_stim/whitened/001_left_1.gif,deviant,14,4.0,3726.0,,,,
778,6154b3a7e4bc93e1ce93c6bc,curtain-display,,media/animal_stim/whitened/003_right_1.gif,media/animal_stim/whitened/003_right_2.gif,deviant,22,8.0,,,,,
779,60f2893b3b82491a793d2085,html-button-response,2401.0,,,,44,,,0,,,0
780,5f52942b758cc0573b0eab12,preload,,,,,0,,,,,,
781,5f52942b758cc0573b0eab12,preload,,,,,0,,,,,,
782,5d34d232468585001a1ea5f3,curtain-display,,media/animal_stim/whitened/003_left_1.gif,media/animal_stim/whitened/003_right_2.gif,all_background,11,8.0,,,,,
783,5c431f3db00b3300018f3ce5,curtain-display,,media/animal_stim/whitened/001_left_1.gif,media/animal_stim/whitened/001_right_2.gif,deviant,29,4.0,,,,,
784,645518d454a9276752174fd6,curtain-display,,media/animal_stim/whitened/006_right_2.gif,media/animal_stim/whitened/006_right_1.gif,all_background,39,8.0,,,,,
785,61491ef3328d677fb0a59699,survey-likert,5363.0,,,,31,,,{'Q0': 3},[0],background,{'Q0': 3}
786,613aa9ee188e0f9351987678,curtain-display,,media/animal_stim/whitened/004_left_1.gif,media/animal_stim/whitened/004_left_2.gif,all_background,29,8.0,,,,,
787,60c1889edf71db16c09529fc,curtain-display,,media/animal_stim/whitened/006_left_1.gif,media/animal_stim/whitened/006_left_2.gif,all_background,34,8.0,,,,,
788,60476ecfdd72a724ee081741,curtain-display,,media/animal_stim/whitened/001_right_1.gif,media/animal_stim/whitened/001_left_2.gif,all_background,37,4.0,,,,,
789,648251f5f13f3cab9a86e5cc,survey-likert,2014.0,,,,21,,,{'Q0': 2},[0],background,{'Q0': 2}
790,60ee4a789df895b03c75495b,curtain-display,,media/animal_stim/whitened/002_right_1.gif,media/animal_stim/whitened/002_right_2.gif,deviant,17,8.0,,,,,
791,603b0cceef3baf7b6df2d475,survey-likert,2616.0,,,,43,,,{'Q0': 4},[0],background,{'Q0': 4}
792,60e5e98326d94f93738053c5,preload,,,,,0,,,,,,
793,60e5e98326d94f93738053c5,preload,,,,,0,,,,,,
794,5eb544fbef7dae3ce4d05d89,curtain-display,,media/animal_stim/whitened/002_left_2.gif,media/animal_stim/whitened/002_right_1.gif,all_background,37,8.0,,,,,
795,5e847ca988ac1c018e653765,curtain-display,,media/animal_stim/whitened/006_right_1.gif,media/animal_stim/whitened/006_left_2.gif,deviant,30,8.0,,,,,
796,5fc3e4692ee48e75801407f2,survey-likert,2491.0,,,,15,,,{'Q0': 3},[0],background,{'Q0': 3}
797,647896fae4473728c2db49cb,curtain-display,,media/animal_stim/whitened/002_right_2.gif,media/animal_stim/whitened/002_right_1.gif,deviant,16,8.0,,,,,
798,651659b4017f7a6da9b60ded,curtain-display,3875.0,media/animal_stim/whitened/001_left_1.gif,media/animal_stim/whitened/001_left_2.gif,all_background,36,8.0,4375.0,,,,
799,5d6d82acab68f90001f53194,curtain-display,,media/animal_stim/whitened/004_right_2.gif,media/animal_stim/whitened/004_right_1.gif,deviant,25,8.0,,,,,
800,614bb4f23c6700d9c9675b7f,curtain-display,,media/animal_stim/whitened/002_left_1.gif,media/animal_stim/whitened/002_left_2.gif,all_background,12,8.0,,,,,
801,60f2893b3b82491a793d2085,survey-text,2256.0,,,,45,,,{'Q0': '21'},,,{'Q0': '21'}
802,5c60c298af517e0001a00b00,instructions,25742.0,,,,3,,,,,,
803,613aa9ee188e0f9351987678,curtain-display,1247.0,media/animal_stim/whitened/004_left_1.gif,media/animal_stim/whitened/004_left_2.gif,all_background,30,8.0,1747.0,,,,
804,603b0cceef3baf7b6df2d475,html-button-response,2237.0,,,,44,,,0,,,0
805,5c19da4c5ead950001bdbe86,survey-likert,8167.0,,,,13,,,{'Q0': 0},[0],background,{'Q0': 0}
806,6154b3a7e4bc93e1ce93c6bc,curtain-display,,media/animal_stim/whitened/003_right_1.gif,media/animal_stim/whitened/003_right_2.gif,deviant,23,8.0,,,,,
807,5d6d82acab68f90001f53194,curtain-display,134.0,media/animal_stim/whitened/004_right_2.gif,media/animal_stim/whitened/004_right_1.gif,deviant,26,8.0,634.0,,,,
808,651659b4017f7a6da9b60ded,survey-likert,1939.0,,,,37,,,{'Q0': 0},[0],background,{'Q0': 0}
809,5d34d232468585001a1ea5f3,curtain-display,,media/animal_stim/whitened/003_left_1.gif,media/animal_stim/whitened/003_right_2.gif,all_background,12,8.0,,,,,
810,601584d717cbb906851646b7,preload,,,,,0,,,,,,
811,645518d454a9276752174fd6,curtain-display,,media/animal_stim/whitened/006_right_2.gif,media/animal_stim/whitened/006_right_1.gif,all_background,40,8.0,,,,,
812,5c431f3db00b3300018f3ce5,curtain-display,,media/animal_stim/whitened/001_left_1.gif,media/animal_stim/whitened/001_right_2.gif,deviant,30,4.0,,,,,
813,601584d717cbb906851646b7,preload,,,,,0,,,,,,
814,61491ef3328d677fb0a59699,curtain-display,,media/animal_stim/whitened/004_right_2.gif,media/animal_stim/whitened/004_right_1.gif,all_background,32,8.0,,,,,
815,60c1889edf71db16c09529fc,curtain-display,,media/animal_stim/whitened/006_left_1.gif,media/animal_stim/whitened/006_left_2.gif,all_background,35,8.0,,,,,
816,60476ecfdd72a724ee081741,curtain-display,,media/animal_stim/whitened/001_right_1.gif,media/animal_stim/whitened/001_left_2.gif,all_background,38,4.0,,,,,
817,648251f5f13f3cab9a86e5cc,curtain-display,,media/animal_stim/whitened/002_left_2.gif,media/animal_stim/whitened/002_left_1.gif,all_background,22,4.0,,,,,
818,5ee942381a22491bbb7170f8,instructions,24221.0,,,,7,,,,,,
819,60ee4a789df895b03c75495b,curtain-display,3033.0,media/animal_stim/whitened/002_right_1.gif,media/animal_stim/whitened/002_right_2.gif,deviant,18,8.0,3533.0,,,,
820,60c939c438c389b49847c08b,instructions,5942.0,,,,2,,,,,,
821,5e847ca988ac1c018e653765,curtain-display,,media/animal_stim/whitened/006_right_1.gif,media/animal_stim/whitened/006_left_2.gif,deviant,31,8.0,,,,,
822,5fc3e4692ee48e75801407f2,curtain-display,,media/animal_stim/whitened/006_right_2.gif,media/animal_stim/whitened/006_right_1.gif,all_background,16,4.0,,,,,
823,647896fae4473728c2db49cb,curtain-display,,media/animal_stim/whitened/002_right_2.gif,media/animal_stim/whitened/002_right_1.gif,deviant,17,8.0,,,,,
824,613aa9ee188e0f9351987678,survey-likert,2586.0,,,,31,,,{'Q0': 0},[0],background,{'Q0': 0}
825,5eb544fbef7dae3ce4d05d89,curtain-display,,media/animal_stim/whitened/002_left_2.gif,media/animal_stim/whitened/002_right_1.gif,all_background,38,8.0,,,,,
826,614bb4f23c6700d9c9675b7f,curtain-display,,media/animal_stim/whitened/002_left_1.gif,media/animal_stim/whitened/002_left_2.gif,all_background,13,8.0,,,,,
827,60f2893b3b82491a793d2085,survey-multi-select,3867.0,,,,46,,,{'ethnicity': ['White']},[0],,{'ethnicity': ['White']}
828,5c60c298af517e0001a00b00,curtain-display,,,,,4,,,,,,
829,5ec31cab8be41217405324fc,fullscreen,,,,,1,,,,,,
830,614f381c62a00a9deca37834,instructions,31498.0,,,,3,,,,,,
831,5c19da4c5ead950001bdbe86,curtain-display,,media/animal_stim/whitened/001_left_2.gif,media/animal_stim/whitened/001_right_1.gif,deviant,14,4.0,,,,,
832,6154b3a7e4bc93e1ce93c6bc,curtain-display,,media/animal_stim/whitened/003_right_1.gif,media/animal_stim/whitened/003_right_2.gif,deviant,24,8.0,,,,,
833,5fbaee508e8e9695f06fe52e,instructions,31146.0,,,,3,,,,,,
834,651659b4017f7a6da9b60ded,curtain-display,,media/animal_stim/whitened/006_left_2.gif,media/animal_stim/whitened/006_right_1.gif,all_background,38,4.0,,,,,
835,5d34d232468585001a1ea5f3,curtain-display,,media/animal_stim/whitened/003_left_1.gif,media/animal_stim/whitened/003_right_2.gif,all_background,13,8.0,,,,,
836,5c431f3db00b3300018f3ce5,curtain-display,,media/animal_stim/whitened/001_left_1.gif,media/animal_stim/whitened/001_right_2.gif,deviant,31,4.0,,,,,
837,645518d454a9276752174fd6,curtain-display,,media/animal_stim/whitened/006_right_2.gif,media/animal_stim/whitened/006_right_1.gif,all_background,41,8.0,,,,,
838,61491ef3328d677fb0a59699,curtain-display,,media/animal_stim/whitened/004_right_2.gif,media/animal_stim/whitened/004_right_1.gif,all_background,33,8.0,,,,,
839,60c1889edf71db16c09529fc,curtain-display,,media/animal_stim/whitened/006_left_1.gif,media/animal_stim/whitened/006_left_2.gif,all_background,36,8.0,,,,,
840,60476ecfdd72a724ee081741,curtain-display,,media/animal_stim/whitened/001_right_1.gif,media/animal_stim/whitened/001_left_2.gif,all_background,39,4.0,,,,,
841,648251f5f13f3cab9a86e5cc,curtain-display,,media/animal_stim/whitened/002_left_2.gif,media/animal_stim/whitened/002_left_1.gif,all_background,23,4.0,,,,,
842,5ee942381a22491bbb7170f8,curtain-display,,media/animal_stim/whitened/006_right_1.gif,media/animal_stim/whitened/006_right_2.gif,deviant,8,8.0,,,,,
843,5ea37cd0e9fb242ff94ccbc3,instructions,43271.0,,,,7,,,,,,
844,5e847ca988ac1c018e653765,curtain-display,,media/animal_stim/whitened/006_right_1.gif,media/animal_stim/whitened/006_left_2.gif,deviant,32,8.0,,,,,
845,60ee4a789df895b03c75495b,survey-likert,3726.0,,,,19,,,{'Q0': 2},[0],background,{'Q0': 2}
846,5eb544fbef7dae3ce4d05d89,curtain-display,,media/animal_stim/whitened/002_left_2.gif,media/animal_stim/whitened/002_right_1.gif,all_background,39,8.0,,,,,
847,5fc3e4692ee48e75801407f2,curtain-display,,media/animal_stim/whitened/006_right_2.gif,media/animal_stim/whitened/006_right_1.gif,all_background,17,4.0,,,,,
848,647896fae4473728c2db49cb,curtain-display,,media/animal_stim/whitened/002_right_2.gif,media/animal_stim/whitened/002_right_1.gif,deviant,18,8.0,,,,,
849,5c431f3db00b3300018f3ce5,curtain-display,935.0,media/animal_stim/whitened/001_left_1.gif,media/animal_stim/whitened/001_right_2.gif,deviant,32,4.0,1435.0,,,,
850,614bb4f23c6700d9c9675b7f,curtain-display,,media/animal_stim/whitened/002_left_1.gif,media/animal_stim/whitened/002_left_2.gif,all_background,14,8.0,,,,,
851,60476ecfdd72a724ee081741,curtain-display,970.0,media/animal_stim/whitened/001_right_1.gif,media/animal_stim/whitened/001_left_2.gif,all_background,40,4.0,1470.0,,,,
852,612e780e6c97ea0e89274e66,curtain-display,,media/animal_stim/whitened/003_left_1.gif,media/animal_stim/whitened/003_left_2.gif,all_background,18,0.0,,,,,
853,5c60c298af517e0001a00b00,curtain-display,,,,,5,,,,,,
854,614f381c62a00a9deca37834,curtain-display,,,,,4,,,,,,
855,60f2893b3b82491a793d2085,survey-text,4083.0,,,,47,,,{'Q0': 'Male'},,,{'Q0': 'Male'}
856,5c19da4c5ead950001bdbe86,curtain-display,,media/animal_stim/whitened/001_left_2.gif,media/animal_stim/whitened/001_right_1.gif,deviant,15,4.0,,,,,
857,6154b3a7e4bc93e1ce93c6bc,curtain-display,,media/animal_stim/whitened/003_right_1.gif,media/animal_stim/whitened/003_right_2.gif,deviant,25,8.0,,,,,
858,5eb544fbef7dae3ce4d05d89,curtain-display,779.0,media/animal_stim/whitened/002_left_2.gif,media/animal_stim/whitened/002_right_1.gif,all_background,40,8.0,1279.0,,,,
859,601584d717cbb906851646b7,fullscreen,,,,,1,,,,,,
860,651659b4017f7a6da9b60ded,curtain-display,,media/animal_stim/whitened/006_left_2.gif,media/animal_stim/whitened/006_right_1.gif,all_background,39,4.0,,,,,
861,5fbaee508e8e9695f06fe52e,curtain-display,,,,,4,,,,,,
862,5c5e0399943a720001850c2e,preload,,,,,0,,,,,,
863,5c5e0399943a720001850c2e,preload,,,,,0,,,,,,
864,5d34d232468585001a1ea5f3,curtain-display,,media/animal_stim/whitened/003_left_1.gif,media/animal_stim/whitened/003_right_2.gif,all_background,14,8.0,,,,,
865,5d6d82acab68f90001f53194,survey-likert,7530.0,,,,27,,,{'Q0': 0},[0],background,{'Q0': 0}
866,60c1889edf71db16c09529fc,curtain-display,,media/animal_stim/whitened/006_left_1.gif,media/animal_stim/whitened/006_left_2.gif,all_background,37,8.0,,,,,
867,61491ef3328d677fb0a59699,curtain-display,,media/animal_stim/whitened/004_right_2.gif,media/animal_stim/whitened/004_right_1.gif,all_background,34,8.0,,,,,
868,648251f5f13f3cab9a86e5cc,curtain-display,,media/animal_stim/whitened/002_left_2.gif,media/animal_stim/whitened/002_left_1.gif,all_background,24,4.0,,,,,
869,5ee942381a22491bbb7170f8,curtain-display,,media/animal_stim/whitened/006_right_1.gif,media/animal_stim/whitened/006_right_2.gif,deviant,9,8.0,,,,,
870,5eb544fbef7dae3ce4d05d89,survey-likert,1374.0,,,,41,,,{'Q0': 0},[0],background,{'Q0': 0}
871,5e847ca988ac1c018e653765,curtain-display,,media/animal_stim/whitened/006_right_1.gif,media/animal_stim/whitened/006_left_2.gif,deviant,33,8.0,,,,,
872,60ee4a789df895b03c75495b,curtain-display,,media/animal_stim/whitened/005_left_1.gif,media/animal_stim/whitened/005_left_2.gif,all_background,20,4.0,,,,,
873,5fc3e4692ee48e75801407f2,curtain-display,,media/animal_stim/whitened/006_right_2.gif,media/animal_stim/whitened/006_right_1.gif,all_background,18,4.0,,,,,
874,647896fae4473728c2db49cb,curtain-display,,media/animal_stim/whitened/002_right_2.gif,media/animal_stim/whitened/002_right_1.gif,deviant,19,8.0,,,,,
875,614bb4f23c6700d9c9675b7f,curtain-display,,media/animal_stim/whitened/002_left_1.gif,media/animal_stim/whitened/002_left_2.gif,all_background,15,8.0,,,,,
876,645518d454a9276752174fd6,curtain-display,4691.0,media/animal_stim/whitened/006_right_2.gif,media/animal_stim/whitened/006_right_1.gif,all_background,42,8.0,5191.0,,,,
877,5c431f3db00b3300018f3ce5,survey-likert,3906.0,,,,33,,,{'Q0': 0},[0],background,{'Q0': 0}
878,614f381c62a00a9deca37834,curtain-display,,,,,5,,,,,,
879,5ec31cab8be41217405324fc,instructions,8095.0,,,,2,,,,,,
880,5c19da4c5ead950001bdbe86,curtain-display,,media/animal_stim/whitened/001_left_2.gif,media/animal_stim/whitened/001_right_1.gif,deviant,16,4.0,,,,,
881,612e780e6c97ea0e89274e66,survey-likert,4221.0,,,,19,,,{'Q0': 3},[0],background,{'Q0': 3}
882,5ea37cd0e9fb242ff94ccbc3,curtain-display,4985.0,media/animal_stim/whitened/001_right_1.gif,media/animal_stim/whitened/001_right_2.gif,all_background,8,0.0,5485.0,,,,
883,651659b4017f7a6da9b60ded,curtain-display,,media/animal_stim/whitened/006_left_2.gif,media/animal_stim/whitened/006_right_1.gif,all_background,40,4.0,,,,,
884,5fbaee508e8e9695f06fe52e,curtain-display,,,,,5,,,,,,
885,5d34d232468585001a1ea5f3,curtain-display,,media/animal_stim/whitened/003_left_1.gif,media/animal_stim/whitened/003_right_2.gif,all_background,15,8.0,,,,,
886,5d6d82acab68f90001f53194,curtain-display,,media/animal_stim/whitened/006_left_2.gif,media/animal_stim/whitened/006_left_1.gif,deviant,28,4.0,,,,,
887,60476ecfdd72a724ee081741,survey-likert,4867.0,,,,41,,,{'Q0': 1},[0],background,{'Q0': 1}
888,5e8df4ff41edd907ccc32428,survey-likert,19111.0,,,,23,,,{'Q0': 4},[0],background,{'Q0': 4}
889,61491ef3328d677fb0a59699,curtain-display,,media/animal_stim/whitened/004_right_2.gif,media/animal_stim/whitened/004_right_1.gif,all_background,35,8.0,,,,,
890,60c1889edf71db16c09529fc,curtain-display,,media/animal_stim/whitened/006_left_1.gif,media/animal_stim/whitened/006_left_2.gif,all_background,38,8.0,,,,,
891,648251f5f13f3cab9a86e5cc,curtain-display,,media/animal_stim/whitened/002_left_2.gif,media/animal_stim/whitened/002_left_1.gif,all_background,25,4.0,,,,,
892,603b0cceef3baf7b6df2d475,survey-text,11738.0,,,,45,,,{'Q0': '24'},,,{'Q0': '24'}
893,5ee942381a22491bbb7170f8,curtain-display,,media/animal_stim/whitened/006_right_1.gif,media/animal_stim/whitened/006_right_2.gif,deviant,10,8.0,,,,,
894,5e8348450e128b0539d77ddc,instructions,36119.0,,,,3,,,,,,
895,60ee4a789df895b03c75495b,curtain-display,,media/animal_stim/whitened/005_left_1.gif,media/animal_stim/whitened/005_left_2.gif,all_background,21,4.0,,,,,
896,5e847ca988ac1c018e653765,curtain-display,2523.0,media/animal_stim/whitened/006_right_1.gif,media/animal_stim/whitened/006_left_2.gif,deviant,34,8.0,3023.0,,,,
897,5fc3e4692ee48e75801407f2,curtain-display,,media/animal_stim/whitened/006_right_2.gif,media/animal_stim/whitened/006_right_1.gif,all_background,19,4.0,,,,,
898,647896fae4473728c2db49cb,curtain-display,,media/animal_stim/whitened/002_right_2.gif,media/animal_stim/whitened/002_right_1.gif,deviant,20,8.0,,,,,
