,subject,prolific_id,trial_type,rt,background,deviant,block_type,trial_index,fam_trial,total_rt,response,question_order,rating_type
0,SS1693371009535,,preload,,,,,0,,,,,
1,SS1693371009548,,preload,,,,,0,,,,,
2,SS1693371009548,,fullscreen,,,,,1,,,,,
3,SS1693371009548,,instructions,2825.0,,,,2,,,,,
4,SS1693371009548,,curtain-display,,media/animal_stim/whitened/006_left_1.gif,media/animal_stim/whitened/006_right_2.gif,all_background,3,1.0,,,,
5,SS1693371009548,,curtain-display,1950.0,media/animal_stim/whitened/006_left_1.gif,media/animal_stim/whitened/006_right_2.gif,all_background,4,1.0,2450.0,,,
6,SS1693371009548,,survey-likert,7441.0,,,,5,,,{'Q0': 2},[0],background
7,SS1693371009548,,curtain-display,,media/animal_stim/whitened/002_left_2.gif,media/animal_stim/whitened/002_right_1.gif,all_background,6,3.0,,,,
8,SS1693371009548,,curtain-display,,media/animal_stim/whitened/002_left_2.gif,media/animal_stim/whitened/002_right_1.gif,all_background,7,3.0,,,,
9,SS1693371009548,,curtain-display,,media/animal_stim/whitened/002_left_2.gif,media/animal_stim/whitened/002_right_1.gif,all_background,8,3.0,,,,
10,SS1693371009548,,curtain-display,1800.0,media/animal_stim/whitened/002_left_2.gif,media/animal_stim/whitened/002_right_1.gif,all_background,9,3.0,2300.0,,,
11,SS1693371009548,,survey-likert,1676.0,,,,10,,,{'Q0': 3},[0],background
12,SS1693371009548,,curtain-display,,media/animal_stim/whitened/005_right_2.gif,media/animal_stim/whitened/005_right_1.gif,all_background,11,9.0,,,,
13,SS1693371009548,,curtain-display,,media/animal_stim/whitened/005_right_2.gif,media/animal_stim/whitened/005_right_1.gif,all_background,12,9.0,,,,
14,SS1693371009548,,curtain-display,,media/animal_stim/whitened/005_right_2.gif,media/animal_stim/whitened/005_right_1.gif,all_background,13,9.0,,,,
15,SS1693371009548,,curtain-display,,media/animal_stim/whitened/005_right_2.gif,media/animal_stim/whitened/005_right_1.gif,all_background,14,9.0,,,,
16,SS1693371802779,,preload,,,,,0,,,,,
17,SS1693371802763,,preload,,,,,0,,,,,
18,SS1693371802779,,fullscreen,,,,,1,,,,,
19,SS1693371802779,,instructions,1205.0,,,,2,,,,,
20,SS1693372480563,,preload,,,,,0,,,,,
21,SS1693372480554,,preload,,,,,0,,,,,
22,SS1693372480563,,fullscreen,,,,,1,,,,,
23,SS1693371802779,,curtain-display,850109.0,media/animal_stim/whitened/006_right_1.gif,media/animal_stim/whitened/006_left_2.gif,all_background,4,1.0,850609.0,,,
24,SS1693417708126,,preload,,,,,0,,,,,
25,SS1693417708136,,preload,,,,,0,,,,,
26,SS1693417744875,,preload,,,,,0,,,,,
27,SS1693417744866,,preload,,,,,0,,,,,
28,SS1693418088872,,preload,,,,,0,,,,,
29,SS1693418088862,,preload,,,,,0,,,,,
30,SS1693418096867,,preload,,,,,0,,,,,
31,SS1693418096874,,preload,,,,,0,,,,,
32,SS1693458349629,,preload,,,,,0,,,,,
33,SS1693458349616,,preload,,,,,0,,,,,
34,SS1693458378625,,preload,,,,,0,,,,,
35,SS1693458378615,,preload,,,,,0,,,,,
36,SS1693458393620,,preload,,,,,0,,,,,
37,SS1693458393610,,preload,,,,,0,,,,,
38,SS1693458450625,,preload,,,,,0,,,,,
39,SS1693458450616,,preload,,,,,0,,,,,
40,SS1693491503549,,preload,,,,,0,,,,,
41,SS1693491503558,,preload,,,,,0,,,,,
42,SS1693492038560,,preload,,,,,0,,,,,
43,SS1693492038551,,preload,,,,,0,,,,,
44,SS1695409108942,,preload,,,,,0,,,,,
45,SS1695409108952,,preload,,,,,0,,,,,
46,SS1695409121223,,preload,,,,,0,,,,,
47,SS1695409121227,,preload,,,,,0,,,,,
48,SS1695409121227,,fullscreen,,,,,1,,,,,
49,SS1695409121227,,instructions,3168.0,,,,2,,,,,
50,SS1695409121227,,curtain-display,,media/animal_stim/whitened/005_left_2.gif,media/animal_stim/whitened/005_left_1.gif,all_background,3,1.0,,,,
51,SS1695409121227,,curtain-display,338.0,media/animal_stim/whitened/005_left_2.gif,media/animal_stim/whitened/005_left_1.gif,all_background,4,1.0,838.0,,,
52,SS1695409121227,,survey-likert,1961.0,,,,5,,,{'Q0': 2},[0],background
53,SS1695409121227,,curtain-display,,media/animal_stim/whitened/003_left_1.gif,media/animal_stim/whitened/003_right_2.gif,all_background,6,3.0,,,,
54,SS1695409121227,,curtain-display,,media/animal_stim/whitened/003_left_1.gif,media/animal_stim/whitened/003_right_2.gif,all_background,7,3.0,,,,
55,SS1695409121227,,curtain-display,,media/animal_stim/whitened/003_left_1.gif,media/animal_stim/whitened/003_right_2.gif,all_background,8,3.0,,,,
56,SS1695409121227,,curtain-display,1173.0,media/animal_stim/whitened/003_left_1.gif,media/animal_stim/whitened/003_right_2.gif,all_background,9,3.0,1673.0,,,
57,SS1695409121227,,survey-likert,107384.0,,,,10,,,{'Q0': 2},[0],background
58,SS1695409121227,,curtain-display,,media/animal_stim/whitened/001_right_1.gif,media/animal_stim/whitened/001_right_2.gif,all_background,11,9.0,,,,
59,SS1695409121227,,curtain-display,,media/animal_stim/whitened/001_right_1.gif,media/animal_stim/whitened/001_right_2.gif,all_background,12,9.0,,,,
60,SS1695409121227,,curtain-display,,media/animal_stim/whitened/001_right_1.gif,media/animal_stim/whitened/001_right_2.gif,all_background,13,9.0,,,,
61,SS1695409121227,,curtain-display,,media/animal_stim/whitened/001_right_1.gif,media/animal_stim/whitened/001_right_2.gif,all_background,14,9.0,,,,
62,SS1695409121227,,curtain-display,,media/animal_stim/whitened/001_right_1.gif,media/animal_stim/whitened/001_right_2.gif,all_background,15,9.0,,,,
63,SS1695409121227,,curtain-display,,media/animal_stim/whitened/001_right_1.gif,media/animal_stim/whitened/001_right_2.gif,all_background,16,9.0,,,,
64,SS1695409121227,,curtain-display,,media/animal_stim/whitened/001_right_1.gif,media/animal_stim/whitened/001_right_2.gif,all_background,17,9.0,,,,
65,SS1695409121227,,curtain-display,,media/animal_stim/whitened/001_right_1.gif,media/animal_stim/whitened/001_right_2.gif,all_background,18,9.0,,,,
66,SS1695409121227,,curtain-display,,media/animal_stim/whitened/001_right_1.gif,media/animal_stim/whitened/001_right_2.gif,all_background,19,9.0,,,,
67,SS1695409121227,,curtain-display,6462.0,media/animal_stim/whitened/001_right_1.gif,media/animal_stim/whitened/001_right_2.gif,all_background,20,9.0,6962.0,,,
68,SS1695409121227,,survey-likert,3247.0,,,,21,,,{'Q0': 3},[0],background
69,SS1695409121227,,curtain-display,,media/animal_stim/whitened/002_left_1.gif,media/animal_stim/whitened/002_right_2.gif,deviant,22,1.0,,,,
70,SS1695410238056,,preload,,,,,0,,,,,
71,SS1695410238064,,preload,,,,,0,,,,,
72,SS1695410487146,,preload,,,,,0,,,,,
73,SS1695410487156,,preload,,,,,0,,,,,
74,SS1695412754725,,preload,,,,,0,,,,,
75,SS1695412754735,,preload,,,,,0,,,,,
76,SS1695414157038,,preload,,,,,0,,,,,
77,SS1695414157042,,preload,,,,,0,,,,,
78,SS1695414381103,,preload,,,,,0,,,,,
79,SS1695414381107,,preload,,,,,0,,,,,
80,SS1695414381107,,fullscreen,,,,,1,,,,,
81,SS1695414381107,,instructions,1195.0,,,,2,,,,,
82,SS1695414381107,,curtain-display,,media/animal_stim/whitened/003_right_1.gif,media/animal_stim/whitened/003_right_2.gif,all_background,3,1.0,,,,
83,SS1695414381107,,curtain-display,209.0,media/animal_stim/whitened/003_right_1.gif,media/animal_stim/whitened/003_right_2.gif,all_background,4,1.0,709.0,,,
84,SS1695414381107,,survey-likert,2232.0,,,,5,,,{'Q0': 3},[0],background
85,SS1695414381107,,curtain-display,,media/animal_stim/whitened/005_left_1.gif,media/animal_stim/whitened/005_right_2.gif,all_background,6,3.0,,,,
86,SS1695414381107,,curtain-display,,media/animal_stim/whitened/005_left_1.gif,media/animal_stim/whitened/005_right_2.gif,all_background,7,3.0,,,,
87,SS1695414381107,,curtain-display,,media/animal_stim/whitened/005_left_1.gif,media/animal_stim/whitened/005_right_2.gif,all_background,8,3.0,,,,
88,SS1695414381107,,curtain-display,221.0,media/animal_stim/whitened/005_left_1.gif,media/animal_stim/whitened/005_right_2.gif,all_background,9,3.0,721.0,,,
89,SS1695414381107,,survey-likert,3765.0,,,,10,,,{'Q0': 1},[0],background
90,SS1695414381107,,curtain-display,,media/animal_stim/whitened/001_left_2.gif,media/animal_stim/whitened/001_right_1.gif,all_background,11,9.0,,,,
91,SS1695414381107,,curtain-display,,media/animal_stim/whitened/001_left_2.gif,media/animal_stim/whitened/001_right_1.gif,all_background,12,9.0,,,,
92,SS1695414381107,,curtain-display,,media/animal_stim/whitened/001_left_2.gif,media/animal_stim/whitened/001_right_1.gif,all_background,13,9.0,,,,
93,SS1695414381107,,curtain-display,,media/animal_stim/whitened/001_left_2.gif,media/animal_stim/whitened/001_right_1.gif,all_background,14,9.0,,,,
94,SS1695414381107,,curtain-display,,media/animal_stim/whitened/001_left_2.gif,media/animal_stim/whitened/001_right_1.gif,all_background,15,9.0,,,,
95,SS1695414381107,,curtain-display,,media/animal_stim/whitened/001_left_2.gif,media/animal_stim/whitened/001_right_1.gif,all_background,16,9.0,,,,
96,SS1695414381107,,curtain-display,,media/animal_stim/whitened/001_left_2.gif,media/animal_stim/whitened/001_right_1.gif,all_background,17,9.0,,,,
97,SS1695414381107,,curtain-display,,media/animal_stim/whitened/001_left_2.gif,media/animal_stim/whitened/001_right_1.gif,all_background,18,9.0,,,,
98,SS1695414381107,,curtain-display,,media/animal_stim/whitened/001_left_2.gif,media/animal_stim/whitened/001_right_1.gif,all_background,19,9.0,,,,
99,SS1695414381107,,curtain-display,22.0,media/animal_stim/whitened/001_left_2.gif,media/animal_stim/whitened/001_right_1.gif,all_background,20,9.0,522.0,,,
100,SS1695415515442,,preload,,,,,0,,,,,
101,SS1695415515454,,preload,,,,,0,,,,,
102,SS1695420029824,,preload,,,,,0,,,,,
103,SS1695420029832,,preload,,,,,0,,,,,
104,SS1695420085045,,preload,,,,,0,,,,,
105,SS1695420085051,,preload,,,,,0,,,,,
106,SS1695420417726,,preload,,,,,0,,,,,
107,SS1695420417732,,preload,,,,,0,,,,,
108,SS1695421411504,,preload,,,,,0,,,,,
109,SS1695421411509,,preload,,,,,0,,,,,
110,SS1695421563430,,preload,,,,,0,,,,,
111,SS1695421563435,,preload,,,,,0,,,,,
112,SS1695422604641,,preload,,,,,0,,,,,
113,SS1695422604646,,preload,,,,,0,,,,,
114,SS1695423057706,,preload,,,,,0,,,,,
115,SS1695423057714,,preload,,,,,0,,,,,
116,SS1695423184875,,preload,,,,,0,,,,,
117,SS1695423184881,,preload,,,,,0,,,,,
118,SS1695423262838,,preload,,,,,0,,,,,
119,SS1695423262843,,preload,,,,,0,,,,,
120,SS1695424860429,,preload,,,,,0,,,,,
121,SS1695424860437,,preload,,,,,0,,,,,
122,SS1695424932897,,preload,,,,,0,,,,,
123,SS1695424932902,,preload,,,,,0,,,,,
124,SS1695425043879,,preload,,,,,0,,,,,
125,SS1695425043883,,preload,,,,,0,,,,,
126,SS1695425458129,,preload,,,,,0,,,,,
127,SS1695425458136,,preload,,,,,0,,,,,
128,SS1695430997608,,preload,,,,,0,,,,,
129,SS1695430997616,,preload,,,,,0,,,,,
130,SS1695431965793,,preload,,,,,0,,,,,
131,SS1695431965800,,preload,,,,,0,,,,,
132,SS1695432923674,,preload,,,,,0,,,,,
133,SS1695432923684,,preload,,,,,0,,,,,
134,SS1695433800584,,preload,,,,,0,,,,,
135,SS1695433800589,,preload,,,,,0,,,,,
136,SS1695438769733,,preload,,,,,0,,,,,
137,SS1695438769740,,preload,,,,,0,,,,,
138,SS1695440303415,,preload,,,,,0,,,,,
139,SS1695440303423,,preload,,,,,0,,,,,
140,SS1695441320450,,preload,,,,,0,,,,,
141,SS1695441320455,,preload,,,,,0,,,,,
142,SS1695442046561,,preload,,,,,0,,,,,
143,SS1695442046568,,preload,,,,,0,,,,,
144,SS1695442506650,,preload,,,,,0,,,,,
145,SS1695442506657,,preload,,,,,0,,,,,
146,SS1695443050845,,preload,,,,,0,,,,,
147,SS1695443050853,,preload,,,,,0,,,,,
148,SS1695448169666,,preload,,,,,0,,,,,
149,SS1695448169674,,preload,,,,,0,,,,,
150,SS1695448545750,,preload,,,,,0,,,,,
151,SS1695448545756,,preload,,,,,0,,,,,
152,SS1695448610282,,preload,,,,,0,,,,,
153,SS1695448610287,,preload,,,,,0,,,,,
154,SS1695449701960,,preload,,,,,0,,,,,
155,SS1695449701968,,preload,,,,,0,,,,,
156,SS1695450482590,,preload,,,,,0,,,,,
157,SS1695450482598,,preload,,,,,0,,,,,
158,SS1695450858982,,preload,,,,,0,,,,,
159,SS1695450858989,,preload,,,,,0,,,,,
160,SS1695451062249,,preload,,,,,0,,,,,
161,SS1695451062256,,preload,,,,,0,,,,,
162,SS1695452570827,,preload,,,,,0,,,,,
163,SS1695452570834,,preload,,,,,0,,,,,
164,SS1695452700530,,preload,,,,,0,,,,,
165,SS1695452700536,,preload,,,,,0,,,,,
166,SS1695453208737,,preload,,,,,0,,,,,
167,SS1695453208745,,preload,,,,,0,,,,,
168,SS1695457519891,,preload,,,,,0,,,,,
169,SS1695457519897,,preload,,,,,0,,,,,
170,SS1695459831543,,preload,,,,,0,,,,,
171,SS1695459831550,,preload,,,,,0,,,,,
172,SS1695462380242,,preload,,,,,0,,,,,
173,SS1695462380248,,preload,,,,,0,,,,,
174,SS1695467492864,,preload,,,,,0,,,,,
175,SS1695467492868,,preload,,,,,0,,,,,
176,SS1695472000718,,preload,,,,,0,,,,,
177,SS1695472000729,,preload,,,,,0,,,,,
178,SS1695476837346,,preload,,,,,0,,,,,
179,SS1695476837352,,preload,,,,,0,,,,,
180,SS1695479221922,,preload,,,,,0,,,,,
181,SS1695479221928,,preload,,,,,0,,,,,
182,SS1695481389807,,preload,,,,,0,,,,,
183,SS1695481389817,,preload,,,,,0,,,,,
184,SS1695482347173,,preload,,,,,0,,,,,
185,SS1695482347180,,preload,,,,,0,,,,,
186,SS1695482927603,,preload,,,,,0,,,,,
187,SS1695482927611,,preload,,,,,0,,,,,
188,SS1695488070817,,preload,,,,,0,,,,,
189,SS1695488070828,,preload,,,,,0,,,,,
190,SS1695490012736,,preload,,,,,0,,,,,
191,SS1695490012745,,preload,,,,,0,,,,,
192,SS1695493744085,,preload,,,,,0,,,,,
193,SS1695493744091,,preload,,,,,0,,,,,
194,SS1695493985428,,preload,,,,,0,,,,,
195,SS1695493985436,,preload,,,,,0,,,,,
196,SS1695494491410,,preload,,,,,0,,,,,
197,SS1695494491417,,preload,,,,,0,,,,,
198,SS1695497128180,,preload,,,,,0,,,,,
199,SS1695497128187,,preload,,,,,0,,,,,
200,SS1695497204885,,preload,,,,,0,,,,,
201,SS1695497204891,,preload,,,,,0,,,,,
202,SS1695497355363,,preload,,,,,0,,,,,
203,SS1695497355368,,preload,,,,,0,,,,,
204,SS1695497436370,,preload,,,,,0,,,,,
205,SS1695497436378,,preload,,,,,0,,,,,
206,SS1695497611199,,preload,,,,,0,,,,,
207,SS1695497611205,,preload,,,,,0,,,,,
208,SS1695500414688,,preload,,,,,0,,,,,
209,SS1695500414695,,preload,,,,,0,,,,,
210,SS1695500694269,,preload,,,,,0,,,,,
211,SS1695500694276,,preload,,,,,0,,,,,
212,SS1695501448290,,preload,,,,,0,,,,,
213,SS1695501448296,,preload,,,,,0,,,,,
214,SS1695502192906,,preload,,,,,0,,,,,
215,SS1695502192917,,preload,,,,,0,,,,,
216,SS1695502348636,,preload,,,,,0,,,,,
217,SS1695502348641,,preload,,,,,0,,,,,
218,SS1695504041088,,preload,,,,,0,,,,,
219,SS1695504041093,,preload,,,,,0,,,,,
220,SS1695507014544,,preload,,,,,0,,,,,
221,SS1695507014549,,preload,,,,,0,,,,,
222,SS1695507071126,,preload,,,,,0,,,,,
223,SS1695507071131,,preload,,,,,0,,,,,
224,SS1695508311434,,preload,,,,,0,,,,,
225,SS1695508311437,,preload,,,,,0,,,,,
226,SS1695508396048,,preload,,,,,0,,,,,
227,SS1695508396056,,preload,,,,,0,,,,,
228,SS1695508497614,,preload,,,,,0,,,,,
229,SS1695508497620,,preload,,,,,0,,,,,
230,SS1695508854829,,preload,,,,,0,,,,,
231,SS1695508854836,,preload,,,,,0,,,,,
232,SS1695509005672,,preload,,,,,0,,,,,
233,SS1695509005675,,preload,,,,,0,,,,,
234,SS1695509087502,,preload,,,,,0,,,,,
235,SS1695509087506,,preload,,,,,0,,,,,
236,SS1695509198947,,preload,,,,,0,,,,,
237,SS1695509198951,,preload,,,,,0,,,,,
238,SS1695509393105,,preload,,,,,0,,,,,
239,SS1695509393111,,preload,,,,,0,,,,,
240,SS1695509621113,,preload,,,,,0,,,,,
241,SS1695509621118,,preload,,,,,0,,,,,
242,SS1695509821618,,preload,,,,,0,,,,,
243,SS1695509821621,,preload,,,,,0,,,,,
244,SS1695510010358,,preload,,,,,0,,,,,
245,SS1695510010364,,preload,,,,,0,,,,,
246,SS1695510184202,,preload,,,,,0,,,,,
247,SS1695510184208,,preload,,,,,0,,,,,
248,SS1695510386724,,preload,,,,,0,,,,,
249,SS1695510386729,,preload,,,,,0,,,,,
250,SS1695510592488,,preload,,,,,0,,,,,
251,SS1695510592493,,preload,,,,,0,,,,,
252,SS1695510778237,,preload,,,,,0,,,,,
253,SS1695510778243,,preload,,,,,0,,,,,
254,SS1695510971462,,preload,,,,,0,,,,,
255,SS1695510971468,,preload,,,,,0,,,,,
256,SS1695511138035,,preload,,,,,0,,,,,
257,SS1695511138040,,preload,,,,,0,,,,,
258,SS1695511332428,,preload,,,,,0,,,,,
259,SS1695511332434,,preload,,,,,0,,,,,
260,SS1695511495096,,preload,,,,,0,,,,,
261,SS1695511495100,,preload,,,,,0,,,,,
262,SS1695512195638,,preload,,,,,0,,,,,
263,SS1695512195645,,preload,,,,,0,,,,,
264,SS1695513167365,,preload,,,,,0,,,,,
265,SS1695513167371,,preload,,,,,0,,,,,
266,SS1695515206260,,preload,,,,,0,,,,,
267,SS1695515206265,,preload,,,,,0,,,,,
268,SS1695515218273,,preload,,,,,0,,,,,
269,SS1695515218283,,preload,,,,,0,,,,,
270,SS1695515587570,,preload,,,,,0,,,,,
271,SS1695515587576,,preload,,,,,0,,,,,
272,SS1695518194779,,preload,,,,,0,,,,,
273,SS1695518194785,,preload,,,,,0,,,,,
274,SS1695518270808,,preload,,,,,0,,,,,
275,SS1695518270812,,preload,,,,,0,,,,,
276,SS1695518508738,,preload,,,,,0,,,,,
277,SS1695518508743,,preload,,,,,0,,,,,
278,SS1695521513989,,preload,,,,,0,,,,,
279,SS1695521513996,,preload,,,,,0,,,,,
280,SS1695522639023,,preload,,,,,0,,,,,
281,SS1695522639027,,preload,,,,,0,,,,,
282,SS1695523147109,,preload,,,,,0,,,,,
283,SS1695523147117,,preload,,,,,0,,,,,
284,SS1695523526435,,preload,,,,,0,,,,,
285,SS1695523526442,,preload,,,,,0,,,,,
286,SS1695523583624,,preload,,,,,0,,,,,
287,SS1695523583629,,preload,,,,,0,,,,,
288,SS1695523698355,,preload,,,,,0,,,,,
289,SS1695523698360,,preload,,,,,0,,,,,
290,SS1695528826331,,preload,,,,,0,,,,,
291,SS1695528826336,,preload,,,,,0,,,,,
292,SS1695532111378,,preload,,,,,0,,,,,
293,SS1695532111385,,preload,,,,,0,,,,,
294,SS1695532890149,,preload,,,,,0,,,,,
295,SS1695532890156,,preload,,,,,0,,,,,
296,SS1695538018411,,preload,,,,,0,,,,,
297,SS1695538018414,,preload,,,,,0,,,,,
298,SS1695538441142,,preload,,,,,0,,,,,
299,SS1695538441148,,preload,,,,,0,,,,,
300,SS1695540782413,,preload,,,,,0,,,,,
301,SS1695540782420,,preload,,,,,0,,,,,
302,SS1695541736713,,preload,,,,,0,,,,,
303,SS1695541736718,,preload,,,,,0,,,,,
304,SS1695542129518,,preload,,,,,0,,,,,
305,SS1695542129523,,preload,,,,,0,,,,,
306,SS1695542419088,,preload,,,,,0,,,,,
307,SS1695542419094,,preload,,,,,0,,,,,
308,SS1695542742567,,preload,,,,,0,,,,,
309,SS1695542742573,,preload,,,,,0,,,,,
310,SS1695543384105,,preload,,,,,0,,,,,
311,SS1695543384109,,preload,,,,,0,,,,,
312,SS1695548555134,,preload,,,,,0,,,,,
313,SS1695548555140,,preload,,,,,0,,,,,
314,SS1695552572988,,preload,,,,,0,,,,,
315,SS1695552573006,,preload,,,,,0,,,,,
316,SS1695557730615,,preload,,,,,0,,,,,
317,SS1695557730623,,preload,,,,,0,,,,,
318,SS1695562590329,,preload,,,,,0,,,,,
319,SS1695562590335,,preload,,,,,0,,,,,
320,SS1695565884626,,preload,,,,,0,,,,,
321,SS1695565884631,,preload,,,,,0,,,,,
322,SS1695568020485,,preload,,,,,0,,,,,
323,SS1695568020491,,preload,,,,,0,,,,,
324,SS1695568788217,,preload,,,,,0,,,,,
325,SS1695568788221,,preload,,,,,0,,,,,
326,SS1695569051049,,preload,,,,,0,,,,,
327,SS1695569051054,,preload,,,,,0,,,,,
328,SS1695570457352,,preload,,,,,0,,,,,
329,SS1695570457359,,preload,,,,,0,,,,,
330,SS1695575022534,,preload,,,,,0,,,,,
331,SS1695575022541,,preload,,,,,0,,,,,
332,SS1695577909714,,preload,,,,,0,,,,,
333,SS1695577909718,,preload,,,,,0,,,,,
334,SS1695578582963,,preload,,,,,0,,,,,
335,SS1695578582969,,preload,,,,,0,,,,,
336,SS1695578645837,,preload,,,,,0,,,,,
337,SS1695578645946,,preload,,,,,0,,,,,
338,SS1695581837043,,preload,,,,,0,,,,,
339,SS1695581837050,,preload,,,,,0,,,,,
340,SS1695582529715,,preload,,,,,0,,,,,
341,SS1695582529720,,preload,,,,,0,,,,,
342,SS1695582606963,,preload,,,,,0,,,,,
343,SS1695582606968,,preload,,,,,0,,,,,
344,SS1695584474782,,preload,,,,,0,,,,,
345,SS1695584474786,,preload,,,,,0,,,,,
346,SS1695584692291,,preload,,,,,0,,,,,
347,SS1695584692296,,preload,,,,,0,,,,,
348,SS1695588858832,,preload,,,,,0,,,,,
349,SS1695588858837,,preload,,,,,0,,,,,
350,SS1695592865387,,preload,,,,,0,,,,,
351,SS1695592865393,,preload,,,,,0,,,,,
352,SS1695592945162,,preload,,,,,0,,,,,
353,SS1695592945167,,preload,,,,,0,,,,,
354,SS1695593816709,,preload,,,,,0,,,,,
355,SS1695593816713,,preload,,,,,0,,,,,
356,SS1695594622688,,preload,,,,,0,,,,,
357,SS1695594622694,,preload,,,,,0,,,,,
358,SS1695594909680,,preload,,,,,0,,,,,
359,SS1695594909685,,preload,,,,,0,,,,,
360,SS1695597061699,,preload,,,,,0,,,,,
361,SS1695597061703,,preload,,,,,0,,,,,
362,SS1695605679306,,preload,,,,,0,,,,,
363,SS1695605679311,,preload,,,,,0,,,,,
364,SS1695609737873,,preload,,,,,0,,,,,
365,SS1695609737877,,preload,,,,,0,,,,,
366,SS1695616538738,,preload,,,,,0,,,,,
367,SS1695616538743,,preload,,,,,0,,,,,
368,SS1695618025875,,preload,,,,,0,,,,,
369,SS1695618025879,,preload,,,,,0,,,,,
370,SS1695618699255,,preload,,,,,0,,,,,
371,SS1695618699260,,preload,,,,,0,,,,,
372,SS1695624310771,,preload,,,,,0,,,,,
373,SS1695624310775,,preload,,,,,0,,,,,
374,SS1695627147057,,preload,,,,,0,,,,,
375,SS1695627147060,,preload,,,,,0,,,,,
376,SS1695640884315,,preload,,,,,0,,,,,
377,SS1695640884321,,preload,,,,,0,,,,,
378,SS1695646928760,,preload,,,,,0,,,,,
379,SS1695646928768,,preload,,,,,0,,,,,
380,SS1695655607751,,preload,,,,,0,,,,,
381,SS1695655607754,,preload,,,,,0,,,,,
382,SS1695656733249,,preload,,,,,0,,,,,
383,SS1695656733253,,preload,,,,,0,,,,,
384,SS1695659264881,,preload,,,,,0,,,,,
385,SS1695659264888,,preload,,,,,0,,,,,
386,SS1696309724640,,preload,,,,,0,,,,,
387,SS1696309724635,,preload,,,,,0,,,,,
388,SS1696309724640,,fullscreen,,,,,1,,,,,
389,SS1696309724640,,instructions,684.0,,,,2,,,,,
390,SS1696309724640,,curtain-display,,media/animal_stim/whitened/006_left_2.gif,media/animal_stim/whitened/006_right_1.gif,all_background,3,1.0,,,,
391,SS1696357295459,,preload,,,,,0,,,,,
392,SS1696357295454,,preload,,,,,0,,,,,
393,SS1696357295459,,fullscreen,,,,,1,,,,,
394,SS1696357295459,,instructions,1680.0,,,,2,,,,,
395,SS1696357295459,,instructions,1989.0,,,,3,,,,,
396,SS1696357295459,,curtain-display,,,,,4,,,,,
397,SS1696357295459,,curtain-display,,,,,5,,,,,
398,SS1696357295459,,curtain-display,359.0,,,,6,,859.0,,,
399,SS1696357295459,,instructions,4559.0,,,,7,,,,,
400,SS1696357295459,,curtain-display,,media/animal_stim/whitened/006_right_1.gif,media/animal_stim/whitened/006_right_2.gif,all_background,8,1.0,,,,
401,SS1696357295459,,curtain-display,464.0,media/animal_stim/whitened/006_right_1.gif,media/animal_stim/whitened/006_right_2.gif,all_background,9,1.0,964.0,,,
402,SS1696357295459,,survey-likert,44243.0,,,,10,,,{'Q0': 3},[0],background
403,SS1696357295459,,curtain-display,,media/animal_stim/whitened/004_right_2.gif,media/animal_stim/whitened/004_left_1.gif,all_background,11,3.0,,,,
404,SS1696357295459,,curtain-display,,media/animal_stim/whitened/004_right_2.gif,media/animal_stim/whitened/004_left_1.gif,all_background,12,3.0,,,,
405,SS1696357295459,,curtain-display,,media/animal_stim/whitened/004_right_2.gif,media/animal_stim/whitened/004_left_1.gif,all_background,13,3.0,,,,
406,SS1696357295459,,curtain-display,144.0,media/animal_stim/whitened/004_right_2.gif,media/animal_stim/whitened/004_left_1.gif,all_background,14,3.0,644.0,,,
407,SS1696357295459,,survey-likert,5084.0,,,,15,,,{'Q0': 3},[0],background
408,SS1696357295459,,curtain-display,,media/animal_stim/whitened/002_left_1.gif,media/animal_stim/whitened/002_left_2.gif,all_background,16,9.0,,,,
409,SS1696357295459,,curtain-display,,media/animal_stim/whitened/002_left_1.gif,media/animal_stim/whitened/002_left_2.gif,all_background,17,9.0,,,,
410,SS1696357295459,,curtain-display,,media/animal_stim/whitened/002_left_1.gif,media/animal_stim/whitened/002_left_2.gif,all_background,18,9.0,,,,
411,SS1696357295459,,curtain-display,,media/animal_stim/whitened/002_left_1.gif,media/animal_stim/whitened/002_left_2.gif,all_background,19,9.0,,,,
412,SS1696357295459,,curtain-display,,media/animal_stim/whitened/002_left_1.gif,media/animal_stim/whitened/002_left_2.gif,all_background,20,9.0,,,,
413,SS1696357295459,,curtain-display,,media/animal_stim/whitened/002_left_1.gif,media/animal_stim/whitened/002_left_2.gif,all_background,21,9.0,,,,
414,SS1696357295459,,curtain-display,,media/animal_stim/whitened/002_left_1.gif,media/animal_stim/whitened/002_left_2.gif,all_background,22,9.0,,,,
415,SS1696357295459,,curtain-display,,media/animal_stim/whitened/002_left_1.gif,media/animal_stim/whitened/002_left_2.gif,all_background,23,9.0,,,,
416,SS1696357295459,,curtain-display,,media/animal_stim/whitened/002_left_1.gif,media/animal_stim/whitened/002_left_2.gif,all_background,24,9.0,,,,
417,SS1696357295459,,curtain-display,1841.0,media/animal_stim/whitened/002_left_1.gif,media/animal_stim/whitened/002_left_2.gif,all_background,25,9.0,2341.0,,,
418,SS1696357295459,,survey-likert,1834.0,,,,26,,,{'Q0': 3},[0],background
419,SS1696357295459,,curtain-display,,media/animal_stim/whitened/001_left_1.gif,media/animal_stim/whitened/001_right_2.gif,deviant,27,1.0,,,,
420,SS1696357295459,,curtain-display,132.0,media/animal_stim/whitened/001_left_1.gif,media/animal_stim/whitened/001_right_2.gif,deviant,28,1.0,632.0,,,
421,SS1696357616314,,preload,,,,,0,,,,,
422,SS1696357616321,,preload,,,,,0,,,,,
423,SS1696357749756,,preload,,,,,0,,,,,
424,SS1696357749764,,preload,,,,,0,,,,,
425,SS1696357889159,,preload,,,,,0,,,,,
426,SS1696357889235,,preload,,,,,0,,,,,
427,SS1696358055571,,preload,,,,,0,,,,,
428,SS1696358055575,,preload,,,,,0,,,,,
429,SS1696358055575,,fullscreen,,,,,1,,,,,
430,SS1696358055575,,instructions,2451.0,,,,2,,,,,
431,SS1696358055575,,instructions,1357.0,,,,3,,,,,
432,SS1696358055575,,curtain-display,,,,,4,,,,,
433,SS1696358055575,,curtain-display,,,,,5,,,,,
434,SS1696358055575,,curtain-display,203.0,,,,6,,703.0,,,
435,SS1696358055575,,instructions,3194.0,,,,7,,,,,
436,SS1696358055575,,curtain-display,,media/animal_stim/whitened/001_right_1.gif,media/animal_stim/whitened/001_left_2.gif,all_background,8,9.0,,,,
437,SS1696358055575,,survey-likert,5021.0,,,,9,,,{'Q0': 2},[0],background
438,SS1696358055575,,curtain-display,,media/animal_stim/whitened/001_right_1.gif,media/animal_stim/whitened/001_left_2.gif,all_background,10,9.0,,,,
439,SS1696358055575,,curtain-display,,media/animal_stim/whitened/002_right_1.gif,media/animal_stim/whitened/002_right_2.gif,all_background,11,3.0,,,,
440,SS1696358055575,,curtain-display,184.0,media/animal_stim/whitened/003_right_2.gif,media/animal_stim/whitened/003_right_1.gif,all_background,12,1.0,684.0,,,
441,SS1696358055575,,curtain-display,,media/animal_stim/whitened/005_left_1.gif,media/animal_stim/whitened/005_right_2.gif,deviant,13,3.0,,,,
442,SS1696358267055,,preload,,,,,0,,,,,
443,SS1696358267059,,preload,,,,,0,,,,,
444,SS1696358267059,,fullscreen,,,,,1,,,,,
445,SS1696358267059,,instructions,1600.0,,,,2,,,,,
446,SS1696358267059,,instructions,1923.0,,,,3,,,,,
447,SS1696358267059,,curtain-display,,,,,4,,,,,
448,SS1696358267059,,curtain-display,,,,,5,,,,,
449,SS1696358267059,,curtain-display,597.0,,,,6,,1097.0,,,
450,SS1696358286565,,preload,,,,,0,,,,,
451,SS1696358286596,,preload,,,,,0,,,,,
452,SS1696358286596,,fullscreen,,,,,1,,,,,
453,SS1696358286596,,instructions,1168.0,,,,2,,,,,
454,SS1696358286596,,instructions,1925.0,,,,3,,,,,
455,SS1696358286596,,curtain-display,,,,,4,,,,,
456,SS1696358286596,,curtain-display,,,,,5,,,,,
457,SS1696358286596,,curtain-display,2275.0,,,,6,,2775.0,,,
458,SS1696358306523,,preload,,,,,0,,,,,
459,SS1696358306548,,preload,,,,,0,,,,,
460,SS1696358306548,,fullscreen,,,,,1,,,,,
461,SS1696358306548,,instructions,1269.0,,,,2,,,,,
462,SS1696358306548,,instructions,1845.0,,,,3,,,,,
463,SS1696358306548,,curtain-display,,,,,4,,,,,
464,SS1696358306548,,curtain-display,,,,,5,,,,,
465,SS1696358306548,,curtain-display,994.0,,,,6,,1494.0,,,
466,SS1696358306548,,instructions,17117.0,,,,7,,,,,
467,SS1696358602089,,preload,,,,,0,,,,,
468,SS1696358602094,,preload,,,,,0,,,,,
469,SS1696358602094,,fullscreen,,,,,1,,,,,
470,SS1696358602094,,instructions,1369.0,,,,2,,,,,
471,SS1696358602094,,instructions,1620.0,,,,3,,,,,
472,SS1696358602094,,curtain-display,,,,,4,,,,,
473,SS1696358602094,,curtain-display,,,,,5,,,,,
474,SS1696358602094,,curtain-display,159.0,,,,6,,659.0,,,
475,SS1696358602094,,instructions,3733.0,,,,7,,,,,
476,SS1696358602094,,curtain-display,,media/animal_stim/whitened/006_right_1.gif,media/animal_stim/whitened/006_left_2.gif,deviant,8,3.0,,,,
477,SS1696358602094,,curtain-display,,media/animal_stim/whitened/006_right_1.gif,media/animal_stim/whitened/006_left_2.gif,deviant,9,3.0,,,,
478,SS1696358602094,,curtain-display,,media/animal_stim/whitened/006_right_1.gif,media/animal_stim/whitened/006_left_2.gif,deviant,10,3.0,,,,
479,SS1696358602094,,curtain-display,367.0,media/animal_stim/whitened/006_right_1.gif,media/animal_stim/whitened/006_left_2.gif,deviant,11,3.0,867.0,,,
480,SS1696358602094,,survey-likert,1730.0,,,,12,,,{'Q0': 3},[0],background
481,SS1696358602094,,curtain-display,,media/animal_stim/whitened/005_right_1.gif,media/animal_stim/whitened/005_right_2.gif,all_background,13,9.0,,,,
482,SS1696358602094,,curtain-display,,media/animal_stim/whitened/005_right_1.gif,media/animal_stim/whitened/005_right_2.gif,all_background,14,9.0,,,,
483,SS1696358602094,,curtain-display,,media/animal_stim/whitened/005_right_1.gif,media/animal_stim/whitened/005_right_2.gif,all_background,15,9.0,,,,
484,SS1696358602094,,curtain-display,,media/animal_stim/whitened/005_right_1.gif,media/animal_stim/whitened/005_right_2.gif,all_background,16,9.0,,,,
485,SS1696358602094,,curtain-display,,media/animal_stim/whitened/005_right_1.gif,media/animal_stim/whitened/005_right_2.gif,all_background,17,9.0,,,,
486,SS1696358602094,,curtain-display,,media/animal_stim/whitened/005_right_1.gif,media/animal_stim/whitened/005_right_2.gif,all_background,18,9.0,,,,
487,SS1696358602094,,curtain-display,,media/animal_stim/whitened/005_right_1.gif,media/animal_stim/whitened/005_right_2.gif,all_background,19,9.0,,,,
488,SS1696358851396,,preload,,,,,0,,,,,
489,SS1696358851392,,preload,,,,,0,,,,,
490,SS1696360475834,,preload,,,,,0,,,,,
491,SS1696360475839,,preload,,,,,0,,,,,
492,SS1696360475839,,fullscreen,,,,,1,,,,,
493,SS1696360475839,,instructions,870.0,,,,2,,,,,
494,SS1696360475839,,instructions,1954.0,,,,3,,,,,
495,SS1696360475839,,curtain-display,,,,,4,,,,,
496,SS1696360475839,,curtain-display,,,,,5,,,,,
497,SS1696360475839,,curtain-display,4798.0,,,,6,,5298.0,,,
498,SS1696360510272,,preload,,,,,0,,,,,
499,SS1696360510267,,preload,,,,,0,,,,,
500,SS1696360510272,,fullscreen,,,,,1,,,,,
501,SS1696360510272,,instructions,934.0,,,,2,,,,,
502,SS1696360510272,,instructions,11279.0,,,,3,,,,,
503,SS1696360510272,,curtain-display,,,,,4,,,,,
504,SS1696360510272,,curtain-display,,,,,5,,,,,
505,SS1696360559023,,preload,,,,,0,,,,,
506,SS1696360559017,,preload,,,,,0,,,,,
507,SS1696360559023,,fullscreen,,,,,1,,,,,
508,SS1696360559023,,instructions,856.0,,,,2,,,,,
509,SS1696360559023,,instructions,1509.0,,,,3,,,,,
510,SS1696360559023,,curtain-display,,,,,4,,,,,
511,SS1696360559023,,curtain-display,,,,,5,,,,,
512,SS1696360582991,,preload,,,,,0,,,,,
513,SS1696360582986,,preload,,,,,0,,,,,
514,SS1696360582991,,fullscreen,,,,,1,,,,,
515,SS1696360582991,,instructions,920.0,,,,2,,,,,
516,SS1696360582991,,instructions,1418.0,,,,3,,,,,
517,SS1696360582991,,curtain-display,,,,,4,,,,,
518,SS1696360582991,,curtain-display,,,,,5,,,,,
519,SS1696360582991,,curtain-display,39643.0,,,,6,,40143.0,,,
520,SS1696360582991,,instructions,38182.0,,,,7,,,,,
521,SS1696360582991,,curtain-display,,media/animal_stim/whitened/004_left_1.gif,media/animal_stim/whitened/004_left_2.gif,all_background,8,3.0,,,,
522,SS1696360582991,,curtain-display,,media/animal_stim/whitened/004_left_1.gif,media/animal_stim/whitened/004_left_2.gif,all_background,9,3.0,,,,
523,SS1696360582991,,curtain-display,,media/animal_stim/whitened/004_left_1.gif,media/animal_stim/whitened/004_left_2.gif,all_background,10,3.0,,,,
524,SS1696360582991,,curtain-display,3457.0,media/animal_stim/whitened/004_left_1.gif,media/animal_stim/whitened/004_left_2.gif,all_background,11,3.0,3957.0,,,
525,SS1696360582991,,survey-likert,3027.0,,,,12,,,{'Q0': 2},[0],background
526,SS1696360582991,,curtain-display,,media/animal_stim/whitened/002_right_2.gif,media/animal_stim/whitened/002_right_1.gif,deviant,13,3.0,,,,
527,SS1696360582991,,curtain-display,,media/animal_stim/whitened/002_right_2.gif,media/animal_stim/whitened/002_right_1.gif,deviant,14,3.0,,,,
528,SS1696360582991,,curtain-display,,media/animal_stim/whitened/002_right_2.gif,media/animal_stim/whitened/002_right_1.gif,deviant,15,3.0,,,,
529,SS1696360582991,,curtain-display,60481.0,media/animal_stim/whitened/002_right_2.gif,media/animal_stim/whitened/002_right_1.gif,deviant,16,3.0,60981.0,,,
530,SS1696360582991,,survey-likert,3217.0,,,,17,,,{'Q0': 3},[0],background
531,SS1696360582991,,curtain-display,,media/animal_stim/whitened/005_left_2.gif,media/animal_stim/whitened/005_left_1.gif,all_background,18,9.0,,,,
532,SS1696360582991,,curtain-display,,media/animal_stim/whitened/005_left_2.gif,media/animal_stim/whitened/005_left_1.gif,all_background,19,9.0,,,,
533,SS1696360582991,,curtain-display,,media/animal_stim/whitened/005_left_2.gif,media/animal_stim/whitened/005_left_1.gif,all_background,20,9.0,,,,
534,SS1696360582991,,curtain-display,,media/animal_stim/whitened/005_left_2.gif,media/animal_stim/whitened/005_left_1.gif,all_background,21,9.0,,,,
535,SS1696360582991,,curtain-display,,media/animal_stim/whitened/005_left_2.gif,media/animal_stim/whitened/005_left_1.gif,all_background,22,9.0,,,,
536,SS1696360582991,,curtain-display,,media/animal_stim/whitened/005_left_2.gif,media/animal_stim/whitened/005_left_1.gif,all_background,23,9.0,,,,
537,SS1696360582991,,curtain-display,,media/animal_stim/whitened/005_left_2.gif,media/animal_stim/whitened/005_left_1.gif,all_background,24,9.0,,,,
538,SS1696360582991,,curtain-display,,media/animal_stim/whitened/005_left_2.gif,media/animal_stim/whitened/005_left_1.gif,all_background,25,9.0,,,,
539,SS1696360582991,,curtain-display,,media/animal_stim/whitened/005_left_2.gif,media/animal_stim/whitened/005_left_1.gif,all_background,26,9.0,,,,
540,SS1696360582991,,curtain-display,6397.0,media/animal_stim/whitened/005_left_2.gif,media/animal_stim/whitened/005_left_1.gif,all_background,27,9.0,6897.0,,,
541,SS1696360582991,,survey-likert,2201.0,,,,28,,,{'Q0': 2},[0],background
542,SS1696360582991,,curtain-display,,media/animal_stim/whitened/006_right_2.gif,media/animal_stim/whitened/006_left_1.gif,deviant,29,9.0,,,,
543,SS1696360582991,,curtain-display,,media/animal_stim/whitened/006_right_2.gif,media/animal_stim/whitened/006_left_1.gif,deviant,30,9.0,,,,
544,SS1696360582991,,curtain-display,,media/animal_stim/whitened/006_right_2.gif,media/animal_stim/whitened/006_left_1.gif,deviant,31,9.0,,,,
545,SS1696360582991,,curtain-display,,media/animal_stim/whitened/006_right_2.gif,media/animal_stim/whitened/006_left_1.gif,deviant,32,9.0,,,,
546,SS1696360582991,,curtain-display,,media/animal_stim/whitened/006_right_2.gif,media/animal_stim/whitened/006_left_1.gif,deviant,33,9.0,,,,
547,SS1696360582991,,curtain-display,,media/animal_stim/whitened/006_right_2.gif,media/animal_stim/whitened/006_left_1.gif,deviant,34,9.0,,,,
548,SS1696360582991,,curtain-display,,media/animal_stim/whitened/006_right_2.gif,media/animal_stim/whitened/006_left_1.gif,deviant,35,9.0,,,,
549,SS1696360582991,,curtain-display,,media/animal_stim/whitened/006_right_2.gif,media/animal_stim/whitened/006_left_1.gif,deviant,36,9.0,,,,
550,SS1696360582991,,curtain-display,,media/animal_stim/whitened/006_right_2.gif,media/animal_stim/whitened/006_left_1.gif,deviant,37,9.0,,,,
551,SS1696360582991,,curtain-display,6478.0,media/animal_stim/whitened/006_right_2.gif,media/animal_stim/whitened/006_left_1.gif,deviant,38,9.0,6978.0,,,
552,SS1696360582991,,survey-likert,1945.0,,,,39,,,{'Q0': 2},[0],background
553,SS1696360582991,,curtain-display,,media/animal_stim/whitened/001_right_1.gif,media/animal_stim/whitened/001_left_2.gif,all_background,40,1.0,,,,
554,SS1696360582991,,curtain-display,2398.0,media/animal_stim/whitened/001_right_1.gif,media/animal_stim/whitened/001_left_2.gif,all_background,41,1.0,2898.0,,,
555,SS1696360582991,,survey-likert,2775.0,,,,42,,,{'Q0': 4},[0],background
556,SS1696360582991,,curtain-display,,media/animal_stim/whitened/003_left_2.gif,media/animal_stim/whitened/003_left_1.gif,deviant,43,1.0,,,,
557,SS1696360582991,,curtain-display,1285.0,media/animal_stim/whitened/003_left_2.gif,media/animal_stim/whitened/003_left_1.gif,deviant,44,1.0,1785.0,,,
558,SS1696360582991,,survey-likert,1811.0,,,,45,,,{'Q0': 2},[0],background
559,SS1696360582991,,html-button-response,1450.0,,,,46,,,0,,
560,SS1696360582991,,survey-text,1393.0,,,,47,,,{'Q0': 'sf'},,
561,SS1696360582991,,survey-multi-select,1788.0,,,,48,,,{'ethnicity': ['Native Hawaiian or Other Pacific Islander']},[0],
562,SS1696360582991,,survey-text,1156.0,,,,49,,,{'Q0': 'sdf'},,
563,SS1696360582991,,survey-multi-choice,2181.0,,,,50,,,{'education': 'Doctorate/Professional degree'},[0],
564,SS1696360582991,,fullscreen,,,,,51,,,,,
565,SS1696367018914,,preload,,,,,0,,,,,
566,SS1696367018906,,preload,,,,,0,,,,,
567,SS1696367111333,,preload,,,,,0,,,,,
568,SS1696367111339,,preload,,,,,0,,,,,
569,SS1696367150634,,preload,,,,,0,,,,,
570,SS1696367150641,,preload,,,,,0,,,,,
571,SS1696367255673,,preload,,,,,0,,,,,
572,SS1696367255676,,preload,,,,,0,,,,,
573,SS1696367332368,,preload,,,,,0,,,,,
574,SS1696367332372,,preload,,,,,0,,,,,
575,SS1696367425236,,preload,,,,,0,,,,,
576,SS1696367425241,,preload,,,,,0,,,,,
577,SS1696367502508,,preload,,,,,0,,,,,
578,SS1696367502513,,preload,,,,,0,,,,,
579,SS1696367530829,,preload,,,,,0,,,,,
580,SS1696367530836,,preload,,,,,0,,,,,
581,SS1696369404918,,preload,,,,,0,,,,,
582,SS1696369404924,,preload,,,,,0,,,,,
583,SS1696370921492,,preload,,,,,0,,,,,
584,SS1696370921498,,preload,,,,,0,,,,,
585,SS1696372118296,,preload,,,,,0,,,,,
586,SS1696372118303,,preload,,,,,0,,,,,
587,SS1696372175483,,preload,,,,,0,,,,,
588,SS1696372175490,,preload,,,,,0,,,,,
589,SS1696372326418,,preload,,,,,0,,,,,
590,SS1696372326425,,preload,,,,,0,,,,,
591,SS1696372361707,,preload,,,,,0,,,,,
592,SS1696372361713,,preload,,,,,0,,,,,
593,SS1696372428578,,preload,,,,,0,,,,,
594,SS1696372428585,,preload,,,,,0,,,,,
595,SS1696375436795,,preload,,,,,0,,,,,
596,SS1696375436801,,preload,,,,,0,,,,,
597,SS1696375452258,,preload,,,,,0,,,,,
598,SS1696375452265,,preload,,,,,0,,,,,
599,SS1696375843056,,preload,,,,,0,,,,,
600,SS1696375843061,,preload,,,,,0,,,,,
601,SS1696375843061,,fullscreen,,,,,1,,,,,
602,SS1696375843061,,instructions,1237.0,,,,2,,,,,
603,SS1696375843061,,instructions,1514.0,,,,3,,,,,
604,SS1696375843061,,curtain-display,,,,,4,,,,,
605,SS1696375843061,,curtain-display,,,,,5,,,,,
606,SS1696375843061,,curtain-display,434.0,,,,6,,934.0,,,
607,SS1696375843061,,instructions,3235.0,,,,7,,,,,
608,SS1696375843061,,curtain-display,,media/animal_stim/whitened/004_right_2.gif,media/animal_stim/whitened/004_left_1.gif,all_background,8,9.0,,,,
609,SS1696375843061,,curtain-display,,media/animal_stim/whitened/004_right_2.gif,media/animal_stim/whitened/004_left_1.gif,all_background,9,9.0,,,,
610,SS1696375843061,,curtain-display,,media/animal_stim/whitened/004_right_2.gif,media/animal_stim/whitened/004_left_1.gif,all_background,10,9.0,,,,
611,SS1696375843061,,curtain-display,,media/animal_stim/whitened/004_right_2.gif,media/animal_stim/whitened/004_left_1.gif,all_background,11,9.0,,,,
612,SS1696375843061,,curtain-display,,media/animal_stim/whitened/004_right_2.gif,media/animal_stim/whitened/004_left_1.gif,all_background,12,9.0,,,,
613,SS1696375843061,,curtain-display,,media/animal_stim/whitened/004_right_2.gif,media/animal_stim/whitened/004_left_1.gif,all_background,13,9.0,,,,
614,SS1696375843061,,curtain-display,,media/animal_stim/whitened/004_right_2.gif,media/animal_stim/whitened/004_left_1.gif,all_background,14,9.0,,,,
615,SS1696375843061,,curtain-display,,media/animal_stim/whitened/004_right_2.gif,media/animal_stim/whitened/004_left_1.gif,all_background,15,9.0,,,,
616,SS1696375843061,,curtain-display,,media/animal_stim/whitened/004_right_2.gif,media/animal_stim/whitened/004_left_1.gif,all_background,16,9.0,,,,
617,SS1696375843061,,curtain-display,2116.0,media/animal_stim/whitened/004_right_2.gif,media/animal_stim/whitened/004_left_1.gif,all_background,17,9.0,2616.0,,,
618,SS1696376640678,,preload,,,,,0,,,,,
619,SS1696376640698,,preload,,,,,0,,,,,
620,SS1696458906281,,preload,,,,,0,,,,,
621,SS1696458906285,,preload,,,,,0,,,,,
622,SS1696458906285,,fullscreen,,,,,1,,,,,
623,SS1696458906285,,instructions,3429.0,,,,2,,,,,
624,SS1696458906285,,instructions,2079.0,,,,3,,,,,
625,SS1696458906285,,curtain-display,,,,,4,,,,,
626,SS1696458906285,,curtain-display,,,,,5,,,,,
627,SS1696458906285,,curtain-display,431.0,,,,6,,931.0,,,
628,SS1696458906285,,instructions,3590.0,,,,7,,,,,
629,SS1696458906285,,curtain-display,,media/animal_stim/whitened/006_right_2.gif,media/animal_stim/whitened/006_right_1.gif,all_background,8,3.0,,,,
630,SS1696458906285,,curtain-display,,media/animal_stim/whitened/006_right_2.gif,media/animal_stim/whitened/006_right_1.gif,all_background,9,3.0,,,,
631,SS1696458906285,,curtain-display,,media/animal_stim/whitened/006_right_2.gif,media/animal_stim/whitened/006_right_1.gif,all_background,10,3.0,,,,
632,SS1696458906285,,curtain-display,,media/animal_stim/whitened/006_right_2.gif,media/animal_stim/whitened/006_right_1.gif,all_background,11,3.0,,,,
633,SS1696458906285,,survey-likert,,,,,12,,,,,background
634,SS1696458906285,,curtain-display,,media/animal_stim/whitened/003_right_2.gif,media/animal_stim/whitened/003_right_1.gif,deviant,13,9.0,,,,
635,SS1696458906285,,curtain-display,,media/animal_stim/whitened/003_right_2.gif,media/animal_stim/whitened/003_right_1.gif,deviant,14,9.0,,,,
636,SS1696458906285,,curtain-display,,media/animal_stim/whitened/003_right_2.gif,media/animal_stim/whitened/003_right_1.gif,deviant,15,9.0,,,,
637,SS1696521237177,,preload,,,,,0,,,,,
638,SS1696521237181,,preload,,,,,0,,,,,
639,SS1696529192179,5d28701c573e380001514923,preload,,,,,0,,,,,
640,SS1696529192170,5d28701c573e380001514923,preload,,,,,0,,,,,
641,SS1696529210541,61170fc882aceb0cbcfebe6e,preload,,,,,0,,,,,
642,SS1696529210551,61170fc882aceb0cbcfebe6e,preload,,,,,0,,,,,
643,SS1696529215741,5f3f051d2b1f171e336d114a,preload,,,,,0,,,,,
644,SS1696529215750,5f3f051d2b1f171e336d114a,preload,,,,,0,,,,,
645,SS1696529215750,5f3f051d2b1f171e336d114a,fullscreen,,,,,1,,,,,
646,SS1696529195832,607e00d9883d3e470ccb5763,preload,,,,,0,,,,,
647,SS1696529195877,607e00d9883d3e470ccb5763,preload,,,,,0,,,,,
648,SS1696529215750,5f3f051d2b1f171e336d114a,instructions,16396.0,,,,2,,,,,
649,SS1696529195877,607e00d9883d3e470ccb5763,fullscreen,,,,,1,,,,,
650,SS1696529195877,607e00d9883d3e470ccb5763,instructions,26565.0,,,,2,,,,,
651,SS1696529215750,5f3f051d2b1f171e336d114a,instructions,37551.0,,,,3,,,,,
652,SS1696529215750,5f3f051d2b1f171e336d114a,curtain-display,,,,,4,,,,,
653,SS1696529215750,5f3f051d2b1f171e336d114a,curtain-display,,,,,5,,,,,
654,SS1696529210551,61170fc882aceb0cbcfebe6e,fullscreen,,,,,1,,,,,
655,SS1696529215750,5f3f051d2b1f171e336d114a,curtain-display,6364.0,,,,6,,6864.0,,,
656,SS1696529192179,5d28701c573e380001514923,fullscreen,,,,,1,,,,,
657,SS1696529192179,5d28701c573e380001514923,instructions,6207.0,,,,2,,,,,
658,SS1696529195877,607e00d9883d3e470ccb5763,instructions,34327.0,,,,3,,,,,
659,SS1696529195877,607e00d9883d3e470ccb5763,curtain-display,,,,,4,,,,,
660,SS1696529195877,607e00d9883d3e470ccb5763,curtain-display,,,,,5,,,,,
661,SS1696529210551,61170fc882aceb0cbcfebe6e,instructions,39715.0,,,,2,,,,,
662,SS1696529215750,5f3f051d2b1f171e336d114a,instructions,32777.0,,,,7,,,,,
663,SS1696529215750,5f3f051d2b1f171e336d114a,curtain-display,,media/animal_stim/whitened/005_left_2.gif,media/animal_stim/whitened/005_right_1.gif,all_background,8,9.0,,,,
664,SS1696529207583,5ffdf54a500d7740e02f3639,preload,,,,,0,,,,,
665,SS1696529207608,5ffdf54a500d7740e02f3639,preload,,,,,0,,,,,
666,SS1696529215750,5f3f051d2b1f171e336d114a,curtain-display,,media/animal_stim/whitened/005_left_2.gif,media/animal_stim/whitened/005_right_1.gif,all_background,9,9.0,,,,
667,SS1696529215750,5f3f051d2b1f171e336d114a,curtain-display,,media/animal_stim/whitened/005_left_2.gif,media/animal_stim/whitened/005_right_1.gif,all_background,10,9.0,,,,
668,SS1696529215750,5f3f051d2b1f171e336d114a,curtain-display,,media/animal_stim/whitened/005_left_2.gif,media/animal_stim/whitened/005_right_1.gif,all_background,11,9.0,,,,
669,SS1696529192179,5d28701c573e380001514923,instructions,40170.0,,,,3,,,,,
670,SS1696529215750,5f3f051d2b1f171e336d114a,curtain-display,,media/animal_stim/whitened/005_left_2.gif,media/animal_stim/whitened/005_right_1.gif,all_background,12,9.0,,,,
671,SS1696529192179,5d28701c573e380001514923,curtain-display,,,,,4,,,,,
672,SS1696529215750,5f3f051d2b1f171e336d114a,curtain-display,,media/animal_stim/whitened/005_left_2.gif,media/animal_stim/whitened/005_right_1.gif,all_background,13,9.0,,,,
673,SS1696529215750,5f3f051d2b1f171e336d114a,curtain-display,,media/animal_stim/whitened/005_left_2.gif,media/animal_stim/whitened/005_right_1.gif,all_background,14,9.0,,,,
674,SS1696529192179,5d28701c573e380001514923,curtain-display,,,,,5,,,,,
675,SS1696529215750,5f3f051d2b1f171e336d114a,curtain-display,,media/animal_stim/whitened/005_left_2.gif,media/animal_stim/whitened/005_right_1.gif,all_background,15,9.0,,,,
676,SS1696529215750,5f3f051d2b1f171e336d114a,curtain-display,,media/animal_stim/whitened/005_left_2.gif,media/animal_stim/whitened/005_right_1.gif,all_background,16,9.0,,,,
677,SS1696529215750,5f3f051d2b1f171e336d114a,curtain-display,1123.0,media/animal_stim/whitened/005_left_2.gif,media/animal_stim/whitened/005_right_1.gif,all_background,17,9.0,1623.0,,,
678,SS1696529215750,5f3f051d2b1f171e336d114a,survey-likert,,,,,18,,,,,background
679,SS1696529192179,5d28701c573e380001514923,curtain-display,3961.0,,,,6,,4461.0,,,
680,SS1696529215750,5f3f051d2b1f171e336d114a,curtain-display,,media/animal_stim/whitened/001_right_2.gif,media/animal_stim/whitened/001_left_1.gif,deviant,19,3.0,,,,
681,SS1696529215750,5f3f051d2b1f171e336d114a,curtain-display,,media/animal_stim/whitened/001_right_2.gif,media/animal_stim/whitened/001_left_1.gif,deviant,20,3.0,,,,
682,SS1696529210551,61170fc882aceb0cbcfebe6e,instructions,34521.0,,,,3,,,,,
683,SS1696529215750,5f3f051d2b1f171e336d114a,curtain-display,,media/animal_stim/whitened/001_right_2.gif,media/animal_stim/whitened/001_left_1.gif,deviant,21,3.0,,,,
684,SS1696529210551,61170fc882aceb0cbcfebe6e,curtain-display,,,,,4,,,,,
685,SS1696529215750,5f3f051d2b1f171e336d114a,curtain-display,1692.0,media/animal_stim/whitened/001_right_2.gif,media/animal_stim/whitened/001_left_1.gif,deviant,22,3.0,2192.0,,,
686,SS1696529210551,61170fc882aceb0cbcfebe6e,curtain-display,,,,,5,,,,,
687,SS1696529186386,6090f6323a468814885fca1e,preload,,,,,0,,,,,
688,SS1696529185810,6090f6323a468814885fca1e,preload,,,,,0,,,,,
689,SS1696529210551,61170fc882aceb0cbcfebe6e,curtain-display,1808.0,,,,6,,2308.0,,,
690,SS1696529215750,5f3f051d2b1f171e336d114a,survey-likert,15398.0,,,,23,,,{'Q0': 0},[0],background
691,SS1696529186386,6090f6323a468814885fca1e,fullscreen,,,,,1,,,,,
692,SS1696529215750,5f3f051d2b1f171e336d114a,curtain-display,,media/animal_stim/whitened/003_left_2.gif,media/animal_stim/whitened/003_right_1.gif,all_background,24,1.0,,,,
693,SS1696529192179,5d28701c573e380001514923,instructions,34655.0,,,,7,,,,,
694,SS1696529215750,5f3f051d2b1f171e336d114a,curtain-display,4125.0,media/animal_stim/whitened/003_left_2.gif,media/animal_stim/whitened/003_right_1.gif,all_background,25,1.0,4625.0,,,
695,SS1696529192179,5d28701c573e380001514923,curtain-display,,media/animal_stim/whitened/002_right_2.gif,media/animal_stim/whitened/002_right_1.gif,deviant,8,9.0,,,,
696,SS1696529192179,5d28701c573e380001514923,curtain-display,,media/animal_stim/whitened/002_right_2.gif,media/animal_stim/whitened/002_right_1.gif,deviant,9,9.0,,,,
697,SS1696529186386,6090f6323a468814885fca1e,instructions,16039.0,,,,2,,,,,
698,SS1696529192179,5d28701c573e380001514923,curtain-display,,media/animal_stim/whitened/002_right_2.gif,media/animal_stim/whitened/002_right_1.gif,deviant,10,9.0,,,,
699,SS1696529215750,5f3f051d2b1f171e336d114a,survey-likert,9067.0,,,,26,,,{'Q0': 1},[0],background
700,SS1696529192179,5d28701c573e380001514923,curtain-display,,media/animal_stim/whitened/002_right_2.gif,media/animal_stim/whitened/002_right_1.gif,deviant,11,9.0,,,,
701,SS1696529215750,5f3f051d2b1f171e336d114a,curtain-display,,media/animal_stim/whitened/002_left_1.gif,media/animal_stim/whitened/002_left_2.gif,deviant,27,1.0,,,,
702,SS1696529192179,5d28701c573e380001514923,curtain-display,,media/animal_stim/whitened/002_right_2.gif,media/animal_stim/whitened/002_right_1.gif,deviant,12,9.0,,,,
703,SS1696529215750,5f3f051d2b1f171e336d114a,curtain-display,3074.0,media/animal_stim/whitened/002_left_1.gif,media/animal_stim/whitened/002_left_2.gif,deviant,28,1.0,3574.0,,,
704,SS1696529192179,5d28701c573e380001514923,curtain-display,,media/animal_stim/whitened/002_right_2.gif,media/animal_stim/whitened/002_right_1.gif,deviant,13,9.0,,,,
705,SS1696529192179,5d28701c573e380001514923,curtain-display,,media/animal_stim/whitened/002_right_2.gif,media/animal_stim/whitened/002_right_1.gif,deviant,14,9.0,,,,
706,SS1696529215750,5f3f051d2b1f171e336d114a,survey-likert,,,,,29,,,,,background
707,SS1696529192179,5d28701c573e380001514923,curtain-display,,media/animal_stim/whitened/002_right_2.gif,media/animal_stim/whitened/002_right_1.gif,deviant,15,9.0,,,,
708,SS1696529207608,5ffdf54a500d7740e02f3639,fullscreen,,,,,1,,,,,
709,SS1696529192179,5d28701c573e380001514923,curtain-display,,media/animal_stim/whitened/002_right_2.gif,media/animal_stim/whitened/002_right_1.gif,deviant,16,9.0,,,,
710,SS1696529215750,5f3f051d2b1f171e336d114a,curtain-display,,media/animal_stim/whitened/006_left_1.gif,media/animal_stim/whitened/006_right_2.gif,all_background,30,3.0,,,,
711,SS1696529192179,5d28701c573e380001514923,curtain-display,,media/animal_stim/whitened/002_right_2.gif,media/animal_stim/whitened/002_right_1.gif,deviant,17,9.0,,,,
712,SS1696529215750,5f3f051d2b1f171e336d114a,curtain-display,,media/animal_stim/whitened/006_left_1.gif,media/animal_stim/whitened/006_right_2.gif,all_background,31,3.0,,,,
713,SS1696529215750,5f3f051d2b1f171e336d114a,curtain-display,,media/animal_stim/whitened/006_left_1.gif,media/animal_stim/whitened/006_right_2.gif,all_background,32,3.0,,,,
714,SS1696529215750,5f3f051d2b1f171e336d114a,curtain-display,1147.0,media/animal_stim/whitened/006_left_1.gif,media/animal_stim/whitened/006_right_2.gif,all_background,33,3.0,1647.0,,,
715,SS1696529192179,5d28701c573e380001514923,survey-likert,7572.0,,,,18,,,{'Q0': 1},[0],background
716,SS1696529215750,5f3f051d2b1f171e336d114a,survey-likert,,,,,34,,,,,background
717,SS1696529192179,5d28701c573e380001514923,curtain-display,,media/animal_stim/whitened/003_right_1.gif,media/animal_stim/whitened/003_left_2.gif,all_background,19,3.0,,,,
718,SS1696529215750,5f3f051d2b1f171e336d114a,curtain-display,,media/animal_stim/whitened/004_left_2.gif,media/animal_stim/whitened/004_right_1.gif,deviant,35,9.0,,,,
719,SS1696529210551,61170fc882aceb0cbcfebe6e,instructions,,,,,7,,,,,
720,SS1696529192179,5d28701c573e380001514923,curtain-display,,media/animal_stim/whitened/003_right_1.gif,media/animal_stim/whitened/003_left_2.gif,all_background,20,3.0,,,,
721,SS1696529215750,5f3f051d2b1f171e336d114a,curtain-display,,media/animal_stim/whitened/004_left_2.gif,media/animal_stim/whitened/004_right_1.gif,deviant,36,9.0,,,,
722,SS1696529210551,61170fc882aceb0cbcfebe6e,curtain-display,,media/animal_stim/whitened/003_right_1.gif,media/animal_stim/whitened/003_right_2.gif,deviant,8,1.0,,,,
723,SS1696529207608,5ffdf54a500d7740e02f3639,instructions,20740.0,,,,2,,,,,
724,SS1696529192179,5d28701c573e380001514923,curtain-display,,media/animal_stim/whitened/003_right_1.gif,media/animal_stim/whitened/003_left_2.gif,all_background,21,3.0,,,,
725,SS1696529215750,5f3f051d2b1f171e336d114a,curtain-display,,media/animal_stim/whitened/004_left_2.gif,media/animal_stim/whitened/004_right_1.gif,deviant,37,9.0,,,,
726,SS1696529192179,5d28701c573e380001514923,curtain-display,21934.0,media/animal_stim/whitened/003_right_1.gif,media/animal_stim/whitened/003_left_2.gif,all_background,22,3.0,22434.0,,,
727,SS1696529192179,5d28701c573e380001514923,survey-likert,1053.0,,,,23,,1553.0,,,background
728,SS1696529215750,5f3f051d2b1f171e336d114a,curtain-display,,media/animal_stim/whitened/004_left_2.gif,media/animal_stim/whitened/004_right_1.gif,deviant,38,9.0,,,,
729,SS1696529192179,5d28701c573e380001514923,curtain-display,,media/animal_stim/whitened/006_left_1.gif,media/animal_stim/whitened/006_right_2.gif,all_background,24,9.0,,,,
730,SS1696529210551,61170fc882aceb0cbcfebe6e,curtain-display,6917.0,media/animal_stim/whitened/003_right_1.gif,media/animal_stim/whitened/003_right_2.gif,deviant,9,1.0,7417.0,,,
731,SS1696529215750,5f3f051d2b1f171e336d114a,curtain-display,,media/animal_stim/whitened/004_left_2.gif,media/animal_stim/whitened/004_right_1.gif,deviant,39,9.0,,,,
732,SS1696529192179,5d28701c573e380001514923,curtain-display,,media/animal_stim/whitened/006_left_1.gif,media/animal_stim/whitened/006_right_2.gif,all_background,25,9.0,,,,
733,SS1696529215750,5f3f051d2b1f171e336d114a,curtain-display,,media/animal_stim/whitened/004_left_2.gif,media/animal_stim/whitened/004_right_1.gif,deviant,40,9.0,,,,
734,SS1696529210551,61170fc882aceb0cbcfebe6e,survey-likert,4428.0,,,,10,,,{'Q0': 2},[0],background
735,SS1696529215750,5f3f051d2b1f171e336d114a,curtain-display,,media/animal_stim/whitened/004_left_2.gif,media/animal_stim/whitened/004_right_1.gif,deviant,41,9.0,,,,
736,SS1696529192179,5d28701c573e380001514923,curtain-display,,media/animal_stim/whitened/006_left_1.gif,media/animal_stim/whitened/006_right_2.gif,all_background,26,9.0,,,,
737,SS1696529186386,6090f6323a468814885fca1e,instructions,46521.0,,,,3,,,,,
738,SS1696529215750,5f3f051d2b1f171e336d114a,curtain-display,,media/animal_stim/whitened/004_left_2.gif,media/animal_stim/whitened/004_right_1.gif,deviant,42,9.0,,,,
739,SS1696529210551,61170fc882aceb0cbcfebe6e,curtain-display,,media/animal_stim/whitened/002_right_2.gif,media/animal_stim/whitened/002_right_1.gif,all_background,11,9.0,,,,
740,SS1696529215750,5f3f051d2b1f171e336d114a,curtain-display,,media/animal_stim/whitened/004_left_2.gif,media/animal_stim/whitened/004_right_1.gif,deviant,43,9.0,,,,
741,SS1696529192179,5d28701c573e380001514923,curtain-display,,media/animal_stim/whitened/006_left_1.gif,media/animal_stim/whitened/006_right_2.gif,all_background,27,9.0,,,,
742,SS1696529215750,5f3f051d2b1f171e336d114a,curtain-display,500.0,media/animal_stim/whitened/004_left_2.gif,media/animal_stim/whitened/004_right_1.gif,deviant,44,9.0,1000.0,,,
743,SS1696529186386,6090f6323a468814885fca1e,curtain-display,,,,,4,,,,,
744,SS1696529215750,5f3f051d2b1f171e336d114a,survey-likert,,,,,45,,,,,background
745,SS1696529210551,61170fc882aceb0cbcfebe6e,curtain-display,,media/animal_stim/whitened/002_right_2.gif,media/animal_stim/whitened/002_right_1.gif,all_background,12,9.0,,,,
746,SS1696529192179,5d28701c573e380001514923,curtain-display,,media/animal_stim/whitened/006_left_1.gif,media/animal_stim/whitened/006_right_2.gif,all_background,28,9.0,,,,
747,SS1696529186386,6090f6323a468814885fca1e,curtain-display,,,,,5,,,,,
748,SS1696529210551,61170fc882aceb0cbcfebe6e,curtain-display,,media/animal_stim/whitened/002_right_2.gif,media/animal_stim/whitened/002_right_1.gif,all_background,13,9.0,,,,
749,SS1696529215750,5f3f051d2b1f171e336d114a,html-button-response,4851.0,,,,46,,,0,,
750,SS1696529192179,5d28701c573e380001514923,curtain-display,,media/animal_stim/whitened/006_left_1.gif,media/animal_stim/whitened/006_right_2.gif,all_background,29,9.0,,,,
751,SS1696529210551,61170fc882aceb0cbcfebe6e,curtain-display,,media/animal_stim/whitened/002_right_2.gif,media/animal_stim/whitened/002_right_1.gif,all_background,14,9.0,,,,
752,SS1696529186386,6090f6323a468814885fca1e,curtain-display,4699.0,,,,6,,5199.0,,,
753,SS1696529192179,5d28701c573e380001514923,curtain-display,,media/animal_stim/whitened/006_left_1.gif,media/animal_stim/whitened/006_right_2.gif,all_background,30,9.0,,,,
754,SS1696529215750,5f3f051d2b1f171e336d114a,survey-text,4415.0,,,,47,,,{'Q0': '40'},,
755,SS1696529210551,61170fc882aceb0cbcfebe6e,curtain-display,,media/animal_stim/whitened/002_right_2.gif,media/animal_stim/whitened/002_right_1.gif,all_background,15,9.0,,,,
756,SS1696529192179,5d28701c573e380001514923,curtain-display,,media/animal_stim/whitened/006_left_1.gif,media/animal_stim/whitened/006_right_2.gif,all_background,31,9.0,,,,
757,SS1696529207608,5ffdf54a500d7740e02f3639,instructions,29150.0,,,,3,,,,,
758,SS1696529210551,61170fc882aceb0cbcfebe6e,curtain-display,,media/animal_stim/whitened/002_right_2.gif,media/animal_stim/whitened/002_right_1.gif,all_background,16,9.0,,,,
759,SS1696529215750,5f3f051d2b1f171e336d114a,survey-multi-select,6309.0,,,,48,,,{'ethnicity': ['White']},[0],
760,SS1696529192179,5d28701c573e380001514923,curtain-display,,media/animal_stim/whitened/006_left_1.gif,media/animal_stim/whitened/006_right_2.gif,all_background,32,9.0,,,,
761,SS1696529207608,5ffdf54a500d7740e02f3639,curtain-display,,,,,4,,,,,
762,SS1696529192179,5d28701c573e380001514923,curtain-display,954.0,media/animal_stim/whitened/006_left_1.gif,media/animal_stim/whitened/006_right_2.gif,all_background,33,9.0,1454.0,,,
763,SS1696529210551,61170fc882aceb0cbcfebe6e,curtain-display,,media/animal_stim/whitened/002_right_2.gif,media/animal_stim/whitened/002_right_1.gif,all_background,17,9.0,,,,
764,SS1696529207608,5ffdf54a500d7740e02f3639,curtain-display,,,,,5,,,,,
765,SS1696529192179,5d28701c573e380001514923,survey-likert,2917.0,,,,34,,,{'Q0': 1},[0],background
766,SS1696529215750,5f3f051d2b1f171e336d114a,survey-text,5626.0,,,,49,,,{'Q0': 'female'},,
767,SS1696529192179,5d28701c573e380001514923,curtain-display,,media/animal_stim/whitened/004_right_2.gif,media/animal_stim/whitened/004_left_1.gif,deviant,35,1.0,,,,
768,SS1696529210551,61170fc882aceb0cbcfebe6e,curtain-display,,media/animal_stim/whitened/002_right_2.gif,media/animal_stim/whitened/002_right_1.gif,all_background,18,9.0,,,,
769,SS1696529192179,5d28701c573e380001514923,curtain-display,1423.0,media/animal_stim/whitened/004_right_2.gif,media/animal_stim/whitened/004_left_1.gif,deviant,36,1.0,1923.0,,,
770,SS1696529192179,5d28701c573e380001514923,survey-likert,,,,,37,,,,,background
771,SS1696529210551,61170fc882aceb0cbcfebe6e,curtain-display,,media/animal_stim/whitened/002_right_2.gif,media/animal_stim/whitened/002_right_1.gif,all_background,19,9.0,,,,
772,SS1696529210551,61170fc882aceb0cbcfebe6e,curtain-display,701.0,media/animal_stim/whitened/002_right_2.gif,media/animal_stim/whitened/002_right_1.gif,all_background,20,9.0,1201.0,,,
773,SS1696529192179,5d28701c573e380001514923,curtain-display,,media/animal_stim/whitened/005_left_1.gif,media/animal_stim/whitened/005_right_2.gif,all_background,38,1.0,,,,
774,SS1696529207608,5ffdf54a500d7740e02f3639,curtain-display,7787.0,,,,6,,8287.0,,,
775,SS1696529192179,5d28701c573e380001514923,curtain-display,1880.0,media/animal_stim/whitened/005_left_1.gif,media/animal_stim/whitened/005_right_2.gif,all_background,39,1.0,2380.0,,,
776,SS1696529210551,61170fc882aceb0cbcfebe6e,survey-likert,6462.0,,,,21,,,{'Q0': 0},[0],background
777,SS1696529192179,5d28701c573e380001514923,survey-likert,3705.0,,,,40,,,{'Q0': 3},[0],background
778,SS1696529210551,61170fc882aceb0cbcfebe6e,curtain-display,,media/animal_stim/whitened/005_left_2.gif,media/animal_stim/whitened/005_right_1.gif,all_background,22,3.0,,,,
779,SS1696529192179,5d28701c573e380001514923,curtain-display,,media/animal_stim/whitened/001_left_2.gif,media/animal_stim/whitened/001_left_1.gif,deviant,41,3.0,,,,
780,SS1696529210551,61170fc882aceb0cbcfebe6e,curtain-display,,media/animal_stim/whitened/005_left_2.gif,media/animal_stim/whitened/005_right_1.gif,all_background,23,3.0,,,,
781,SS1696529210551,61170fc882aceb0cbcfebe6e,curtain-display,,media/animal_stim/whitened/005_left_2.gif,media/animal_stim/whitened/005_right_1.gif,all_background,24,3.0,,,,
782,SS1696529186386,6090f6323a468814885fca1e,instructions,33414.0,,,,7,,,,,
783,SS1696529192179,5d28701c573e380001514923,curtain-display,,media/animal_stim/whitened/001_left_2.gif,media/animal_stim/whitened/001_left_1.gif,deviant,42,3.0,,,,
784,SS1696529192179,5d28701c573e380001514923,curtain-display,,media/animal_stim/whitened/001_left_2.gif,media/animal_stim/whitened/001_left_1.gif,deviant,43,3.0,,,,
785,SS1696529210551,61170fc882aceb0cbcfebe6e,curtain-display,1360.0,media/animal_stim/whitened/005_left_2.gif,media/animal_stim/whitened/005_right_1.gif,all_background,25,3.0,1860.0,,,
786,SS1696529210551,61170fc882aceb0cbcfebe6e,survey-likert,,,,,26,,,,,background
787,SS1696529192179,5d28701c573e380001514923,curtain-display,1141.0,media/animal_stim/whitened/001_left_2.gif,media/animal_stim/whitened/001_left_1.gif,deviant,44,3.0,1641.0,,,
788,SS1696529186386,6090f6323a468814885fca1e,curtain-display,,media/animal_stim/whitened/001_right_2.gif,media/animal_stim/whitened/001_left_1.gif,deviant,8,1.0,,,,
789,SS1696529192179,5d28701c573e380001514923,survey-likert,,,,,45,,,,,background
790,SS1696529210551,61170fc882aceb0cbcfebe6e,curtain-display,,media/animal_stim/whitened/006_left_2.gif,media/animal_stim/whitened/006_left_1.gif,deviant,27,3.0,,,,
791,SS1696529215750,5f3f051d2b1f171e336d114a,survey-multi-choice,27486.0,,,,50,,,"{'education': ""Bachelor's Degree""}",[0],
792,SS1696529186386,6090f6323a468814885fca1e,curtain-display,3758.0,media/animal_stim/whitened/001_right_2.gif,media/animal_stim/whitened/001_left_1.gif,deviant,9,1.0,4258.0,,,
793,SS1696529192179,5d28701c573e380001514923,html-button-response,4961.0,,,,46,,,0,,
794,SS1696529210551,61170fc882aceb0cbcfebe6e,curtain-display,,media/animal_stim/whitened/006_left_2.gif,media/animal_stim/whitened/006_left_1.gif,deviant,28,3.0,,,,
795,SS1696529215750,5f3f051d2b1f171e336d114a,html-button-response,3602.0,,,,51,,,0,,
796,SS1696529192179,5d28701c573e380001514923,survey-text,2492.0,,,,47,,,{'Q0': '35'},,
797,SS1696529186386,6090f6323a468814885fca1e,survey-likert,4352.0,,,,10,,,{'Q0': 3},[0],background
798,SS1696529210551,61170fc882aceb0cbcfebe6e,curtain-display,,media/animal_stim/whitened/006_left_2.gif,media/animal_stim/whitened/006_left_1.gif,deviant,29,3.0,,,,
799,SS1696529186386,6090f6323a468814885fca1e,curtain-display,,media/animal_stim/whitened/004_left_2.gif,media/animal_stim/whitened/004_right_1.gif,deviant,11,3.0,,,,
800,SS1696529192179,5d28701c573e380001514923,survey-multi-select,5243.0,,,,48,,,{'ethnicity': ['White']},[0],
801,SS1696529215750,5f3f051d2b1f171e336d114a,survey-text,6134.0,,,,52,,,{'Q0': '40'},,
802,SS1696529215750,5f3f051d2b1f171e336d114a,survey-multi-select,2006.0,,,,53,,,{'ethnicity': ['White']},[0],
803,SS1696529186386,6090f6323a468814885fca1e,curtain-display,,media/animal_stim/whitened/004_left_2.gif,media/animal_stim/whitened/004_right_1.gif,deviant,12,3.0,,,,
804,SS1696529192179,5d28701c573e380001514923,survey-text,3752.0,,,,49,,,{'Q0': 'male'},,
805,SS1696529186386,6090f6323a468814885fca1e,curtain-display,,media/animal_stim/whitened/004_left_2.gif,media/animal_stim/whitened/004_right_1.gif,deviant,13,3.0,,,,
806,SS1696529186386,6090f6323a468814885fca1e,curtain-display,,media/animal_stim/whitened/004_left_2.gif,media/animal_stim/whitened/004_right_1.gif,deviant,14,3.0,,,,
807,SS1696529215750,5f3f051d2b1f171e336d114a,survey-text,4706.0,,,,54,,,{'Q0': 'female'},,
808,SS1696529192179,5d28701c573e380001514923,survey-multi-choice,5947.0,,,,50,,,"{'education': ""Master's Degree""}",[0],
809,SS1696529192179,5d28701c573e380001514923,html-button-response,4404.0,,,,51,,,0,,
810,SS1696529186386,6090f6323a468814885fca1e,survey-likert,8504.0,,,,15,,,{'Q0': 3},[0],background
811,SS1696529215750,5f3f051d2b1f171e336d114a,survey-multi-choice,7980.0,,,,55,,,{'education': 'High school diploma'},[0],
812,SS1696529215750,5f3f051d2b1f171e336d114a,fullscreen,,,,,56,,,,,
813,SS1696529192179,5d28701c573e380001514923,survey-text,3794.0,,,,52,,,{'Q0': '35'},,
814,SS1696529186386,6090f6323a468814885fca1e,curtain-display,,media/animal_stim/whitened/006_left_1.gif,media/animal_stim/whitened/006_left_2.gif,all_background,16,1.0,,,,
815,SS1696529210551,61170fc882aceb0cbcfebe6e,curtain-display,21824.0,media/animal_stim/whitened/006_left_2.gif,media/animal_stim/whitened/006_left_1.gif,deviant,30,3.0,22324.0,,,
816,SS1696529192179,5d28701c573e380001514923,survey-multi-select,1429.0,,,,53,,,{'ethnicity': ['White']},[0],
817,SS1696529186386,6090f6323a468814885fca1e,curtain-display,14721.0,media/animal_stim/whitened/006_left_1.gif,media/animal_stim/whitened/006_left_2.gif,all_background,17,1.0,15221.0,,,
818,SS1696529186386,6090f6323a468814885fca1e,survey-likert,399.0,,,,18,,899.0,,,background
819,SS1696529207608,5ffdf54a500d7740e02f3639,instructions,,,,,7,,,,,
820,SS1696529192179,5d28701c573e380001514923,survey-text,3386.0,,,,54,,,{'Q0': 'male'},,
821,SS1696529210551,61170fc882aceb0cbcfebe6e,survey-likert,3421.0,,,,31,,,{'Q0': 3},[0],background
822,SS1696529186386,6090f6323a468814885fca1e,curtain-display,,media/animal_stim/whitened/005_right_1.gif,media/animal_stim/whitened/005_left_2.gif,all_background,19,3.0,,,,
823,SS1696529192179,5d28701c573e380001514923,survey-multi-choice,1648.0,,,,55,,,"{'education': ""Master's Degree""}",[0],
824,SS1696529192179,5d28701c573e380001514923,fullscreen,,,,,56,,,,,
825,SS1696529210551,61170fc882aceb0cbcfebe6e,curtain-display,,media/animal_stim/whitened/004_left_2.gif,media/animal_stim/whitened/004_right_1.gif,all_background,32,1.0,,,,
826,SS1696529207608,5ffdf54a500d7740e02f3639,curtain-display,,media/animal_stim/whitened/004_left_1.gif,media/animal_stim/whitened/004_left_2.gif,deviant,8,1.0,,,,
827,SS1696529186386,6090f6323a468814885fca1e,curtain-display,,media/animal_stim/whitened/005_right_1.gif,media/animal_stim/whitened/005_left_2.gif,all_background,20,3.0,,,,
828,SS1696529210551,61170fc882aceb0cbcfebe6e,curtain-display,,media/animal_stim/whitened/004_left_2.gif,media/animal_stim/whitened/004_right_1.gif,all_background,33,1.0,,,,
829,SS1696529210551,61170fc882aceb0cbcfebe6e,survey-likert,2294.0,,,,34,,,{'Q0': 3},[0],background
830,SS1696529215750,5f3f051d2b1f171e336d114a,html-button-response,14298.0,,,,57,,,0,,
831,SS1696529186386,6090f6323a468814885fca1e,curtain-display,,media/animal_stim/whitened/005_right_1.gif,media/animal_stim/whitened/005_left_2.gif,all_background,21,3.0,,,,
832,SS1696529207608,5ffdf54a500d7740e02f3639,curtain-display,3691.0,media/animal_stim/whitened/004_left_1.gif,media/animal_stim/whitened/004_left_2.gif,deviant,9,1.0,4191.0,,,
833,SS1696529210551,61170fc882aceb0cbcfebe6e,curtain-display,,media/animal_stim/whitened/001_left_2.gif,media/animal_stim/whitened/001_left_1.gif,deviant,35,9.0,,,,
834,SS1696529186386,6090f6323a468814885fca1e,curtain-display,1839.0,media/animal_stim/whitened/005_right_1.gif,media/animal_stim/whitened/005_left_2.gif,all_background,22,3.0,2339.0,,,
835,SS1696529210551,61170fc882aceb0cbcfebe6e,curtain-display,8912.0,media/animal_stim/whitened/001_left_2.gif,media/animal_stim/whitened/001_left_1.gif,deviant,36,9.0,9412.0,,,
836,SS1696529207608,5ffdf54a500d7740e02f3639,survey-likert,5399.0,,,,10,,,{'Q0': 2},[0],background
837,SS1696529210551,61170fc882aceb0cbcfebe6e,curtain-display,,media/animal_stim/whitened/001_left_2.gif,media/animal_stim/whitened/001_left_1.gif,deviant,37,9.0,,,,
838,SS1696529186386,6090f6323a468814885fca1e,survey-likert,3605.0,,,,23,,,{'Q0': 2},[0],background
839,SS1696529210551,61170fc882aceb0cbcfebe6e,curtain-display,,media/animal_stim/whitened/001_left_2.gif,media/animal_stim/whitened/001_left_1.gif,deviant,38,9.0,,,,
840,SS1696529207608,5ffdf54a500d7740e02f3639,curtain-display,,media/animal_stim/whitened/001_right_1.gif,media/animal_stim/whitened/001_left_2.gif,deviant,11,9.0,,,,
841,SS1696529210551,61170fc882aceb0cbcfebe6e,curtain-display,,media/animal_stim/whitened/001_left_2.gif,media/animal_stim/whitened/001_left_1.gif,deviant,39,9.0,,,,
842,SS1696529186386,6090f6323a468814885fca1e,curtain-display,,media/animal_stim/whitened/002_right_1.gif,media/animal_stim/whitened/002_left_2.gif,deviant,24,9.0,,,,
843,SS1696529210551,61170fc882aceb0cbcfebe6e,curtain-display,,media/animal_stim/whitened/001_left_2.gif,media/animal_stim/whitened/001_left_1.gif,deviant,40,9.0,,,,
844,SS1696529210551,61170fc882aceb0cbcfebe6e,curtain-display,,media/animal_stim/whitened/001_left_2.gif,media/animal_stim/whitened/001_left_1.gif,deviant,41,9.0,,,,
845,SS1696529207608,5ffdf54a500d7740e02f3639,curtain-display,,media/animal_stim/whitened/001_right_1.gif,media/animal_stim/whitened/001_left_2.gif,deviant,12,9.0,,,,
846,SS1696529210551,61170fc882aceb0cbcfebe6e,curtain-display,,media/animal_stim/whitened/001_left_2.gif,media/animal_stim/whitened/001_left_1.gif,deviant,42,9.0,,,,
847,SS1696529186386,6090f6323a468814885fca1e,curtain-display,,media/animal_stim/whitened/002_right_1.gif,media/animal_stim/whitened/002_left_2.gif,deviant,25,9.0,,,,
848,SS1696529210551,61170fc882aceb0cbcfebe6e,curtain-display,,media/animal_stim/whitened/001_left_2.gif,media/animal_stim/whitened/001_left_1.gif,deviant,43,9.0,,,,
849,SS1696529210551,61170fc882aceb0cbcfebe6e,curtain-display,,media/animal_stim/whitened/001_left_2.gif,media/animal_stim/whitened/001_left_1.gif,deviant,44,9.0,,,,
850,SS1696529207608,5ffdf54a500d7740e02f3639,curtain-display,,media/animal_stim/whitened/001_right_1.gif,media/animal_stim/whitened/001_left_2.gif,deviant,13,9.0,,,,
851,SS1696529186386,6090f6323a468814885fca1e,curtain-display,,media/animal_stim/whitened/002_right_1.gif,media/animal_stim/whitened/002_left_2.gif,deviant,26,9.0,,,,
852,SS1696529210551,61170fc882aceb0cbcfebe6e,survey-likert,,,,,45,,,,,background
853,SS1696529186386,6090f6323a468814885fca1e,curtain-display,,media/animal_stim/whitened/002_right_1.gif,media/animal_stim/whitened/002_left_2.gif,deviant,27,9.0,,,,
854,SS1696529210551,61170fc882aceb0cbcfebe6e,html-button-response,3032.0,,,,46,,,0,,
855,SS1696529207608,5ffdf54a500d7740e02f3639,curtain-display,,media/animal_stim/whitened/001_right_1.gif,media/animal_stim/whitened/001_left_2.gif,deviant,14,9.0,,,,
856,SS1696529186386,6090f6323a468814885fca1e,curtain-display,,media/animal_stim/whitened/002_right_1.gif,media/animal_stim/whitened/002_left_2.gif,deviant,28,9.0,,,,
857,SS1696529186386,6090f6323a468814885fca1e,curtain-display,,media/animal_stim/whitened/002_right_1.gif,media/animal_stim/whitened/002_left_2.gif,deviant,29,9.0,,,,
858,SS1696529210551,61170fc882aceb0cbcfebe6e,survey-text,1614.0,,,,47,,,{'Q0': '22'},,
859,SS1696529207608,5ffdf54a500d7740e02f3639,curtain-display,,media/animal_stim/whitened/001_right_1.gif,media/animal_stim/whitened/001_left_2.gif,deviant,15,9.0,,,,
860,SS1696529186386,6090f6323a468814885fca1e,curtain-display,,media/animal_stim/whitened/002_right_1.gif,media/animal_stim/whitened/002_left_2.gif,deviant,30,9.0,,,,
861,SS1696529210551,61170fc882aceb0cbcfebe6e,survey-multi-select,2402.0,,,,48,,,{'ethnicity': ['Hispanic or Latino']},[0],
862,SS1696529186386,6090f6323a468814885fca1e,curtain-display,,media/animal_stim/whitened/002_right_1.gif,media/animal_stim/whitened/002_left_2.gif,deviant,31,9.0,,,,
863,SS1696529210551,61170fc882aceb0cbcfebe6e,survey-text,2859.0,,,,49,,,{'Q0': 'male'},,
864,SS1696529207608,5ffdf54a500d7740e02f3639,curtain-display,,media/animal_stim/whitened/001_right_1.gif,media/animal_stim/whitened/001_left_2.gif,deviant,16,9.0,,,,
865,SS1696529186386,6090f6323a468814885fca1e,curtain-display,,media/animal_stim/whitened/002_right_1.gif,media/animal_stim/whitened/002_left_2.gif,deviant,32,9.0,,,,
866,SS1696529186386,6090f6323a468814885fca1e,curtain-display,,media/animal_stim/whitened/002_right_1.gif,media/animal_stim/whitened/002_left_2.gif,deviant,33,9.0,,,,
867,SS1696529207608,5ffdf54a500d7740e02f3639,curtain-display,,media/animal_stim/whitened/001_right_1.gif,media/animal_stim/whitened/001_left_2.gif,deviant,17,9.0,,,,
868,SS1696529186386,6090f6323a468814885fca1e,survey-likert,5380.0,,,,34,,,{'Q0': 3},[0],background
869,SS1696529186386,6090f6323a468814885fca1e,curtain-display,,media/animal_stim/whitened/003_left_1.gif,media/animal_stim/whitened/003_left_2.gif,all_background,35,9.0,,,,
870,SS1696529207608,5ffdf54a500d7740e02f3639,curtain-display,,media/animal_stim/whitened/001_right_1.gif,media/animal_stim/whitened/001_left_2.gif,deviant,18,9.0,,,,
871,SS1696529210551,61170fc882aceb0cbcfebe6e,survey-multi-choice,7749.0,,,,50,,,{'education': 'Associate Degree/Technical certification'},[0],
872,SS1696529186386,6090f6323a468814885fca1e,curtain-display,,media/animal_stim/whitened/003_left_1.gif,media/animal_stim/whitened/003_left_2.gif,all_background,36,9.0,,,,
873,SS1696529210551,61170fc882aceb0cbcfebe6e,html-button-response,2416.0,,,,51,,,0,,
874,SS1696529186386,6090f6323a468814885fca1e,curtain-display,,media/animal_stim/whitened/003_left_1.gif,media/animal_stim/whitened/003_left_2.gif,all_background,37,9.0,,,,
875,SS1696529207608,5ffdf54a500d7740e02f3639,curtain-display,,media/animal_stim/whitened/001_right_1.gif,media/animal_stim/whitened/001_left_2.gif,deviant,19,9.0,,,,
876,SS1696529210551,61170fc882aceb0cbcfebe6e,survey-text,1614.0,,,,52,,,{'Q0': '22'},,
877,SS1696529210551,61170fc882aceb0cbcfebe6e,survey-multi-select,1580.0,,,,53,,,{'ethnicity': ['Hispanic or Latino']},[0],
878,SS1696529186386,6090f6323a468814885fca1e,curtain-display,,media/animal_stim/whitened/003_left_1.gif,media/animal_stim/whitened/003_left_2.gif,all_background,38,9.0,,,,
879,SS1696529186386,6090f6323a468814885fca1e,curtain-display,,media/animal_stim/whitened/003_left_1.gif,media/animal_stim/whitened/003_left_2.gif,all_background,39,9.0,,,,
880,SS1696529186386,6090f6323a468814885fca1e,curtain-display,,media/animal_stim/whitened/003_left_1.gif,media/animal_stim/whitened/003_left_2.gif,all_background,40,9.0,,,,
881,SS1696529210551,61170fc882aceb0cbcfebe6e,survey-text,3748.0,,,,54,,,{'Q0': 'male'},,
882,SS1696529207608,5ffdf54a500d7740e02f3639,curtain-display,5154.0,media/animal_stim/whitened/001_right_1.gif,media/animal_stim/whitened/001_left_2.gif,deviant,20,9.0,5654.0,,,
883,SS1696529186386,6090f6323a468814885fca1e,curtain-display,,media/animal_stim/whitened/003_left_1.gif,media/animal_stim/whitened/003_left_2.gif,all_background,41,9.0,,,,
884,SS1696529207608,5ffdf54a500d7740e02f3639,survey-likert,2482.0,,,,21,,,{'Q0': 1},[0],background
885,SS1696529186386,6090f6323a468814885fca1e,curtain-display,,media/animal_stim/whitened/003_left_1.gif,media/animal_stim/whitened/003_left_2.gif,all_background,42,9.0,,,,
886,SS1696529186386,6090f6323a468814885fca1e,curtain-display,,media/animal_stim/whitened/003_left_1.gif,media/animal_stim/whitened/003_left_2.gif,all_background,43,9.0,,,,
887,SS1696529186386,6090f6323a468814885fca1e,curtain-display,,media/animal_stim/whitened/003_left_1.gif,media/animal_stim/whitened/003_left_2.gif,all_background,44,9.0,,,,
888,SS1696529210551,61170fc882aceb0cbcfebe6e,survey-multi-choice,3832.0,,,,55,,,{'education': 'Associate Degree/Technical certification'},[0],
889,SS1696529210551,61170fc882aceb0cbcfebe6e,fullscreen,,,,,56,,,,,
890,SS1696529207608,5ffdf54a500d7740e02f3639,curtain-display,,media/animal_stim/whitened/006_left_1.gif,media/animal_stim/whitened/006_left_2.gif,all_background,22,9.0,,,,
891,SS1696529186386,6090f6323a468814885fca1e,survey-likert,,,,,45,,,,,background
892,SS1696529207608,5ffdf54a500d7740e02f3639,curtain-display,,media/animal_stim/whitened/006_left_1.gif,media/animal_stim/whitened/006_left_2.gif,all_background,23,9.0,,,,
893,SS1696529186386,6090f6323a468814885fca1e,html-button-response,3963.0,,,,46,,,0,,
894,SS1696529207608,5ffdf54a500d7740e02f3639,curtain-display,,media/animal_stim/whitened/006_left_1.gif,media/animal_stim/whitened/006_left_2.gif,all_background,24,9.0,,,,
895,SS1696529207608,5ffdf54a500d7740e02f3639,curtain-display,,media/animal_stim/whitened/006_left_1.gif,media/animal_stim/whitened/006_left_2.gif,all_background,25,9.0,,,,
896,SS1696529210551,61170fc882aceb0cbcfebe6e,html-button-response,9747.0,,,,57,,,0,,
897,SS1696529186386,6090f6323a468814885fca1e,survey-text,3159.0,,,,47,,,{'Q0': '20'},,
898,SS1696529207608,5ffdf54a500d7740e02f3639,curtain-display,,media/animal_stim/whitened/006_left_1.gif,media/animal_stim/whitened/006_left_2.gif,all_background,26,9.0,,,,
899,SS1696529207608,5ffdf54a500d7740e02f3639,curtain-display,,media/animal_stim/whitened/006_left_1.gif,media/animal_stim/whitened/006_left_2.gif,all_background,27,9.0,,,,
900,SS1696529207608,5ffdf54a500d7740e02f3639,curtain-display,,media/animal_stim/whitened/006_left_1.gif,media/animal_stim/whitened/006_left_2.gif,all_background,28,9.0,,,,
901,SS1696529207608,5ffdf54a500d7740e02f3639,curtain-display,,media/animal_stim/whitened/006_left_1.gif,media/animal_stim/whitened/006_left_2.gif,all_background,29,9.0,,,,
902,SS1696529186386,6090f6323a468814885fca1e,survey-multi-select,7694.0,,,,48,,,{'ethnicity': ['White']},[0],
903,SS1696529207608,5ffdf54a500d7740e02f3639,curtain-display,,media/animal_stim/whitened/006_left_1.gif,media/animal_stim/whitened/006_left_2.gif,all_background,30,9.0,,,,
904,SS1696529207608,5ffdf54a500d7740e02f3639,curtain-display,,media/animal_stim/whitened/006_left_1.gif,media/animal_stim/whitened/006_left_2.gif,all_background,31,9.0,,,,
905,SS1696529186386,6090f6323a468814885fca1e,survey-text,6706.0,,,,49,,,{'Q0': 'Male'},,
906,SS1696529207608,5ffdf54a500d7740e02f3639,survey-likert,6886.0,,,,32,,,{'Q0': 2},[0],background
907,SS1696529207608,5ffdf54a500d7740e02f3639,curtain-display,,media/animal_stim/whitened/003_right_2.gif,media/animal_stim/whitened/003_left_1.gif,all_background,33,1.0,,,,
908,SS1696529207608,5ffdf54a500d7740e02f3639,curtain-display,14987.0,media/animal_stim/whitened/003_right_2.gif,media/animal_stim/whitened/003_left_1.gif,all_background,34,1.0,15487.0,,,
909,SS1696529207608,5ffdf54a500d7740e02f3639,survey-likert,3710.0,,,,35,,4210.0,,,background
910,SS1696529207608,5ffdf54a500d7740e02f3639,curtain-display,,media/animal_stim/whitened/005_left_2.gif,media/animal_stim/whitened/005_right_1.gif,deviant,36,3.0,,,,
911,SS1696529568320,607e00d9883d3e470ccb5763,preload,,,,,0,,,,,
912,SS1696529568062,607e00d9883d3e470ccb5763,preload,,,,,0,,,,,
913,SS1696529207608,5ffdf54a500d7740e02f3639,curtain-display,,media/animal_stim/whitened/005_left_2.gif,media/animal_stim/whitened/005_right_1.gif,deviant,37,3.0,,,,
914,SS1696529568320,607e00d9883d3e470ccb5763,fullscreen,,,,,1,,,,,
915,SS1696529207608,5ffdf54a500d7740e02f3639,curtain-display,,media/animal_stim/whitened/005_left_2.gif,media/animal_stim/whitened/005_right_1.gif,deviant,38,3.0,,,,
916,SS1696529568320,607e00d9883d3e470ccb5763,instructions,4220.0,,,,2,,,,,
917,SS1696529207608,5ffdf54a500d7740e02f3639,curtain-display,,media/animal_stim/whitened/005_left_2.gif,media/animal_stim/whitened/005_right_1.gif,deviant,39,3.0,,,,
918,SS1696529207608,5ffdf54a500d7740e02f3639,survey-likert,3994.0,,,,40,,,{'Q0': 3},[0],background
919,SS1696529207608,5ffdf54a500d7740e02f3639,curtain-display,,media/animal_stim/whitened/002_right_2.gif,media/animal_stim/whitened/002_right_1.gif,all_background,41,3.0,,,,
920,SS1696529207608,5ffdf54a500d7740e02f3639,curtain-display,,media/animal_stim/whitened/002_right_2.gif,media/animal_stim/whitened/002_right_1.gif,all_background,42,3.0,,,,
921,SS1696529207608,5ffdf54a500d7740e02f3639,curtain-display,,media/animal_stim/whitened/002_right_2.gif,media/animal_stim/whitened/002_right_1.gif,all_background,43,3.0,,,,
922,SS1696529568320,607e00d9883d3e470ccb5763,instructions,21713.0,,,,3,,,,,
923,SS1696529207608,5ffdf54a500d7740e02f3639,curtain-display,26582.0,media/animal_stim/whitened/002_right_2.gif,media/animal_stim/whitened/002_right_1.gif,all_background,44,3.0,27082.0,,,
924,SS1696529207608,5ffdf54a500d7740e02f3639,survey-likert,7408.0,,,,45,,7908.0,,,background
925,SS1696529568320,607e00d9883d3e470ccb5763,curtain-display,,,,,4,,,,,
926,SS1696529207608,5ffdf54a500d7740e02f3639,html-button-response,,,,,46,,,,,
927,SS1696529568320,607e00d9883d3e470ccb5763,curtain-display,,,,,5,,,,,
928,SS1696529568320,607e00d9883d3e470ccb5763,curtain-display,2062.0,,,,6,,2562.0,,,
929,SS1696529207608,5ffdf54a500d7740e02f3639,survey-text,9221.0,,,,47,,,{'Q0': '28'},,
930,SS1696529207608,5ffdf54a500d7740e02f3639,survey-multi-select,,,,,48,,,,,
931,SS1696529325981,5f7cc289ebacb5154314e63f,preload,,,,,0,,,,,
932,SS1696529325920,5f7cc289ebacb5154314e63f,preload,,,,,0,,,,,
933,SS1696529207608,5ffdf54a500d7740e02f3639,survey-text,5967.0,,,,49,,,{'Q0': 'Male'},,
934,SS1696529325981,5f7cc289ebacb5154314e63f,fullscreen,,,,,1,,,,,
935,SS1696529207608,5ffdf54a500d7740e02f3639,survey-multi-choice,,,,,50,,,,,
936,SS1696529568320,607e00d9883d3e470ccb5763,instructions,27075.0,,,,7,,,,,
937,SS1696529568320,607e00d9883d3e470ccb5763,curtain-display,,media/animal_stim/whitened/006_left_2.gif,media/animal_stim/whitened/006_left_1.gif,deviant,8,3.0,,,,
938,SS1696529568320,607e00d9883d3e470ccb5763,curtain-display,,media/animal_stim/whitened/006_left_2.gif,media/animal_stim/whitened/006_left_1.gif,deviant,9,3.0,,,,
939,SS1696529568320,607e00d9883d3e470ccb5763,curtain-display,,media/animal_stim/whitened/006_left_2.gif,media/animal_stim/whitened/006_left_1.gif,deviant,10,3.0,,,,
940,SS1696529568320,607e00d9883d3e470ccb5763,curtain-display,471.0,media/animal_stim/whitened/006_left_2.gif,media/animal_stim/whitened/006_left_1.gif,deviant,11,3.0,971.0,,,
941,SS1696529207608,5ffdf54a500d7740e02f3639,html-button-response,,,,,51,,,,,
942,SS1696529207608,5ffdf54a500d7740e02f3639,survey-text,8811.0,,,,52,,,{'Q0': '28'},,
943,SS1696529325981,5f7cc289ebacb5154314e63f,instructions,31035.0,,,,2,,,,,
944,SS1696529207608,5ffdf54a500d7740e02f3639,survey-multi-select,2864.0,,,,53,,,{'ethnicity': ['White']},[0],
945,SS1696529568320,607e00d9883d3e470ccb5763,survey-likert,15079.0,,,,12,,,{'Q0': 0},[0],background
946,SS1696529207608,5ffdf54a500d7740e02f3639,survey-text,2243.0,,,,54,,,{'Q0': 'Male'},,
947,SS1696529568320,607e00d9883d3e470ccb5763,curtain-display,,media/animal_stim/whitened/002_right_1.gif,media/animal_stim/whitened/002_right_2.gif,all_background,13,1.0,,,,
948,SS1696529568320,607e00d9883d3e470ccb5763,curtain-display,,media/animal_stim/whitened/002_right_1.gif,media/animal_stim/whitened/002_right_2.gif,all_background,14,1.0,,,,
949,SS1696529207608,5ffdf54a500d7740e02f3639,survey-multi-choice,2023.0,,,,55,,,{'education': 'High school diploma'},[0],
950,SS1696529568320,607e00d9883d3e470ccb5763,survey-likert,465.0,,,,15,,965.0,,,background
951,SS1696529207608,5ffdf54a500d7740e02f3639,fullscreen,,,,,56,,,,,
952,SS1696529568320,607e00d9883d3e470ccb5763,curtain-display,,media/animal_stim/whitened/004_left_2.gif,media/animal_stim/whitened/004_right_1.gif,deviant,16,1.0,,,,
953,SS1696529207608,5ffdf54a500d7740e02f3639,html-button-response,3722.0,,,,57,,,0,,
954,SS1696529568320,607e00d9883d3e470ccb5763,curtain-display,746.0,media/animal_stim/whitened/004_left_2.gif,media/animal_stim/whitened/004_right_1.gif,deviant,17,1.0,1246.0,,,
955,SS1696529568320,607e00d9883d3e470ccb5763,survey-likert,6111.0,,,,18,,,{'Q0': 1},[0],background
956,SS1696529568320,607e00d9883d3e470ccb5763,curtain-display,,media/animal_stim/whitened/005_left_2.gif,media/animal_stim/whitened/005_left_1.gif,all_background,19,3.0,,,,
957,SS1696529568320,607e00d9883d3e470ccb5763,curtain-display,,media/animal_stim/whitened/005_left_2.gif,media/animal_stim/whitened/005_left_1.gif,all_background,20,3.0,,,,
958,SS1696529568320,607e00d9883d3e470ccb5763,curtain-display,,media/animal_stim/whitened/005_left_2.gif,media/animal_stim/whitened/005_left_1.gif,all_background,21,3.0,,,,
959,SS1696529568320,607e00d9883d3e470ccb5763,curtain-display,392.0,media/animal_stim/whitened/005_left_2.gif,media/animal_stim/whitened/005_left_1.gif,all_background,22,3.0,892.0,,,
960,SS1696529671693,,preload,,,,,0,,,,,
961,SS1696529671826,,preload,,,,,0,,,,,
962,SS1696529671826,,fullscreen,,,,,1,,,,,
963,SS1696529568320,607e00d9883d3e470ccb5763,survey-likert,5451.0,,,,23,,,{'Q0': 2},[0],background
964,SS1696529671826,,instructions,3595.0,,,,2,,,,,
965,SS1696529568320,607e00d9883d3e470ccb5763,curtain-display,,media/animal_stim/whitened/003_right_2.gif,media/animal_stim/whitened/003_left_1.gif,all_background,24,9.0,,,,
966,SS1696529568320,607e00d9883d3e470ccb5763,curtain-display,,media/animal_stim/whitened/003_right_2.gif,media/animal_stim/whitened/003_left_1.gif,all_background,25,9.0,,,,
967,SS1696529671826,,instructions,2264.0,,,,3,,,,,
968,SS1696529325981,5f7cc289ebacb5154314e63f,instructions,41204.0,,,,3,,,,,
969,SS1696529568320,607e00d9883d3e470ccb5763,curtain-display,,media/animal_stim/whitened/003_right_2.gif,media/animal_stim/whitened/003_left_1.gif,all_background,26,9.0,,,,
970,SS1696529568320,607e00d9883d3e470ccb5763,curtain-display,,media/animal_stim/whitened/003_right_2.gif,media/animal_stim/whitened/003_left_1.gif,all_background,27,9.0,,,,
971,SS1696529671826,,curtain-display,,,,,4,,,,,
972,SS1696529325981,5f7cc289ebacb5154314e63f,curtain-display,,,,,4,,,,,
973,SS1696529568320,607e00d9883d3e470ccb5763,curtain-display,,media/animal_stim/whitened/003_right_2.gif,media/animal_stim/whitened/003_left_1.gif,all_background,28,9.0,,,,
974,SS1696529568320,607e00d9883d3e470ccb5763,curtain-display,,media/animal_stim/whitened/003_right_2.gif,media/animal_stim/whitened/003_left_1.gif,all_background,29,9.0,,,,
975,SS1696529671826,,curtain-display,,,,,5,,,,,
976,SS1696529671826,,curtain-display,783.0,,,,6,,1283.0,,,
977,SS1696529325981,5f7cc289ebacb5154314e63f,curtain-display,,,,,5,,,,,
978,SS1696529568320,607e00d9883d3e470ccb5763,curtain-display,,media/animal_stim/whitened/003_right_2.gif,media/animal_stim/whitened/003_left_1.gif,all_background,30,9.0,,,,
979,SS1696529568320,607e00d9883d3e470ccb5763,curtain-display,,media/animal_stim/whitened/003_right_2.gif,media/animal_stim/whitened/003_left_1.gif,all_background,31,9.0,,,,
980,SS1696529671826,,instructions,3120.0,,,,7,,,,,
981,SS1696529568320,607e00d9883d3e470ccb5763,curtain-display,,media/animal_stim/whitened/003_right_2.gif,media/animal_stim/whitened/003_left_1.gif,all_background,32,9.0,,,,
982,SS1696529568320,607e00d9883d3e470ccb5763,curtain-display,,media/animal_stim/whitened/003_right_2.gif,media/animal_stim/whitened/003_left_1.gif,all_background,33,9.0,,,,
983,SS1696529671826,,curtain-display,,media/animal_stim/whitened/005_left_1.gif,media/animal_stim/whitened/005_left_2.gif,deviant,8,9.0,,,,
984,SS1696529568320,607e00d9883d3e470ccb5763,survey-likert,5365.0,,,,34,,,{'Q0': 2},[0],background
985,SS1696529671826,,curtain-display,,media/animal_stim/whitened/005_left_1.gif,media/animal_stim/whitened/005_left_2.gif,deviant,9,9.0,,,,
986,SS1696529568320,607e00d9883d3e470ccb5763,curtain-display,,media/animal_stim/whitened/001_right_1.gif,media/animal_stim/whitened/001_left_2.gif,deviant,35,9.0,,,,
987,SS1696529671826,,curtain-display,,media/animal_stim/whitened/005_left_1.gif,media/animal_stim/whitened/005_left_2.gif,deviant,10,9.0,,,,
988,SS1696529568320,607e00d9883d3e470ccb5763,curtain-display,,media/animal_stim/whitened/001_right_1.gif,media/animal_stim/whitened/001_left_2.gif,deviant,36,9.0,,,,
989,SS1696529325981,5f7cc289ebacb5154314e63f,curtain-display,14608.0,,,,6,,15108.0,,,
990,SS1696529568320,607e00d9883d3e470ccb5763,curtain-display,,media/animal_stim/whitened/001_right_1.gif,media/animal_stim/whitened/001_left_2.gif,deviant,37,9.0,,,,
991,SS1696529671826,,curtain-display,,media/animal_stim/whitened/005_left_1.gif,media/animal_stim/whitened/005_left_2.gif,deviant,11,9.0,,,,
992,SS1696529568320,607e00d9883d3e470ccb5763,curtain-display,,media/animal_stim/whitened/001_right_1.gif,media/animal_stim/whitened/001_left_2.gif,deviant,38,9.0,,,,
993,SS1696529568320,607e00d9883d3e470ccb5763,curtain-display,,media/animal_stim/whitened/001_right_1.gif,media/animal_stim/whitened/001_left_2.gif,deviant,39,9.0,,,,
994,SS1696529568320,607e00d9883d3e470ccb5763,curtain-display,,media/animal_stim/whitened/001_right_1.gif,media/animal_stim/whitened/001_left_2.gif,deviant,40,9.0,,,,
995,SS1696529671826,,curtain-display,,media/animal_stim/whitened/005_left_1.gif,media/animal_stim/whitened/005_left_2.gif,deviant,12,9.0,,,,
996,SS1696529568320,607e00d9883d3e470ccb5763,curtain-display,,media/animal_stim/whitened/001_right_1.gif,media/animal_stim/whitened/001_left_2.gif,deviant,41,9.0,,,,
997,SS1696529568320,607e00d9883d3e470ccb5763,curtain-display,,media/animal_stim/whitened/001_right_1.gif,media/animal_stim/whitened/001_left_2.gif,deviant,42,9.0,,,,
998,SS1696529568320,607e00d9883d3e470ccb5763,curtain-display,,media/animal_stim/whitened/001_right_1.gif,media/animal_stim/whitened/001_left_2.gif,deviant,43,9.0,,,,
999,SS1696529671826,,curtain-display,,media/animal_stim/whitened/005_left_1.gif,media/animal_stim/whitened/005_left_2.gif,deviant,13,9.0,,,,
1000,SS1696529568320,607e00d9883d3e470ccb5763,curtain-display,,media/animal_stim/whitened/001_right_1.gif,media/animal_stim/whitened/001_left_2.gif,deviant,44,9.0,,,,
1001,SS1696529568320,607e00d9883d3e470ccb5763,survey-likert,,,,,45,,,,,background
1002,SS1696529671826,,curtain-display,,media/animal_stim/whitened/005_left_1.gif,media/animal_stim/whitened/005_left_2.gif,deviant,14,9.0,,,,
1003,SS1696529568320,607e00d9883d3e470ccb5763,html-button-response,4870.0,,,,46,,,0,,
1004,SS1696529671826,,curtain-display,,media/animal_stim/whitened/005_left_1.gif,media/animal_stim/whitened/005_left_2.gif,deviant,15,9.0,,,,
1005,SS1696529568320,607e00d9883d3e470ccb5763,survey-text,2738.0,,,,47,,,{'Q0': '24'},,
1006,SS1696529671826,,curtain-display,,media/animal_stim/whitened/005_left_1.gif,media/animal_stim/whitened/005_left_2.gif,deviant,16,9.0,,,,
1007,SS1696529671826,,curtain-display,990.0,media/animal_stim/whitened/005_left_1.gif,media/animal_stim/whitened/005_left_2.gif,deviant,17,9.0,1490.0,,,
1008,SS1696529568320,607e00d9883d3e470ccb5763,survey-multi-select,5140.0,,,,48,,,{'ethnicity': ['White']},[0],
1009,SS1696529671826,,survey-likert,3070.0,,,,18,,,{'Q0': 3},[0],background
1010,SS1696529568320,607e00d9883d3e470ccb5763,survey-text,4917.0,,,,49,,,{'Q0': 'Man'},,
1011,SS1696529671826,,curtain-display,,media/animal_stim/whitened/002_right_1.gif,media/animal_stim/whitened/002_right_2.gif,deviant,19,1.0,,,,
1012,SS1696529671826,,curtain-display,1580.0,media/animal_stim/whitened/002_right_1.gif,media/animal_stim/whitened/002_right_2.gif,deviant,20,1.0,2080.0,,,
1013,SS1696529568320,607e00d9883d3e470ccb5763,survey-multi-choice,7165.0,,,,50,,,"{'education': ""Bachelor's Degree""}",[0],
1014,SS1696529671826,,survey-likert,4642.0,,,,21,,,{'Q0': 2},[0],background
1015,SS1696529671826,,curtain-display,,media/animal_stim/whitened/003_right_2.gif,media/animal_stim/whitened/003_left_1.gif,all_background,22,9.0,,,,
1016,SS1696529568320,607e00d9883d3e470ccb5763,html-button-response,3814.0,,,,51,,,0,,
1017,SS1696529568320,607e00d9883d3e470ccb5763,survey-text,2682.0,,,,52,,,{'Q0': '24'},,
1018,SS1696529671826,,curtain-display,,media/animal_stim/whitened/003_right_2.gif,media/animal_stim/whitened/003_left_1.gif,all_background,23,9.0,,,,
1019,SS1696529671826,,curtain-display,,media/animal_stim/whitened/003_right_2.gif,media/animal_stim/whitened/003_left_1.gif,all_background,24,9.0,,,,
1020,SS1696529568320,607e00d9883d3e470ccb5763,survey-multi-select,2119.0,,,,53,,,{'ethnicity': ['White']},[0],
1021,SS1696529325981,5f7cc289ebacb5154314e63f,instructions,,,,,7,,,,,
1022,SS1696529671826,,curtain-display,,media/animal_stim/whitened/003_right_2.gif,media/animal_stim/whitened/003_left_1.gif,all_background,25,9.0,,,,
1023,SS1696529671826,,curtain-display,,media/animal_stim/whitened/003_right_2.gif,media/animal_stim/whitened/003_left_1.gif,all_background,26,9.0,,,,
1024,SS1696529568320,607e00d9883d3e470ccb5763,survey-text,3752.0,,,,54,,,{'Q0': 'Man'},,
1025,SS1696529325981,5f7cc289ebacb5154314e63f,curtain-display,,media/animal_stim/whitened/006_left_2.gif,media/animal_stim/whitened/006_left_1.gif,deviant,8,3.0,,,,
1026,SS1696529671826,,curtain-display,,media/animal_stim/whitened/003_right_2.gif,media/animal_stim/whitened/003_left_1.gif,all_background,27,9.0,,,,
1027,SS1696529568320,607e00d9883d3e470ccb5763,survey-multi-choice,2493.0,,,,55,,,"{'education': ""Bachelor's Degree""}",[0],
1028,SS1696529568320,607e00d9883d3e470ccb5763,fullscreen,,,,,56,,,,,
1029,SS1696529671826,,curtain-display,,media/animal_stim/whitened/003_right_2.gif,media/animal_stim/whitened/003_left_1.gif,all_background,28,9.0,,,,
1030,SS1696529325981,5f7cc289ebacb5154314e63f,curtain-display,,media/animal_stim/whitened/006_left_2.gif,media/animal_stim/whitened/006_left_1.gif,deviant,9,3.0,,,,
1031,SS1696529671826,,curtain-display,,media/animal_stim/whitened/003_right_2.gif,media/animal_stim/whitened/003_left_1.gif,all_background,29,9.0,,,,
1032,SS1696529671826,,curtain-display,,media/animal_stim/whitened/003_right_2.gif,media/animal_stim/whitened/003_left_1.gif,all_background,30,9.0,,,,
1033,SS1696529671826,,curtain-display,1532.0,media/animal_stim/whitened/003_right_2.gif,media/animal_stim/whitened/003_left_1.gif,all_background,31,9.0,2032.0,,,
1034,SS1696529325981,5f7cc289ebacb5154314e63f,curtain-display,,media/animal_stim/whitened/006_left_2.gif,media/animal_stim/whitened/006_left_1.gif,deviant,10,3.0,,,,
1035,SS1696529671826,,survey-likert,,,,,32,,,,,background
1036,SS1696529671826,,curtain-display,,media/animal_stim/whitened/001_left_2.gif,media/animal_stim/whitened/001_left_1.gif,all_background,33,1.0,,,,
1037,SS1696529568320,607e00d9883d3e470ccb5763,html-button-response,11381.0,,,,57,,,0,,
1038,SS1696529671826,,curtain-display,1178.0,media/animal_stim/whitened/001_left_2.gif,media/animal_stim/whitened/001_left_1.gif,all_background,34,1.0,1678.0,,,
1039,SS1696529671826,,survey-likert,1366.0,,,,35,,,{'Q0': 3},[0],background
1040,SS1696529671826,,curtain-display,,media/animal_stim/whitened/004_left_2.gif,media/animal_stim/whitened/004_right_1.gif,all_background,36,3.0,,,,
1041,SS1696529325981,5f7cc289ebacb5154314e63f,curtain-display,11440.0,media/animal_stim/whitened/006_left_2.gif,media/animal_stim/whitened/006_left_1.gif,deviant,11,3.0,11940.0,,,
1042,SS1696529671826,,curtain-display,,media/animal_stim/whitened/004_left_2.gif,media/animal_stim/whitened/004_right_1.gif,all_background,37,3.0,,,,
1043,SS1696529671826,,curtain-display,,media/animal_stim/whitened/004_left_2.gif,media/animal_stim/whitened/004_right_1.gif,all_background,38,3.0,,,,
1044,SS1696529671826,,curtain-display,1811.0,media/animal_stim/whitened/004_left_2.gif,media/animal_stim/whitened/004_right_1.gif,all_background,39,3.0,2311.0,,,
1045,SS1696529671826,,survey-likert,,,,,40,,,,,background
1046,SS1696529671826,,curtain-display,,media/animal_stim/whitened/006_left_1.gif,media/animal_stim/whitened/006_left_2.gif,deviant,41,3.0,,,,
1047,SS1696529671826,,curtain-display,,media/animal_stim/whitened/006_left_1.gif,media/animal_stim/whitened/006_left_2.gif,deviant,42,3.0,,,,
1048,SS1696529671826,,curtain-display,,media/animal_stim/whitened/006_left_1.gif,media/animal_stim/whitened/006_left_2.gif,deviant,43,3.0,,,,
1049,SS1696529671826,,curtain-display,103.0,media/animal_stim/whitened/006_left_1.gif,media/animal_stim/whitened/006_left_2.gif,deviant,44,3.0,603.0,,,
1050,SS1696529671826,,survey-likert,,,,,45,,,,,background
1051,SS1696529671826,,html-button-response,3013.0,,,,46,,,0,,
1052,SS1696529671826,,survey-text,2462.0,,,,47,,,{'Q0': '20'},,
1053,SS1696529671826,,survey-multi-select,2062.0,,,,48,,,{'ethnicity': ['White']},[0],
1054,SS1696529671826,,survey-text,4613.0,,,,49,,,{'Q0': 'Male'},,
1055,SS1696529671826,,survey-multi-choice,3467.0,,,,50,,,{'education': 'High school diploma'},[0],
1056,SS1696529671826,,html-button-response,1418.0,,,,51,,,0,,
1057,SS1696529671826,,survey-text,4101.0,,,,52,,,{'Q0': '20'},,
1058,SS1696529671826,,survey-multi-select,2058.0,,,,53,,,{'ethnicity': ['White']},[0],
1059,SS1696529325981,5f7cc289ebacb5154314e63f,survey-likert,,,,,12,,,,,background
1060,SS1696529671826,,survey-text,3974.0,,,,54,,,{'Q0': 'male'},,
1061,SS1696529671826,,survey-multi-choice,3366.0,,,,55,,,{'education': 'High school diploma'},[0],
1062,SS1696529671826,,fullscreen,,,,,56,,,,,
1063,SS1696529325981,5f7cc289ebacb5154314e63f,curtain-display,,media/animal_stim/whitened/005_left_2.gif,media/animal_stim/whitened/005_left_1.gif,deviant,13,1.0,,,,
1064,SS1696529325981,5f7cc289ebacb5154314e63f,curtain-display,6588.0,media/animal_stim/whitened/005_left_2.gif,media/animal_stim/whitened/005_left_1.gif,deviant,14,1.0,7088.0,,,
1065,SS1696529325981,5f7cc289ebacb5154314e63f,survey-likert,5657.0,,,,15,,,{'Q0': 1},[0],background
1066,SS1696529325981,5f7cc289ebacb5154314e63f,curtain-display,,media/animal_stim/whitened/004_left_1.gif,media/animal_stim/whitened/004_left_2.gif,all_background,16,3.0,,,,
1067,SS1696529325981,5f7cc289ebacb5154314e63f,curtain-display,,media/animal_stim/whitened/004_left_1.gif,media/animal_stim/whitened/004_left_2.gif,all_background,17,3.0,,,,
1068,SS1696529325981,5f7cc289ebacb5154314e63f,curtain-display,,media/animal_stim/whitened/004_left_1.gif,media/animal_stim/whitened/004_left_2.gif,all_background,18,3.0,,,,
1069,SS1696529671826,,html-button-response,26521.0,,,,57,,,0,,
1070,SS1696529325981,5f7cc289ebacb5154314e63f,curtain-display,5704.0,media/animal_stim/whitened/004_left_1.gif,media/animal_stim/whitened/004_left_2.gif,all_background,19,3.0,6204.0,,,
1071,SS1696529192179,5d28701c573e380001514923,html-button-response,409770.0,,,,57,,,0,,
1072,SS1696529325981,5f7cc289ebacb5154314e63f,survey-likert,7403.0,,,,20,,,{'Q0': 0},[0],background
1073,SS1696529325981,5f7cc289ebacb5154314e63f,curtain-display,,media/animal_stim/whitened/003_right_1.gif,media/animal_stim/whitened/003_left_2.gif,deviant,21,9.0,,,,
1074,SS1696529325981,5f7cc289ebacb5154314e63f,curtain-display,,media/animal_stim/whitened/003_right_1.gif,media/animal_stim/whitened/003_left_2.gif,deviant,22,9.0,,,,
1075,SS1696529325981,5f7cc289ebacb5154314e63f,curtain-display,,media/animal_stim/whitened/003_right_1.gif,media/animal_stim/whitened/003_left_2.gif,deviant,23,9.0,,,,
1076,SS1696529325981,5f7cc289ebacb5154314e63f,curtain-display,,media/animal_stim/whitened/003_right_1.gif,media/animal_stim/whitened/003_left_2.gif,deviant,24,9.0,,,,
1077,SS1696529325981,5f7cc289ebacb5154314e63f,curtain-display,,media/animal_stim/whitened/003_right_1.gif,media/animal_stim/whitened/003_left_2.gif,deviant,25,9.0,,,,
1078,SS1696529325981,5f7cc289ebacb5154314e63f,curtain-display,,media/animal_stim/whitened/003_right_1.gif,media/animal_stim/whitened/003_left_2.gif,deviant,26,9.0,,,,
1079,SS1696529325981,5f7cc289ebacb5154314e63f,curtain-display,,media/animal_stim/whitened/003_right_1.gif,media/animal_stim/whitened/003_left_2.gif,deviant,27,9.0,,,,
1080,SS1696529325981,5f7cc289ebacb5154314e63f,curtain-display,,media/animal_stim/whitened/003_right_1.gif,media/animal_stim/whitened/003_left_2.gif,deviant,28,9.0,,,,
1081,SS1696529325981,5f7cc289ebacb5154314e63f,curtain-display,,media/animal_stim/whitened/003_right_1.gif,media/animal_stim/whitened/003_left_2.gif,deviant,29,9.0,,,,
1082,SS1696529325981,5f7cc289ebacb5154314e63f,curtain-display,,media/animal_stim/whitened/003_right_1.gif,media/animal_stim/whitened/003_left_2.gif,deviant,30,9.0,,,,
1083,SS1696529325981,5f7cc289ebacb5154314e63f,survey-likert,10722.0,,,,31,,,{'Q0': 0},[0],background
1084,SS1696529325981,5f7cc289ebacb5154314e63f,curtain-display,,media/animal_stim/whitened/002_right_1.gif,media/animal_stim/whitened/002_left_2.gif,all_background,32,9.0,,,,
1085,SS1696529325981,5f7cc289ebacb5154314e63f,curtain-display,,media/animal_stim/whitened/002_right_1.gif,media/animal_stim/whitened/002_left_2.gif,all_background,33,9.0,,,,
1086,SS1696529325981,5f7cc289ebacb5154314e63f,curtain-display,,media/animal_stim/whitened/002_right_1.gif,media/animal_stim/whitened/002_left_2.gif,all_background,34,9.0,,,,
1087,SS1696529325981,5f7cc289ebacb5154314e63f,curtain-display,,media/animal_stim/whitened/002_right_1.gif,media/animal_stim/whitened/002_left_2.gif,all_background,35,9.0,,,,
1088,SS1696529325981,5f7cc289ebacb5154314e63f,curtain-display,,media/animal_stim/whitened/002_right_1.gif,media/animal_stim/whitened/002_left_2.gif,all_background,36,9.0,,,,
1089,SS1696529325981,5f7cc289ebacb5154314e63f,curtain-display,,media/animal_stim/whitened/002_right_1.gif,media/animal_stim/whitened/002_left_2.gif,all_background,37,9.0,,,,
1090,SS1696529325981,5f7cc289ebacb5154314e63f,curtain-display,,media/animal_stim/whitened/002_right_1.gif,media/animal_stim/whitened/002_left_2.gif,all_background,38,9.0,,,,
