,prolific_id,trial_type,rt,background,deviant,block_type,trial_index,fam_trial,total_rt,response,question_order,rating_type,response
0,,preload,,,,,0,,,,,,
1,,preload,,,,,0,,,,,,
2,,fullscreen,,,,,1,,,,,,
3,,instructions,2825.0,,,,2,,,,,,
4,,curtain-display,,media/animal_stim/whitened/006_left_1.gif,media/animal_stim/whitened/006_right_2.gif,all_background,3,1.0,,,,,
5,,curtain-display,1950.0,media/animal_stim/whitened/006_left_1.gif,media/animal_stim/whitened/006_right_2.gif,all_background,4,1.0,2450.0,,,,
6,,survey-likert,7441.0,,,,5,,,{'Q0': 2},[0],background,{'Q0': 2}
7,,curtain-display,,media/animal_stim/whitened/002_left_2.gif,media/animal_stim/whitened/002_right_1.gif,all_background,6,3.0,,,,,
8,,curtain-display,,media/animal_stim/whitened/002_left_2.gif,media/animal_stim/whitened/002_right_1.gif,all_background,7,3.0,,,,,
9,,curtain-display,,media/animal_stim/whitened/002_left_2.gif,media/animal_stim/whitened/002_right_1.gif,all_background,8,3.0,,,,,
10,,curtain-display,1800.0,media/animal_stim/whitened/002_left_2.gif,media/animal_stim/whitened/002_right_1.gif,all_background,9,3.0,2300.0,,,,
11,,survey-likert,1676.0,,,,10,,,{'Q0': 3},[0],background,{'Q0': 3}
12,,curtain-display,,media/animal_stim/whitened/005_right_2.gif,media/animal_stim/whitened/005_right_1.gif,all_background,11,9.0,,,,,
13,,curtain-display,,media/animal_stim/whitened/005_right_2.gif,media/animal_stim/whitened/005_right_1.gif,all_background,12,9.0,,,,,
14,,curtain-display,,media/animal_stim/whitened/005_right_2.gif,media/animal_stim/whitened/005_right_1.gif,all_background,13,9.0,,,,,
15,,curtain-display,,media/animal_stim/whitened/005_right_2.gif,media/animal_stim/whitened/005_right_1.gif,all_background,14,9.0,,,,,
16,,preload,,,,,0,,,,,,
17,,preload,,,,,0,,,,,,
18,,fullscreen,,,,,1,,,,,,
19,,instructions,1205.0,,,,2,,,,,,
20,,preload,,,,,0,,,,,,
21,,preload,,,,,0,,,,,,
22,,fullscreen,,,,,1,,,,,,
23,,curtain-display,850109.0,media/animal_stim/whitened/006_right_1.gif,media/animal_stim/whitened/006_left_2.gif,all_background,4,1.0,850609.0,,,,
24,,preload,,,,,0,,,,,,
25,,preload,,,,,0,,,,,,
26,,preload,,,,,0,,,,,,
27,,preload,,,,,0,,,,,,
28,,preload,,,,,0,,,,,,
29,,preload,,,,,0,,,,,,
30,,preload,,,,,0,,,,,,
31,,preload,,,,,0,,,,,,
32,,preload,,,,,0,,,,,,
33,,preload,,,,,0,,,,,,
34,,preload,,,,,0,,,,,,
35,,preload,,,,,0,,,,,,
36,,preload,,,,,0,,,,,,
37,,preload,,,,,0,,,,,,
38,,preload,,,,,0,,,,,,
39,,preload,,,,,0,,,,,,
40,,preload,,,,,0,,,,,,
41,,preload,,,,,0,,,,,,
42,,preload,,,,,0,,,,,,
43,,preload,,,,,0,,,,,,
44,,preload,,,,,0,,,,,,
45,,preload,,,,,0,,,,,,
46,,preload,,,,,0,,,,,,
47,,preload,,,,,0,,,,,,
48,,fullscreen,,,,,1,,,,,,
49,,instructions,3168.0,,,,2,,,,,,
50,,curtain-display,,media/animal_stim/whitened/005_left_2.gif,media/animal_stim/whitened/005_left_1.gif,all_background,3,1.0,,,,,
51,,curtain-display,338.0,media/animal_stim/whitened/005_left_2.gif,media/animal_stim/whitened/005_left_1.gif,all_background,4,1.0,838.0,,,,
52,,survey-likert,1961.0,,,,5,,,{'Q0': 2},[0],background,{'Q0': 2}
53,,curtain-display,,media/animal_stim/whitened/003_left_1.gif,media/animal_stim/whitened/003_right_2.gif,all_background,6,3.0,,,,,
54,,curtain-display,,media/animal_stim/whitened/003_left_1.gif,media/animal_stim/whitened/003_right_2.gif,all_background,7,3.0,,,,,
55,,curtain-display,,media/animal_stim/whitened/003_left_1.gif,media/animal_stim/whitened/003_right_2.gif,all_background,8,3.0,,,,,
56,,curtain-display,1173.0,media/animal_stim/whitened/003_left_1.gif,media/animal_stim/whitened/003_right_2.gif,all_background,9,3.0,1673.0,,,,
57,,survey-likert,107384.0,,,,10,,,{'Q0': 2},[0],background,{'Q0': 2}
58,,curtain-display,,media/animal_stim/whitened/001_right_1.gif,media/animal_stim/whitened/001_right_2.gif,all_background,11,9.0,,,,,
59,,curtain-display,,media/animal_stim/whitened/001_right_1.gif,media/animal_stim/whitened/001_right_2.gif,all_background,12,9.0,,,,,
60,,curtain-display,,media/animal_stim/whitened/001_right_1.gif,media/animal_stim/whitened/001_right_2.gif,all_background,13,9.0,,,,,
61,,curtain-display,,media/animal_stim/whitened/001_right_1.gif,media/animal_stim/whitened/001_right_2.gif,all_background,14,9.0,,,,,
62,,curtain-display,,media/animal_stim/whitened/001_right_1.gif,media/animal_stim/whitened/001_right_2.gif,all_background,15,9.0,,,,,
63,,curtain-display,,media/animal_stim/whitened/001_right_1.gif,media/animal_stim/whitened/001_right_2.gif,all_background,16,9.0,,,,,
64,,curtain-display,,media/animal_stim/whitened/001_right_1.gif,media/animal_stim/whitened/001_right_2.gif,all_background,17,9.0,,,,,
65,,curtain-display,,media/animal_stim/whitened/001_right_1.gif,media/animal_stim/whitened/001_right_2.gif,all_background,18,9.0,,,,,
66,,curtain-display,,media/animal_stim/whitened/001_right_1.gif,media/animal_stim/whitened/001_right_2.gif,all_background,19,9.0,,,,,
67,,curtain-display,6462.0,media/animal_stim/whitened/001_right_1.gif,media/animal_stim/whitened/001_right_2.gif,all_background,20,9.0,6962.0,,,,
68,,survey-likert,3247.0,,,,21,,,{'Q0': 3},[0],background,{'Q0': 3}
69,,curtain-display,,media/animal_stim/whitened/002_left_1.gif,media/animal_stim/whitened/002_right_2.gif,deviant,22,1.0,,,,,
70,,preload,,,,,0,,,,,,
71,,preload,,,,,0,,,,,,
72,,preload,,,,,0,,,,,,
73,,preload,,,,,0,,,,,,
74,,preload,,,,,0,,,,,,
75,,preload,,,,,0,,,,,,
76,,preload,,,,,0,,,,,,
77,,preload,,,,,0,,,,,,
78,,preload,,,,,0,,,,,,
79,,preload,,,,,0,,,,,,
80,,fullscreen,,,,,1,,,,,,
81,,instructions,1195.0,,,,2,,,,,,
82,,curtain-display,,media/animal_stim/whitened/003_right_1.gif,media/animal_stim/whitened/003_right_2.gif,all_background,3,1.0,,,,,
83,,curtain-display,209.0,media/animal_stim/whitened/003_right_1.gif,media/animal_stim/whitened/003_right_2.gif,all_background,4,1.0,709.0,,,,
84,,survey-likert,2232.0,,,,5,,,{'Q0': 3},[0],background,{'Q0': 3}
85,,curtain-display,,media/animal_stim/whitened/005_left_1.gif,media/animal_stim/whitened/005_right_2.gif,all_background,6,3.0,,,,,
86,,curtain-display,,media/animal_stim/whitened/005_left_1.gif,media/animal_stim/whitened/005_right_2.gif,all_background,7,3.0,,,,,
87,,curtain-display,,media/animal_stim/whitened/005_left_1.gif,media/animal_stim/whitened/005_right_2.gif,all_background,8,3.0,,,,,
88,,curtain-display,221.0,media/animal_stim/whitened/005_left_1.gif,media/animal_stim/whitened/005_right_2.gif,all_background,9,3.0,721.0,,,,
89,,survey-likert,3765.0,,,,10,,,{'Q0': 1},[0],background,{'Q0': 1}
90,,curtain-display,,media/animal_stim/whitened/001_left_2.gif,media/animal_stim/whitened/001_right_1.gif,all_background,11,9.0,,,,,
91,,curtain-display,,media/animal_stim/whitened/001_left_2.gif,media/animal_stim/whitened/001_right_1.gif,all_background,12,9.0,,,,,
92,,curtain-display,,media/animal_stim/whitened/001_left_2.gif,media/animal_stim/whitened/001_right_1.gif,all_background,13,9.0,,,,,
93,,curtain-display,,media/animal_stim/whitened/001_left_2.gif,media/animal_stim/whitened/001_right_1.gif,all_background,14,9.0,,,,,
94,,curtain-display,,media/animal_stim/whitened/001_left_2.gif,media/animal_stim/whitened/001_right_1.gif,all_background,15,9.0,,,,,
95,,curtain-display,,media/animal_stim/whitened/001_left_2.gif,media/animal_stim/whitened/001_right_1.gif,all_background,16,9.0,,,,,
96,,curtain-display,,media/animal_stim/whitened/001_left_2.gif,media/animal_stim/whitened/001_right_1.gif,all_background,17,9.0,,,,,
97,,curtain-display,,media/animal_stim/whitened/001_left_2.gif,media/animal_stim/whitened/001_right_1.gif,all_background,18,9.0,,,,,
98,,curtain-display,,media/animal_stim/whitened/001_left_2.gif,media/animal_stim/whitened/001_right_1.gif,all_background,19,9.0,,,,,
99,,curtain-display,22.0,media/animal_stim/whitened/001_left_2.gif,media/animal_stim/whitened/001_right_1.gif,all_background,20,9.0,522.0,,,,
100,,preload,,,,,0,,,,,,
101,,preload,,,,,0,,,,,,
102,,preload,,,,,0,,,,,,
103,,preload,,,,,0,,,,,,
104,,preload,,,,,0,,,,,,
105,,preload,,,,,0,,,,,,
106,,preload,,,,,0,,,,,,
107,,preload,,,,,0,,,,,,
108,,preload,,,,,0,,,,,,
109,,preload,,,,,0,,,,,,
110,,preload,,,,,0,,,,,,
111,,preload,,,,,0,,,,,,
112,,preload,,,,,0,,,,,,
113,,preload,,,,,0,,,,,,
114,,preload,,,,,0,,,,,,
115,,preload,,,,,0,,,,,,
116,,preload,,,,,0,,,,,,
117,,preload,,,,,0,,,,,,
118,,preload,,,,,0,,,,,,
119,,preload,,,,,0,,,,,,
120,,preload,,,,,0,,,,,,
121,,preload,,,,,0,,,,,,
122,,preload,,,,,0,,,,,,
123,,preload,,,,,0,,,,,,
124,,preload,,,,,0,,,,,,
125,,preload,,,,,0,,,,,,
126,,preload,,,,,0,,,,,,
127,,preload,,,,,0,,,,,,
128,,preload,,,,,0,,,,,,
129,,preload,,,,,0,,,,,,
130,,preload,,,,,0,,,,,,
131,,preload,,,,,0,,,,,,
132,,preload,,,,,0,,,,,,
133,,preload,,,,,0,,,,,,
134,,preload,,,,,0,,,,,,
135,,preload,,,,,0,,,,,,
136,,preload,,,,,0,,,,,,
137,,preload,,,,,0,,,,,,
138,,preload,,,,,0,,,,,,
139,,preload,,,,,0,,,,,,
140,,preload,,,,,0,,,,,,
141,,preload,,,,,0,,,,,,
142,,preload,,,,,0,,,,,,
143,,preload,,,,,0,,,,,,
144,,preload,,,,,0,,,,,,
145,,preload,,,,,0,,,,,,
146,,preload,,,,,0,,,,,,
147,,preload,,,,,0,,,,,,
148,,preload,,,,,0,,,,,,
149,,preload,,,,,0,,,,,,
150,,preload,,,,,0,,,,,,
151,,preload,,,,,0,,,,,,
152,,preload,,,,,0,,,,,,
153,,preload,,,,,0,,,,,,
154,,preload,,,,,0,,,,,,
155,,preload,,,,,0,,,,,,
156,,preload,,,,,0,,,,,,
157,,preload,,,,,0,,,,,,
158,,preload,,,,,0,,,,,,
159,,preload,,,,,0,,,,,,
160,,preload,,,,,0,,,,,,
161,,preload,,,,,0,,,,,,
162,,preload,,,,,0,,,,,,
163,,preload,,,,,0,,,,,,
164,,preload,,,,,0,,,,,,
165,,preload,,,,,0,,,,,,
166,,preload,,,,,0,,,,,,
167,,preload,,,,,0,,,,,,
168,,preload,,,,,0,,,,,,
169,,preload,,,,,0,,,,,,
170,,preload,,,,,0,,,,,,
171,,preload,,,,,0,,,,,,
172,,preload,,,,,0,,,,,,
173,,preload,,,,,0,,,,,,
174,,preload,,,,,0,,,,,,
175,,preload,,,,,0,,,,,,
176,,preload,,,,,0,,,,,,
177,,preload,,,,,0,,,,,,
178,,preload,,,,,0,,,,,,
179,,preload,,,,,0,,,,,,
180,,preload,,,,,0,,,,,,
181,,preload,,,,,0,,,,,,
182,,preload,,,,,0,,,,,,
183,,preload,,,,,0,,,,,,
184,,preload,,,,,0,,,,,,
185,,preload,,,,,0,,,,,,
186,,preload,,,,,0,,,,,,
187,,preload,,,,,0,,,,,,
188,,preload,,,,,0,,,,,,
189,,preload,,,,,0,,,,,,
190,,preload,,,,,0,,,,,,
191,,preload,,,,,0,,,,,,
192,,preload,,,,,0,,,,,,
193,,preload,,,,,0,,,,,,
194,,preload,,,,,0,,,,,,
195,,preload,,,,,0,,,,,,
196,,preload,,,,,0,,,,,,
197,,preload,,,,,0,,,,,,
198,,preload,,,,,0,,,,,,
199,,preload,,,,,0,,,,,,
200,,preload,,,,,0,,,,,,
201,,preload,,,,,0,,,,,,
202,,preload,,,,,0,,,,,,
203,,preload,,,,,0,,,,,,
204,,preload,,,,,0,,,,,,
205,,preload,,,,,0,,,,,,
206,,preload,,,,,0,,,,,,
207,,preload,,,,,0,,,,,,
208,,preload,,,,,0,,,,,,
209,,preload,,,,,0,,,,,,
210,,preload,,,,,0,,,,,,
211,,preload,,,,,0,,,,,,
212,,preload,,,,,0,,,,,,
213,,preload,,,,,0,,,,,,
214,,preload,,,,,0,,,,,,
215,,preload,,,,,0,,,,,,
216,,preload,,,,,0,,,,,,
217,,preload,,,,,0,,,,,,
218,,preload,,,,,0,,,,,,
219,,preload,,,,,0,,,,,,
220,,preload,,,,,0,,,,,,
221,,preload,,,,,0,,,,,,
222,,preload,,,,,0,,,,,,
223,,preload,,,,,0,,,,,,
224,,preload,,,,,0,,,,,,
225,,preload,,,,,0,,,,,,
226,,preload,,,,,0,,,,,,
227,,preload,,,,,0,,,,,,
228,,preload,,,,,0,,,,,,
229,,preload,,,,,0,,,,,,
230,,preload,,,,,0,,,,,,
231,,preload,,,,,0,,,,,,
232,,preload,,,,,0,,,,,,
233,,preload,,,,,0,,,,,,
234,,preload,,,,,0,,,,,,
235,,preload,,,,,0,,,,,,
236,,preload,,,,,0,,,,,,
237,,preload,,,,,0,,,,,,
238,,preload,,,,,0,,,,,,
239,,preload,,,,,0,,,,,,
240,,preload,,,,,0,,,,,,
241,,preload,,,,,0,,,,,,
242,,preload,,,,,0,,,,,,
243,,preload,,,,,0,,,,,,
244,,preload,,,,,0,,,,,,
245,,preload,,,,,0,,,,,,
246,,preload,,,,,0,,,,,,
247,,preload,,,,,0,,,,,,
248,,preload,,,,,0,,,,,,
249,,preload,,,,,0,,,,,,
250,,preload,,,,,0,,,,,,
251,,preload,,,,,0,,,,,,
252,,preload,,,,,0,,,,,,
253,,preload,,,,,0,,,,,,
254,,preload,,,,,0,,,,,,
255,,preload,,,,,0,,,,,,
256,,preload,,,,,0,,,,,,
257,,preload,,,,,0,,,,,,
258,,preload,,,,,0,,,,,,
259,,preload,,,,,0,,,,,,
260,,preload,,,,,0,,,,,,
261,,preload,,,,,0,,,,,,
262,,preload,,,,,0,,,,,,
263,,preload,,,,,0,,,,,,
264,,preload,,,,,0,,,,,,
265,,preload,,,,,0,,,,,,
266,,preload,,,,,0,,,,,,
267,,preload,,,,,0,,,,,,
268,,preload,,,,,0,,,,,,
269,,preload,,,,,0,,,,,,
270,,preload,,,,,0,,,,,,
271,,preload,,,,,0,,,,,,
272,,preload,,,,,0,,,,,,
273,,preload,,,,,0,,,,,,
274,,preload,,,,,0,,,,,,
275,,preload,,,,,0,,,,,,
276,,preload,,,,,0,,,,,,
277,,preload,,,,,0,,,,,,
278,,preload,,,,,0,,,,,,
279,,preload,,,,,0,,,,,,
280,,preload,,,,,0,,,,,,
281,,preload,,,,,0,,,,,,
282,,preload,,,,,0,,,,,,
283,,preload,,,,,0,,,,,,
284,,preload,,,,,0,,,,,,
285,,preload,,,,,0,,,,,,
286,,preload,,,,,0,,,,,,
287,,preload,,,,,0,,,,,,
288,,preload,,,,,0,,,,,,
289,,preload,,,,,0,,,,,,
290,,preload,,,,,0,,,,,,
291,,preload,,,,,0,,,,,,
292,,preload,,,,,0,,,,,,
293,,preload,,,,,0,,,,,,
294,,preload,,,,,0,,,,,,
295,,preload,,,,,0,,,,,,
296,,preload,,,,,0,,,,,,
297,,preload,,,,,0,,,,,,
298,,preload,,,,,0,,,,,,
299,,preload,,,,,0,,,,,,
300,,preload,,,,,0,,,,,,
301,,preload,,,,,0,,,,,,
302,,preload,,,,,0,,,,,,
303,,preload,,,,,0,,,,,,
304,,preload,,,,,0,,,,,,
305,,preload,,,,,0,,,,,,
306,,preload,,,,,0,,,,,,
307,,preload,,,,,0,,,,,,
308,,preload,,,,,0,,,,,,
309,,preload,,,,,0,,,,,,
310,,preload,,,,,0,,,,,,
311,,preload,,,,,0,,,,,,
312,,preload,,,,,0,,,,,,
313,,preload,,,,,0,,,,,,
314,,preload,,,,,0,,,,,,
315,,preload,,,,,0,,,,,,
316,,preload,,,,,0,,,,,,
317,,preload,,,,,0,,,,,,
318,,preload,,,,,0,,,,,,
319,,preload,,,,,0,,,,,,
320,,preload,,,,,0,,,,,,
321,,preload,,,,,0,,,,,,
322,,preload,,,,,0,,,,,,
323,,preload,,,,,0,,,,,,
324,,preload,,,,,0,,,,,,
325,,preload,,,,,0,,,,,,
326,,preload,,,,,0,,,,,,
327,,preload,,,,,0,,,,,,
328,,preload,,,,,0,,,,,,
329,,preload,,,,,0,,,,,,
330,,preload,,,,,0,,,,,,
331,,preload,,,,,0,,,,,,
332,,preload,,,,,0,,,,,,
333,,preload,,,,,0,,,,,,
334,,preload,,,,,0,,,,,,
335,,preload,,,,,0,,,,,,
336,,preload,,,,,0,,,,,,
337,,preload,,,,,0,,,,,,
338,,preload,,,,,0,,,,,,
339,,preload,,,,,0,,,,,,
340,,preload,,,,,0,,,,,,
341,,preload,,,,,0,,,,,,
342,,preload,,,,,0,,,,,,
343,,preload,,,,,0,,,,,,
344,,preload,,,,,0,,,,,,
345,,preload,,,,,0,,,,,,
346,,preload,,,,,0,,,,,,
347,,preload,,,,,0,,,,,,
348,,preload,,,,,0,,,,,,
349,,preload,,,,,0,,,,,,
350,,preload,,,,,0,,,,,,
351,,preload,,,,,0,,,,,,
352,,preload,,,,,0,,,,,,
353,,preload,,,,,0,,,,,,
354,,preload,,,,,0,,,,,,
355,,preload,,,,,0,,,,,,
356,,preload,,,,,0,,,,,,
357,,preload,,,,,0,,,,,,
358,,preload,,,,,0,,,,,,
359,,preload,,,,,0,,,,,,
360,,preload,,,,,0,,,,,,
361,,preload,,,,,0,,,,,,
362,,preload,,,,,0,,,,,,
363,,preload,,,,,0,,,,,,
364,,preload,,,,,0,,,,,,
365,,preload,,,,,0,,,,,,
366,,preload,,,,,0,,,,,,
367,,preload,,,,,0,,,,,,
368,,preload,,,,,0,,,,,,
369,,preload,,,,,0,,,,,,
370,,preload,,,,,0,,,,,,
371,,preload,,,,,0,,,,,,
372,,preload,,,,,0,,,,,,
373,,preload,,,,,0,,,,,,
374,,preload,,,,,0,,,,,,
375,,preload,,,,,0,,,,,,
376,,preload,,,,,0,,,,,,
377,,preload,,,,,0,,,,,,
378,,preload,,,,,0,,,,,,
379,,preload,,,,,0,,,,,,
380,,preload,,,,,0,,,,,,
381,,preload,,,,,0,,,,,,
382,,preload,,,,,0,,,,,,
383,,preload,,,,,0,,,,,,
384,,preload,,,,,0,,,,,,
385,,preload,,,,,0,,,,,,
386,,preload,,,,,0,,,,,,
387,,preload,,,,,0,,,,,,
388,,fullscreen,,,,,1,,,,,,
389,,instructions,684.0,,,,2,,,,,,
390,,curtain-display,,media/animal_stim/whitened/006_left_2.gif,media/animal_stim/whitened/006_right_1.gif,all_background,3,1.0,,,,,
391,,preload,,,,,0,,,,,,
392,,preload,,,,,0,,,,,,
393,,fullscreen,,,,,1,,,,,,
394,,instructions,1680.0,,,,2,,,,,,
395,,instructions,1989.0,,,,3,,,,,,
396,,curtain-display,,,,,4,,,,,,
397,,curtain-display,,,,,5,,,,,,
398,,curtain-display,359.0,,,,6,,859.0,,,,
399,,instructions,4559.0,,,,7,,,,,,
400,,curtain-display,,media/animal_stim/whitened/006_right_1.gif,media/animal_stim/whitened/006_right_2.gif,all_background,8,1.0,,,,,
401,,curtain-display,464.0,media/animal_stim/whitened/006_right_1.gif,media/animal_stim/whitened/006_right_2.gif,all_background,9,1.0,964.0,,,,
402,,survey-likert,44243.0,,,,10,,,{'Q0': 3},[0],background,{'Q0': 3}
403,,curtain-display,,media/animal_stim/whitened/004_right_2.gif,media/animal_stim/whitened/004_left_1.gif,all_background,11,3.0,,,,,
404,,curtain-display,,media/animal_stim/whitened/004_right_2.gif,media/animal_stim/whitened/004_left_1.gif,all_background,12,3.0,,,,,
405,,curtain-display,,media/animal_stim/whitened/004_right_2.gif,media/animal_stim/whitened/004_left_1.gif,all_background,13,3.0,,,,,
406,,curtain-display,144.0,media/animal_stim/whitened/004_right_2.gif,media/animal_stim/whitened/004_left_1.gif,all_background,14,3.0,644.0,,,,
407,,survey-likert,5084.0,,,,15,,,{'Q0': 3},[0],background,{'Q0': 3}
408,,curtain-display,,media/animal_stim/whitened/002_left_1.gif,media/animal_stim/whitened/002_left_2.gif,all_background,16,9.0,,,,,
409,,curtain-display,,media/animal_stim/whitened/002_left_1.gif,media/animal_stim/whitened/002_left_2.gif,all_background,17,9.0,,,,,
410,,curtain-display,,media/animal_stim/whitened/002_left_1.gif,media/animal_stim/whitened/002_left_2.gif,all_background,18,9.0,,,,,
411,,curtain-display,,media/animal_stim/whitened/002_left_1.gif,media/animal_stim/whitened/002_left_2.gif,all_background,19,9.0,,,,,
412,,curtain-display,,media/animal_stim/whitened/002_left_1.gif,media/animal_stim/whitened/002_left_2.gif,all_background,20,9.0,,,,,
413,,curtain-display,,media/animal_stim/whitened/002_left_1.gif,media/animal_stim/whitened/002_left_2.gif,all_background,21,9.0,,,,,
414,,curtain-display,,media/animal_stim/whitened/002_left_1.gif,media/animal_stim/whitened/002_left_2.gif,all_background,22,9.0,,,,,
415,,curtain-display,,media/animal_stim/whitened/002_left_1.gif,media/animal_stim/whitened/002_left_2.gif,all_background,23,9.0,,,,,
416,,curtain-display,,media/animal_stim/whitened/002_left_1.gif,media/animal_stim/whitened/002_left_2.gif,all_background,24,9.0,,,,,
417,,curtain-display,1841.0,media/animal_stim/whitened/002_left_1.gif,media/animal_stim/whitened/002_left_2.gif,all_background,25,9.0,2341.0,,,,
418,,survey-likert,1834.0,,,,26,,,{'Q0': 3},[0],background,{'Q0': 3}
419,,curtain-display,,media/animal_stim/whitened/001_left_1.gif,media/animal_stim/whitened/001_right_2.gif,deviant,27,1.0,,,,,
420,,curtain-display,132.0,media/animal_stim/whitened/001_left_1.gif,media/animal_stim/whitened/001_right_2.gif,deviant,28,1.0,632.0,,,,
421,,preload,,,,,0,,,,,,
422,,preload,,,,,0,,,,,,
423,,preload,,,,,0,,,,,,
424,,preload,,,,,0,,,,,,
425,,preload,,,,,0,,,,,,
426,,preload,,,,,0,,,,,,
427,,preload,,,,,0,,,,,,
428,,preload,,,,,0,,,,,,
429,,fullscreen,,,,,1,,,,,,
430,,instructions,2451.0,,,,2,,,,,,
431,,instructions,1357.0,,,,3,,,,,,
432,,curtain-display,,,,,4,,,,,,
433,,curtain-display,,,,,5,,,,,,
434,,curtain-display,203.0,,,,6,,703.0,,,,
435,,instructions,3194.0,,,,7,,,,,,
436,,curtain-display,,media/animal_stim/whitened/001_right_1.gif,media/animal_stim/whitened/001_left_2.gif,all_background,8,9.0,,,,,
437,,survey-likert,5021.0,,,,9,,,{'Q0': 2},[0],background,{'Q0': 2}
438,,curtain-display,,media/animal_stim/whitened/001_right_1.gif,media/animal_stim/whitened/001_left_2.gif,all_background,10,9.0,,,,,
439,,curtain-display,,media/animal_stim/whitened/002_right_1.gif,media/animal_stim/whitened/002_right_2.gif,all_background,11,3.0,,,,,
440,,curtain-display,184.0,media/animal_stim/whitened/003_right_2.gif,media/animal_stim/whitened/003_right_1.gif,all_background,12,1.0,684.0,,,,
441,,curtain-display,,media/animal_stim/whitened/005_left_1.gif,media/animal_stim/whitened/005_right_2.gif,deviant,13,3.0,,,,,
442,,preload,,,,,0,,,,,,
443,,preload,,,,,0,,,,,,
444,,fullscreen,,,,,1,,,,,,
445,,instructions,1600.0,,,,2,,,,,,
446,,instructions,1923.0,,,,3,,,,,,
447,,curtain-display,,,,,4,,,,,,
448,,curtain-display,,,,,5,,,,,,
449,,curtain-display,597.0,,,,6,,1097.0,,,,
450,,preload,,,,,0,,,,,,
451,,preload,,,,,0,,,,,,
452,,fullscreen,,,,,1,,,,,,
453,,instructions,1168.0,,,,2,,,,,,
454,,instructions,1925.0,,,,3,,,,,,
455,,curtain-display,,,,,4,,,,,,
456,,curtain-display,,,,,5,,,,,,
457,,curtain-display,2275.0,,,,6,,2775.0,,,,
458,,preload,,,,,0,,,,,,
459,,preload,,,,,0,,,,,,
460,,fullscreen,,,,,1,,,,,,
461,,instructions,1269.0,,,,2,,,,,,
462,,instructions,1845.0,,,,3,,,,,,
463,,curtain-display,,,,,4,,,,,,
464,,curtain-display,,,,,5,,,,,,
465,,curtain-display,994.0,,,,6,,1494.0,,,,
466,,instructions,17117.0,,,,7,,,,,,
467,,preload,,,,,0,,,,,,
468,,preload,,,,,0,,,,,,
469,,fullscreen,,,,,1,,,,,,
470,,instructions,1369.0,,,,2,,,,,,
471,,instructions,1620.0,,,,3,,,,,,
472,,curtain-display,,,,,4,,,,,,
473,,curtain-display,,,,,5,,,,,,
474,,curtain-display,159.0,,,,6,,659.0,,,,
475,,instructions,3733.0,,,,7,,,,,,
476,,curtain-display,,media/animal_stim/whitened/006_right_1.gif,media/animal_stim/whitened/006_left_2.gif,deviant,8,3.0,,,,,
477,,curtain-display,,media/animal_stim/whitened/006_right_1.gif,media/animal_stim/whitened/006_left_2.gif,deviant,9,3.0,,,,,
478,,curtain-display,,media/animal_stim/whitened/006_right_1.gif,media/animal_stim/whitened/006_left_2.gif,deviant,10,3.0,,,,,
479,,curtain-display,367.0,media/animal_stim/whitened/006_right_1.gif,media/animal_stim/whitened/006_left_2.gif,deviant,11,3.0,867.0,,,,
480,,survey-likert,1730.0,,,,12,,,{'Q0': 3},[0],background,{'Q0': 3}
481,,curtain-display,,media/animal_stim/whitened/005_right_1.gif,media/animal_stim/whitened/005_right_2.gif,all_background,13,9.0,,,,,
482,,curtain-display,,media/animal_stim/whitened/005_right_1.gif,media/animal_stim/whitened/005_right_2.gif,all_background,14,9.0,,,,,
483,,curtain-display,,media/animal_stim/whitened/005_right_1.gif,media/animal_stim/whitened/005_right_2.gif,all_background,15,9.0,,,,,
484,,curtain-display,,media/animal_stim/whitened/005_right_1.gif,media/animal_stim/whitened/005_right_2.gif,all_background,16,9.0,,,,,
485,,curtain-display,,media/animal_stim/whitened/005_right_1.gif,media/animal_stim/whitened/005_right_2.gif,all_background,17,9.0,,,,,
486,,curtain-display,,media/animal_stim/whitened/005_right_1.gif,media/animal_stim/whitened/005_right_2.gif,all_background,18,9.0,,,,,
487,,curtain-display,,media/animal_stim/whitened/005_right_1.gif,media/animal_stim/whitened/005_right_2.gif,all_background,19,9.0,,,,,
488,,preload,,,,,0,,,,,,
489,,preload,,,,,0,,,,,,
490,,preload,,,,,0,,,,,,
491,,preload,,,,,0,,,,,,
492,,fullscreen,,,,,1,,,,,,
493,,instructions,870.0,,,,2,,,,,,
494,,instructions,1954.0,,,,3,,,,,,
495,,curtain-display,,,,,4,,,,,,
496,,curtain-display,,,,,5,,,,,,
497,,curtain-display,4798.0,,,,6,,5298.0,,,,
498,,preload,,,,,0,,,,,,
499,,preload,,,,,0,,,,,,
500,,fullscreen,,,,,1,,,,,,
501,,instructions,934.0,,,,2,,,,,,
502,,instructions,11279.0,,,,3,,,,,,
503,,curtain-display,,,,,4,,,,,,
504,,curtain-display,,,,,5,,,,,,
505,,preload,,,,,0,,,,,,
506,,preload,,,,,0,,,,,,
507,,fullscreen,,,,,1,,,,,,
508,,instructions,856.0,,,,2,,,,,,
509,,instructions,1509.0,,,,3,,,,,,
510,,curtain-display,,,,,4,,,,,,
511,,curtain-display,,,,,5,,,,,,
512,,preload,,,,,0,,,,,,
513,,preload,,,,,0,,,,,,
514,,fullscreen,,,,,1,,,,,,
515,,instructions,920.0,,,,2,,,,,,
516,,instructions,1418.0,,,,3,,,,,,
517,,curtain-display,,,,,4,,,,,,
518,,curtain-display,,,,,5,,,,,,
519,,curtain-display,39643.0,,,,6,,40143.0,,,,
520,,instructions,38182.0,,,,7,,,,,,
521,,curtain-display,,media/animal_stim/whitened/004_left_1.gif,media/animal_stim/whitened/004_left_2.gif,all_background,8,3.0,,,,,
522,,curtain-display,,media/animal_stim/whitened/004_left_1.gif,media/animal_stim/whitened/004_left_2.gif,all_background,9,3.0,,,,,
523,,curtain-display,,media/animal_stim/whitened/004_left_1.gif,media/animal_stim/whitened/004_left_2.gif,all_background,10,3.0,,,,,
524,,curtain-display,3457.0,media/animal_stim/whitened/004_left_1.gif,media/animal_stim/whitened/004_left_2.gif,all_background,11,3.0,3957.0,,,,
525,,survey-likert,3027.0,,,,12,,,{'Q0': 2},[0],background,{'Q0': 2}
526,,curtain-display,,media/animal_stim/whitened/002_right_2.gif,media/animal_stim/whitened/002_right_1.gif,deviant,13,3.0,,,,,
527,,curtain-display,,media/animal_stim/whitened/002_right_2.gif,media/animal_stim/whitened/002_right_1.gif,deviant,14,3.0,,,,,
528,,curtain-display,,media/animal_stim/whitened/002_right_2.gif,media/animal_stim/whitened/002_right_1.gif,deviant,15,3.0,,,,,
529,,curtain-display,60481.0,media/animal_stim/whitened/002_right_2.gif,media/animal_stim/whitened/002_right_1.gif,deviant,16,3.0,60981.0,,,,
530,,survey-likert,3217.0,,,,17,,,{'Q0': 3},[0],background,{'Q0': 3}
531,,curtain-display,,media/animal_stim/whitened/005_left_2.gif,media/animal_stim/whitened/005_left_1.gif,all_background,18,9.0,,,,,
532,,curtain-display,,media/animal_stim/whitened/005_left_2.gif,media/animal_stim/whitened/005_left_1.gif,all_background,19,9.0,,,,,
533,,curtain-display,,media/animal_stim/whitened/005_left_2.gif,media/animal_stim/whitened/005_left_1.gif,all_background,20,9.0,,,,,
534,,curtain-display,,media/animal_stim/whitened/005_left_2.gif,media/animal_stim/whitened/005_left_1.gif,all_background,21,9.0,,,,,
535,,curtain-display,,media/animal_stim/whitened/005_left_2.gif,media/animal_stim/whitened/005_left_1.gif,all_background,22,9.0,,,,,
536,,curtain-display,,media/animal_stim/whitened/005_left_2.gif,media/animal_stim/whitened/005_left_1.gif,all_background,23,9.0,,,,,
537,,curtain-display,,media/animal_stim/whitened/005_left_2.gif,media/animal_stim/whitened/005_left_1.gif,all_background,24,9.0,,,,,
538,,curtain-display,,media/animal_stim/whitened/005_left_2.gif,media/animal_stim/whitened/005_left_1.gif,all_background,25,9.0,,,,,
539,,curtain-display,,media/animal_stim/whitened/005_left_2.gif,media/animal_stim/whitened/005_left_1.gif,all_background,26,9.0,,,,,
540,,curtain-display,6397.0,media/animal_stim/whitened/005_left_2.gif,media/animal_stim/whitened/005_left_1.gif,all_background,27,9.0,6897.0,,,,
541,,survey-likert,2201.0,,,,28,,,{'Q0': 2},[0],background,{'Q0': 2}
542,,curtain-display,,media/animal_stim/whitened/006_right_2.gif,media/animal_stim/whitened/006_left_1.gif,deviant,29,9.0,,,,,
543,,curtain-display,,media/animal_stim/whitened/006_right_2.gif,media/animal_stim/whitened/006_left_1.gif,deviant,30,9.0,,,,,
544,,curtain-display,,media/animal_stim/whitened/006_right_2.gif,media/animal_stim/whitened/006_left_1.gif,deviant,31,9.0,,,,,
545,,curtain-display,,media/animal_stim/whitened/006_right_2.gif,media/animal_stim/whitened/006_left_1.gif,deviant,32,9.0,,,,,
546,,curtain-display,,media/animal_stim/whitened/006_right_2.gif,media/animal_stim/whitened/006_left_1.gif,deviant,33,9.0,,,,,
547,,curtain-display,,media/animal_stim/whitened/006_right_2.gif,media/animal_stim/whitened/006_left_1.gif,deviant,34,9.0,,,,,
548,,curtain-display,,media/animal_stim/whitened/006_right_2.gif,media/animal_stim/whitened/006_left_1.gif,deviant,35,9.0,,,,,
549,,curtain-display,,media/animal_stim/whitened/006_right_2.gif,media/animal_stim/whitened/006_left_1.gif,deviant,36,9.0,,,,,
550,,curtain-display,,media/animal_stim/whitened/006_right_2.gif,media/animal_stim/whitened/006_left_1.gif,deviant,37,9.0,,,,,
551,,curtain-display,6478.0,media/animal_stim/whitened/006_right_2.gif,media/animal_stim/whitened/006_left_1.gif,deviant,38,9.0,6978.0,,,,
552,,survey-likert,1945.0,,,,39,,,{'Q0': 2},[0],background,{'Q0': 2}
553,,curtain-display,,media/animal_stim/whitened/001_right_1.gif,media/animal_stim/whitened/001_left_2.gif,all_background,40,1.0,,,,,
554,,curtain-display,2398.0,media/animal_stim/whitened/001_right_1.gif,media/animal_stim/whitened/001_left_2.gif,all_background,41,1.0,2898.0,,,,
555,,survey-likert,2775.0,,,,42,,,{'Q0': 4},[0],background,{'Q0': 4}
556,,curtain-display,,media/animal_stim/whitened/003_left_2.gif,media/animal_stim/whitened/003_left_1.gif,deviant,43,1.0,,,,,
557,,curtain-display,1285.0,media/animal_stim/whitened/003_left_2.gif,media/animal_stim/whitened/003_left_1.gif,deviant,44,1.0,1785.0,,,,
558,,survey-likert,1811.0,,,,45,,,{'Q0': 2},[0],background,{'Q0': 2}
559,,html-button-response,1450.0,,,,46,,,0,,,0
560,,survey-text,1393.0,,,,47,,,{'Q0': 'sf'},,,{'Q0': 'sf'}
561,,survey-multi-select,1788.0,,,,48,,,{'ethnicity': ['Native Hawaiian or Other Pacific Islander']},[0],,{'ethnicity': ['Native Hawaiian or Other Pacific Islander']}
562,,survey-text,1156.0,,,,49,,,{'Q0': 'sdf'},,,{'Q0': 'sdf'}
563,,survey-multi-choice,2181.0,,,,50,,,{'education': 'Doctorate/Professional degree'},[0],,{'education': 'Doctorate/Professional degree'}
564,,fullscreen,,,,,51,,,,,,
565,,preload,,,,,0,,,,,,
566,,preload,,,,,0,,,,,,
567,,preload,,,,,0,,,,,,
568,,preload,,,,,0,,,,,,
569,,preload,,,,,0,,,,,,
570,,preload,,,,,0,,,,,,
571,,preload,,,,,0,,,,,,
572,,preload,,,,,0,,,,,,
573,,preload,,,,,0,,,,,,
574,,preload,,,,,0,,,,,,
575,,preload,,,,,0,,,,,,
576,,preload,,,,,0,,,,,,
577,,preload,,,,,0,,,,,,
578,,preload,,,,,0,,,,,,
579,,preload,,,,,0,,,,,,
580,,preload,,,,,0,,,,,,
581,,preload,,,,,0,,,,,,
582,,preload,,,,,0,,,,,,
583,,preload,,,,,0,,,,,,
584,,preload,,,,,0,,,,,,
585,,preload,,,,,0,,,,,,
586,,preload,,,,,0,,,,,,
587,,preload,,,,,0,,,,,,
588,,preload,,,,,0,,,,,,
589,,preload,,,,,0,,,,,,
590,,preload,,,,,0,,,,,,
591,,preload,,,,,0,,,,,,
592,,preload,,,,,0,,,,,,
593,,preload,,,,,0,,,,,,
594,,preload,,,,,0,,,,,,
595,,preload,,,,,0,,,,,,
596,,preload,,,,,0,,,,,,
597,,preload,,,,,0,,,,,,
598,,preload,,,,,0,,,,,,
599,,preload,,,,,0,,,,,,
600,,preload,,,,,0,,,,,,
601,,fullscreen,,,,,1,,,,,,
602,,instructions,1237.0,,,,2,,,,,,
603,,instructions,1514.0,,,,3,,,,,,
604,,curtain-display,,,,,4,,,,,,
605,,curtain-display,,,,,5,,,,,,
606,,curtain-display,434.0,,,,6,,934.0,,,,
607,,instructions,3235.0,,,,7,,,,,,
608,,curtain-display,,media/animal_stim/whitened/004_right_2.gif,media/animal_stim/whitened/004_left_1.gif,all_background,8,9.0,,,,,
609,,curtain-display,,media/animal_stim/whitened/004_right_2.gif,media/animal_stim/whitened/004_left_1.gif,all_background,9,9.0,,,,,
610,,curtain-display,,media/animal_stim/whitened/004_right_2.gif,media/animal_stim/whitened/004_left_1.gif,all_background,10,9.0,,,,,
611,,curtain-display,,media/animal_stim/whitened/004_right_2.gif,media/animal_stim/whitened/004_left_1.gif,all_background,11,9.0,,,,,
612,,curtain-display,,media/animal_stim/whitened/004_right_2.gif,media/animal_stim/whitened/004_left_1.gif,all_background,12,9.0,,,,,
613,,curtain-display,,media/animal_stim/whitened/004_right_2.gif,media/animal_stim/whitened/004_left_1.gif,all_background,13,9.0,,,,,
614,,curtain-display,,media/animal_stim/whitened/004_right_2.gif,media/animal_stim/whitened/004_left_1.gif,all_background,14,9.0,,,,,
615,,curtain-display,,media/animal_stim/whitened/004_right_2.gif,media/animal_stim/whitened/004_left_1.gif,all_background,15,9.0,,,,,
616,,curtain-display,,media/animal_stim/whitened/004_right_2.gif,media/animal_stim/whitened/004_left_1.gif,all_background,16,9.0,,,,,
617,,curtain-display,2116.0,media/animal_stim/whitened/004_right_2.gif,media/animal_stim/whitened/004_left_1.gif,all_background,17,9.0,2616.0,,,,
618,,preload,,,,,0,,,,,,
619,,preload,,,,,0,,,,,,
620,,preload,,,,,0,,,,,,
621,,preload,,,,,0,,,,,,
622,,fullscreen,,,,,1,,,,,,
623,,instructions,3429.0,,,,2,,,,,,
624,,instructions,2079.0,,,,3,,,,,,
625,,curtain-display,,,,,4,,,,,,
626,,curtain-display,,,,,5,,,,,,
627,,curtain-display,431.0,,,,6,,931.0,,,,
628,,instructions,3590.0,,,,7,,,,,,
629,,curtain-display,,media/animal_stim/whitened/006_right_2.gif,media/animal_stim/whitened/006_right_1.gif,all_background,8,3.0,,,,,
630,,curtain-display,,media/animal_stim/whitened/006_right_2.gif,media/animal_stim/whitened/006_right_1.gif,all_background,9,3.0,,,,,
631,,curtain-display,,media/animal_stim/whitened/006_right_2.gif,media/animal_stim/whitened/006_right_1.gif,all_background,10,3.0,,,,,
632,,curtain-display,,media/animal_stim/whitened/006_right_2.gif,media/animal_stim/whitened/006_right_1.gif,all_background,11,3.0,,,,,
633,,survey-likert,,,,,12,,,,,background,
634,,curtain-display,,media/animal_stim/whitened/003_right_2.gif,media/animal_stim/whitened/003_right_1.gif,deviant,13,9.0,,,,,
635,,curtain-display,,media/animal_stim/whitened/003_right_2.gif,media/animal_stim/whitened/003_right_1.gif,deviant,14,9.0,,,,,
636,,curtain-display,,media/animal_stim/whitened/003_right_2.gif,media/animal_stim/whitened/003_right_1.gif,deviant,15,9.0,,,,,
637,,preload,,,,,0,,,,,,
638,,preload,,,,,0,,,,,,
639,5d28701c573e380001514923,preload,,,,,0,,,,,,
640,5d28701c573e380001514923,preload,,,,,0,,,,,,
641,61170fc882aceb0cbcfebe6e,preload,,,,,0,,,,,,
642,61170fc882aceb0cbcfebe6e,preload,,,,,0,,,,,,
643,5f3f051d2b1f171e336d114a,preload,,,,,0,,,,,,
644,5f3f051d2b1f171e336d114a,preload,,,,,0,,,,,,
645,5f3f051d2b1f171e336d114a,fullscreen,,,,,1,,,,,,
646,607e00d9883d3e470ccb5763,preload,,,,,0,,,,,,
647,607e00d9883d3e470ccb5763,preload,,,,,0,,,,,,
648,5f3f051d2b1f171e336d114a,instructions,16396.0,,,,2,,,,,,
649,607e00d9883d3e470ccb5763,fullscreen,,,,,1,,,,,,
650,607e00d9883d3e470ccb5763,instructions,26565.0,,,,2,,,,,,
651,5f3f051d2b1f171e336d114a,instructions,37551.0,,,,3,,,,,,
652,5f3f051d2b1f171e336d114a,curtain-display,,,,,4,,,,,,
653,5f3f051d2b1f171e336d114a,curtain-display,,,,,5,,,,,,
654,61170fc882aceb0cbcfebe6e,fullscreen,,,,,1,,,,,,
655,5f3f051d2b1f171e336d114a,curtain-display,6364.0,,,,6,,6864.0,,,,
656,5d28701c573e380001514923,fullscreen,,,,,1,,,,,,
657,5d28701c573e380001514923,instructions,6207.0,,,,2,,,,,,
658,607e00d9883d3e470ccb5763,instructions,34327.0,,,,3,,,,,,
659,607e00d9883d3e470ccb5763,curtain-display,,,,,4,,,,,,
660,607e00d9883d3e470ccb5763,curtain-display,,,,,5,,,,,,
661,61170fc882aceb0cbcfebe6e,instructions,39715.0,,,,2,,,,,,
662,5f3f051d2b1f171e336d114a,instructions,32777.0,,,,7,,,,,,
663,5f3f051d2b1f171e336d114a,curtain-display,,media/animal_stim/whitened/005_left_2.gif,media/animal_stim/whitened/005_right_1.gif,all_background,8,9.0,,,,,
664,5ffdf54a500d7740e02f3639,preload,,,,,0,,,,,,
665,5ffdf54a500d7740e02f3639,preload,,,,,0,,,,,,
666,5f3f051d2b1f171e336d114a,curtain-display,,media/animal_stim/whitened/005_left_2.gif,media/animal_stim/whitened/005_right_1.gif,all_background,9,9.0,,,,,
667,5f3f051d2b1f171e336d114a,curtain-display,,media/animal_stim/whitened/005_left_2.gif,media/animal_stim/whitened/005_right_1.gif,all_background,10,9.0,,,,,
668,5f3f051d2b1f171e336d114a,curtain-display,,media/animal_stim/whitened/005_left_2.gif,media/animal_stim/whitened/005_right_1.gif,all_background,11,9.0,,,,,
669,5d28701c573e380001514923,instructions,40170.0,,,,3,,,,,,
670,5f3f051d2b1f171e336d114a,curtain-display,,media/animal_stim/whitened/005_left_2.gif,media/animal_stim/whitened/005_right_1.gif,all_background,12,9.0,,,,,
671,5d28701c573e380001514923,curtain-display,,,,,4,,,,,,
672,5f3f051d2b1f171e336d114a,curtain-display,,media/animal_stim/whitened/005_left_2.gif,media/animal_stim/whitened/005_right_1.gif,all_background,13,9.0,,,,,
673,5f3f051d2b1f171e336d114a,curtain-display,,media/animal_stim/whitened/005_left_2.gif,media/animal_stim/whitened/005_right_1.gif,all_background,14,9.0,,,,,
674,5d28701c573e380001514923,curtain-display,,,,,5,,,,,,
675,5f3f051d2b1f171e336d114a,curtain-display,,media/animal_stim/whitened/005_left_2.gif,media/animal_stim/whitened/005_right_1.gif,all_background,15,9.0,,,,,
676,5f3f051d2b1f171e336d114a,curtain-display,,media/animal_stim/whitened/005_left_2.gif,media/animal_stim/whitened/005_right_1.gif,all_background,16,9.0,,,,,
677,5f3f051d2b1f171e336d114a,curtain-display,1123.0,media/animal_stim/whitened/005_left_2.gif,media/animal_stim/whitened/005_right_1.gif,all_background,17,9.0,1623.0,,,,
678,5f3f051d2b1f171e336d114a,survey-likert,,,,,18,,,,,background,
679,5d28701c573e380001514923,curtain-display,3961.0,,,,6,,4461.0,,,,
680,5f3f051d2b1f171e336d114a,curtain-display,,media/animal_stim/whitened/001_right_2.gif,media/animal_stim/whitened/001_left_1.gif,deviant,19,3.0,,,,,
681,5f3f051d2b1f171e336d114a,curtain-display,,media/animal_stim/whitened/001_right_2.gif,media/animal_stim/whitened/001_left_1.gif,deviant,20,3.0,,,,,
682,61170fc882aceb0cbcfebe6e,instructions,34521.0,,,,3,,,,,,
683,5f3f051d2b1f171e336d114a,curtain-display,,media/animal_stim/whitened/001_right_2.gif,media/animal_stim/whitened/001_left_1.gif,deviant,21,3.0,,,,,
684,61170fc882aceb0cbcfebe6e,curtain-display,,,,,4,,,,,,
685,5f3f051d2b1f171e336d114a,curtain-display,1692.0,media/animal_stim/whitened/001_right_2.gif,media/animal_stim/whitened/001_left_1.gif,deviant,22,3.0,2192.0,,,,
686,61170fc882aceb0cbcfebe6e,curtain-display,,,,,5,,,,,,
687,6090f6323a468814885fca1e,preload,,,,,0,,,,,,
688,6090f6323a468814885fca1e,preload,,,,,0,,,,,,
689,61170fc882aceb0cbcfebe6e,curtain-display,1808.0,,,,6,,2308.0,,,,
690,5f3f051d2b1f171e336d114a,survey-likert,15398.0,,,,23,,,{'Q0': 0},[0],background,{'Q0': 0}
691,6090f6323a468814885fca1e,fullscreen,,,,,1,,,,,,
692,5f3f051d2b1f171e336d114a,curtain-display,,media/animal_stim/whitened/003_left_2.gif,media/animal_stim/whitened/003_right_1.gif,all_background,24,1.0,,,,,
693,5d28701c573e380001514923,instructions,34655.0,,,,7,,,,,,
694,5f3f051d2b1f171e336d114a,curtain-display,4125.0,media/animal_stim/whitened/003_left_2.gif,media/animal_stim/whitened/003_right_1.gif,all_background,25,1.0,4625.0,,,,
695,5d28701c573e380001514923,curtain-display,,media/animal_stim/whitened/002_right_2.gif,media/animal_stim/whitened/002_right_1.gif,deviant,8,9.0,,,,,
696,5d28701c573e380001514923,curtain-display,,media/animal_stim/whitened/002_right_2.gif,media/animal_stim/whitened/002_right_1.gif,deviant,9,9.0,,,,,
697,6090f6323a468814885fca1e,instructions,16039.0,,,,2,,,,,,
698,5d28701c573e380001514923,curtain-display,,media/animal_stim/whitened/002_right_2.gif,media/animal_stim/whitened/002_right_1.gif,deviant,10,9.0,,,,,
699,5f3f051d2b1f171e336d114a,survey-likert,9067.0,,,,26,,,{'Q0': 1},[0],background,{'Q0': 1}
700,5d28701c573e380001514923,curtain-display,,media/animal_stim/whitened/002_right_2.gif,media/animal_stim/whitened/002_right_1.gif,deviant,11,9.0,,,,,
701,5f3f051d2b1f171e336d114a,curtain-display,,media/animal_stim/whitened/002_left_1.gif,media/animal_stim/whitened/002_left_2.gif,deviant,27,1.0,,,,,
702,5d28701c573e380001514923,curtain-display,,media/animal_stim/whitened/002_right_2.gif,media/animal_stim/whitened/002_right_1.gif,deviant,12,9.0,,,,,
703,5f3f051d2b1f171e336d114a,curtain-display,3074.0,media/animal_stim/whitened/002_left_1.gif,media/animal_stim/whitened/002_left_2.gif,deviant,28,1.0,3574.0,,,,
704,5d28701c573e380001514923,curtain-display,,media/animal_stim/whitened/002_right_2.gif,media/animal_stim/whitened/002_right_1.gif,deviant,13,9.0,,,,,
705,5d28701c573e380001514923,curtain-display,,media/animal_stim/whitened/002_right_2.gif,media/animal_stim/whitened/002_right_1.gif,deviant,14,9.0,,,,,
706,5f3f051d2b1f171e336d114a,survey-likert,,,,,29,,,,,background,
707,5d28701c573e380001514923,curtain-display,,media/animal_stim/whitened/002_right_2.gif,media/animal_stim/whitened/002_right_1.gif,deviant,15,9.0,,,,,
708,5ffdf54a500d7740e02f3639,fullscreen,,,,,1,,,,,,
709,5d28701c573e380001514923,curtain-display,,media/animal_stim/whitened/002_right_2.gif,media/animal_stim/whitened/002_right_1.gif,deviant,16,9.0,,,,,
710,5f3f051d2b1f171e336d114a,curtain-display,,media/animal_stim/whitened/006_left_1.gif,media/animal_stim/whitened/006_right_2.gif,all_background,30,3.0,,,,,
711,5d28701c573e380001514923,curtain-display,,media/animal_stim/whitened/002_right_2.gif,media/animal_stim/whitened/002_right_1.gif,deviant,17,9.0,,,,,
712,5f3f051d2b1f171e336d114a,curtain-display,,media/animal_stim/whitened/006_left_1.gif,media/animal_stim/whitened/006_right_2.gif,all_background,31,3.0,,,,,
713,5f3f051d2b1f171e336d114a,curtain-display,,media/animal_stim/whitened/006_left_1.gif,media/animal_stim/whitened/006_right_2.gif,all_background,32,3.0,,,,,
714,5f3f051d2b1f171e336d114a,curtain-display,1147.0,media/animal_stim/whitened/006_left_1.gif,media/animal_stim/whitened/006_right_2.gif,all_background,33,3.0,1647.0,,,,
715,5d28701c573e380001514923,survey-likert,7572.0,,,,18,,,{'Q0': 1},[0],background,{'Q0': 1}
716,5f3f051d2b1f171e336d114a,survey-likert,,,,,34,,,,,background,
717,5d28701c573e380001514923,curtain-display,,media/animal_stim/whitened/003_right_1.gif,media/animal_stim/whitened/003_left_2.gif,all_background,19,3.0,,,,,
718,5f3f051d2b1f171e336d114a,curtain-display,,media/animal_stim/whitened/004_left_2.gif,media/animal_stim/whitened/004_right_1.gif,deviant,35,9.0,,,,,
719,61170fc882aceb0cbcfebe6e,instructions,,,,,7,,,,,,
720,5d28701c573e380001514923,curtain-display,,media/animal_stim/whitened/003_right_1.gif,media/animal_stim/whitened/003_left_2.gif,all_background,20,3.0,,,,,
721,5f3f051d2b1f171e336d114a,curtain-display,,media/animal_stim/whitened/004_left_2.gif,media/animal_stim/whitened/004_right_1.gif,deviant,36,9.0,,,,,
722,61170fc882aceb0cbcfebe6e,curtain-display,,media/animal_stim/whitened/003_right_1.gif,media/animal_stim/whitened/003_right_2.gif,deviant,8,1.0,,,,,
723,5ffdf54a500d7740e02f3639,instructions,20740.0,,,,2,,,,,,
724,5d28701c573e380001514923,curtain-display,,media/animal_stim/whitened/003_right_1.gif,media/animal_stim/whitened/003_left_2.gif,all_background,21,3.0,,,,,
725,5f3f051d2b1f171e336d114a,curtain-display,,media/animal_stim/whitened/004_left_2.gif,media/animal_stim/whitened/004_right_1.gif,deviant,37,9.0,,,,,
726,5d28701c573e380001514923,curtain-display,21934.0,media/animal_stim/whitened/003_right_1.gif,media/animal_stim/whitened/003_left_2.gif,all_background,22,3.0,22434.0,,,,
727,5d28701c573e380001514923,survey-likert,1053.0,,,,23,,1553.0,,,background,
728,5f3f051d2b1f171e336d114a,curtain-display,,media/animal_stim/whitened/004_left_2.gif,media/animal_stim/whitened/004_right_1.gif,deviant,38,9.0,,,,,
729,5d28701c573e380001514923,curtain-display,,media/animal_stim/whitened/006_left_1.gif,media/animal_stim/whitened/006_right_2.gif,all_background,24,9.0,,,,,
730,61170fc882aceb0cbcfebe6e,curtain-display,6917.0,media/animal_stim/whitened/003_right_1.gif,media/animal_stim/whitened/003_right_2.gif,deviant,9,1.0,7417.0,,,,
731,5f3f051d2b1f171e336d114a,curtain-display,,media/animal_stim/whitened/004_left_2.gif,media/animal_stim/whitened/004_right_1.gif,deviant,39,9.0,,,,,
732,5d28701c573e380001514923,curtain-display,,media/animal_stim/whitened/006_left_1.gif,media/animal_stim/whitened/006_right_2.gif,all_background,25,9.0,,,,,
733,5f3f051d2b1f171e336d114a,curtain-display,,media/animal_stim/whitened/004_left_2.gif,media/animal_stim/whitened/004_right_1.gif,deviant,40,9.0,,,,,
734,61170fc882aceb0cbcfebe6e,survey-likert,4428.0,,,,10,,,{'Q0': 2},[0],background,{'Q0': 2}
735,5f3f051d2b1f171e336d114a,curtain-display,,media/animal_stim/whitened/004_left_2.gif,media/animal_stim/whitened/004_right_1.gif,deviant,41,9.0,,,,,
736,5d28701c573e380001514923,curtain-display,,media/animal_stim/whitened/006_left_1.gif,media/animal_stim/whitened/006_right_2.gif,all_background,26,9.0,,,,,
737,6090f6323a468814885fca1e,instructions,46521.0,,,,3,,,,,,
738,5f3f051d2b1f171e336d114a,curtain-display,,media/animal_stim/whitened/004_left_2.gif,media/animal_stim/whitened/004_right_1.gif,deviant,42,9.0,,,,,
739,61170fc882aceb0cbcfebe6e,curtain-display,,media/animal_stim/whitened/002_right_2.gif,media/animal_stim/whitened/002_right_1.gif,all_background,11,9.0,,,,,
740,5f3f051d2b1f171e336d114a,curtain-display,,media/animal_stim/whitened/004_left_2.gif,media/animal_stim/whitened/004_right_1.gif,deviant,43,9.0,,,,,
741,5d28701c573e380001514923,curtain-display,,media/animal_stim/whitened/006_left_1.gif,media/animal_stim/whitened/006_right_2.gif,all_background,27,9.0,,,,,
742,5f3f051d2b1f171e336d114a,curtain-display,500.0,media/animal_stim/whitened/004_left_2.gif,media/animal_stim/whitened/004_right_1.gif,deviant,44,9.0,1000.0,,,,
743,6090f6323a468814885fca1e,curtain-display,,,,,4,,,,,,
744,5f3f051d2b1f171e336d114a,survey-likert,,,,,45,,,,,background,
745,61170fc882aceb0cbcfebe6e,curtain-display,,media/animal_stim/whitened/002_right_2.gif,media/animal_stim/whitened/002_right_1.gif,all_background,12,9.0,,,,,
746,5d28701c573e380001514923,curtain-display,,media/animal_stim/whitened/006_left_1.gif,media/animal_stim/whitened/006_right_2.gif,all_background,28,9.0,,,,,
747,6090f6323a468814885fca1e,curtain-display,,,,,5,,,,,,
748,61170fc882aceb0cbcfebe6e,curtain-display,,media/animal_stim/whitened/002_right_2.gif,media/animal_stim/whitened/002_right_1.gif,all_background,13,9.0,,,,,
749,5f3f051d2b1f171e336d114a,html-button-response,4851.0,,,,46,,,0,,,0
750,5d28701c573e380001514923,curtain-display,,media/animal_stim/whitened/006_left_1.gif,media/animal_stim/whitened/006_right_2.gif,all_background,29,9.0,,,,,
751,61170fc882aceb0cbcfebe6e,curtain-display,,media/animal_stim/whitened/002_right_2.gif,media/animal_stim/whitened/002_right_1.gif,all_background,14,9.0,,,,,
752,6090f6323a468814885fca1e,curtain-display,4699.0,,,,6,,5199.0,,,,
753,5d28701c573e380001514923,curtain-display,,media/animal_stim/whitened/006_left_1.gif,media/animal_stim/whitened/006_right_2.gif,all_background,30,9.0,,,,,
754,5f3f051d2b1f171e336d114a,survey-text,4415.0,,,,47,,,{'Q0': '40'},,,{'Q0': '40'}
755,61170fc882aceb0cbcfebe6e,curtain-display,,media/animal_stim/whitened/002_right_2.gif,media/animal_stim/whitened/002_right_1.gif,all_background,15,9.0,,,,,
756,5d28701c573e380001514923,curtain-display,,media/animal_stim/whitened/006_left_1.gif,media/animal_stim/whitened/006_right_2.gif,all_background,31,9.0,,,,,
757,5ffdf54a500d7740e02f3639,instructions,29150.0,,,,3,,,,,,
758,61170fc882aceb0cbcfebe6e,curtain-display,,media/animal_stim/whitened/002_right_2.gif,media/animal_stim/whitened/002_right_1.gif,all_background,16,9.0,,,,,
759,5f3f051d2b1f171e336d114a,survey-multi-select,6309.0,,,,48,,,{'ethnicity': ['White']},[0],,{'ethnicity': ['White']}
760,5d28701c573e380001514923,curtain-display,,media/animal_stim/whitened/006_left_1.gif,media/animal_stim/whitened/006_right_2.gif,all_background,32,9.0,,,,,
761,5ffdf54a500d7740e02f3639,curtain-display,,,,,4,,,,,,
762,5d28701c573e380001514923,curtain-display,954.0,media/animal_stim/whitened/006_left_1.gif,media/animal_stim/whitened/006_right_2.gif,all_background,33,9.0,1454.0,,,,
763,61170fc882aceb0cbcfebe6e,curtain-display,,media/animal_stim/whitened/002_right_2.gif,media/animal_stim/whitened/002_right_1.gif,all_background,17,9.0,,,,,
764,5ffdf54a500d7740e02f3639,curtain-display,,,,,5,,,,,,
765,5d28701c573e380001514923,survey-likert,2917.0,,,,34,,,{'Q0': 1},[0],background,{'Q0': 1}
766,5f3f051d2b1f171e336d114a,survey-text,5626.0,,,,49,,,{'Q0': 'female'},,,{'Q0': 'female'}
767,5d28701c573e380001514923,curtain-display,,media/animal_stim/whitened/004_right_2.gif,media/animal_stim/whitened/004_left_1.gif,deviant,35,1.0,,,,,
768,61170fc882aceb0cbcfebe6e,curtain-display,,media/animal_stim/whitened/002_right_2.gif,media/animal_stim/whitened/002_right_1.gif,all_background,18,9.0,,,,,
769,5d28701c573e380001514923,curtain-display,1423.0,media/animal_stim/whitened/004_right_2.gif,media/animal_stim/whitened/004_left_1.gif,deviant,36,1.0,1923.0,,,,
770,5d28701c573e380001514923,survey-likert,,,,,37,,,,,background,
771,61170fc882aceb0cbcfebe6e,curtain-display,,media/animal_stim/whitened/002_right_2.gif,media/animal_stim/whitened/002_right_1.gif,all_background,19,9.0,,,,,
772,61170fc882aceb0cbcfebe6e,curtain-display,701.0,media/animal_stim/whitened/002_right_2.gif,media/animal_stim/whitened/002_right_1.gif,all_background,20,9.0,1201.0,,,,
773,5d28701c573e380001514923,curtain-display,,media/animal_stim/whitened/005_left_1.gif,media/animal_stim/whitened/005_right_2.gif,all_background,38,1.0,,,,,
774,5ffdf54a500d7740e02f3639,curtain-display,7787.0,,,,6,,8287.0,,,,
775,5d28701c573e380001514923,curtain-display,1880.0,media/animal_stim/whitened/005_left_1.gif,media/animal_stim/whitened/005_right_2.gif,all_background,39,1.0,2380.0,,,,
776,61170fc882aceb0cbcfebe6e,survey-likert,6462.0,,,,21,,,{'Q0': 0},[0],background,{'Q0': 0}
777,5d28701c573e380001514923,survey-likert,3705.0,,,,40,,,{'Q0': 3},[0],background,{'Q0': 3}
778,61170fc882aceb0cbcfebe6e,curtain-display,,media/animal_stim/whitened/005_left_2.gif,media/animal_stim/whitened/005_right_1.gif,all_background,22,3.0,,,,,
779,5d28701c573e380001514923,curtain-display,,media/animal_stim/whitened/001_left_2.gif,media/animal_stim/whitened/001_left_1.gif,deviant,41,3.0,,,,,
780,61170fc882aceb0cbcfebe6e,curtain-display,,media/animal_stim/whitened/005_left_2.gif,media/animal_stim/whitened/005_right_1.gif,all_background,23,3.0,,,,,
781,61170fc882aceb0cbcfebe6e,curtain-display,,media/animal_stim/whitened/005_left_2.gif,media/animal_stim/whitened/005_right_1.gif,all_background,24,3.0,,,,,
782,6090f6323a468814885fca1e,instructions,33414.0,,,,7,,,,,,
783,5d28701c573e380001514923,curtain-display,,media/animal_stim/whitened/001_left_2.gif,media/animal_stim/whitened/001_left_1.gif,deviant,42,3.0,,,,,
784,5d28701c573e380001514923,curtain-display,,media/animal_stim/whitened/001_left_2.gif,media/animal_stim/whitened/001_left_1.gif,deviant,43,3.0,,,,,
785,61170fc882aceb0cbcfebe6e,curtain-display,1360.0,media/animal_stim/whitened/005_left_2.gif,media/animal_stim/whitened/005_right_1.gif,all_background,25,3.0,1860.0,,,,
786,61170fc882aceb0cbcfebe6e,survey-likert,,,,,26,,,,,background,
787,5d28701c573e380001514923,curtain-display,1141.0,media/animal_stim/whitened/001_left_2.gif,media/animal_stim/whitened/001_left_1.gif,deviant,44,3.0,1641.0,,,,
788,6090f6323a468814885fca1e,curtain-display,,media/animal_stim/whitened/001_right_2.gif,media/animal_stim/whitened/001_left_1.gif,deviant,8,1.0,,,,,
789,5d28701c573e380001514923,survey-likert,,,,,45,,,,,background,
790,61170fc882aceb0cbcfebe6e,curtain-display,,media/animal_stim/whitened/006_left_2.gif,media/animal_stim/whitened/006_left_1.gif,deviant,27,3.0,,,,,
791,5f3f051d2b1f171e336d114a,survey-multi-choice,27486.0,,,,50,,,"{'education': ""Bachelor's Degree""}",[0],,"{'education': ""Bachelor's Degree""}"
792,6090f6323a468814885fca1e,curtain-display,3758.0,media/animal_stim/whitened/001_right_2.gif,media/animal_stim/whitened/001_left_1.gif,deviant,9,1.0,4258.0,,,,
793,5d28701c573e380001514923,html-button-response,4961.0,,,,46,,,0,,,0
794,61170fc882aceb0cbcfebe6e,curtain-display,,media/animal_stim/whitened/006_left_2.gif,media/animal_stim/whitened/006_left_1.gif,deviant,28,3.0,,,,,
795,5f3f051d2b1f171e336d114a,html-button-response,3602.0,,,,51,,,0,,,0
796,5d28701c573e380001514923,survey-text,2492.0,,,,47,,,{'Q0': '35'},,,{'Q0': '35'}
797,6090f6323a468814885fca1e,survey-likert,4352.0,,,,10,,,{'Q0': 3},[0],background,{'Q0': 3}
798,61170fc882aceb0cbcfebe6e,curtain-display,,media/animal_stim/whitened/006_left_2.gif,media/animal_stim/whitened/006_left_1.gif,deviant,29,3.0,,,,,
799,6090f6323a468814885fca1e,curtain-display,,media/animal_stim/whitened/004_left_2.gif,media/animal_stim/whitened/004_right_1.gif,deviant,11,3.0,,,,,
800,5d28701c573e380001514923,survey-multi-select,5243.0,,,,48,,,{'ethnicity': ['White']},[0],,{'ethnicity': ['White']}
801,5f3f051d2b1f171e336d114a,survey-text,6134.0,,,,52,,,{'Q0': '40'},,,{'Q0': '40'}
802,5f3f051d2b1f171e336d114a,survey-multi-select,2006.0,,,,53,,,{'ethnicity': ['White']},[0],,{'ethnicity': ['White']}
803,6090f6323a468814885fca1e,curtain-display,,media/animal_stim/whitened/004_left_2.gif,media/animal_stim/whitened/004_right_1.gif,deviant,12,3.0,,,,,
804,5d28701c573e380001514923,survey-text,3752.0,,,,49,,,{'Q0': 'male'},,,{'Q0': 'male'}
805,6090f6323a468814885fca1e,curtain-display,,media/animal_stim/whitened/004_left_2.gif,media/animal_stim/whitened/004_right_1.gif,deviant,13,3.0,,,,,
806,6090f6323a468814885fca1e,curtain-display,,media/animal_stim/whitened/004_left_2.gif,media/animal_stim/whitened/004_right_1.gif,deviant,14,3.0,,,,,
807,5f3f051d2b1f171e336d114a,survey-text,4706.0,,,,54,,,{'Q0': 'female'},,,{'Q0': 'female'}
808,5d28701c573e380001514923,survey-multi-choice,5947.0,,,,50,,,"{'education': ""Master's Degree""}",[0],,"{'education': ""Master's Degree""}"
809,5d28701c573e380001514923,html-button-response,4404.0,,,,51,,,0,,,0
810,6090f6323a468814885fca1e,survey-likert,8504.0,,,,15,,,{'Q0': 3},[0],background,{'Q0': 3}
811,5f3f051d2b1f171e336d114a,survey-multi-choice,7980.0,,,,55,,,{'education': 'High school diploma'},[0],,{'education': 'High school diploma'}
812,5f3f051d2b1f171e336d114a,fullscreen,,,,,56,,,,,,
813,5d28701c573e380001514923,survey-text,3794.0,,,,52,,,{'Q0': '35'},,,{'Q0': '35'}
814,6090f6323a468814885fca1e,curtain-display,,media/animal_stim/whitened/006_left_1.gif,media/animal_stim/whitened/006_left_2.gif,all_background,16,1.0,,,,,
815,61170fc882aceb0cbcfebe6e,curtain-display,21824.0,media/animal_stim/whitened/006_left_2.gif,media/animal_stim/whitened/006_left_1.gif,deviant,30,3.0,22324.0,,,,
816,5d28701c573e380001514923,survey-multi-select,1429.0,,,,53,,,{'ethnicity': ['White']},[0],,{'ethnicity': ['White']}
817,6090f6323a468814885fca1e,curtain-display,14721.0,media/animal_stim/whitened/006_left_1.gif,media/animal_stim/whitened/006_left_2.gif,all_background,17,1.0,15221.0,,,,
818,6090f6323a468814885fca1e,survey-likert,399.0,,,,18,,899.0,,,background,
819,5ffdf54a500d7740e02f3639,instructions,,,,,7,,,,,,
820,5d28701c573e380001514923,survey-text,3386.0,,,,54,,,{'Q0': 'male'},,,{'Q0': 'male'}
821,61170fc882aceb0cbcfebe6e,survey-likert,3421.0,,,,31,,,{'Q0': 3},[0],background,{'Q0': 3}
822,6090f6323a468814885fca1e,curtain-display,,media/animal_stim/whitened/005_right_1.gif,media/animal_stim/whitened/005_left_2.gif,all_background,19,3.0,,,,,
823,5d28701c573e380001514923,survey-multi-choice,1648.0,,,,55,,,"{'education': ""Master's Degree""}",[0],,"{'education': ""Master's Degree""}"
824,5d28701c573e380001514923,fullscreen,,,,,56,,,,,,
825,61170fc882aceb0cbcfebe6e,curtain-display,,media/animal_stim/whitened/004_left_2.gif,media/animal_stim/whitened/004_right_1.gif,all_background,32,1.0,,,,,
826,5ffdf54a500d7740e02f3639,curtain-display,,media/animal_stim/whitened/004_left_1.gif,media/animal_stim/whitened/004_left_2.gif,deviant,8,1.0,,,,,
827,6090f6323a468814885fca1e,curtain-display,,media/animal_stim/whitened/005_right_1.gif,media/animal_stim/whitened/005_left_2.gif,all_background,20,3.0,,,,,
828,61170fc882aceb0cbcfebe6e,curtain-display,,media/animal_stim/whitened/004_left_2.gif,media/animal_stim/whitened/004_right_1.gif,all_background,33,1.0,,,,,
829,61170fc882aceb0cbcfebe6e,survey-likert,2294.0,,,,34,,,{'Q0': 3},[0],background,{'Q0': 3}
830,5f3f051d2b1f171e336d114a,html-button-response,14298.0,,,,57,,,0,,,0
831,6090f6323a468814885fca1e,curtain-display,,media/animal_stim/whitened/005_right_1.gif,media/animal_stim/whitened/005_left_2.gif,all_background,21,3.0,,,,,
832,5ffdf54a500d7740e02f3639,curtain-display,3691.0,media/animal_stim/whitened/004_left_1.gif,media/animal_stim/whitened/004_left_2.gif,deviant,9,1.0,4191.0,,,,
833,61170fc882aceb0cbcfebe6e,curtain-display,,media/animal_stim/whitened/001_left_2.gif,media/animal_stim/whitened/001_left_1.gif,deviant,35,9.0,,,,,
834,6090f6323a468814885fca1e,curtain-display,1839.0,media/animal_stim/whitened/005_right_1.gif,media/animal_stim/whitened/005_left_2.gif,all_background,22,3.0,2339.0,,,,
835,61170fc882aceb0cbcfebe6e,curtain-display,8912.0,media/animal_stim/whitened/001_left_2.gif,media/animal_stim/whitened/001_left_1.gif,deviant,36,9.0,9412.0,,,,
836,5ffdf54a500d7740e02f3639,survey-likert,5399.0,,,,10,,,{'Q0': 2},[0],background,{'Q0': 2}
837,61170fc882aceb0cbcfebe6e,curtain-display,,media/animal_stim/whitened/001_left_2.gif,media/animal_stim/whitened/001_left_1.gif,deviant,37,9.0,,,,,
838,6090f6323a468814885fca1e,survey-likert,3605.0,,,,23,,,{'Q0': 2},[0],background,{'Q0': 2}
839,61170fc882aceb0cbcfebe6e,curtain-display,,media/animal_stim/whitened/001_left_2.gif,media/animal_stim/whitened/001_left_1.gif,deviant,38,9.0,,,,,
840,5ffdf54a500d7740e02f3639,curtain-display,,media/animal_stim/whitened/001_right_1.gif,media/animal_stim/whitened/001_left_2.gif,deviant,11,9.0,,,,,
841,61170fc882aceb0cbcfebe6e,curtain-display,,media/animal_stim/whitened/001_left_2.gif,media/animal_stim/whitened/001_left_1.gif,deviant,39,9.0,,,,,
842,6090f6323a468814885fca1e,curtain-display,,media/animal_stim/whitened/002_right_1.gif,media/animal_stim/whitened/002_left_2.gif,deviant,24,9.0,,,,,
843,61170fc882aceb0cbcfebe6e,curtain-display,,media/animal_stim/whitened/001_left_2.gif,media/animal_stim/whitened/001_left_1.gif,deviant,40,9.0,,,,,
844,61170fc882aceb0cbcfebe6e,curtain-display,,media/animal_stim/whitened/001_left_2.gif,media/animal_stim/whitened/001_left_1.gif,deviant,41,9.0,,,,,
845,5ffdf54a500d7740e02f3639,curtain-display,,media/animal_stim/whitened/001_right_1.gif,media/animal_stim/whitened/001_left_2.gif,deviant,12,9.0,,,,,
846,61170fc882aceb0cbcfebe6e,curtain-display,,media/animal_stim/whitened/001_left_2.gif,media/animal_stim/whitened/001_left_1.gif,deviant,42,9.0,,,,,
847,6090f6323a468814885fca1e,curtain-display,,media/animal_stim/whitened/002_right_1.gif,media/animal_stim/whitened/002_left_2.gif,deviant,25,9.0,,,,,
848,61170fc882aceb0cbcfebe6e,curtain-display,,media/animal_stim/whitened/001_left_2.gif,media/animal_stim/whitened/001_left_1.gif,deviant,43,9.0,,,,,
849,61170fc882aceb0cbcfebe6e,curtain-display,,media/animal_stim/whitened/001_left_2.gif,media/animal_stim/whitened/001_left_1.gif,deviant,44,9.0,,,,,
850,5ffdf54a500d7740e02f3639,curtain-display,,media/animal_stim/whitened/001_right_1.gif,media/animal_stim/whitened/001_left_2.gif,deviant,13,9.0,,,,,
851,6090f6323a468814885fca1e,curtain-display,,media/animal_stim/whitened/002_right_1.gif,media/animal_stim/whitened/002_left_2.gif,deviant,26,9.0,,,,,
852,61170fc882aceb0cbcfebe6e,survey-likert,,,,,45,,,,,background,
853,6090f6323a468814885fca1e,curtain-display,,media/animal_stim/whitened/002_right_1.gif,media/animal_stim/whitened/002_left_2.gif,deviant,27,9.0,,,,,
854,61170fc882aceb0cbcfebe6e,html-button-response,3032.0,,,,46,,,0,,,0
855,5ffdf54a500d7740e02f3639,curtain-display,,media/animal_stim/whitened/001_right_1.gif,media/animal_stim/whitened/001_left_2.gif,deviant,14,9.0,,,,,
856,6090f6323a468814885fca1e,curtain-display,,media/animal_stim/whitened/002_right_1.gif,media/animal_stim/whitened/002_left_2.gif,deviant,28,9.0,,,,,
857,6090f6323a468814885fca1e,curtain-display,,media/animal_stim/whitened/002_right_1.gif,media/animal_stim/whitened/002_left_2.gif,deviant,29,9.0,,,,,
858,61170fc882aceb0cbcfebe6e,survey-text,1614.0,,,,47,,,{'Q0': '22'},,,{'Q0': '22'}
859,5ffdf54a500d7740e02f3639,curtain-display,,media/animal_stim/whitened/001_right_1.gif,media/animal_stim/whitened/001_left_2.gif,deviant,15,9.0,,,,,
860,6090f6323a468814885fca1e,curtain-display,,media/animal_stim/whitened/002_right_1.gif,media/animal_stim/whitened/002_left_2.gif,deviant,30,9.0,,,,,
861,61170fc882aceb0cbcfebe6e,survey-multi-select,2402.0,,,,48,,,{'ethnicity': ['Hispanic or Latino']},[0],,{'ethnicity': ['Hispanic or Latino']}
862,6090f6323a468814885fca1e,curtain-display,,media/animal_stim/whitened/002_right_1.gif,media/animal_stim/whitened/002_left_2.gif,deviant,31,9.0,,,,,
863,61170fc882aceb0cbcfebe6e,survey-text,2859.0,,,,49,,,{'Q0': 'male'},,,{'Q0': 'male'}
864,5ffdf54a500d7740e02f3639,curtain-display,,media/animal_stim/whitened/001_right_1.gif,media/animal_stim/whitened/001_left_2.gif,deviant,16,9.0,,,,,
865,6090f6323a468814885fca1e,curtain-display,,media/animal_stim/whitened/002_right_1.gif,media/animal_stim/whitened/002_left_2.gif,deviant,32,9.0,,,,,
866,6090f6323a468814885fca1e,curtain-display,,media/animal_stim/whitened/002_right_1.gif,media/animal_stim/whitened/002_left_2.gif,deviant,33,9.0,,,,,
867,5ffdf54a500d7740e02f3639,curtain-display,,media/animal_stim/whitened/001_right_1.gif,media/animal_stim/whitened/001_left_2.gif,deviant,17,9.0,,,,,
868,6090f6323a468814885fca1e,survey-likert,5380.0,,,,34,,,{'Q0': 3},[0],background,{'Q0': 3}
869,6090f6323a468814885fca1e,curtain-display,,media/animal_stim/whitened/003_left_1.gif,media/animal_stim/whitened/003_left_2.gif,all_background,35,9.0,,,,,
870,5ffdf54a500d7740e02f3639,curtain-display,,media/animal_stim/whitened/001_right_1.gif,media/animal_stim/whitened/001_left_2.gif,deviant,18,9.0,,,,,
871,61170fc882aceb0cbcfebe6e,survey-multi-choice,7749.0,,,,50,,,{'education': 'Associate Degree/Technical certification'},[0],,{'education': 'Associate Degree/Technical certification'}
872,6090f6323a468814885fca1e,curtain-display,,media/animal_stim/whitened/003_left_1.gif,media/animal_stim/whitened/003_left_2.gif,all_background,36,9.0,,,,,
873,61170fc882aceb0cbcfebe6e,html-button-response,2416.0,,,,51,,,0,,,0
874,6090f6323a468814885fca1e,curtain-display,,media/animal_stim/whitened/003_left_1.gif,media/animal_stim/whitened/003_left_2.gif,all_background,37,9.0,,,,,
875,5ffdf54a500d7740e02f3639,curtain-display,,media/animal_stim/whitened/001_right_1.gif,media/animal_stim/whitened/001_left_2.gif,deviant,19,9.0,,,,,
876,61170fc882aceb0cbcfebe6e,survey-text,1614.0,,,,52,,,{'Q0': '22'},,,{'Q0': '22'}
877,61170fc882aceb0cbcfebe6e,survey-multi-select,1580.0,,,,53,,,{'ethnicity': ['Hispanic or Latino']},[0],,{'ethnicity': ['Hispanic or Latino']}
878,6090f6323a468814885fca1e,curtain-display,,media/animal_stim/whitened/003_left_1.gif,media/animal_stim/whitened/003_left_2.gif,all_background,38,9.0,,,,,
879,6090f6323a468814885fca1e,curtain-display,,media/animal_stim/whitened/003_left_1.gif,media/animal_stim/whitened/003_left_2.gif,all_background,39,9.0,,,,,
880,6090f6323a468814885fca1e,curtain-display,,media/animal_stim/whitened/003_left_1.gif,media/animal_stim/whitened/003_left_2.gif,all_background,40,9.0,,,,,
881,61170fc882aceb0cbcfebe6e,survey-text,3748.0,,,,54,,,{'Q0': 'male'},,,{'Q0': 'male'}
882,5ffdf54a500d7740e02f3639,curtain-display,5154.0,media/animal_stim/whitened/001_right_1.gif,media/animal_stim/whitened/001_left_2.gif,deviant,20,9.0,5654.0,,,,
883,6090f6323a468814885fca1e,curtain-display,,media/animal_stim/whitened/003_left_1.gif,media/animal_stim/whitened/003_left_2.gif,all_background,41,9.0,,,,,
884,5ffdf54a500d7740e02f3639,survey-likert,2482.0,,,,21,,,{'Q0': 1},[0],background,{'Q0': 1}
885,6090f6323a468814885fca1e,curtain-display,,media/animal_stim/whitened/003_left_1.gif,media/animal_stim/whitened/003_left_2.gif,all_background,42,9.0,,,,,
886,6090f6323a468814885fca1e,curtain-display,,media/animal_stim/whitened/003_left_1.gif,media/animal_stim/whitened/003_left_2.gif,all_background,43,9.0,,,,,
887,6090f6323a468814885fca1e,curtain-display,,media/animal_stim/whitened/003_left_1.gif,media/animal_stim/whitened/003_left_2.gif,all_background,44,9.0,,,,,
888,61170fc882aceb0cbcfebe6e,survey-multi-choice,3832.0,,,,55,,,{'education': 'Associate Degree/Technical certification'},[0],,{'education': 'Associate Degree/Technical certification'}
889,61170fc882aceb0cbcfebe6e,fullscreen,,,,,56,,,,,,
890,5ffdf54a500d7740e02f3639,curtain-display,,media/animal_stim/whitened/006_left_1.gif,media/animal_stim/whitened/006_left_2.gif,all_background,22,9.0,,,,,
891,6090f6323a468814885fca1e,survey-likert,,,,,45,,,,,background,
892,5ffdf54a500d7740e02f3639,curtain-display,,media/animal_stim/whitened/006_left_1.gif,media/animal_stim/whitened/006_left_2.gif,all_background,23,9.0,,,,,
893,6090f6323a468814885fca1e,html-button-response,3963.0,,,,46,,,0,,,0
894,5ffdf54a500d7740e02f3639,curtain-display,,media/animal_stim/whitened/006_left_1.gif,media/animal_stim/whitened/006_left_2.gif,all_background,24,9.0,,,,,
895,5ffdf54a500d7740e02f3639,curtain-display,,media/animal_stim/whitened/006_left_1.gif,media/animal_stim/whitened/006_left_2.gif,all_background,25,9.0,,,,,
896,61170fc882aceb0cbcfebe6e,html-button-response,9747.0,,,,57,,,0,,,0
897,6090f6323a468814885fca1e,survey-text,3159.0,,,,47,,,{'Q0': '20'},,,{'Q0': '20'}
898,5ffdf54a500d7740e02f3639,curtain-display,,media/animal_stim/whitened/006_left_1.gif,media/animal_stim/whitened/006_left_2.gif,all_background,26,9.0,,,,,
899,5ffdf54a500d7740e02f3639,curtain-display,,media/animal_stim/whitened/006_left_1.gif,media/animal_stim/whitened/006_left_2.gif,all_background,27,9.0,,,,,
900,5ffdf54a500d7740e02f3639,curtain-display,,media/animal_stim/whitened/006_left_1.gif,media/animal_stim/whitened/006_left_2.gif,all_background,28,9.0,,,,,
901,5ffdf54a500d7740e02f3639,curtain-display,,media/animal_stim/whitened/006_left_1.gif,media/animal_stim/whitened/006_left_2.gif,all_background,29,9.0,,,,,
902,6090f6323a468814885fca1e,survey-multi-select,7694.0,,,,48,,,{'ethnicity': ['White']},[0],,{'ethnicity': ['White']}
903,5ffdf54a500d7740e02f3639,curtain-display,,media/animal_stim/whitened/006_left_1.gif,media/animal_stim/whitened/006_left_2.gif,all_background,30,9.0,,,,,
904,5ffdf54a500d7740e02f3639,curtain-display,,media/animal_stim/whitened/006_left_1.gif,media/animal_stim/whitened/006_left_2.gif,all_background,31,9.0,,,,,
905,6090f6323a468814885fca1e,survey-text,6706.0,,,,49,,,{'Q0': 'Male'},,,{'Q0': 'Male'}
906,5ffdf54a500d7740e02f3639,survey-likert,6886.0,,,,32,,,{'Q0': 2},[0],background,{'Q0': 2}
907,5ffdf54a500d7740e02f3639,curtain-display,,media/animal_stim/whitened/003_right_2.gif,media/animal_stim/whitened/003_left_1.gif,all_background,33,1.0,,,,,
908,5ffdf54a500d7740e02f3639,curtain-display,14987.0,media/animal_stim/whitened/003_right_2.gif,media/animal_stim/whitened/003_left_1.gif,all_background,34,1.0,15487.0,,,,
909,5ffdf54a500d7740e02f3639,survey-likert,3710.0,,,,35,,4210.0,,,background,
910,5ffdf54a500d7740e02f3639,curtain-display,,media/animal_stim/whitened/005_left_2.gif,media/animal_stim/whitened/005_right_1.gif,deviant,36,3.0,,,,,
911,607e00d9883d3e470ccb5763,preload,,,,,0,,,,,,
912,607e00d9883d3e470ccb5763,preload,,,,,0,,,,,,
913,5ffdf54a500d7740e02f3639,curtain-display,,media/animal_stim/whitened/005_left_2.gif,media/animal_stim/whitened/005_right_1.gif,deviant,37,3.0,,,,,
914,607e00d9883d3e470ccb5763,fullscreen,,,,,1,,,,,,
915,5ffdf54a500d7740e02f3639,curtain-display,,media/animal_stim/whitened/005_left_2.gif,media/animal_stim/whitened/005_right_1.gif,deviant,38,3.0,,,,,
916,607e00d9883d3e470ccb5763,instructions,4220.0,,,,2,,,,,,
917,5ffdf54a500d7740e02f3639,curtain-display,,media/animal_stim/whitened/005_left_2.gif,media/animal_stim/whitened/005_right_1.gif,deviant,39,3.0,,,,,
918,5ffdf54a500d7740e02f3639,survey-likert,3994.0,,,,40,,,{'Q0': 3},[0],background,{'Q0': 3}
919,5ffdf54a500d7740e02f3639,curtain-display,,media/animal_stim/whitened/002_right_2.gif,media/animal_stim/whitened/002_right_1.gif,all_background,41,3.0,,,,,
920,5ffdf54a500d7740e02f3639,curtain-display,,media/animal_stim/whitened/002_right_2.gif,media/animal_stim/whitened/002_right_1.gif,all_background,42,3.0,,,,,
921,5ffdf54a500d7740e02f3639,curtain-display,,media/animal_stim/whitened/002_right_2.gif,media/animal_stim/whitened/002_right_1.gif,all_background,43,3.0,,,,,
922,607e00d9883d3e470ccb5763,instructions,21713.0,,,,3,,,,,,
923,5ffdf54a500d7740e02f3639,curtain-display,26582.0,media/animal_stim/whitened/002_right_2.gif,media/animal_stim/whitened/002_right_1.gif,all_background,44,3.0,27082.0,,,,
924,5ffdf54a500d7740e02f3639,survey-likert,7408.0,,,,45,,7908.0,,,background,
925,607e00d9883d3e470ccb5763,curtain-display,,,,,4,,,,,,
926,5ffdf54a500d7740e02f3639,html-button-response,,,,,46,,,,,,
927,607e00d9883d3e470ccb5763,curtain-display,,,,,5,,,,,,
928,607e00d9883d3e470ccb5763,curtain-display,2062.0,,,,6,,2562.0,,,,
929,5ffdf54a500d7740e02f3639,survey-text,9221.0,,,,47,,,{'Q0': '28'},,,{'Q0': '28'}
930,5ffdf54a500d7740e02f3639,survey-multi-select,,,,,48,,,,,,
931,5f7cc289ebacb5154314e63f,preload,,,,,0,,,,,,
932,5f7cc289ebacb5154314e63f,preload,,,,,0,,,,,,
933,5ffdf54a500d7740e02f3639,survey-text,5967.0,,,,49,,,{'Q0': 'Male'},,,{'Q0': 'Male'}
934,5f7cc289ebacb5154314e63f,fullscreen,,,,,1,,,,,,
935,5ffdf54a500d7740e02f3639,survey-multi-choice,,,,,50,,,,,,
936,607e00d9883d3e470ccb5763,instructions,27075.0,,,,7,,,,,,
937,607e00d9883d3e470ccb5763,curtain-display,,media/animal_stim/whitened/006_left_2.gif,media/animal_stim/whitened/006_left_1.gif,deviant,8,3.0,,,,,
938,607e00d9883d3e470ccb5763,curtain-display,,media/animal_stim/whitened/006_left_2.gif,media/animal_stim/whitened/006_left_1.gif,deviant,9,3.0,,,,,
939,607e00d9883d3e470ccb5763,curtain-display,,media/animal_stim/whitened/006_left_2.gif,media/animal_stim/whitened/006_left_1.gif,deviant,10,3.0,,,,,
940,607e00d9883d3e470ccb5763,curtain-display,471.0,media/animal_stim/whitened/006_left_2.gif,media/animal_stim/whitened/006_left_1.gif,deviant,11,3.0,971.0,,,,
941,5ffdf54a500d7740e02f3639,html-button-response,,,,,51,,,,,,
942,5ffdf54a500d7740e02f3639,survey-text,8811.0,,,,52,,,{'Q0': '28'},,,{'Q0': '28'}
943,5f7cc289ebacb5154314e63f,instructions,31035.0,,,,2,,,,,,
944,5ffdf54a500d7740e02f3639,survey-multi-select,2864.0,,,,53,,,{'ethnicity': ['White']},[0],,{'ethnicity': ['White']}
945,607e00d9883d3e470ccb5763,survey-likert,15079.0,,,,12,,,{'Q0': 0},[0],background,{'Q0': 0}
946,5ffdf54a500d7740e02f3639,survey-text,2243.0,,,,54,,,{'Q0': 'Male'},,,{'Q0': 'Male'}
947,607e00d9883d3e470ccb5763,curtain-display,,media/animal_stim/whitened/002_right_1.gif,media/animal_stim/whitened/002_right_2.gif,all_background,13,1.0,,,,,
948,607e00d9883d3e470ccb5763,curtain-display,,media/animal_stim/whitened/002_right_1.gif,media/animal_stim/whitened/002_right_2.gif,all_background,14,1.0,,,,,
949,5ffdf54a500d7740e02f3639,survey-multi-choice,2023.0,,,,55,,,{'education': 'High school diploma'},[0],,{'education': 'High school diploma'}
950,607e00d9883d3e470ccb5763,survey-likert,465.0,,,,15,,965.0,,,background,
951,5ffdf54a500d7740e02f3639,fullscreen,,,,,56,,,,,,
952,607e00d9883d3e470ccb5763,curtain-display,,media/animal_stim/whitened/004_left_2.gif,media/animal_stim/whitened/004_right_1.gif,deviant,16,1.0,,,,,
953,5ffdf54a500d7740e02f3639,html-button-response,3722.0,,,,57,,,0,,,0
954,607e00d9883d3e470ccb5763,curtain-display,746.0,media/animal_stim/whitened/004_left_2.gif,media/animal_stim/whitened/004_right_1.gif,deviant,17,1.0,1246.0,,,,
955,607e00d9883d3e470ccb5763,survey-likert,6111.0,,,,18,,,{'Q0': 1},[0],background,{'Q0': 1}
956,607e00d9883d3e470ccb5763,curtain-display,,media/animal_stim/whitened/005_left_2.gif,media/animal_stim/whitened/005_left_1.gif,all_background,19,3.0,,,,,
957,607e00d9883d3e470ccb5763,curtain-display,,media/animal_stim/whitened/005_left_2.gif,media/animal_stim/whitened/005_left_1.gif,all_background,20,3.0,,,,,
958,607e00d9883d3e470ccb5763,curtain-display,,media/animal_stim/whitened/005_left_2.gif,media/animal_stim/whitened/005_left_1.gif,all_background,21,3.0,,,,,
959,607e00d9883d3e470ccb5763,curtain-display,392.0,media/animal_stim/whitened/005_left_2.gif,media/animal_stim/whitened/005_left_1.gif,all_background,22,3.0,892.0,,,,
960,,preload,,,,,0,,,,,,
961,,preload,,,,,0,,,,,,
962,,fullscreen,,,,,1,,,,,,
963,607e00d9883d3e470ccb5763,survey-likert,5451.0,,,,23,,,{'Q0': 2},[0],background,{'Q0': 2}
964,,instructions,3595.0,,,,2,,,,,,
965,607e00d9883d3e470ccb5763,curtain-display,,media/animal_stim/whitened/003_right_2.gif,media/animal_stim/whitened/003_left_1.gif,all_background,24,9.0,,,,,
966,607e00d9883d3e470ccb5763,curtain-display,,media/animal_stim/whitened/003_right_2.gif,media/animal_stim/whitened/003_left_1.gif,all_background,25,9.0,,,,,
967,,instructions,2264.0,,,,3,,,,,,
968,5f7cc289ebacb5154314e63f,instructions,41204.0,,,,3,,,,,,
969,607e00d9883d3e470ccb5763,curtain-display,,media/animal_stim/whitened/003_right_2.gif,media/animal_stim/whitened/003_left_1.gif,all_background,26,9.0,,,,,
970,607e00d9883d3e470ccb5763,curtain-display,,media/animal_stim/whitened/003_right_2.gif,media/animal_stim/whitened/003_left_1.gif,all_background,27,9.0,,,,,
971,,curtain-display,,,,,4,,,,,,
972,5f7cc289ebacb5154314e63f,curtain-display,,,,,4,,,,,,
973,607e00d9883d3e470ccb5763,curtain-display,,media/animal_stim/whitened/003_right_2.gif,media/animal_stim/whitened/003_left_1.gif,all_background,28,9.0,,,,,
974,607e00d9883d3e470ccb5763,curtain-display,,media/animal_stim/whitened/003_right_2.gif,media/animal_stim/whitened/003_left_1.gif,all_background,29,9.0,,,,,
975,,curtain-display,,,,,5,,,,,,
976,,curtain-display,783.0,,,,6,,1283.0,,,,
977,5f7cc289ebacb5154314e63f,curtain-display,,,,,5,,,,,,
978,607e00d9883d3e470ccb5763,curtain-display,,media/animal_stim/whitened/003_right_2.gif,media/animal_stim/whitened/003_left_1.gif,all_background,30,9.0,,,,,
979,607e00d9883d3e470ccb5763,curtain-display,,media/animal_stim/whitened/003_right_2.gif,media/animal_stim/whitened/003_left_1.gif,all_background,31,9.0,,,,,
980,,instructions,3120.0,,,,7,,,,,,
981,607e00d9883d3e470ccb5763,curtain-display,,media/animal_stim/whitened/003_right_2.gif,media/animal_stim/whitened/003_left_1.gif,all_background,32,9.0,,,,,
982,607e00d9883d3e470ccb5763,curtain-display,,media/animal_stim/whitened/003_right_2.gif,media/animal_stim/whitened/003_left_1.gif,all_background,33,9.0,,,,,
983,,curtain-display,,media/animal_stim/whitened/005_left_1.gif,media/animal_stim/whitened/005_left_2.gif,deviant,8,9.0,,,,,
984,607e00d9883d3e470ccb5763,survey-likert,5365.0,,,,34,,,{'Q0': 2},[0],background,{'Q0': 2}
985,,curtain-display,,media/animal_stim/whitened/005_left_1.gif,media/animal_stim/whitened/005_left_2.gif,deviant,9,9.0,,,,,
986,607e00d9883d3e470ccb5763,curtain-display,,media/animal_stim/whitened/001_right_1.gif,media/animal_stim/whitened/001_left_2.gif,deviant,35,9.0,,,,,
987,,curtain-display,,media/animal_stim/whitened/005_left_1.gif,media/animal_stim/whitened/005_left_2.gif,deviant,10,9.0,,,,,
988,607e00d9883d3e470ccb5763,curtain-display,,media/animal_stim/whitened/001_right_1.gif,media/animal_stim/whitened/001_left_2.gif,deviant,36,9.0,,,,,
989,5f7cc289ebacb5154314e63f,curtain-display,14608.0,,,,6,,15108.0,,,,
990,607e00d9883d3e470ccb5763,curtain-display,,media/animal_stim/whitened/001_right_1.gif,media/animal_stim/whitened/001_left_2.gif,deviant,37,9.0,,,,,
991,,curtain-display,,media/animal_stim/whitened/005_left_1.gif,media/animal_stim/whitened/005_left_2.gif,deviant,11,9.0,,,,,
992,607e00d9883d3e470ccb5763,curtain-display,,media/animal_stim/whitened/001_right_1.gif,media/animal_stim/whitened/001_left_2.gif,deviant,38,9.0,,,,,
993,607e00d9883d3e470ccb5763,curtain-display,,media/animal_stim/whitened/001_right_1.gif,media/animal_stim/whitened/001_left_2.gif,deviant,39,9.0,,,,,
994,607e00d9883d3e470ccb5763,curtain-display,,media/animal_stim/whitened/001_right_1.gif,media/animal_stim/whitened/001_left_2.gif,deviant,40,9.0,,,,,
995,,curtain-display,,media/animal_stim/whitened/005_left_1.gif,media/animal_stim/whitened/005_left_2.gif,deviant,12,9.0,,,,,
996,607e00d9883d3e470ccb5763,curtain-display,,media/animal_stim/whitened/001_right_1.gif,media/animal_stim/whitened/001_left_2.gif,deviant,41,9.0,,,,,
997,607e00d9883d3e470ccb5763,curtain-display,,media/animal_stim/whitened/001_right_1.gif,media/animal_stim/whitened/001_left_2.gif,deviant,42,9.0,,,,,
998,607e00d9883d3e470ccb5763,curtain-display,,media/animal_stim/whitened/001_right_1.gif,media/animal_stim/whitened/001_left_2.gif,deviant,43,9.0,,,,,
999,,curtain-display,,media/animal_stim/whitened/005_left_1.gif,media/animal_stim/whitened/005_left_2.gif,deviant,13,9.0,,,,,
1000,607e00d9883d3e470ccb5763,curtain-display,,media/animal_stim/whitened/001_right_1.gif,media/animal_stim/whitened/001_left_2.gif,deviant,44,9.0,,,,,
1001,607e00d9883d3e470ccb5763,survey-likert,,,,,45,,,,,background,
1002,,curtain-display,,media/animal_stim/whitened/005_left_1.gif,media/animal_stim/whitened/005_left_2.gif,deviant,14,9.0,,,,,
1003,607e00d9883d3e470ccb5763,html-button-response,4870.0,,,,46,,,0,,,0
1004,,curtain-display,,media/animal_stim/whitened/005_left_1.gif,media/animal_stim/whitened/005_left_2.gif,deviant,15,9.0,,,,,
1005,607e00d9883d3e470ccb5763,survey-text,2738.0,,,,47,,,{'Q0': '24'},,,{'Q0': '24'}
1006,,curtain-display,,media/animal_stim/whitened/005_left_1.gif,media/animal_stim/whitened/005_left_2.gif,deviant,16,9.0,,,,,
1007,,curtain-display,990.0,media/animal_stim/whitened/005_left_1.gif,media/animal_stim/whitened/005_left_2.gif,deviant,17,9.0,1490.0,,,,
1008,607e00d9883d3e470ccb5763,survey-multi-select,5140.0,,,,48,,,{'ethnicity': ['White']},[0],,{'ethnicity': ['White']}
1009,,survey-likert,3070.0,,,,18,,,{'Q0': 3},[0],background,{'Q0': 3}
1010,607e00d9883d3e470ccb5763,survey-text,4917.0,,,,49,,,{'Q0': 'Man'},,,{'Q0': 'Man'}
1011,,curtain-display,,media/animal_stim/whitened/002_right_1.gif,media/animal_stim/whitened/002_right_2.gif,deviant,19,1.0,,,,,
1012,,curtain-display,1580.0,media/animal_stim/whitened/002_right_1.gif,media/animal_stim/whitened/002_right_2.gif,deviant,20,1.0,2080.0,,,,
1013,607e00d9883d3e470ccb5763,survey-multi-choice,7165.0,,,,50,,,"{'education': ""Bachelor's Degree""}",[0],,"{'education': ""Bachelor's Degree""}"
1014,,survey-likert,4642.0,,,,21,,,{'Q0': 2},[0],background,{'Q0': 2}
1015,,curtain-display,,media/animal_stim/whitened/003_right_2.gif,media/animal_stim/whitened/003_left_1.gif,all_background,22,9.0,,,,,
1016,607e00d9883d3e470ccb5763,html-button-response,3814.0,,,,51,,,0,,,0
1017,607e00d9883d3e470ccb5763,survey-text,2682.0,,,,52,,,{'Q0': '24'},,,{'Q0': '24'}
1018,,curtain-display,,media/animal_stim/whitened/003_right_2.gif,media/animal_stim/whitened/003_left_1.gif,all_background,23,9.0,,,,,
1019,,curtain-display,,media/animal_stim/whitened/003_right_2.gif,media/animal_stim/whitened/003_left_1.gif,all_background,24,9.0,,,,,
1020,607e00d9883d3e470ccb5763,survey-multi-select,2119.0,,,,53,,,{'ethnicity': ['White']},[0],,{'ethnicity': ['White']}
1021,5f7cc289ebacb5154314e63f,instructions,,,,,7,,,,,,
1022,,curtain-display,,media/animal_stim/whitened/003_right_2.gif,media/animal_stim/whitened/003_left_1.gif,all_background,25,9.0,,,,,
1023,,curtain-display,,media/animal_stim/whitened/003_right_2.gif,media/animal_stim/whitened/003_left_1.gif,all_background,26,9.0,,,,,
1024,607e00d9883d3e470ccb5763,survey-text,3752.0,,,,54,,,{'Q0': 'Man'},,,{'Q0': 'Man'}
1025,5f7cc289ebacb5154314e63f,curtain-display,,media/animal_stim/whitened/006_left_2.gif,media/animal_stim/whitened/006_left_1.gif,deviant,8,3.0,,,,,
1026,,curtain-display,,media/animal_stim/whitened/003_right_2.gif,media/animal_stim/whitened/003_left_1.gif,all_background,27,9.0,,,,,
1027,607e00d9883d3e470ccb5763,survey-multi-choice,2493.0,,,,55,,,"{'education': ""Bachelor's Degree""}",[0],,"{'education': ""Bachelor's Degree""}"
1028,607e00d9883d3e470ccb5763,fullscreen,,,,,56,,,,,,
1029,,curtain-display,,media/animal_stim/whitened/003_right_2.gif,media/animal_stim/whitened/003_left_1.gif,all_background,28,9.0,,,,,
1030,5f7cc289ebacb5154314e63f,curtain-display,,media/animal_stim/whitened/006_left_2.gif,media/animal_stim/whitened/006_left_1.gif,deviant,9,3.0,,,,,
1031,,curtain-display,,media/animal_stim/whitened/003_right_2.gif,media/animal_stim/whitened/003_left_1.gif,all_background,29,9.0,,,,,
1032,,curtain-display,,media/animal_stim/whitened/003_right_2.gif,media/animal_stim/whitened/003_left_1.gif,all_background,30,9.0,,,,,
1033,,curtain-display,1532.0,media/animal_stim/whitened/003_right_2.gif,media/animal_stim/whitened/003_left_1.gif,all_background,31,9.0,2032.0,,,,
1034,5f7cc289ebacb5154314e63f,curtain-display,,media/animal_stim/whitened/006_left_2.gif,media/animal_stim/whitened/006_left_1.gif,deviant,10,3.0,,,,,
1035,,survey-likert,,,,,32,,,,,background,
1036,,curtain-display,,media/animal_stim/whitened/001_left_2.gif,media/animal_stim/whitened/001_left_1.gif,all_background,33,1.0,,,,,
1037,607e00d9883d3e470ccb5763,html-button-response,11381.0,,,,57,,,0,,,0
1038,,curtain-display,1178.0,media/animal_stim/whitened/001_left_2.gif,media/animal_stim/whitened/001_left_1.gif,all_background,34,1.0,1678.0,,,,
1039,,survey-likert,1366.0,,,,35,,,{'Q0': 3},[0],background,{'Q0': 3}
1040,,curtain-display,,media/animal_stim/whitened/004_left_2.gif,media/animal_stim/whitened/004_right_1.gif,all_background,36,3.0,,,,,
1041,5f7cc289ebacb5154314e63f,curtain-display,11440.0,media/animal_stim/whitened/006_left_2.gif,media/animal_stim/whitened/006_left_1.gif,deviant,11,3.0,11940.0,,,,
1042,,curtain-display,,media/animal_stim/whitened/004_left_2.gif,media/animal_stim/whitened/004_right_1.gif,all_background,37,3.0,,,,,
1043,,curtain-display,,media/animal_stim/whitened/004_left_2.gif,media/animal_stim/whitened/004_right_1.gif,all_background,38,3.0,,,,,
1044,,curtain-display,1811.0,media/animal_stim/whitened/004_left_2.gif,media/animal_stim/whitened/004_right_1.gif,all_background,39,3.0,2311.0,,,,
1045,,survey-likert,,,,,40,,,,,background,
1046,,curtain-display,,media/animal_stim/whitened/006_left_1.gif,media/animal_stim/whitened/006_left_2.gif,deviant,41,3.0,,,,,
1047,,curtain-display,,media/animal_stim/whitened/006_left_1.gif,media/animal_stim/whitened/006_left_2.gif,deviant,42,3.0,,,,,
1048,,curtain-display,,media/animal_stim/whitened/006_left_1.gif,media/animal_stim/whitened/006_left_2.gif,deviant,43,3.0,,,,,
1049,,curtain-display,103.0,media/animal_stim/whitened/006_left_1.gif,media/animal_stim/whitened/006_left_2.gif,deviant,44,3.0,603.0,,,,
1050,,survey-likert,,,,,45,,,,,background,
1051,,html-button-response,3013.0,,,,46,,,0,,,0
1052,,survey-text,2462.0,,,,47,,,{'Q0': '20'},,,{'Q0': '20'}
1053,,survey-multi-select,2062.0,,,,48,,,{'ethnicity': ['White']},[0],,{'ethnicity': ['White']}
1054,,survey-text,4613.0,,,,49,,,{'Q0': 'Male'},,,{'Q0': 'Male'}
1055,,survey-multi-choice,3467.0,,,,50,,,{'education': 'High school diploma'},[0],,{'education': 'High school diploma'}
1056,,html-button-response,1418.0,,,,51,,,0,,,0
1057,,survey-text,4101.0,,,,52,,,{'Q0': '20'},,,{'Q0': '20'}
1058,,survey-multi-select,2058.0,,,,53,,,{'ethnicity': ['White']},[0],,{'ethnicity': ['White']}
1059,5f7cc289ebacb5154314e63f,survey-likert,,,,,12,,,,,background,
1060,,survey-text,3974.0,,,,54,,,{'Q0': 'male'},,,{'Q0': 'male'}
1061,,survey-multi-choice,3366.0,,,,55,,,{'education': 'High school diploma'},[0],,{'education': 'High school diploma'}
1062,,fullscreen,,,,,56,,,,,,
1063,5f7cc289ebacb5154314e63f,curtain-display,,media/animal_stim/whitened/005_left_2.gif,media/animal_stim/whitened/005_left_1.gif,deviant,13,1.0,,,,,
1064,5f7cc289ebacb5154314e63f,curtain-display,6588.0,media/animal_stim/whitened/005_left_2.gif,media/animal_stim/whitened/005_left_1.gif,deviant,14,1.0,7088.0,,,,
1065,5f7cc289ebacb5154314e63f,survey-likert,5657.0,,,,15,,,{'Q0': 1},[0],background,{'Q0': 1}
1066,5f7cc289ebacb5154314e63f,curtain-display,,media/animal_stim/whitened/004_left_1.gif,media/animal_stim/whitened/004_left_2.gif,all_background,16,3.0,,,,,
1067,5f7cc289ebacb5154314e63f,curtain-display,,media/animal_stim/whitened/004_left_1.gif,media/animal_stim/whitened/004_left_2.gif,all_background,17,3.0,,,,,
1068,5f7cc289ebacb5154314e63f,curtain-display,,media/animal_stim/whitened/004_left_1.gif,media/animal_stim/whitened/004_left_2.gif,all_background,18,3.0,,,,,
1069,,html-button-response,26521.0,,,,57,,,0,,,0
1070,5f7cc289ebacb5154314e63f,curtain-display,5704.0,media/animal_stim/whitened/004_left_1.gif,media/animal_stim/whitened/004_left_2.gif,all_background,19,3.0,6204.0,,,,
1071,5d28701c573e380001514923,html-button-response,409770.0,,,,57,,,0,,,0
1072,5f7cc289ebacb5154314e63f,survey-likert,7403.0,,,,20,,,{'Q0': 0},[0],background,{'Q0': 0}
1073,5f7cc289ebacb5154314e63f,curtain-display,,media/animal_stim/whitened/003_right_1.gif,media/animal_stim/whitened/003_left_2.gif,deviant,21,9.0,,,,,
1074,5f7cc289ebacb5154314e63f,curtain-display,,media/animal_stim/whitened/003_right_1.gif,media/animal_stim/whitened/003_left_2.gif,deviant,22,9.0,,,,,
1075,5f7cc289ebacb5154314e63f,curtain-display,,media/animal_stim/whitened/003_right_1.gif,media/animal_stim/whitened/003_left_2.gif,deviant,23,9.0,,,,,
1076,5f7cc289ebacb5154314e63f,curtain-display,,media/animal_stim/whitened/003_right_1.gif,media/animal_stim/whitened/003_left_2.gif,deviant,24,9.0,,,,,
1077,5f7cc289ebacb5154314e63f,curtain-display,,media/animal_stim/whitened/003_right_1.gif,media/animal_stim/whitened/003_left_2.gif,deviant,25,9.0,,,,,
1078,5f7cc289ebacb5154314e63f,curtain-display,,media/animal_stim/whitened/003_right_1.gif,media/animal_stim/whitened/003_left_2.gif,deviant,26,9.0,,,,,
1079,5f7cc289ebacb5154314e63f,curtain-display,,media/animal_stim/whitened/003_right_1.gif,media/animal_stim/whitened/003_left_2.gif,deviant,27,9.0,,,,,
1080,5f7cc289ebacb5154314e63f,curtain-display,,media/animal_stim/whitened/003_right_1.gif,media/animal_stim/whitened/003_left_2.gif,deviant,28,9.0,,,,,
1081,5f7cc289ebacb5154314e63f,curtain-display,,media/animal_stim/whitened/003_right_1.gif,media/animal_stim/whitened/003_left_2.gif,deviant,29,9.0,,,,,
1082,5f7cc289ebacb5154314e63f,curtain-display,,media/animal_stim/whitened/003_right_1.gif,media/animal_stim/whitened/003_left_2.gif,deviant,30,9.0,,,,,
1083,5f7cc289ebacb5154314e63f,survey-likert,10722.0,,,,31,,,{'Q0': 0},[0],background,{'Q0': 0}
1084,5f7cc289ebacb5154314e63f,curtain-display,,media/animal_stim/whitened/002_right_1.gif,media/animal_stim/whitened/002_left_2.gif,all_background,32,9.0,,,,,
1085,5f7cc289ebacb5154314e63f,curtain-display,,media/animal_stim/whitened/002_right_1.gif,media/animal_stim/whitened/002_left_2.gif,all_background,33,9.0,,,,,
1086,5f7cc289ebacb5154314e63f,curtain-display,,media/animal_stim/whitened/002_right_1.gif,media/animal_stim/whitened/002_left_2.gif,all_background,34,9.0,,,,,
1087,5f7cc289ebacb5154314e63f,curtain-display,,media/animal_stim/whitened/002_right_1.gif,media/animal_stim/whitened/002_left_2.gif,all_background,35,9.0,,,,,
1088,5f7cc289ebacb5154314e63f,curtain-display,,media/animal_stim/whitened/002_right_1.gif,media/animal_stim/whitened/002_left_2.gif,all_background,36,9.0,,,,,
1089,5f7cc289ebacb5154314e63f,curtain-display,,media/animal_stim/whitened/002_right_1.gif,media/animal_stim/whitened/002_left_2.gif,all_background,37,9.0,,,,,
1090,5f7cc289ebacb5154314e63f,curtain-display,,media/animal_stim/whitened/002_right_1.gif,media/animal_stim/whitened/002_left_2.gif,all_background,38,9.0,,,,,
1091,5f7cc289ebacb5154314e63f,curtain-display,,media/animal_stim/whitened/002_right_1.gif,media/animal_stim/whitened/002_left_2.gif,all_background,39,9.0,,,,,
1092,5f7cc289ebacb5154314e63f,curtain-display,,media/animal_stim/whitened/002_right_1.gif,media/animal_stim/whitened/002_left_2.gif,all_background,40,9.0,,,,,
1093,5f7cc289ebacb5154314e63f,curtain-display,32936.0,media/animal_stim/whitened/002_right_1.gif,media/animal_stim/whitened/002_left_2.gif,all_background,41,9.0,33436.0,,,,
1094,5f7cc289ebacb5154314e63f,survey-likert,1839.0,,,,42,,2339.0,,,background,
1095,5f7cc289ebacb5154314e63f,curtain-display,,media/animal_stim/whitened/001_right_1.gif,media/animal_stim/whitened/001_left_2.gif,all_background,43,1.0,,,,,
1096,5f7cc289ebacb5154314e63f,curtain-display,,media/animal_stim/whitened/001_right_1.gif,media/animal_stim/whitened/001_left_2.gif,all_background,44,1.0,,,,,
1097,5f7cc289ebacb5154314e63f,survey-likert,5607.0,,,,45,,,{'Q0': 0},[0],background,{'Q0': 0}
1098,5f7cc289ebacb5154314e63f,html-button-response,3784.0,,,,46,,,0,,,0
1099,5f7cc289ebacb5154314e63f,survey-text,3848.0,,,,47,,,{'Q0': '30'},,,{'Q0': '30'}
1100,5f7cc289ebacb5154314e63f,survey-multi-select,5176.0,,,,48,,,{'ethnicity': ['White']},[0],,{'ethnicity': ['White']}
1101,5f7cc289ebacb5154314e63f,survey-text,3744.0,,,,49,,,{'Q0': 'Male'},,,{'Q0': 'Male'}
1102,5f7cc289ebacb5154314e63f,survey-multi-choice,10838.0,,,,50,,,"{'education': ""Bachelor's Degree""}",[0],,"{'education': ""Bachelor's Degree""}"
1103,5f7cc289ebacb5154314e63f,html-button-response,2362.0,,,,51,,,0,,,0
1104,5f7cc289ebacb5154314e63f,survey-text,4515.0,,,,52,,,{'Q0': '30'},,,{'Q0': '30'}
1105,5f7cc289ebacb5154314e63f,survey-multi-select,2387.0,,,,53,,,{'ethnicity': ['White']},[0],,{'ethnicity': ['White']}
1106,5f7cc289ebacb5154314e63f,survey-text,3872.0,,,,54,,,{'Q0': 'Male'},,,{'Q0': 'Male'}
1107,5f7cc289ebacb5154314e63f,survey-multi-choice,8668.0,,,,55,,,"{'education': ""Bachelor's Degree""}",[0],,"{'education': ""Bachelor's Degree""}"
1108,5f7cc289ebacb5154314e63f,fullscreen,,,,,56,,,,,,
1109,5f7cc289ebacb5154314e63f,html-button-response,8454.0,,,,57,,,0,,,0
1110,6137216fe81d8eabdaafbe9c,preload,,,,,0,,,,,,
1111,6137216fe81d8eabdaafbe9c,preload,,,,,0,,,,,,
1112,6137216fe81d8eabdaafbe9c,fullscreen,,,,,1,,,,,,
1113,6137216fe81d8eabdaafbe9c,instructions,8031.0,,,,2,,,,,,
1114,6137216fe81d8eabdaafbe9c,instructions,26278.0,,,,3,,,,,,
1115,6137216fe81d8eabdaafbe9c,curtain-display,,,,,4,,,,,,
1116,6137216fe81d8eabdaafbe9c,curtain-display,,,,,5,,,,,,
1117,6137216fe81d8eabdaafbe9c,curtain-display,6804.0,,,,6,,7304.0,,,,
1118,6137216fe81d8eabdaafbe9c,instructions,20049.0,,,,7,,,,,,
1119,6137216fe81d8eabdaafbe9c,curtain-display,,media/animal_stim/whitened/004_left_2.gif,media/animal_stim/whitened/004_right_1.gif,deviant,8,3.0,,,,,
1120,6137216fe81d8eabdaafbe9c,curtain-display,,media/animal_stim/whitened/004_left_2.gif,media/animal_stim/whitened/004_right_1.gif,deviant,9,3.0,,,,,
1121,6137216fe81d8eabdaafbe9c,curtain-display,,media/animal_stim/whitened/004_left_2.gif,media/animal_stim/whitened/004_right_1.gif,deviant,10,3.0,,,,,
1122,6137216fe81d8eabdaafbe9c,curtain-display,3663.0,media/animal_stim/whitened/004_left_2.gif,media/animal_stim/whitened/004_right_1.gif,deviant,11,3.0,4163.0,,,,
1123,6137216fe81d8eabdaafbe9c,survey-likert,8700.0,,,,12,,,{'Q0': 0},[0],background,{'Q0': 0}
1124,6137216fe81d8eabdaafbe9c,curtain-display,,media/animal_stim/whitened/002_left_1.gif,media/animal_stim/whitened/002_right_2.gif,deviant,13,9.0,,,,,
1125,6137216fe81d8eabdaafbe9c,curtain-display,,media/animal_stim/whitened/002_left_1.gif,media/animal_stim/whitened/002_right_2.gif,deviant,14,9.0,,,,,
1126,6137216fe81d8eabdaafbe9c,curtain-display,,media/animal_stim/whitened/002_left_1.gif,media/animal_stim/whitened/002_right_2.gif,deviant,15,9.0,,,,,
1127,6137216fe81d8eabdaafbe9c,curtain-display,,media/animal_stim/whitened/002_left_1.gif,media/animal_stim/whitened/002_right_2.gif,deviant,16,9.0,,,,,
1128,6137216fe81d8eabdaafbe9c,curtain-display,,media/animal_stim/whitened/002_left_1.gif,media/animal_stim/whitened/002_right_2.gif,deviant,17,9.0,,,,,
1129,6137216fe81d8eabdaafbe9c,curtain-display,,media/animal_stim/whitened/002_left_1.gif,media/animal_stim/whitened/002_right_2.gif,deviant,18,9.0,,,,,
1130,6137216fe81d8eabdaafbe9c,curtain-display,,media/animal_stim/whitened/002_left_1.gif,media/animal_stim/whitened/002_right_2.gif,deviant,19,9.0,,,,,
1131,6137216fe81d8eabdaafbe9c,curtain-display,,media/animal_stim/whitened/002_left_1.gif,media/animal_stim/whitened/002_right_2.gif,deviant,20,9.0,,,,,
1132,6137216fe81d8eabdaafbe9c,curtain-display,,media/animal_stim/whitened/002_left_1.gif,media/animal_stim/whitened/002_right_2.gif,deviant,21,9.0,,,,,
1133,6137216fe81d8eabdaafbe9c,curtain-display,,media/animal_stim/whitened/002_left_1.gif,media/animal_stim/whitened/002_right_2.gif,deviant,22,9.0,,,,,
1134,6137216fe81d8eabdaafbe9c,survey-likert,6144.0,,,,23,,,{'Q0': 1},[0],background,{'Q0': 1}
1135,6137216fe81d8eabdaafbe9c,curtain-display,,media/animal_stim/whitened/003_left_1.gif,media/animal_stim/whitened/003_left_2.gif,all_background,24,3.0,,,,,
1136,6137216fe81d8eabdaafbe9c,curtain-display,,media/animal_stim/whitened/003_left_1.gif,media/animal_stim/whitened/003_left_2.gif,all_background,25,3.0,,,,,
1137,6137216fe81d8eabdaafbe9c,curtain-display,,media/animal_stim/whitened/003_left_1.gif,media/animal_stim/whitened/003_left_2.gif,all_background,26,3.0,,,,,
1138,6137216fe81d8eabdaafbe9c,curtain-display,23835.0,media/animal_stim/whitened/003_left_1.gif,media/animal_stim/whitened/003_left_2.gif,all_background,27,3.0,24335.0,,,,
1139,6137216fe81d8eabdaafbe9c,survey-likert,4781.0,,,,28,,5281.0,,,background,
1140,6137216fe81d8eabdaafbe9c,curtain-display,,media/animal_stim/whitened/001_left_1.gif,media/animal_stim/whitened/001_left_2.gif,all_background,29,9.0,,,,,
1141,6137216fe81d8eabdaafbe9c,curtain-display,,media/animal_stim/whitened/001_left_1.gif,media/animal_stim/whitened/001_left_2.gif,all_background,30,9.0,,,,,
1142,6137216fe81d8eabdaafbe9c,curtain-display,,media/animal_stim/whitened/001_left_1.gif,media/animal_stim/whitened/001_left_2.gif,all_background,31,9.0,,,,,
1143,6137216fe81d8eabdaafbe9c,curtain-display,,media/animal_stim/whitened/001_left_1.gif,media/animal_stim/whitened/001_left_2.gif,all_background,32,9.0,,,,,
1144,6137216fe81d8eabdaafbe9c,curtain-display,,media/animal_stim/whitened/001_left_1.gif,media/animal_stim/whitened/001_left_2.gif,all_background,33,9.0,,,,,
1145,6137216fe81d8eabdaafbe9c,curtain-display,,media/animal_stim/whitened/001_left_1.gif,media/animal_stim/whitened/001_left_2.gif,all_background,34,9.0,,,,,
1146,6137216fe81d8eabdaafbe9c,curtain-display,,media/animal_stim/whitened/001_left_1.gif,media/animal_stim/whitened/001_left_2.gif,all_background,35,9.0,,,,,
1147,6137216fe81d8eabdaafbe9c,curtain-display,,media/animal_stim/whitened/001_left_1.gif,media/animal_stim/whitened/001_left_2.gif,all_background,36,9.0,,,,,
1148,6137216fe81d8eabdaafbe9c,curtain-display,,media/animal_stim/whitened/001_left_1.gif,media/animal_stim/whitened/001_left_2.gif,all_background,37,9.0,,,,,
1149,6137216fe81d8eabdaafbe9c,curtain-display,,media/animal_stim/whitened/001_left_1.gif,media/animal_stim/whitened/001_left_2.gif,all_background,38,9.0,,,,,
1150,6137216fe81d8eabdaafbe9c,survey-likert,6387.0,,,,39,,,{'Q0': 0},[0],background,{'Q0': 0}
1151,6137216fe81d8eabdaafbe9c,curtain-display,,media/animal_stim/whitened/006_right_2.gif,media/animal_stim/whitened/006_right_1.gif,deviant,40,1.0,,,,,
1152,6137216fe81d8eabdaafbe9c,curtain-display,,media/animal_stim/whitened/006_right_2.gif,media/animal_stim/whitened/006_right_1.gif,deviant,41,1.0,,,,,
1153,6137216fe81d8eabdaafbe9c,survey-likert,5974.0,,,,42,,,{'Q0': 1},[0],background,{'Q0': 1}
1154,6137216fe81d8eabdaafbe9c,curtain-display,,media/animal_stim/whitened/005_left_2.gif,media/animal_stim/whitened/005_left_1.gif,all_background,43,1.0,,,,,
1155,6137216fe81d8eabdaafbe9c,curtain-display,,media/animal_stim/whitened/005_left_2.gif,media/animal_stim/whitened/005_left_1.gif,all_background,44,1.0,,,,,
1156,6137216fe81d8eabdaafbe9c,survey-likert,4760.0,,,,45,,,{'Q0': 2},[0],background,{'Q0': 2}
1157,6137216fe81d8eabdaafbe9c,html-button-response,2052.0,,,,46,,,0,,,0
1158,6137216fe81d8eabdaafbe9c,survey-text,3472.0,,,,47,,,{'Q0': '22'},,,{'Q0': '22'}
1159,6137216fe81d8eabdaafbe9c,survey-multi-select,4448.0,,,,48,,,{'ethnicity': ['Black or African American']},[0],,{'ethnicity': ['Black or African American']}
1160,6137216fe81d8eabdaafbe9c,survey-text,3887.0,,,,49,,,{'Q0': 'female'},,,{'Q0': 'female'}
1161,6137216fe81d8eabdaafbe9c,survey-multi-choice,6066.0,,,,50,,,"{'education': ""Bachelor's Degree""}",[0],,"{'education': ""Bachelor's Degree""}"
1162,6137216fe81d8eabdaafbe9c,html-button-response,2109.0,,,,51,,,0,,,0
1163,6137216fe81d8eabdaafbe9c,survey-text,2774.0,,,,52,,,{'Q0': '22'},,,{'Q0': '22'}
1164,6137216fe81d8eabdaafbe9c,survey-multi-select,3624.0,,,,53,,,{'ethnicity': ['Black or African American']},[0],,{'ethnicity': ['Black or African American']}
1165,6137216fe81d8eabdaafbe9c,survey-text,3256.0,,,,54,,,{'Q0': 'female'},,,{'Q0': 'female'}
1166,6137216fe81d8eabdaafbe9c,survey-multi-choice,3508.0,,,,55,,,"{'education': ""Bachelor's Degree""}",[0],,"{'education': ""Bachelor's Degree""}"
1167,6137216fe81d8eabdaafbe9c,fullscreen,,,,,56,,,,,,
1168,6137216fe81d8eabdaafbe9c,html-button-response,7476.0,,,,57,,,0,,,0
1169,5b9e10d4f074140001051011,preload,,,,,0,,,,,,
1170,5b9e10d4f074140001051011,preload,,,,,0,,,,,,
1171,5b9e10d4f074140001051011,fullscreen,,,,,1,,,,,,
1172,5b9e10d4f074140001051011,instructions,12252.0,,,,2,,,,,,
1173,5b9e10d4f074140001051011,instructions,25309.0,,,,3,,,,,,
1174,5b9e10d4f074140001051011,curtain-display,,,,,4,,,,,,
1175,5b9e10d4f074140001051011,curtain-display,,,,,5,,,,,,
1176,5b9e10d4f074140001051011,curtain-display,3806.0,,,,6,,4306.0,,,,
1177,5b9e10d4f074140001051011,instructions,22193.0,,,,7,,,,,,
1178,5b9e10d4f074140001051011,curtain-display,,media/animal_stim/whitened/001_left_2.gif,media/animal_stim/whitened/001_left_1.gif,deviant,8,9.0,,,,,
1179,5b9e10d4f074140001051011,curtain-display,,media/animal_stim/whitened/001_left_2.gif,media/animal_stim/whitened/001_left_1.gif,deviant,9,9.0,,,,,
1180,5b9e10d4f074140001051011,curtain-display,,media/animal_stim/whitened/001_left_2.gif,media/animal_stim/whitened/001_left_1.gif,deviant,10,9.0,,,,,
1181,5b9e10d4f074140001051011,curtain-display,,media/animal_stim/whitened/001_left_2.gif,media/animal_stim/whitened/001_left_1.gif,deviant,11,9.0,,,,,
1182,5b9e10d4f074140001051011,curtain-display,,media/animal_stim/whitened/001_left_2.gif,media/animal_stim/whitened/001_left_1.gif,deviant,12,9.0,,,,,
1183,5b9e10d4f074140001051011,curtain-display,,media/animal_stim/whitened/001_left_2.gif,media/animal_stim/whitened/001_left_1.gif,deviant,13,9.0,,,,,
1184,5b9e10d4f074140001051011,curtain-display,,media/animal_stim/whitened/001_left_2.gif,media/animal_stim/whitened/001_left_1.gif,deviant,14,9.0,,,,,
1185,5b9e10d4f074140001051011,curtain-display,,media/animal_stim/whitened/001_left_2.gif,media/animal_stim/whitened/001_left_1.gif,deviant,15,9.0,,,,,
1186,5b9e10d4f074140001051011,curtain-display,,media/animal_stim/whitened/001_left_2.gif,media/animal_stim/whitened/001_left_1.gif,deviant,16,9.0,,,,,
1187,5b9e10d4f074140001051011,curtain-display,,media/animal_stim/whitened/001_left_2.gif,media/animal_stim/whitened/001_left_1.gif,deviant,17,9.0,,,,,
1188,5b9e10d4f074140001051011,survey-likert,11040.0,,,,18,,,{'Q0': 1},[0],background,{'Q0': 1}
1189,5b9e10d4f074140001051011,curtain-display,,media/animal_stim/whitened/003_left_1.gif,media/animal_stim/whitened/003_right_2.gif,deviant,19,1.0,,,,,
1190,5b9e10d4f074140001051011,curtain-display,20536.0,media/animal_stim/whitened/003_left_1.gif,media/animal_stim/whitened/003_right_2.gif,deviant,20,1.0,21036.0,,,,
1191,5b9e10d4f074140001051011,survey-likert,4812.0,,,,21,,5312.0,,,background,
1192,5b9e10d4f074140001051011,curtain-display,,media/animal_stim/whitened/006_left_1.gif,media/animal_stim/whitened/006_left_2.gif,deviant,22,3.0,,,,,
1193,5b9e10d4f074140001051011,curtain-display,,media/animal_stim/whitened/006_left_1.gif,media/animal_stim/whitened/006_left_2.gif,deviant,23,3.0,,,,,
1194,5b9e10d4f074140001051011,curtain-display,,media/animal_stim/whitened/006_left_1.gif,media/animal_stim/whitened/006_left_2.gif,deviant,24,3.0,,,,,
1195,5b9e10d4f074140001051011,curtain-display,1220.0,media/animal_stim/whitened/006_left_1.gif,media/animal_stim/whitened/006_left_2.gif,deviant,25,3.0,1720.0,,,,
1196,5b9e10d4f074140001051011,survey-likert,5316.0,,,,26,,,{'Q0': 1},[0],background,{'Q0': 1}
1197,5b9e10d4f074140001051011,curtain-display,,media/animal_stim/whitened/004_right_1.gif,media/animal_stim/whitened/004_left_2.gif,all_background,27,1.0,,,,,
1198,5b9e10d4f074140001051011,curtain-display,1156.0,media/animal_stim/whitened/004_right_1.gif,media/animal_stim/whitened/004_left_2.gif,all_background,28,1.0,1656.0,,,,
1199,5b9e10d4f074140001051011,survey-likert,5989.0,,,,29,,,{'Q0': 1},[0],background,{'Q0': 1}
1200,5b9e10d4f074140001051011,curtain-display,,media/animal_stim/whitened/005_right_2.gif,media/animal_stim/whitened/005_right_1.gif,all_background,30,9.0,,,,,
1201,5b9e10d4f074140001051011,curtain-display,,media/animal_stim/whitened/005_right_2.gif,media/animal_stim/whitened/005_right_1.gif,all_background,31,9.0,,,,,
1202,5b9e10d4f074140001051011,curtain-display,,media/animal_stim/whitened/005_right_2.gif,media/animal_stim/whitened/005_right_1.gif,all_background,32,9.0,,,,,
1203,5b9e10d4f074140001051011,curtain-display,,media/animal_stim/whitened/005_right_2.gif,media/animal_stim/whitened/005_right_1.gif,all_background,33,9.0,,,,,
1204,5b9e10d4f074140001051011,curtain-display,,media/animal_stim/whitened/005_right_2.gif,media/animal_stim/whitened/005_right_1.gif,all_background,34,9.0,,,,,
1205,5b9e10d4f074140001051011,curtain-display,,media/animal_stim/whitened/005_right_2.gif,media/animal_stim/whitened/005_right_1.gif,all_background,35,9.0,,,,,
1206,5b9e10d4f074140001051011,curtain-display,,media/animal_stim/whitened/005_right_2.gif,media/animal_stim/whitened/005_right_1.gif,all_background,36,9.0,,,,,
1207,5b9e10d4f074140001051011,curtain-display,,media/animal_stim/whitened/005_right_2.gif,media/animal_stim/whitened/005_right_1.gif,all_background,37,9.0,,,,,
1208,5b9e10d4f074140001051011,curtain-display,,media/animal_stim/whitened/005_right_2.gif,media/animal_stim/whitened/005_right_1.gif,all_background,38,9.0,,,,,
1209,5b9e10d4f074140001051011,curtain-display,,media/animal_stim/whitened/005_right_2.gif,media/animal_stim/whitened/005_right_1.gif,all_background,39,9.0,,,,,
