rt,responses,trial_type,trial_index,time_elapsed,internal_node_id,subject,success,view_history,stimulus_type,trial_stimulus,key_press,minimum_viewing_duration,trial_looking_time,block_deviant,block_background,exposure_type,forced_exposure_time,stimulus,block_number,block_type,stimulus_displayed,question_order,question_stimuli,block_index,stimulus_left,stimulus_right,math_correct_answer
2498.6999999284744,"{""p_id"":""a""}",survey-text,0,2502,0.0-0.0,SS1630642817043,NA,NA,NA,NA,NA,NA,NA,NA,NA,NA,NA,NA,NA,NA,NA,NA,NA,NA,NA,NA,NA
NA,NA,fullscreen,1,4158,0.0-1.0,SS1630642817043,TRUE,NA,NA,NA,NA,NA,NA,NA,NA,NA,NA,NA,NA,NA,NA,NA,NA,NA,NA,NA,NA
1489.5,NA,instructions,2,5649,0.0-2.0,SS1630642817043,NA,"[{""page_index"":0,""viewing_time"":1488.8999999761581}]",NA,NA,NA,NA,NA,NA,NA,NA,NA,NA,NA,NA,NA,NA,NA,NA,NA,NA,NA
2976.399999976158,NA,instructions,3,10631,0.0-3.0,SS1630642817043,NA,"[{""page_index"":0,""viewing_time"":1617.1000000238419},{""page_index"":1,""viewing_time"":1358.8999999761581}]",instructions,NA,NA,NA,NA,NA,NA,NA,NA,NA,NA,NA,NA,NA,NA,NA,NA,NA,NA
4784.899999976158,NA,stimuli-presentation,4,15922,0.0-4.0,SS1630642817043,NA,NA,NA,NA,40,500,5284.899999976158,null,null,self_paced,0,NA,NA,NA,NA,NA,NA,NA,NA,NA,NA
971,NA,stimuli-presentation,5,17396,0.0-5.0,SS1630642817043,NA,NA,NA,NA,40,500,1471,null,null,self_paced,0,NA,NA,NA,NA,NA,NA,NA,NA,NA,NA
1963.6999999284744,NA,instructions,6,19360,0.0-6.0,SS1630642817043,NA,"[{""page_index"":0,""viewing_time"":1963.2999999523163}]",instructions,NA,NA,NA,NA,NA,NA,NA,NA,NA,NA,NA,NA,NA,NA,NA,NA,NA,NA
6478.700000047684,NA,instructions,7,25841,0.0-7.0,SS1630642817043,NA,"[{""page_index"":0,""viewing_time"":2502.5},{""page_index"":1,""viewing_time"":1871.6000000238419},{""page_index"":2,""viewing_time"":615.7999999523163},{""page_index"":3,""viewing_time"":927.5},{""page_index"":4,""viewing_time"":560.9000000953674}]",instructions,NA,NA,NA,NA,NA,NA,NA,NA,NA,NA,NA,NA,NA,NA,NA,NA,NA,NA
null,NA,html-keyboard-response,8,26803,0.0-8.0-0.0,SS1630642817043,NA,NA,NA,NA,null,NA,NA,NA,NA,NA,NA,"<p><img src= images/blank.png width =""600"" height = ""600"" style=""position:fixed;top:50%; left:50%; transform: translate(-50%, -50%); border:5px solid black"">",NA,NA,NA,NA,NA,NA,NA,NA,NA
532,NA,stimuli-presentation,9,27841,0.0-8.0-1.0,SS1630642817043,NA,NA,trial,NA,40,500,1032,images/stimuli/complex_15_A_a.gif,images/stimuli/complex_07_A_a.gif,self_paced,260,NA,0,complex_dissimilar,images/stimuli/complex_07_A_a.gif,NA,NA,NA,NA,NA,NA
null,NA,html-keyboard-response,10,29092,0.0-8.0-0.1,SS1630642817043,NA,NA,NA,NA,null,NA,NA,NA,NA,NA,NA,"<p><img src= images/blank.png width =""600"" height = ""600"" style=""position:fixed;top:50%; left:50%; transform: translate(-50%, -50%); border:5px solid black"">",NA,NA,NA,NA,NA,NA,NA,NA,NA
63.300000071525574,NA,stimuli-presentation,11,29659,0.0-8.0-1.1,SS1630642817043,NA,NA,trial,NA,40,500,563.3000000715256,images/stimuli/complex_15_A_a.gif,images/stimuli/complex_07_A_a.gif,self_paced,260,NA,0,complex_dissimilar,images/stimuli/complex_07_A_a.gif,NA,NA,NA,NA,NA,NA
null,NA,html-keyboard-response,12,30613,0.0-8.0-0.2,SS1630642817043,NA,NA,NA,NA,null,NA,NA,NA,NA,NA,NA,"<p><img src= images/blank.png width =""600"" height = ""600"" style=""position:fixed;top:50%; left:50%; transform: translate(-50%, -50%); border:5px solid black"">",NA,NA,NA,NA,NA,NA,NA,NA,NA
773.5,NA,stimuli-presentation,13,31891,0.0-8.0-1.2,SS1630642817043,NA,NA,trial,NA,40,500,1273.5,images/stimuli/complex_15_A_a.gif,images/stimuli/complex_07_A_a.gif,self_paced,260,NA,0,complex_dissimilar,images/stimuli/complex_07_A_a.gif,NA,NA,NA,NA,NA,NA
null,NA,html-keyboard-response,14,32788,0.0-8.0-0.3,SS1630642817043,NA,NA,NA,NA,null,NA,NA,NA,NA,NA,NA,"<p><img src= images/blank.png width =""600"" height = ""600"" style=""position:fixed;top:50%; left:50%; transform: translate(-50%, -50%); border:5px solid black"">",NA,NA,NA,NA,NA,NA,NA,NA,NA
254.39999997615814,NA,stimuli-presentation,15,33547,0.0-8.0-1.3,SS1630642817043,NA,NA,trial,NA,40,500,754.3999999761581,images/stimuli/complex_15_A_a.gif,images/stimuli/complex_07_A_a.gif,self_paced,260,NA,0,complex_dissimilar,images/stimuli/complex_07_A_a.gif,NA,NA,NA,NA,NA,NA
null,NA,html-keyboard-response,16,34592,0.0-8.0-0.4,SS1630642817043,NA,NA,NA,NA,null,NA,NA,NA,NA,NA,NA,"<p><img src= images/blank.png width =""600"" height = ""600"" style=""position:fixed;top:50%; left:50%; transform: translate(-50%, -50%); border:5px solid black"">",NA,NA,NA,NA,NA,NA,NA,NA,NA
31.200000047683716,NA,stimuli-presentation,17,35131,0.0-8.0-1.4,SS1630642817043,NA,NA,trial,NA,40,500,531.2000000476837,images/stimuli/complex_15_A_a.gif,images/stimuli/complex_07_A_a.gif,self_paced,260,NA,0,complex_dissimilar,images/stimuli/complex_07_A_a.gif,NA,NA,NA,NA,NA,NA
null,NA,html-keyboard-response,18,36369,0.0-8.0-0.5,SS1630642817043,NA,NA,NA,NA,null,NA,NA,NA,NA,NA,NA,"<p><img src= images/blank.png width =""600"" height = ""600"" style=""position:fixed;top:50%; left:50%; transform: translate(-50%, -50%); border:5px solid black"">",NA,NA,NA,NA,NA,NA,NA,NA,NA
167.70000004768372,NA,stimuli-presentation,19,37041,0.0-8.0-1.5,SS1630642817043,NA,NA,trial,NA,40,500,667.7000000476837,images/stimuli/complex_15_A_a.gif,images/stimuli/complex_07_A_a.gif,self_paced,260,NA,0,complex_dissimilar,images/stimuli/complex_15_A_a.gif,NA,NA,NA,NA,NA,NA
3883.8000000715256,"{""Q0"":3}",survey-likert,20,40927,0.0-9.0,SS1630642817043,NA,NA,curiousity,NA,NA,NA,NA,NA,NA,NA,NA,NA,NA,NA,NA,[0],images/stimuli/complex_07_A_a.gif,0,NA,NA,NA
null,NA,html-keyboard-response,21,42000,0.0-10.0-0.0,SS1630642817043,NA,NA,NA,NA,null,NA,NA,NA,NA,NA,NA,"<p><img src= images/blank.png width =""600"" height = ""600"" style=""position:fixed;top:50%; left:50%; transform: translate(-50%, -50%); border:5px solid black"">",NA,NA,NA,NA,NA,NA,NA,NA,NA
137.30000007152557,NA,stimuli-presentation,22,42646,0.0-10.0-1.0,SS1630642817043,NA,NA,trial,NA,40,500,637.3000000715256,images/stimuli/simple_02_A_a.gif,images/stimuli/simple_06_A_a.gif,self_paced,180,NA,1,simple_dissimilar,images/stimuli/simple_06_A_a.gif,NA,NA,NA,NA,NA,NA
null,NA,html-keyboard-response,23,43910,0.0-10.0-0.1,SS1630642817043,NA,NA,NA,NA,null,NA,NA,NA,NA,NA,NA,"<p><img src= images/blank.png width =""600"" height = ""600"" style=""position:fixed;top:50%; left:50%; transform: translate(-50%, -50%); border:5px solid black"">",NA,NA,NA,NA,NA,NA,NA,NA,NA
150.20000004768372,NA,stimuli-presentation,24,44568,0.0-10.0-1.1,SS1630642817043,NA,NA,trial,NA,40,500,650.2000000476837,images/stimuli/simple_02_A_a.gif,images/stimuli/simple_06_A_a.gif,self_paced,180,NA,1,simple_dissimilar,images/stimuli/simple_06_A_a.gif,NA,NA,NA,NA,NA,NA
null,NA,html-keyboard-response,25,45692,0.0-10.0-0.2,SS1630642817043,NA,NA,NA,NA,null,NA,NA,NA,NA,NA,NA,"<p><img src= images/blank.png width =""600"" height = ""600"" style=""position:fixed;top:50%; left:50%; transform: translate(-50%, -50%); border:5px solid black"">",NA,NA,NA,NA,NA,NA,NA,NA,NA
41694,NA,stimuli-presentation,26,87891,0.0-10.0-1.2,SS1630642817043,NA,NA,trial,NA,40,500,42194,images/stimuli/simple_02_A_a.gif,images/stimuli/simple_06_A_a.gif,self_paced,180,NA,1,simple_dissimilar,images/stimuli/simple_06_A_a.gif,NA,NA,NA,NA,NA,NA
null,NA,html-keyboard-response,27,88993,0.0-10.0-0.3,SS1630642817043,NA,NA,NA,NA,null,NA,NA,NA,NA,NA,NA,"<p><img src= images/blank.png width =""600"" height = ""600"" style=""position:fixed;top:50%; left:50%; transform: translate(-50%, -50%); border:5px solid black"">",NA,NA,NA,NA,NA,NA,NA,NA,NA
287.5,NA,stimuli-presentation,28,89787,0.0-10.0-1.3,SS1630642817043,NA,NA,trial,NA,40,500,787.5,images/stimuli/simple_02_A_a.gif,images/stimuli/simple_06_A_a.gif,self_paced,180,NA,1,simple_dissimilar,images/stimuli/simple_06_A_a.gif,NA,NA,NA,NA,NA,NA
null,NA,html-keyboard-response,29,90873,0.0-10.0-0.4,SS1630642817043,NA,NA,NA,NA,null,NA,NA,NA,NA,NA,NA,"<p><img src= images/blank.png width =""600"" height = ""600"" style=""position:fixed;top:50%; left:50%; transform: translate(-50%, -50%); border:5px solid black"">",NA,NA,NA,NA,NA,NA,NA,NA,NA
319.7999999523163,NA,stimuli-presentation,30,91700,0.0-10.0-1.4,SS1630642817043,NA,NA,trial,NA,40,500,819.7999999523163,images/stimuli/simple_02_A_a.gif,images/stimuli/simple_06_A_a.gif,self_paced,180,NA,1,simple_dissimilar,images/stimuli/simple_06_A_a.gif,NA,NA,NA,NA,NA,NA
null,NA,html-keyboard-response,31,92744,0.0-10.0-0.5,SS1630642817043,NA,NA,NA,NA,null,NA,NA,NA,NA,NA,NA,"<p><img src= images/blank.png width =""600"" height = ""600"" style=""position:fixed;top:50%; left:50%; transform: translate(-50%, -50%); border:5px solid black"">",NA,NA,NA,NA,NA,NA,NA,NA,NA
1215.5,NA,stimuli-presentation,32,94467,0.0-10.0-1.5,SS1630642817043,NA,NA,trial,NA,40,500,1715.5,images/stimuli/simple_02_A_a.gif,images/stimuli/simple_06_A_a.gif,self_paced,180,NA,1,simple_dissimilar,images/stimuli/simple_06_A_a.gif,NA,NA,NA,NA,NA,NA
3412.5,"{""Q0"":1}",survey-likert,33,97882,0.0-11.0,SS1630642817043,NA,NA,curiousity,NA,NA,NA,NA,NA,NA,NA,NA,NA,NA,NA,NA,[0],images/stimuli/simple_06_A_a.gif,1,NA,NA,NA
null,NA,html-keyboard-response,34,98782,0.0-12.0-0.0,SS1630642817043,NA,NA,NA,NA,null,NA,NA,NA,NA,NA,NA,"<p><img src= images/blank.png width =""600"" height = ""600"" style=""position:fixed;top:50%; left:50%; transform: translate(-50%, -50%); border:5px solid black"">",NA,NA,NA,NA,NA,NA,NA,NA,NA
2.5,NA,stimuli-presentation,35,99289,0.0-12.0-1.0,SS1630642817043,NA,NA,trial,NA,40,500,502.5,images/stimuli/complex_14_A_a.gif,images/stimuli/complex_12_A_a.gif,self_paced,230,NA,2,complex_dissimilar,images/stimuli/complex_12_A_a.gif,NA,NA,NA,NA,NA,NA
null,NA,html-keyboard-response,36,100135,0.0-12.0-0.1,SS1630642817043,NA,NA,NA,NA,null,NA,NA,NA,NA,NA,NA,"<p><img src= images/blank.png width =""600"" height = ""600"" style=""position:fixed;top:50%; left:50%; transform: translate(-50%, -50%); border:5px solid black"">",NA,NA,NA,NA,NA,NA,NA,NA,NA
153.39999997615814,NA,stimuli-presentation,37,100797,0.0-12.0-1.1,SS1630642817043,NA,NA,trial,NA,40,500,653.3999999761581,images/stimuli/complex_14_A_a.gif,images/stimuli/complex_12_A_a.gif,self_paced,230,NA,2,complex_dissimilar,images/stimuli/complex_12_A_a.gif,NA,NA,NA,NA,NA,NA
null,NA,html-keyboard-response,38,102088,0.0-12.0-0.2,SS1630642817043,NA,NA,NA,NA,null,NA,NA,NA,NA,NA,NA,"<p><img src= images/blank.png width =""600"" height = ""600"" style=""position:fixed;top:50%; left:50%; transform: translate(-50%, -50%); border:5px solid black"">",NA,NA,NA,NA,NA,NA,NA,NA,NA
525.1000000238419,NA,stimuli-presentation,39,103121,0.0-12.0-1.2,SS1630642817043,NA,NA,trial,NA,40,500,1025.1000000238419,images/stimuli/complex_14_A_a.gif,images/stimuli/complex_12_A_a.gif,self_paced,230,NA,2,complex_dissimilar,images/stimuli/complex_12_A_a.gif,NA,NA,NA,NA,NA,NA
null,NA,html-keyboard-response,40,103941,0.0-12.0-0.3,SS1630642817043,NA,NA,NA,NA,null,NA,NA,NA,NA,NA,NA,"<p><img src= images/blank.png width =""600"" height = ""600"" style=""position:fixed;top:50%; left:50%; transform: translate(-50%, -50%); border:5px solid black"">",NA,NA,NA,NA,NA,NA,NA,NA,NA
255.5,NA,stimuli-presentation,41,104701,0.0-12.0-1.3,SS1630642817043,NA,NA,trial,NA,40,500,755.5,images/stimuli/complex_14_A_a.gif,images/stimuli/complex_12_A_a.gif,self_paced,230,NA,2,complex_dissimilar,images/stimuli/complex_12_A_a.gif,NA,NA,NA,NA,NA,NA
null,NA,html-keyboard-response,42,105904,0.0-12.0-0.4,SS1630642817043,NA,NA,NA,NA,null,NA,NA,NA,NA,NA,NA,"<p><img src= images/blank.png width =""600"" height = ""600"" style=""position:fixed;top:50%; left:50%; transform: translate(-50%, -50%); border:5px solid black"">",NA,NA,NA,NA,NA,NA,NA,NA,NA
96.69999992847443,NA,stimuli-presentation,43,106506,0.0-12.0-1.4,SS1630642817043,NA,NA,trial,NA,40,500,596.6999999284744,images/stimuli/complex_14_A_a.gif,images/stimuli/complex_12_A_a.gif,self_paced,230,NA,2,complex_dissimilar,images/stimuli/complex_12_A_a.gif,NA,NA,NA,NA,NA,NA
null,NA,html-keyboard-response,44,107811,0.0-12.0-0.5,SS1630642817043,NA,NA,NA,NA,null,NA,NA,NA,NA,NA,NA,"<p><img src= images/blank.png width =""600"" height = ""600"" style=""position:fixed;top:50%; left:50%; transform: translate(-50%, -50%); border:5px solid black"">",NA,NA,NA,NA,NA,NA,NA,NA,NA
394,NA,stimuli-presentation,45,108712,0.0-12.0-1.5,SS1630642817043,NA,NA,trial,NA,40,500,894,images/stimuli/complex_14_A_a.gif,images/stimuli/complex_12_A_a.gif,self_paced,230,NA,2,complex_dissimilar,images/stimuli/complex_12_A_a.gif,NA,NA,NA,NA,NA,NA
2639.7999999523163,"{""Q0"":4}",survey-likert,46,111354,0.0-13.0,SS1630642817043,NA,NA,curiousity,NA,NA,NA,NA,NA,NA,NA,NA,NA,NA,NA,NA,[0],images/stimuli/complex_10_A_a.gif,2,NA,NA,NA
null,NA,html-keyboard-response,47,112190,0.0-14.0-0.0,SS1630642817043,NA,NA,NA,NA,null,NA,NA,NA,NA,NA,NA,"<p><img src= images/blank.png width =""600"" height = ""600"" style=""position:fixed;top:50%; left:50%; transform: translate(-50%, -50%); border:5px solid black"">",NA,NA,NA,NA,NA,NA,NA,NA,NA
126.29999995231628,NA,stimuli-presentation,48,112821,0.0-14.0-1.0,SS1630642817043,NA,NA,trial,NA,40,500,626.2999999523163,images/stimuli/simple_01_A_a.gif,images/stimuli/simple_04_A_a.gif,self_paced,310,NA,3,simple_dissimilar,images/stimuli/simple_04_A_a.gif,NA,NA,NA,NA,NA,NA
null,NA,html-keyboard-response,49,113638,0.0-14.0-0.1,SS1630642817043,NA,NA,NA,NA,null,NA,NA,NA,NA,NA,NA,"<p><img src= images/blank.png width =""600"" height = ""600"" style=""position:fixed;top:50%; left:50%; transform: translate(-50%, -50%); border:5px solid black"">",NA,NA,NA,NA,NA,NA,NA,NA,NA
243.19999992847443,NA,stimuli-presentation,50,114386,0.0-14.0-1.1,SS1630642817043,NA,NA,trial,NA,40,500,743.1999999284744,images/stimuli/simple_01_A_a.gif,images/stimuli/simple_04_A_a.gif,self_paced,310,NA,3,simple_dissimilar,images/stimuli/simple_04_A_a.gif,NA,NA,NA,NA,NA,NA
null,NA,html-keyboard-response,51,115673,0.0-14.0-0.2,SS1630642817043,NA,NA,NA,NA,null,NA,NA,NA,NA,NA,NA,"<p><img src= images/blank.png width =""600"" height = ""600"" style=""position:fixed;top:50%; left:50%; transform: translate(-50%, -50%); border:5px solid black"">",NA,NA,NA,NA,NA,NA,NA,NA,NA
172.20000004768372,NA,stimuli-presentation,52,116350,0.0-14.0-1.2,SS1630642817043,NA,NA,trial,NA,40,500,672.2000000476837,images/stimuli/simple_01_A_a.gif,images/stimuli/simple_04_A_a.gif,self_paced,310,NA,3,simple_dissimilar,images/stimuli/simple_04_A_a.gif,NA,NA,NA,NA,NA,NA
null,NA,html-keyboard-response,53,117315,0.0-14.0-0.3,SS1630642817043,NA,NA,NA,NA,null,NA,NA,NA,NA,NA,NA,"<p><img src= images/blank.png width =""600"" height = ""600"" style=""position:fixed;top:50%; left:50%; transform: translate(-50%, -50%); border:5px solid black"">",NA,NA,NA,NA,NA,NA,NA,NA,NA
114.19999992847443,NA,stimuli-presentation,54,117937,0.0-14.0-1.3,SS1630642817043,NA,NA,trial,NA,40,500,614.1999999284744,images/stimuli/simple_01_A_a.gif,images/stimuli/simple_04_A_a.gif,self_paced,310,NA,3,simple_dissimilar,images/stimuli/simple_04_A_a.gif,NA,NA,NA,NA,NA,NA
null,NA,html-keyboard-response,55,119230,0.0-14.0-0.4,SS1630642817043,NA,NA,NA,NA,null,NA,NA,NA,NA,NA,NA,"<p><img src= images/blank.png width =""600"" height = ""600"" style=""position:fixed;top:50%; left:50%; transform: translate(-50%, -50%); border:5px solid black"">",NA,NA,NA,NA,NA,NA,NA,NA,NA
658.6000000238419,NA,stimuli-presentation,56,120394,0.0-14.0-1.4,SS1630642817043,NA,NA,trial,NA,40,500,1158.6000000238419,images/stimuli/simple_01_A_a.gif,images/stimuli/simple_04_A_a.gif,self_paced,310,NA,3,simple_dissimilar,images/stimuli/simple_04_A_a.gif,NA,NA,NA,NA,NA,NA
null,NA,html-keyboard-response,57,121293,0.0-14.0-0.5,SS1630642817043,NA,NA,NA,NA,null,NA,NA,NA,NA,NA,NA,"<p><img src= images/blank.png width =""600"" height = ""600"" style=""position:fixed;top:50%; left:50%; transform: translate(-50%, -50%); border:5px solid black"">",NA,NA,NA,NA,NA,NA,NA,NA,NA
246.39999997615814,NA,stimuli-presentation,58,122045,0.0-14.0-1.5,SS1630642817043,NA,NA,trial,NA,40,500,746.3999999761581,images/stimuli/simple_01_A_a.gif,images/stimuli/simple_04_A_a.gif,self_paced,310,NA,3,simple_dissimilar,images/stimuli/simple_01_A_a.gif,NA,NA,NA,NA,NA,NA
3178.399999976158,"{""Q0"":4}",survey-likert,59,125226,0.0-15.0,SS1630642817043,NA,NA,curiousity,NA,NA,NA,NA,NA,NA,NA,NA,NA,NA,NA,NA,[0],images/stimuli/simple_04_A_a.gif,3,NA,NA,NA
null,NA,html-keyboard-response,60,126478,0.0-16.0-0.0,SS1630642817043,NA,NA,NA,NA,null,NA,NA,NA,NA,NA,NA,"<p><img src= images/blank.png width =""600"" height = ""600"" style=""position:fixed;top:50%; left:50%; transform: translate(-50%, -50%); border:5px solid black"">",NA,NA,NA,NA,NA,NA,NA,NA,NA
1517.7999999523163,NA,stimuli-presentation,61,128501,0.0-16.0-1.0,SS1630642817043,NA,NA,trial,NA,40,500,2017.7999999523163,images/stimuli/simple_10_A_a.gif,images/stimuli/simple_14_A_a.gif,self_paced,550,NA,4,simple_dissimilar,images/stimuli/simple_14_A_a.gif,NA,NA,NA,NA,NA,NA
null,NA,html-keyboard-response,62,129555,0.0-16.0-0.1,SS1630642817043,NA,NA,NA,NA,null,NA,NA,NA,NA,NA,NA,"<p><img src= images/blank.png width =""600"" height = ""600"" style=""position:fixed;top:50%; left:50%; transform: translate(-50%, -50%); border:5px solid black"">",NA,NA,NA,NA,NA,NA,NA,NA,NA
487,NA,stimuli-presentation,63,130549,0.0-16.0-1.1,SS1630642817043,NA,NA,trial,NA,40,500,987,images/stimuli/simple_10_A_a.gif,images/stimuli/simple_14_A_a.gif,self_paced,550,NA,4,simple_dissimilar,images/stimuli/simple_10_A_a.gif,NA,NA,NA,NA,NA,NA
null,NA,html-keyboard-response,64,131766,0.0-16.0-0.2,SS1630642817043,NA,NA,NA,NA,null,NA,NA,NA,NA,NA,NA,"<p><img src= images/blank.png width =""600"" height = ""600"" style=""position:fixed;top:50%; left:50%; transform: translate(-50%, -50%); border:5px solid black"">",NA,NA,NA,NA,NA,NA,NA,NA,NA
74.39999997615814,NA,stimuli-presentation,65,132346,0.0-16.0-1.2,SS1630642817043,NA,NA,trial,NA,40,500,574.3999999761581,images/stimuli/simple_10_A_a.gif,images/stimuli/simple_14_A_a.gif,self_paced,550,NA,4,simple_dissimilar,images/stimuli/simple_14_A_a.gif,NA,NA,NA,NA,NA,NA
null,NA,html-keyboard-response,66,133407,0.0-16.0-0.3,SS1630642817043,NA,NA,NA,NA,null,NA,NA,NA,NA,NA,NA,"<p><img src= images/blank.png width =""600"" height = ""600"" style=""position:fixed;top:50%; left:50%; transform: translate(-50%, -50%); border:5px solid black"">",NA,NA,NA,NA,NA,NA,NA,NA,NA
903.3999999761581,NA,stimuli-presentation,67,134820,0.0-16.0-1.3,SS1630642817043,NA,NA,trial,NA,40,500,1403.3999999761581,images/stimuli/simple_10_A_a.gif,images/stimuli/simple_14_A_a.gif,self_paced,550,NA,4,simple_dissimilar,images/stimuli/simple_14_A_a.gif,NA,NA,NA,NA,NA,NA
null,NA,html-keyboard-response,68,136026,0.0-16.0-0.4,SS1630642817043,NA,NA,NA,NA,null,NA,NA,NA,NA,NA,NA,"<p><img src= images/blank.png width =""600"" height = ""600"" style=""position:fixed;top:50%; left:50%; transform: translate(-50%, -50%); border:5px solid black"">",NA,NA,NA,NA,NA,NA,NA,NA,NA
188.39999997615814,NA,stimuli-presentation,69,136721,0.0-16.0-1.4,SS1630642817043,NA,NA,trial,NA,40,500,688.3999999761581,images/stimuli/simple_10_A_a.gif,images/stimuli/simple_14_A_a.gif,self_paced,550,NA,4,simple_dissimilar,images/stimuli/simple_14_A_a.gif,NA,NA,NA,NA,NA,NA
null,NA,html-keyboard-response,70,137877,0.0-16.0-0.5,SS1630642817043,NA,NA,NA,NA,null,NA,NA,NA,NA,NA,NA,"<p><img src= images/blank.png width =""600"" height = ""600"" style=""position:fixed;top:50%; left:50%; transform: translate(-50%, -50%); border:5px solid black"">",NA,NA,NA,NA,NA,NA,NA,NA,NA
123.80000007152557,NA,stimuli-presentation,71,138507,0.0-16.0-1.5,SS1630642817043,NA,NA,trial,NA,40,500,623.8000000715256,images/stimuli/simple_10_A_a.gif,images/stimuli/simple_14_A_a.gif,self_paced,550,NA,4,simple_dissimilar,images/stimuli/simple_14_A_a.gif,NA,NA,NA,NA,NA,NA
3317.399999976158,"{""Q0"":1}",survey-likert,72,141828,0.0-17.0,SS1630642817043,NA,NA,curiousity,NA,NA,NA,NA,NA,NA,NA,NA,NA,NA,NA,NA,[0],images/stimuli/simple_20_A_a.gif,4,NA,NA,NA
null,NA,html-keyboard-response,73,143118,0.0-18.0-0.0,SS1630642817043,NA,NA,NA,NA,null,NA,NA,NA,NA,NA,NA,"<p><img src= images/blank.png width =""600"" height = ""600"" style=""position:fixed;top:50%; left:50%; transform: translate(-50%, -50%); border:5px solid black"">",NA,NA,NA,NA,NA,NA,NA,NA,NA
879.2000000476837,NA,stimuli-presentation,74,144504,0.0-18.0-1.0,SS1630642817043,NA,NA,trial,NA,40,500,1379.2000000476837,images/stimuli/complex_05_A_a.gif,images/stimuli/complex_03_A_a.gif,self_paced,870,NA,5,complex_dissimilar,images/stimuli/complex_03_A_a.gif,NA,NA,NA,NA,NA,NA
null,NA,html-keyboard-response,75,145776,0.0-18.0-0.1,SS1630642817043,NA,NA,NA,NA,null,NA,NA,NA,NA,NA,NA,"<p><img src= images/blank.png width =""600"" height = ""600"" style=""position:fixed;top:50%; left:50%; transform: translate(-50%, -50%); border:5px solid black"">",NA,NA,NA,NA,NA,NA,NA,NA,NA
434.10000002384186,NA,stimuli-presentation,76,146715,0.0-18.0-1.1,SS1630642817043,NA,NA,trial,NA,40,500,934.1000000238419,images/stimuli/complex_05_A_a.gif,images/stimuli/complex_03_A_a.gif,self_paced,870,NA,5,complex_dissimilar,images/stimuli/complex_05_A_a.gif,NA,NA,NA,NA,NA,NA
null,NA,html-keyboard-response,77,147776,0.0-18.0-0.2,SS1630642817043,NA,NA,NA,NA,null,NA,NA,NA,NA,NA,NA,"<p><img src= images/blank.png width =""600"" height = ""600"" style=""position:fixed;top:50%; left:50%; transform: translate(-50%, -50%); border:5px solid black"">",NA,NA,NA,NA,NA,NA,NA,NA,NA
211,NA,stimuli-presentation,78,148492,0.0-18.0-1.2,SS1630642817043,NA,NA,trial,NA,40,500,711,images/stimuli/complex_05_A_a.gif,images/stimuli/complex_03_A_a.gif,self_paced,870,NA,5,complex_dissimilar,images/stimuli/complex_03_A_a.gif,NA,NA,NA,NA,NA,NA
null,NA,html-keyboard-response,79,149708,0.0-18.0-0.3,SS1630642817043,NA,NA,NA,NA,null,NA,NA,NA,NA,NA,NA,"<p><img src= images/blank.png width =""600"" height = ""600"" style=""position:fixed;top:50%; left:50%; transform: translate(-50%, -50%); border:5px solid black"">",NA,NA,NA,NA,NA,NA,NA,NA,NA
335.10000002384186,NA,stimuli-presentation,80,150553,0.0-18.0-1.3,SS1630642817043,NA,NA,trial,NA,40,500,835.1000000238419,images/stimuli/complex_05_A_a.gif,images/stimuli/complex_03_A_a.gif,self_paced,870,NA,5,complex_dissimilar,images/stimuli/complex_03_A_a.gif,NA,NA,NA,NA,NA,NA
null,NA,html-keyboard-response,81,151754,0.0-18.0-0.4,SS1630642817043,NA,NA,NA,NA,null,NA,NA,NA,NA,NA,NA,"<p><img src= images/blank.png width =""600"" height = ""600"" style=""position:fixed;top:50%; left:50%; transform: translate(-50%, -50%); border:5px solid black"">",NA,NA,NA,NA,NA,NA,NA,NA,NA
54.39999997615814,NA,stimuli-presentation,82,152316,0.0-18.0-1.4,SS1630642817043,NA,NA,trial,NA,40,500,554.3999999761581,images/stimuli/complex_05_A_a.gif,images/stimuli/complex_03_A_a.gif,self_paced,870,NA,5,complex_dissimilar,images/stimuli/complex_03_A_a.gif,NA,NA,NA,NA,NA,NA
null,NA,html-keyboard-response,83,153493,0.0-18.0-0.5,SS1630642817043,NA,NA,NA,NA,null,NA,NA,NA,NA,NA,NA,"<p><img src= images/blank.png width =""600"" height = ""600"" style=""position:fixed;top:50%; left:50%; transform: translate(-50%, -50%); border:5px solid black"">",NA,NA,NA,NA,NA,NA,NA,NA,NA
311,NA,stimuli-presentation,84,154309,0.0-18.0-1.5,SS1630642817043,NA,NA,trial,NA,40,500,811,images/stimuli/complex_05_A_a.gif,images/stimuli/complex_03_A_a.gif,self_paced,870,NA,5,complex_dissimilar,images/stimuli/complex_03_A_a.gif,NA,NA,NA,NA,NA,NA
3250.7999999523163,"{""Q0"":4}",survey-likert,85,157563,0.0-19.0,SS1630642817043,NA,NA,curiousity,NA,NA,NA,NA,NA,NA,NA,NA,NA,NA,NA,NA,[0],images/stimuli/complex_03_A_a.gif,5,NA,NA,NA
null,NA,html-keyboard-response,86,158826,0.0-20.0-0.0,SS1630642817043,NA,NA,NA,NA,null,NA,NA,NA,NA,NA,NA,"<p><img src= images/blank.png width =""600"" height = ""600"" style=""position:fixed;top:50%; left:50%; transform: translate(-50%, -50%); border:5px solid black"">",NA,NA,NA,NA,NA,NA,NA,NA,NA
459,NA,stimuli-presentation,87,159788,0.0-20.0-1.0,SS1630642817043,NA,NA,trial,NA,40,500,959,images/stimuli/complex_04_A_a.gif,images/stimuli/complex_17_A_a.gif,self_paced,210,NA,6,complex_dissimilar,images/stimuli/complex_17_A_a.gif,NA,NA,NA,NA,NA,NA
null,NA,html-keyboard-response,88,160834,0.0-20.0-0.1,SS1630642817043,NA,NA,NA,NA,null,NA,NA,NA,NA,NA,NA,"<p><img src= images/blank.png width =""600"" height = ""600"" style=""position:fixed;top:50%; left:50%; transform: translate(-50%, -50%); border:5px solid black"">",NA,NA,NA,NA,NA,NA,NA,NA,NA
177.59999990463257,NA,stimuli-presentation,89,161521,0.0-20.0-1.1,SS1630642817043,NA,NA,trial,NA,40,500,677.5999999046326,images/stimuli/complex_04_A_a.gif,images/stimuli/complex_17_A_a.gif,self_paced,210,NA,6,complex_dissimilar,images/stimuli/complex_17_A_a.gif,NA,NA,NA,NA,NA,NA
null,NA,html-keyboard-response,90,162750,0.0-20.0-0.2,SS1630642817043,NA,NA,NA,NA,null,NA,NA,NA,NA,NA,NA,"<p><img src= images/blank.png width =""600"" height = ""600"" style=""position:fixed;top:50%; left:50%; transform: translate(-50%, -50%); border:5px solid black"">",NA,NA,NA,NA,NA,NA,NA,NA,NA
455.1999999284744,NA,stimuli-presentation,91,163710,0.0-20.0-1.2,SS1630642817043,NA,NA,trial,NA,40,500,955.1999999284744,images/stimuli/complex_04_A_a.gif,images/stimuli/complex_17_A_a.gif,self_paced,210,NA,6,complex_dissimilar,images/stimuli/complex_17_A_a.gif,NA,NA,NA,NA,NA,NA
null,NA,html-keyboard-response,92,164699,0.0-20.0-0.3,SS1630642817043,NA,NA,NA,NA,null,NA,NA,NA,NA,NA,NA,"<p><img src= images/blank.png width =""600"" height = ""600"" style=""position:fixed;top:50%; left:50%; transform: translate(-50%, -50%); border:5px solid black"">",NA,NA,NA,NA,NA,NA,NA,NA,NA
418.7000000476837,NA,stimuli-presentation,93,165624,0.0-20.0-1.3,SS1630642817043,NA,NA,trial,NA,40,500,918.7000000476837,images/stimuli/complex_04_A_a.gif,images/stimuli/complex_17_A_a.gif,self_paced,210,NA,6,complex_dissimilar,images/stimuli/complex_04_A_a.gif,NA,NA,NA,NA,NA,NA
null,NA,html-keyboard-response,94,166771,0.0-20.0-0.4,SS1630642817043,NA,NA,NA,NA,null,NA,NA,NA,NA,NA,NA,"<p><img src= images/blank.png width =""600"" height = ""600"" style=""position:fixed;top:50%; left:50%; transform: translate(-50%, -50%); border:5px solid black"">",NA,NA,NA,NA,NA,NA,NA,NA,NA
1148.3999999761581,NA,stimuli-presentation,95,168427,0.0-20.0-1.4,SS1630642817043,NA,NA,trial,NA,40,500,1648.3999999761581,images/stimuli/complex_04_A_a.gif,images/stimuli/complex_17_A_a.gif,self_paced,210,NA,6,complex_dissimilar,images/stimuli/complex_17_A_a.gif,NA,NA,NA,NA,NA,NA
null,NA,html-keyboard-response,96,169237,0.0-20.0-0.5,SS1630642817043,NA,NA,NA,NA,null,NA,NA,NA,NA,NA,NA,"<p><img src= images/blank.png width =""600"" height = ""600"" style=""position:fixed;top:50%; left:50%; transform: translate(-50%, -50%); border:5px solid black"">",NA,NA,NA,NA,NA,NA,NA,NA,NA
165.89999997615814,NA,stimuli-presentation,97,169910,0.0-20.0-1.5,SS1630642817043,NA,NA,trial,NA,40,500,665.8999999761581,images/stimuli/complex_04_A_a.gif,images/stimuli/complex_17_A_a.gif,self_paced,210,NA,6,complex_dissimilar,images/stimuli/complex_17_A_a.gif,NA,NA,NA,NA,NA,NA
2331.100000023842,"{""Q0"":1}",survey-likert,98,172243,0.0-21.0,SS1630642817043,NA,NA,curiousity,NA,NA,NA,NA,NA,NA,NA,NA,NA,NA,NA,NA,[0],images/stimuli/complex_17_A_a.gif,6,NA,NA,NA
null,NA,html-keyboard-response,99,173494,0.0-22.0-0.0,SS1630642817043,NA,NA,NA,NA,null,NA,NA,NA,NA,NA,NA,"<p><img src= images/blank.png width =""600"" height = ""600"" style=""position:fixed;top:50%; left:50%; transform: translate(-50%, -50%); border:5px solid black"">",NA,NA,NA,NA,NA,NA,NA,NA,NA
148.20000004768372,NA,stimuli-presentation,100,174148,0.0-22.0-1.0,SS1630642817043,NA,NA,trial,NA,40,500,648.2000000476837,images/stimuli/simple_11_A_a.gif,images/stimuli/simple_12_A_a.gif,self_paced,490,NA,7,simple_dissimilar,images/stimuli/simple_12_A_a.gif,NA,NA,NA,NA,NA,NA
null,NA,html-keyboard-response,101,175365,0.0-22.0-0.1,SS1630642817043,NA,NA,NA,NA,null,NA,NA,NA,NA,NA,NA,"<p><img src= images/blank.png width =""600"" height = ""600"" style=""position:fixed;top:50%; left:50%; transform: translate(-50%, -50%); border:5px solid black"">",NA,NA,NA,NA,NA,NA,NA,NA,NA
156.10000002384186,NA,stimuli-presentation,102,176027,0.0-22.0-1.1,SS1630642817043,NA,NA,trial,NA,40,500,656.1000000238419,images/stimuli/simple_11_A_a.gif,images/stimuli/simple_12_A_a.gif,self_paced,490,NA,7,simple_dissimilar,images/stimuli/simple_12_A_a.gif,NA,NA,NA,NA,NA,NA
null,NA,html-keyboard-response,103,177285,0.0-22.0-0.2,SS1630642817043,NA,NA,NA,NA,null,NA,NA,NA,NA,NA,NA,"<p><img src= images/blank.png width =""600"" height = ""600"" style=""position:fixed;top:50%; left:50%; transform: translate(-50%, -50%); border:5px solid black"">",NA,NA,NA,NA,NA,NA,NA,NA,NA
307.40000009536743,NA,stimuli-presentation,104,178097,0.0-22.0-1.2,SS1630642817043,NA,NA,trial,NA,40,500,807.4000000953674,images/stimuli/simple_11_A_a.gif,images/stimuli/simple_12_A_a.gif,self_paced,490,NA,7,simple_dissimilar,images/stimuli/simple_12_A_a.gif,NA,NA,NA,NA,NA,NA
null,NA,html-keyboard-response,105,179044,0.0-22.0-0.3,SS1630642817043,NA,NA,NA,NA,null,NA,NA,NA,NA,NA,NA,"<p><img src= images/blank.png width =""600"" height = ""600"" style=""position:fixed;top:50%; left:50%; transform: translate(-50%, -50%); border:5px solid black"">",NA,NA,NA,NA,NA,NA,NA,NA,NA
922.2999999523163,NA,stimuli-presentation,106,180473,0.0-22.0-1.3,SS1630642817043,NA,NA,trial,NA,40,500,1422.2999999523163,images/stimuli/simple_11_A_a.gif,images/stimuli/simple_12_A_a.gif,self_paced,490,NA,7,simple_dissimilar,images/stimuli/simple_11_A_a.gif,NA,NA,NA,NA,NA,NA
null,NA,html-keyboard-response,107,181366,0.0-22.0-0.4,SS1630642817043,NA,NA,NA,NA,null,NA,NA,NA,NA,NA,NA,"<p><img src= images/blank.png width =""600"" height = ""600"" style=""position:fixed;top:50%; left:50%; transform: translate(-50%, -50%); border:5px solid black"">",NA,NA,NA,NA,NA,NA,NA,NA,NA
62.700000047683716,NA,stimuli-presentation,108,181938,0.0-22.0-1.4,SS1630642817043,NA,NA,trial,NA,40,500,562.7000000476837,images/stimuli/simple_11_A_a.gif,images/stimuli/simple_12_A_a.gif,self_paced,490,NA,7,simple_dissimilar,images/stimuli/simple_12_A_a.gif,NA,NA,NA,NA,NA,NA
null,NA,html-keyboard-response,109,183034,0.0-22.0-0.5,SS1630642817043,NA,NA,NA,NA,null,NA,NA,NA,NA,NA,NA,"<p><img src= images/blank.png width =""600"" height = ""600"" style=""position:fixed;top:50%; left:50%; transform: translate(-50%, -50%); border:5px solid black"">",NA,NA,NA,NA,NA,NA,NA,NA,NA
137.39999997615814,NA,stimuli-presentation,110,183677,0.0-22.0-1.5,SS1630642817043,NA,NA,trial,NA,40,500,637.3999999761581,images/stimuli/simple_11_A_a.gif,images/stimuli/simple_12_A_a.gif,self_paced,490,NA,7,simple_dissimilar,images/stimuli/simple_12_A_a.gif,NA,NA,NA,NA,NA,NA
2562.899999976158,"{""Q0"":4}",survey-likert,111,186243,0.0-23.0,SS1630642817043,NA,NA,curiousity,NA,NA,NA,NA,NA,NA,NA,NA,NA,NA,NA,NA,[0],images/stimuli/simple_12_A_a.gif,7,NA,NA,NA
2212.5999999046326,NA,instructions,112,188460,0.0-24.0,SS1630642817043,NA,"[{""page_index"":0,""viewing_time"":2211.899999976158}]",instructions,NA,NA,NA,NA,NA,NA,NA,NA,NA,NA,NA,NA,NA,NA,NA,NA,NA,NA
1664.3999999761581,"{""Q0"":2}",survey-likert,113,190131,0.0-25.0,SS1630642817043,NA,NA,similarity_question,NA,NA,NA,NA,NA,NA,NA,NA,NA,NA,NA,NA,[0],NA,NA,images/stimuli/complex_07_A_a.gif,images/stimuli/complex_15_A_a.gif,NA
1682.7000000476837,"{""Q0"":3}",survey-likert,114,191819,0.0-26.0,SS1630642817043,NA,NA,similarity_question,NA,NA,NA,NA,NA,NA,NA,NA,NA,NA,NA,NA,[0],NA,NA,images/stimuli/complex_03_A_a.gif,images/stimuli/complex_05_A_a.gif,NA
1576.7999999523163,"{""Q0"":4}",survey-likert,115,193405,0.0-27.0,SS1630642817043,NA,NA,similarity_question,NA,NA,NA,NA,NA,NA,NA,NA,NA,NA,NA,NA,[0],NA,NA,images/stimuli/simple_01_A_a.gif,images/stimuli/simple_04_A_a.gif,NA
1632.8999999761581,"{""Q0"":5}",survey-likert,116,195044,0.0-28.0,SS1630642817043,NA,NA,similarity_question,NA,NA,NA,NA,NA,NA,NA,NA,NA,NA,NA,NA,[0],NA,NA,images/stimuli/simple_06_A_a.gif,images/stimuli/simple_02_A_a.gif,NA
1422.5999999046326,"{""Q0"":1}",survey-likert,117,196474,0.0-29.0,SS1630642817043,NA,NA,similarity_question,NA,NA,NA,NA,NA,NA,NA,NA,NA,NA,NA,NA,[0],NA,NA,images/stimuli/simple_10_A_a.gif,images/stimuli/simple_14_A_a.gif,NA
1300.5999999046326,"{""Q0"":5}",survey-likert,118,197781,0.0-30.0,SS1630642817043,NA,NA,similarity_question,NA,NA,NA,NA,NA,NA,NA,NA,NA,NA,NA,NA,[0],NA,NA,images/stimuli/complex_14_A_a.gif,images/stimuli/complex_12_A_a.gif,NA
1172.6999999284744,"{""Q0"":3}",survey-likert,119,198961,0.0-31.0,SS1630642817043,NA,NA,similarity_question,NA,NA,NA,NA,NA,NA,NA,NA,NA,NA,NA,NA,[0],NA,NA,images/stimuli/complex_17_A_a.gif,images/stimuli/complex_04_A_a.gif,NA
1495.3999999761581,"{""Q0"":4}",survey-likert,120,200461,0.0-32.0,SS1630642817043,NA,NA,similarity_question,NA,NA,NA,NA,NA,NA,NA,NA,NA,NA,NA,NA,[0],NA,NA,images/stimuli/simple_12_A_a.gif,images/stimuli/simple_11_A_a.gif,NA
1535.5,NA,instructions,121,202003,0.0-33.0,SS1630642817043,NA,"[{""page_index"":0,""viewing_time"":1535.2000000476837}]",instructions,NA,NA,NA,NA,NA,NA,NA,NA,NA,NA,NA,NA,NA,NA,NA,NA,NA,NA
1570.9000000953674,"{""Q0"":2}",survey-likert,122,203579,0.0-34.0,SS1630642817043,NA,NA,NA,NA,NA,NA,NA,NA,NA,NA,NA,images/stimuli/simple_06_A_a.gif,NA,NA,NA,[0],NA,NA,NA,NA,NA
1788.1000000238419,"{""Q0"":5}",survey-likert,123,205373,0.0-35.0,SS1630642817043,NA,NA,NA,NA,NA,NA,NA,NA,NA,NA,NA,images/stimuli/complex_03_A_a.gif,NA,NA,NA,[0],NA,NA,NA,NA,NA
1200.5999999046326,"{""Q0"":3}",survey-likert,124,206579,0.0-36.0,SS1630642817043,NA,NA,NA,NA,NA,NA,NA,NA,NA,NA,NA,images/stimuli/simple_11_A_a.gif,NA,NA,NA,[0],NA,NA,NA,NA,NA
1546.2000000476837,"{""Q0"":4}",survey-likert,125,208132,0.0-37.0,SS1630642817043,NA,NA,NA,NA,NA,NA,NA,NA,NA,NA,NA,images/stimuli/complex_17_A_a.gif,NA,NA,NA,[0],NA,NA,NA,NA,NA
1659,"{""Q0"":6}",survey-likert,126,209797,0.0-38.0,SS1630642817043,NA,NA,NA,NA,NA,NA,NA,NA,NA,NA,NA,images/stimuli/complex_15_A_a.gif,NA,NA,NA,[0],NA,NA,NA,NA,NA
1149.8999999761581,"{""Q0"":2}",survey-likert,127,210954,0.0-39.0,SS1630642817043,NA,NA,NA,NA,NA,NA,NA,NA,NA,NA,NA,images/stimuli/simple_10_A_a.gif,NA,NA,NA,[0],NA,NA,NA,NA,NA
1223.0999999046326,"{""Q0"":1}",survey-likert,128,212180,0.0-40.0,SS1630642817043,NA,NA,NA,NA,NA,NA,NA,NA,NA,NA,NA,images/stimuli/simple_01_A_a.gif,NA,NA,NA,[0],NA,NA,NA,NA,NA
1465,"{""Q0"":0}",survey-likert,129,213652,0.0-41.0,SS1630642817043,NA,NA,NA,NA,NA,NA,NA,NA,NA,NA,NA,images/stimuli/complex_14_A_a.gif,NA,NA,NA,[0],NA,NA,NA,NA,NA
NA,NA,fullscreen,130,214661,0.0-42.0,SS1630642817043,TRUE,NA,NA,NA,NA,NA,NA,NA,NA,NA,NA,NA,NA,NA,NA,NA,NA,NA,NA,NA,NA
1114,NA,instructions,131,215780,0.0-43.0,SS1630642817043,NA,"[{""page_index"":0,""viewing_time"":1113.3999999761581}]",instructions,NA,NA,NA,NA,NA,NA,NA,NA,NA,NA,NA,NA,NA,NA,NA,NA,NA,NA
2918.899999976158,"{""age"":""23""}",demog-age,132,218706,0.0-44.0,SS1630642817043,NA,NA,NA,NA,NA,NA,NA,NA,NA,NA,NA,NA,NA,NA,NA,NA,NA,NA,NA,NA,NA
1402.6000000238419,"{""ethnicity"":[""Hispanic or Latino""]}",demog-ethnic-US,133,220115,0.0-45.0,SS1630642817043,NA,NA,NA,NA,NA,NA,NA,NA,NA,NA,NA,NA,NA,NA,NA,[0],NA,NA,NA,NA,NA
2499.600000023842,"{""gender"":""Non-binary"",""education"":""High school diploma""}",demog-gender-and-education,134,222621,0.0-46.0,SS1630642817043,NA,NA,NA,NA,NA,NA,NA,NA,NA,NA,NA,NA,NA,NA,NA,"[0,1]",NA,NA,NA,NA,NA
1511.3000000715256,"{""Q0"":""3""}",survey-text,135,224140,0.0-47.0,SS1630642817043,NA,NA,feedback,NA,NA,NA,NA,NA,NA,NA,NA,NA,NA,NA,NA,NA,NA,NA,NA,NA,NA
755.2000000476837,NA,instructions,136,224900,0.0-48.0,SS1630642817043,NA,"[{""page_index"":0,""viewing_time"":754.5}]",instructions,NA,NA,NA,NA,NA,NA,NA,NA,NA,NA,NA,NA,NA,NA,NA,NA,NA,NA
2087.7000000476837,"{""p_id"":"" ""}",survey-text,0,2092,0.0-0.0,SS1630643047343,NA,NA,NA,NA,NA,NA,NA,NA,NA,NA,NA,NA,NA,NA,NA,NA,NA,NA,NA,NA,NA
NA,NA,fullscreen,1,3821,0.0-1.0,SS1630643047343,TRUE,NA,NA,NA,NA,NA,NA,NA,NA,NA,NA,NA,NA,NA,NA,NA,NA,NA,NA,NA,NA
1620.8999999761581,NA,instructions,2,5444,0.0-2.0,SS1630643047343,NA,"[{""page_index"":0,""viewing_time"":1620.2999999523163}]",NA,NA,NA,NA,NA,NA,NA,NA,NA,NA,NA,NA,NA,NA,NA,NA,NA,NA,NA
1478.6000000238419,NA,instructions,3,8840,0.0-3.0,SS1630643047343,NA,"[{""page_index"":0,""viewing_time"":832.6000000238419},{""page_index"":1,""viewing_time"":645.6000000238419}]",instructions,NA,NA,NA,NA,NA,NA,NA,NA,NA,NA,NA,NA,NA,NA,NA,NA,NA,NA
1200.5999999046326,NA,stimuli-presentation,4,10546,0.0-4.0,SS1630643047343,NA,NA,NA,NA,40,500,1700.5999999046326,null,null,self_paced,0,NA,NA,NA,NA,NA,NA,NA,NA,NA,NA
30.90000009536743,NA,stimuli-presentation,5,11079,0.0-5.0,SS1630643047343,NA,NA,NA,NA,40,500,530.9000000953674,null,null,self_paced,0,NA,NA,NA,NA,NA,NA,NA,NA,NA,NA
1632.6999999284744,NA,instructions,6,12713,0.0-6.0,SS1630643047343,NA,"[{""page_index"":0,""viewing_time"":1632.1999999284744}]",instructions,NA,NA,NA,NA,NA,NA,NA,NA,NA,NA,NA,NA,NA,NA,NA,NA,NA,NA
2669.1999999284744,NA,instructions,7,15384,0.0-7.0,SS1630643047343,NA,"[{""page_index"":0,""viewing_time"":444.7999999523163},{""page_index"":1,""viewing_time"":502.7999999523163},{""page_index"":2,""viewing_time"":465.5},{""page_index"":3,""viewing_time"":736},{""page_index"":4,""viewing_time"":519.6000000238419}]",instructions,NA,NA,NA,NA,NA,NA,NA,NA,NA,NA,NA,NA,NA,NA,NA,NA,NA,NA
null,NA,html-keyboard-response,8,16225,0.0-8.0-0.0,SS1630643047343,NA,NA,NA,NA,null,NA,NA,NA,NA,NA,NA,"<p><img src= images/blank.png width =""600"" height = ""600"" style=""position:fixed;top:50%; left:50%; transform: translate(-50%, -50%); border:5px solid black"">",NA,NA,NA,NA,NA,NA,NA,NA,NA
377.3000000715256,NA,stimuli-presentation,9,17109,0.0-8.0-1.0,SS1630643047343,NA,NA,trial,NA,40,500,877.3000000715256,images/stimuli/simple_08_A_a.gif,images/stimuli/simple_20_A_a.gif,self_paced,510,NA,0,simple_dissimilar,images/stimuli/simple_20_A_a.gif,NA,NA,NA,NA,NA,NA
null,NA,html-keyboard-response,10,18042,0.0-8.0-0.1,SS1630643047343,NA,NA,NA,NA,null,NA,NA,NA,NA,NA,NA,"<p><img src= images/blank.png width =""600"" height = ""600"" style=""position:fixed;top:50%; left:50%; transform: translate(-50%, -50%); border:5px solid black"">",NA,NA,NA,NA,NA,NA,NA,NA,NA
626.1000000238419,NA,stimuli-presentation,11,19173,0.0-8.0-1.1,SS1630643047343,NA,NA,trial,NA,40,500,1126.1000000238419,images/stimuli/simple_08_A_a.gif,images/stimuli/simple_20_A_a.gif,self_paced,510,NA,0,simple_dissimilar,images/stimuli/simple_20_A_a.gif,NA,NA,NA,NA,NA,NA
null,NA,html-keyboard-response,12,20436,0.0-8.0-0.2,SS1630643047343,NA,NA,NA,NA,null,NA,NA,NA,NA,NA,NA,"<p><img src= images/blank.png width =""600"" height = ""600"" style=""position:fixed;top:50%; left:50%; transform: translate(-50%, -50%); border:5px solid black"">",NA,NA,NA,NA,NA,NA,NA,NA,NA
146.80000007152557,NA,stimuli-presentation,13,21088,0.0-8.0-1.2,SS1630643047343,NA,NA,trial,NA,40,500,646.8000000715256,images/stimuli/simple_08_A_a.gif,images/stimuli/simple_20_A_a.gif,self_paced,510,NA,0,simple_dissimilar,images/stimuli/simple_20_A_a.gif,NA,NA,NA,NA,NA,NA
null,NA,html-keyboard-response,14,22023,0.0-8.0-0.3,SS1630643047343,NA,NA,NA,NA,null,NA,NA,NA,NA,NA,NA,"<p><img src= images/blank.png width =""600"" height = ""600"" style=""position:fixed;top:50%; left:50%; transform: translate(-50%, -50%); border:5px solid black"">",NA,NA,NA,NA,NA,NA,NA,NA,NA
68.89999997615814,NA,stimuli-presentation,15,22599,0.0-8.0-1.3,SS1630643047343,NA,NA,trial,NA,40,500,568.8999999761581,images/stimuli/simple_08_A_a.gif,images/stimuli/simple_20_A_a.gif,self_paced,510,NA,0,simple_dissimilar,images/stimuli/simple_20_A_a.gif,NA,NA,NA,NA,NA,NA
null,NA,html-keyboard-response,16,23901,0.0-8.0-0.4,SS1630643047343,NA,NA,NA,NA,null,NA,NA,NA,NA,NA,NA,"<p><img src= images/blank.png width =""600"" height = ""600"" style=""position:fixed;top:50%; left:50%; transform: translate(-50%, -50%); border:5px solid black"">",NA,NA,NA,NA,NA,NA,NA,NA,NA
171.89999997615814,NA,stimuli-presentation,17,24578,0.0-8.0-1.4,SS1630643047343,NA,NA,trial,NA,40,500,671.8999999761581,images/stimuli/simple_08_A_a.gif,images/stimuli/simple_20_A_a.gif,self_paced,510,NA,0,simple_dissimilar,images/stimuli/simple_20_A_a.gif,NA,NA,NA,NA,NA,NA
null,NA,html-keyboard-response,18,25596,0.0-8.0-0.5,SS1630643047343,NA,NA,NA,NA,null,NA,NA,NA,NA,NA,NA,"<p><img src= images/blank.png width =""600"" height = ""600"" style=""position:fixed;top:50%; left:50%; transform: translate(-50%, -50%); border:5px solid black"">",NA,NA,NA,NA,NA,NA,NA,NA,NA
208.89999997615814,NA,stimuli-presentation,19,26309,0.0-8.0-1.5,SS1630643047343,NA,NA,trial,NA,40,500,708.8999999761581,images/stimuli/simple_08_A_a.gif,images/stimuli/simple_20_A_a.gif,self_paced,510,NA,0,simple_dissimilar,images/stimuli/simple_20_A_a.gif,NA,NA,NA,NA,NA,NA
2231.5999999046326,"{""Q0"":""Yes""}",survey-multi-choice,20,28542,0.0-9.0,SS1630643047343,NA,NA,memory_test,NA,NA,NA,NA,NA,NA,NA,NA,NA,NA,NA,NA,[0],images/stimuli/simple_20_A_a.gif,0,NA,NA,NA
null,NA,html-keyboard-response,21,29541,0.0-10.0-0.0,SS1630643047343,NA,NA,NA,NA,null,NA,NA,NA,NA,NA,NA,"<p><img src= images/blank.png width =""600"" height = ""600"" style=""position:fixed;top:50%; left:50%; transform: translate(-50%, -50%); border:5px solid black"">",NA,NA,NA,NA,NA,NA,NA,NA,NA
494.2000000476837,NA,stimuli-presentation,22,30539,0.0-10.0-1.0,SS1630643047343,NA,NA,trial,NA,40,500,994.2000000476837,images/stimuli/complex_06_A_a.gif,images/stimuli/complex_13_A_a.gif,self_paced,780,NA,1,complex_dissimilar,images/stimuli/complex_13_A_a.gif,NA,NA,NA,NA,NA,NA
null,NA,html-keyboard-response,23,31678,0.0-10.0-0.1,SS1630643047343,NA,NA,NA,NA,null,NA,NA,NA,NA,NA,NA,"<p><img src= images/blank.png width =""600"" height = ""600"" style=""position:fixed;top:50%; left:50%; transform: translate(-50%, -50%); border:5px solid black"">",NA,NA,NA,NA,NA,NA,NA,NA,NA
280.3000000715256,NA,stimuli-presentation,24,32466,0.0-10.0-1.1,SS1630643047343,NA,NA,trial,NA,40,500,780.3000000715256,images/stimuli/complex_06_A_a.gif,images/stimuli/complex_13_A_a.gif,self_paced,780,NA,1,complex_dissimilar,images/stimuli/complex_13_A_a.gif,NA,NA,NA,NA,NA,NA
null,NA,html-keyboard-response,25,33592,0.0-10.0-0.2,SS1630643047343,NA,NA,NA,NA,null,NA,NA,NA,NA,NA,NA,"<p><img src= images/blank.png width =""600"" height = ""600"" style=""position:fixed;top:50%; left:50%; transform: translate(-50%, -50%); border:5px solid black"">",NA,NA,NA,NA,NA,NA,NA,NA,NA
449.1999999284744,NA,stimuli-presentation,26,34546,0.0-10.0-1.2,SS1630643047343,NA,NA,trial,NA,40,500,949.1999999284744,images/stimuli/complex_06_A_a.gif,images/stimuli/complex_13_A_a.gif,self_paced,780,NA,1,complex_dissimilar,images/stimuli/complex_13_A_a.gif,NA,NA,NA,NA,NA,NA
null,NA,html-keyboard-response,27,35698,0.0-10.0-0.3,SS1630643047343,NA,NA,NA,NA,null,NA,NA,NA,NA,NA,NA,"<p><img src= images/blank.png width =""600"" height = ""600"" style=""position:fixed;top:50%; left:50%; transform: translate(-50%, -50%); border:5px solid black"">",NA,NA,NA,NA,NA,NA,NA,NA,NA
91.39999997615814,NA,stimuli-presentation,28,36294,0.0-10.0-1.3,SS1630643047343,NA,NA,trial,NA,40,500,591.3999999761581,images/stimuli/complex_06_A_a.gif,images/stimuli/complex_13_A_a.gif,self_paced,780,NA,1,complex_dissimilar,images/stimuli/complex_06_A_a.gif,NA,NA,NA,NA,NA,NA
null,NA,html-keyboard-response,29,37490,0.0-10.0-0.4,SS1630643047343,NA,NA,NA,NA,null,NA,NA,NA,NA,NA,NA,"<p><img src= images/blank.png width =""600"" height = ""600"" style=""position:fixed;top:50%; left:50%; transform: translate(-50%, -50%); border:5px solid black"">",NA,NA,NA,NA,NA,NA,NA,NA,NA
202.5,NA,stimuli-presentation,30,38202,0.0-10.0-1.4,SS1630643047343,NA,NA,trial,NA,40,500,702.5,images/stimuli/complex_06_A_a.gif,images/stimuli/complex_13_A_a.gif,self_paced,780,NA,1,complex_dissimilar,images/stimuli/complex_13_A_a.gif,NA,NA,NA,NA,NA,NA
null,NA,html-keyboard-response,31,39250,0.0-10.0-0.5,SS1630643047343,NA,NA,NA,NA,null,NA,NA,NA,NA,NA,NA,"<p><img src= images/blank.png width =""600"" height = ""600"" style=""position:fixed;top:50%; left:50%; transform: translate(-50%, -50%); border:5px solid black"">",NA,NA,NA,NA,NA,NA,NA,NA,NA
748.3999999761581,NA,stimuli-presentation,32,40504,0.0-10.0-1.5,SS1630643047343,NA,NA,trial,NA,40,500,1248.3999999761581,images/stimuli/complex_06_A_a.gif,images/stimuli/complex_13_A_a.gif,self_paced,780,NA,1,complex_dissimilar,images/stimuli/complex_13_A_a.gif,NA,NA,NA,NA,NA,NA
4422.199999928474,"{""Q0"":""Yes""}",survey-multi-choice,33,44929,0.0-11.0,SS1630643047343,NA,NA,memory_test,NA,NA,NA,NA,NA,NA,NA,NA,NA,NA,NA,NA,[0],images/stimuli/complex_13_A_a.gif,1,NA,NA,NA
null,NA,html-keyboard-response,34,45939,0.0-12.0-0.0,SS1630643047343,NA,NA,NA,NA,null,NA,NA,NA,NA,NA,NA,"<p><img src= images/blank.png width =""600"" height = ""600"" style=""position:fixed;top:50%; left:50%; transform: translate(-50%, -50%); border:5px solid black"">",NA,NA,NA,NA,NA,NA,NA,NA,NA
88.30000007152557,NA,stimuli-presentation,35,46534,0.0-12.0-1.0,SS1630643047343,NA,NA,trial,NA,40,500,588.3000000715256,images/stimuli/simple_07_A_a.gif,images/stimuli/simple_09_A_a.gif,self_paced,730,NA,2,simple_dissimilar,images/stimuli/simple_09_A_a.gif,NA,NA,NA,NA,NA,NA
null,NA,html-keyboard-response,36,47438,0.0-12.0-0.1,SS1630643047343,NA,NA,NA,NA,null,NA,NA,NA,NA,NA,NA,"<p><img src= images/blank.png width =""600"" height = ""600"" style=""position:fixed;top:50%; left:50%; transform: translate(-50%, -50%); border:5px solid black"">",NA,NA,NA,NA,NA,NA,NA,NA,NA
46.300000071525574,NA,stimuli-presentation,37,47995,0.0-12.0-1.1,SS1630643047343,NA,NA,trial,NA,40,500,546.3000000715256,images/stimuli/simple_07_A_a.gif,images/stimuli/simple_09_A_a.gif,self_paced,730,NA,2,simple_dissimilar,images/stimuli/simple_09_A_a.gif,NA,NA,NA,NA,NA,NA
null,NA,html-keyboard-response,38,49006,0.0-12.0-0.2,SS1630643047343,NA,NA,NA,NA,null,NA,NA,NA,NA,NA,NA,"<p><img src= images/blank.png width =""600"" height = ""600"" style=""position:fixed;top:50%; left:50%; transform: translate(-50%, -50%); border:5px solid black"">",NA,NA,NA,NA,NA,NA,NA,NA,NA
331.8000000715256,NA,stimuli-presentation,39,49844,0.0-12.0-1.2,SS1630643047343,NA,NA,trial,NA,40,500,831.8000000715256,images/stimuli/simple_07_A_a.gif,images/stimuli/simple_09_A_a.gif,self_paced,730,NA,2,simple_dissimilar,images/stimuli/simple_09_A_a.gif,NA,NA,NA,NA,NA,NA
null,NA,html-keyboard-response,40,50732,0.0-12.0-0.3,SS1630643047343,NA,NA,NA,NA,null,NA,NA,NA,NA,NA,NA,"<p><img src= images/blank.png width =""600"" height = ""600"" style=""position:fixed;top:50%; left:50%; transform: translate(-50%, -50%); border:5px solid black"">",NA,NA,NA,NA,NA,NA,NA,NA,NA
97.39999997615814,NA,stimuli-presentation,41,51334,0.0-12.0-1.3,SS1630643047343,NA,NA,trial,NA,40,500,597.3999999761581,images/stimuli/simple_07_A_a.gif,images/stimuli/simple_09_A_a.gif,self_paced,730,NA,2,simple_dissimilar,images/stimuli/simple_07_A_a.gif,NA,NA,NA,NA,NA,NA
null,NA,html-keyboard-response,42,52193,0.0-12.0-0.4,SS1630643047343,NA,NA,NA,NA,null,NA,NA,NA,NA,NA,NA,"<p><img src= images/blank.png width =""600"" height = ""600"" style=""position:fixed;top:50%; left:50%; transform: translate(-50%, -50%); border:5px solid black"">",NA,NA,NA,NA,NA,NA,NA,NA,NA
298.3000000715256,NA,stimuli-presentation,43,52997,0.0-12.0-1.4,SS1630643047343,NA,NA,trial,NA,40,500,798.3000000715256,images/stimuli/simple_07_A_a.gif,images/stimuli/simple_09_A_a.gif,self_paced,730,NA,2,simple_dissimilar,images/stimuli/simple_09_A_a.gif,NA,NA,NA,NA,NA,NA
null,NA,html-keyboard-response,44,54218,0.0-12.0-0.5,SS1630643047343,NA,NA,NA,NA,null,NA,NA,NA,NA,NA,NA,"<p><img src= images/blank.png width =""600"" height = ""600"" style=""position:fixed;top:50%; left:50%; transform: translate(-50%, -50%); border:5px solid black"">",NA,NA,NA,NA,NA,NA,NA,NA,NA
190.5,NA,stimuli-presentation,45,54913,0.0-12.0-1.5,SS1630643047343,NA,NA,trial,NA,40,500,690.5,images/stimuli/simple_07_A_a.gif,images/stimuli/simple_09_A_a.gif,self_paced,730,NA,2,simple_dissimilar,images/stimuli/simple_09_A_a.gif,NA,NA,NA,NA,NA,NA
2388.600000023842,"{""Q0"":""Yes""}",survey-multi-choice,46,57304,0.0-13.0,SS1630643047343,NA,NA,memory_test,NA,NA,NA,NA,NA,NA,NA,NA,NA,NA,NA,NA,[0],images/stimuli/simple_04_A_a.gif,2,NA,NA,NA
null,NA,html-keyboard-response,47,58507,0.0-14.0-0.0,SS1630643047343,NA,NA,NA,NA,null,NA,NA,NA,NA,NA,NA,"<p><img src= images/blank.png width =""600"" height = ""600"" style=""position:fixed;top:50%; left:50%; transform: translate(-50%, -50%); border:5px solid black"">",NA,NA,NA,NA,NA,NA,NA,NA,NA
1001,NA,stimuli-presentation,48,60015,0.0-14.0-1.0,SS1630643047343,NA,NA,trial,NA,40,500,1501,images/stimuli/simple_19_A_a.gif,images/stimuli/simple_05_A_a.gif,self_paced,440,NA,3,simple_dissimilar,images/stimuli/simple_05_A_a.gif,NA,NA,NA,NA,NA,NA
null,NA,html-keyboard-response,49,60979,0.0-14.0-0.1,SS1630643047343,NA,NA,NA,NA,null,NA,NA,NA,NA,NA,NA,"<p><img src= images/blank.png width =""600"" height = ""600"" style=""position:fixed;top:50%; left:50%; transform: translate(-50%, -50%); border:5px solid black"">",NA,NA,NA,NA,NA,NA,NA,NA,NA
246.79999995231628,NA,stimuli-presentation,50,61731,0.0-14.0-1.1,SS1630643047343,NA,NA,trial,NA,40,500,746.7999999523163,images/stimuli/simple_19_A_a.gif,images/stimuli/simple_05_A_a.gif,self_paced,440,NA,3,simple_dissimilar,images/stimuli/simple_05_A_a.gif,NA,NA,NA,NA,NA,NA
null,NA,html-keyboard-response,51,62814,0.0-14.0-0.2,SS1630643047343,NA,NA,NA,NA,null,NA,NA,NA,NA,NA,NA,"<p><img src= images/blank.png width =""600"" height = ""600"" style=""position:fixed;top:50%; left:50%; transform: translate(-50%, -50%); border:5px solid black"">",NA,NA,NA,NA,NA,NA,NA,NA,NA
489.60000002384186,NA,stimuli-presentation,52,63809,0.0-14.0-1.2,SS1630643047343,NA,NA,trial,NA,40,500,989.6000000238419,images/stimuli/simple_19_A_a.gif,images/stimuli/simple_05_A_a.gif,self_paced,440,NA,3,simple_dissimilar,images/stimuli/simple_05_A_a.gif,NA,NA,NA,NA,NA,NA
null,NA,html-keyboard-response,53,64823,0.0-14.0-0.3,SS1630643047343,NA,NA,NA,NA,null,NA,NA,NA,NA,NA,NA,"<p><img src= images/blank.png width =""600"" height = ""600"" style=""position:fixed;top:50%; left:50%; transform: translate(-50%, -50%); border:5px solid black"">",NA,NA,NA,NA,NA,NA,NA,NA,NA
75.29999995231628,NA,stimuli-presentation,54,65406,0.0-14.0-1.3,SS1630643047343,NA,NA,trial,NA,40,500,575.2999999523163,images/stimuli/simple_19_A_a.gif,images/stimuli/simple_05_A_a.gif,self_paced,440,NA,3,simple_dissimilar,images/stimuli/simple_05_A_a.gif,NA,NA,NA,NA,NA,NA
null,NA,html-keyboard-response,55,66259,0.0-14.0-0.4,SS1630643047343,NA,NA,NA,NA,null,NA,NA,NA,NA,NA,NA,"<p><img src= images/blank.png width =""600"" height = ""600"" style=""position:fixed;top:50%; left:50%; transform: translate(-50%, -50%); border:5px solid black"">",NA,NA,NA,NA,NA,NA,NA,NA,NA
191.89999997615814,NA,stimuli-presentation,56,66959,0.0-14.0-1.4,SS1630643047343,NA,NA,trial,NA,40,500,691.8999999761581,images/stimuli/simple_19_A_a.gif,images/stimuli/simple_05_A_a.gif,self_paced,440,NA,3,simple_dissimilar,images/stimuli/simple_05_A_a.gif,NA,NA,NA,NA,NA,NA
null,NA,html-keyboard-response,57,67962,0.0-14.0-0.5,SS1630643047343,NA,NA,NA,NA,null,NA,NA,NA,NA,NA,NA,"<p><img src= images/blank.png width =""600"" height = ""600"" style=""position:fixed;top:50%; left:50%; transform: translate(-50%, -50%); border:5px solid black"">",NA,NA,NA,NA,NA,NA,NA,NA,NA
65.70000004768372,NA,stimuli-presentation,58,68533,0.0-14.0-1.5,SS1630643047343,NA,NA,trial,NA,40,500,565.7000000476837,images/stimuli/simple_19_A_a.gif,images/stimuli/simple_05_A_a.gif,self_paced,440,NA,3,simple_dissimilar,images/stimuli/simple_19_A_a.gif,NA,NA,NA,NA,NA,NA
2566.5,"{""Q0"":""Yes""}",survey-multi-choice,59,71102,0.0-15.0,SS1630643047343,NA,NA,memory_test,NA,NA,NA,NA,NA,NA,NA,NA,NA,NA,NA,NA,[0],images/stimuli/simple_05_A_a.gif,3,NA,NA,NA
null,NA,html-keyboard-response,60,71977,0.0-16.0-0.0,SS1630643047343,NA,NA,NA,NA,null,NA,NA,NA,NA,NA,NA,"<p><img src= images/blank.png width =""600"" height = ""600"" style=""position:fixed;top:50%; left:50%; transform: translate(-50%, -50%); border:5px solid black"">",NA,NA,NA,NA,NA,NA,NA,NA,NA
3.600000023841858,NA,stimuli-presentation,61,72488,0.0-16.0-1.0,SS1630643047343,NA,NA,trial,NA,40,500,503.60000002384186,images/stimuli/complex_10_A_a.gif,images/stimuli/complex_12_A_a.gif,self_paced,860,NA,4,complex_dissimilar,images/stimuli/complex_12_A_a.gif,NA,NA,NA,NA,NA,NA
null,NA,html-keyboard-response,62,73406,0.0-16.0-0.1,SS1630643047343,NA,NA,NA,NA,null,NA,NA,NA,NA,NA,NA,"<p><img src= images/blank.png width =""600"" height = ""600"" style=""position:fixed;top:50%; left:50%; transform: translate(-50%, -50%); border:5px solid black"">",NA,NA,NA,NA,NA,NA,NA,NA,NA
24802.399999976158,NA,stimuli-presentation,63,98716,0.0-16.0-1.1,SS1630643047343,NA,NA,trial,NA,40,500,25302.399999976158,images/stimuli/complex_10_A_a.gif,images/stimuli/complex_12_A_a.gif,self_paced,860,NA,4,complex_dissimilar,images/stimuli/complex_10_A_a.gif,NA,NA,NA,NA,NA,NA
null,NA,html-keyboard-response,64,99999,0.0-16.0-0.2,SS1630643047343,NA,NA,NA,NA,null,NA,NA,NA,NA,NA,NA,"<p><img src= images/blank.png width =""600"" height = ""600"" style=""position:fixed;top:50%; left:50%; transform: translate(-50%, -50%); border:5px solid black"">",NA,NA,NA,NA,NA,NA,NA,NA,NA
6240.899999976158,NA,stimuli-presentation,65,106745,0.0-16.0-1.2,SS1630643047343,NA,NA,trial,NA,40,500,6740.899999976158,images/stimuli/complex_10_A_a.gif,images/stimuli/complex_12_A_a.gif,self_paced,860,NA,4,complex_dissimilar,images/stimuli/complex_12_A_a.gif,NA,NA,NA,NA,NA,NA
null,NA,html-keyboard-response,66,107656,0.0-16.0-0.3,SS1630643047343,NA,NA,NA,NA,null,NA,NA,NA,NA,NA,NA,"<p><img src= images/blank.png width =""600"" height = ""600"" style=""position:fixed;top:50%; left:50%; transform: translate(-50%, -50%); border:5px solid black"">",NA,NA,NA,NA,NA,NA,NA,NA,NA
846,NA,stimuli-presentation,67,109007,0.0-16.0-1.3,SS1630643047343,NA,NA,trial,NA,40,500,1346,images/stimuli/complex_10_A_a.gif,images/stimuli/complex_12_A_a.gif,self_paced,860,NA,4,complex_dissimilar,images/stimuli/complex_12_A_a.gif,NA,NA,NA,NA,NA,NA
null,NA,html-keyboard-response,68,110010,0.0-16.0-0.4,SS1630643047343,NA,NA,NA,NA,null,NA,NA,NA,NA,NA,NA,"<p><img src= images/blank.png width =""600"" height = ""600"" style=""position:fixed;top:50%; left:50%; transform: translate(-50%, -50%); border:5px solid black"">",NA,NA,NA,NA,NA,NA,NA,NA,NA
76.89999997615814,NA,stimuli-presentation,69,110595,0.0-16.0-1.4,SS1630643047343,NA,NA,trial,NA,40,500,576.8999999761581,images/stimuli/complex_10_A_a.gif,images/stimuli/complex_12_A_a.gif,self_paced,860,NA,4,complex_dissimilar,images/stimuli/complex_12_A_a.gif,NA,NA,NA,NA,NA,NA
null,NA,html-keyboard-response,70,111429,0.0-16.0-0.5,SS1630643047343,NA,NA,NA,NA,null,NA,NA,NA,NA,NA,NA,"<p><img src= images/blank.png width =""600"" height = ""600"" style=""position:fixed;top:50%; left:50%; transform: translate(-50%, -50%); border:5px solid black"">",NA,NA,NA,NA,NA,NA,NA,NA,NA
353.09999990463257,NA,stimuli-presentation,71,112290,0.0-16.0-1.5,SS1630643047343,NA,NA,trial,NA,40,500,853.0999999046326,images/stimuli/complex_10_A_a.gif,images/stimuli/complex_12_A_a.gif,self_paced,860,NA,4,complex_dissimilar,images/stimuli/complex_12_A_a.gif,NA,NA,NA,NA,NA,NA
3421.1999999284744,"{""Q0"":""Yes""}",survey-multi-choice,72,115714,0.0-17.0,SS1630643047343,NA,NA,memory_test,NA,NA,NA,NA,NA,NA,NA,NA,NA,NA,NA,NA,[0],images/stimuli/complex_12_A_a.gif,4,NA,NA,NA
null,NA,html-keyboard-response,73,116668,0.0-18.0-0.0,SS1630643047343,NA,NA,NA,NA,null,NA,NA,NA,NA,NA,NA,"<p><img src= images/blank.png width =""600"" height = ""600"" style=""position:fixed;top:50%; left:50%; transform: translate(-50%, -50%); border:5px solid black"">",NA,NA,NA,NA,NA,NA,NA,NA,NA
462.89999997615814,NA,stimuli-presentation,74,117638,0.0-18.0-1.0,SS1630643047343,NA,NA,trial,NA,40,500,962.8999999761581,images/stimuli/simple_14_A_a.gif,images/stimuli/simple_11_A_a.gif,self_paced,170,NA,5,simple_dissimilar,images/stimuli/simple_11_A_a.gif,NA,NA,NA,NA,NA,NA
null,NA,html-keyboard-response,75,118755,0.0-18.0-0.1,SS1630643047343,NA,NA,NA,NA,null,NA,NA,NA,NA,NA,NA,"<p><img src= images/blank.png width =""600"" height = ""600"" style=""position:fixed;top:50%; left:50%; transform: translate(-50%, -50%); border:5px solid black"">",NA,NA,NA,NA,NA,NA,NA,NA,NA
198.5,NA,stimuli-presentation,76,119459,0.0-18.0-1.1,SS1630643047343,NA,NA,trial,NA,40,500,698.5,images/stimuli/simple_14_A_a.gif,images/stimuli/simple_11_A_a.gif,self_paced,170,NA,5,simple_dissimilar,images/stimuli/simple_14_A_a.gif,NA,NA,NA,NA,NA,NA
null,NA,html-keyboard-response,77,120276,0.0-18.0-0.2,SS1630643047343,NA,NA,NA,NA,null,NA,NA,NA,NA,NA,NA,"<p><img src= images/blank.png width =""600"" height = ""600"" style=""position:fixed;top:50%; left:50%; transform: translate(-50%, -50%); border:5px solid black"">",NA,NA,NA,NA,NA,NA,NA,NA,NA
392.5,NA,stimuli-presentation,78,121174,0.0-18.0-1.2,SS1630643047343,NA,NA,trial,NA,40,500,892.5,images/stimuli/simple_14_A_a.gif,images/stimuli/simple_11_A_a.gif,self_paced,170,NA,5,simple_dissimilar,images/stimuli/simple_11_A_a.gif,NA,NA,NA,NA,NA,NA
null,NA,html-keyboard-response,79,122204,0.0-18.0-0.3,SS1630643047343,NA,NA,NA,NA,null,NA,NA,NA,NA,NA,NA,"<p><img src= images/blank.png width =""600"" height = ""600"" style=""position:fixed;top:50%; left:50%; transform: translate(-50%, -50%); border:5px solid black"">",NA,NA,NA,NA,NA,NA,NA,NA,NA
132.10000002384186,NA,stimuli-presentation,80,122846,0.0-18.0-1.3,SS1630643047343,NA,NA,trial,NA,40,500,632.1000000238419,images/stimuli/simple_14_A_a.gif,images/stimuli/simple_11_A_a.gif,self_paced,170,NA,5,simple_dissimilar,images/stimuli/simple_11_A_a.gif,NA,NA,NA,NA,NA,NA
null,NA,html-keyboard-response,81,123703,0.0-18.0-0.4,SS1630643047343,NA,NA,NA,NA,null,NA,NA,NA,NA,NA,NA,"<p><img src= images/blank.png width =""600"" height = ""600"" style=""position:fixed;top:50%; left:50%; transform: translate(-50%, -50%); border:5px solid black"">",NA,NA,NA,NA,NA,NA,NA,NA,NA
81.69999992847443,NA,stimuli-presentation,82,124291,0.0-18.0-1.4,SS1630643047343,NA,NA,trial,NA,40,500,581.6999999284744,images/stimuli/simple_14_A_a.gif,images/stimuli/simple_11_A_a.gif,self_paced,170,NA,5,simple_dissimilar,images/stimuli/simple_11_A_a.gif,NA,NA,NA,NA,NA,NA
null,NA,html-keyboard-response,83,125349,0.0-18.0-0.5,SS1630643047343,NA,NA,NA,NA,null,NA,NA,NA,NA,NA,NA,"<p><img src= images/blank.png width =""600"" height = ""600"" style=""position:fixed;top:50%; left:50%; transform: translate(-50%, -50%); border:5px solid black"">",NA,NA,NA,NA,NA,NA,NA,NA,NA
28.200000047683716,NA,stimuli-presentation,84,125883,0.0-18.0-1.5,SS1630643047343,NA,NA,trial,NA,40,500,528.2000000476837,images/stimuli/simple_14_A_a.gif,images/stimuli/simple_11_A_a.gif,self_paced,170,NA,5,simple_dissimilar,images/stimuli/simple_11_A_a.gif,NA,NA,NA,NA,NA,NA
2386.7000000476837,"{""Q0"":""Yes""}",survey-multi-choice,85,128273,0.0-19.0,SS1630643047343,NA,NA,memory_test,NA,NA,NA,NA,NA,NA,NA,NA,NA,NA,NA,NA,[0],images/stimuli/simple_11_A_a.gif,5,NA,NA,NA
null,NA,html-keyboard-response,86,129331,0.0-20.0-0.0,SS1630643047343,NA,NA,NA,NA,null,NA,NA,NA,NA,NA,NA,"<p><img src= images/blank.png width =""600"" height = ""600"" style=""position:fixed;top:50%; left:50%; transform: translate(-50%, -50%); border:5px solid black"">",NA,NA,NA,NA,NA,NA,NA,NA,NA
63.199999928474426,NA,stimuli-presentation,87,129901,0.0-20.0-1.0,SS1630643047343,NA,NA,trial,NA,40,500,563.1999999284744,images/stimuli/complex_17_A_a.gif,images/stimuli/complex_19_A_a.gif,self_paced,810,NA,6,complex_dissimilar,images/stimuli/complex_19_A_a.gif,NA,NA,NA,NA,NA,NA
null,NA,html-keyboard-response,88,131186,0.0-20.0-0.1,SS1630643047343,NA,NA,NA,NA,null,NA,NA,NA,NA,NA,NA,"<p><img src= images/blank.png width =""600"" height = ""600"" style=""position:fixed;top:50%; left:50%; transform: translate(-50%, -50%); border:5px solid black"">",NA,NA,NA,NA,NA,NA,NA,NA,NA
10,NA,stimuli-presentation,89,131707,0.0-20.0-1.1,SS1630643047343,NA,NA,trial,NA,40,500,510,images/stimuli/complex_17_A_a.gif,images/stimuli/complex_19_A_a.gif,self_paced,810,NA,6,complex_dissimilar,images/stimuli/complex_19_A_a.gif,NA,NA,NA,NA,NA,NA
null,NA,html-keyboard-response,90,132743,0.0-20.0-0.2,SS1630643047343,NA,NA,NA,NA,null,NA,NA,NA,NA,NA,NA,"<p><img src= images/blank.png width =""600"" height = ""600"" style=""position:fixed;top:50%; left:50%; transform: translate(-50%, -50%); border:5px solid black"">",NA,NA,NA,NA,NA,NA,NA,NA,NA
360.2000000476837,NA,stimuli-presentation,91,133608,0.0-20.0-1.2,SS1630643047343,NA,NA,trial,NA,40,500,860.2000000476837,images/stimuli/complex_17_A_a.gif,images/stimuli/complex_19_A_a.gif,self_paced,810,NA,6,complex_dissimilar,images/stimuli/complex_19_A_a.gif,NA,NA,NA,NA,NA,NA
null,NA,html-keyboard-response,92,134752,0.0-20.0-0.3,SS1630643047343,NA,NA,NA,NA,null,NA,NA,NA,NA,NA,NA,"<p><img src= images/blank.png width =""600"" height = ""600"" style=""position:fixed;top:50%; left:50%; transform: translate(-50%, -50%); border:5px solid black"">",NA,NA,NA,NA,NA,NA,NA,NA,NA
296.2000000476837,NA,stimuli-presentation,93,135556,0.0-20.0-1.3,SS1630643047343,NA,NA,trial,NA,40,500,796.2000000476837,images/stimuli/complex_17_A_a.gif,images/stimuli/complex_19_A_a.gif,self_paced,810,NA,6,complex_dissimilar,images/stimuli/complex_19_A_a.gif,NA,NA,NA,NA,NA,NA
null,NA,html-keyboard-response,94,136811,0.0-20.0-0.4,SS1630643047343,NA,NA,NA,NA,null,NA,NA,NA,NA,NA,NA,"<p><img src= images/blank.png width =""600"" height = ""600"" style=""position:fixed;top:50%; left:50%; transform: translate(-50%, -50%); border:5px solid black"">",NA,NA,NA,NA,NA,NA,NA,NA,NA
50.299999952316284,NA,stimuli-presentation,95,137364,0.0-20.0-1.4,SS1630643047343,NA,NA,trial,NA,40,500,550.2999999523163,images/stimuli/complex_17_A_a.gif,images/stimuli/complex_19_A_a.gif,self_paced,810,NA,6,complex_dissimilar,images/stimuli/complex_19_A_a.gif,NA,NA,NA,NA,NA,NA
null,NA,html-keyboard-response,96,138648,0.0-20.0-0.5,SS1630643047343,NA,NA,NA,NA,null,NA,NA,NA,NA,NA,NA,"<p><img src= images/blank.png width =""600"" height = ""600"" style=""position:fixed;top:50%; left:50%; transform: translate(-50%, -50%); border:5px solid black"">",NA,NA,NA,NA,NA,NA,NA,NA,NA
981.7999999523163,NA,stimuli-presentation,97,140141,0.0-20.0-1.5,SS1630643047343,NA,NA,trial,NA,40,500,1481.7999999523163,images/stimuli/complex_17_A_a.gif,images/stimuli/complex_19_A_a.gif,self_paced,810,NA,6,complex_dissimilar,images/stimuli/complex_19_A_a.gif,NA,NA,NA,NA,NA,NA
2047.2000000476837,"{""Q0"":""Yes""}",survey-multi-choice,98,142190,0.0-21.0,SS1630643047343,NA,NA,memory_test,NA,NA,NA,NA,NA,NA,NA,NA,NA,NA,NA,NA,[0],images/stimuli/complex_11_A_a.gif,6,NA,NA,NA
null,NA,html-keyboard-response,99,143154,0.0-22.0-0.0,SS1630643047343,NA,NA,NA,NA,null,NA,NA,NA,NA,NA,NA,"<p><img src= images/blank.png width =""600"" height = ""600"" style=""position:fixed;top:50%; left:50%; transform: translate(-50%, -50%); border:5px solid black"">",NA,NA,NA,NA,NA,NA,NA,NA,NA
497.89999997615814,NA,stimuli-presentation,100,144158,0.0-22.0-1.0,SS1630643047343,NA,NA,trial,NA,40,500,997.8999999761581,images/stimuli/complex_02_A_a.gif,images/stimuli/complex_04_A_a.gif,self_paced,770,NA,7,complex_dissimilar,images/stimuli/complex_04_A_a.gif,NA,NA,NA,NA,NA,NA
null,NA,html-keyboard-response,101,145155,0.0-22.0-0.1,SS1630643047343,NA,NA,NA,NA,null,NA,NA,NA,NA,NA,NA,"<p><img src= images/blank.png width =""600"" height = ""600"" style=""position:fixed;top:50%; left:50%; transform: translate(-50%, -50%); border:5px solid black"">",NA,NA,NA,NA,NA,NA,NA,NA,NA
541.8000000715256,NA,stimuli-presentation,102,146206,0.0-22.0-1.1,SS1630643047343,NA,NA,trial,NA,40,500,1041.8000000715256,images/stimuli/complex_02_A_a.gif,images/stimuli/complex_04_A_a.gif,self_paced,770,NA,7,complex_dissimilar,images/stimuli/complex_04_A_a.gif,NA,NA,NA,NA,NA,NA
null,NA,html-keyboard-response,103,147049,0.0-22.0-0.2,SS1630643047343,NA,NA,NA,NA,null,NA,NA,NA,NA,NA,NA,"<p><img src= images/blank.png width =""600"" height = ""600"" style=""position:fixed;top:50%; left:50%; transform: translate(-50%, -50%); border:5px solid black"">",NA,NA,NA,NA,NA,NA,NA,NA,NA
629,NA,stimuli-presentation,104,148186,0.0-22.0-1.2,SS1630643047343,NA,NA,trial,NA,40,500,1129,images/stimuli/complex_02_A_a.gif,images/stimuli/complex_04_A_a.gif,self_paced,770,NA,7,complex_dissimilar,images/stimuli/complex_04_A_a.gif,NA,NA,NA,NA,NA,NA
null,NA,html-keyboard-response,105,149056,0.0-22.0-0.3,SS1630643047343,NA,NA,NA,NA,null,NA,NA,NA,NA,NA,NA,"<p><img src= images/blank.png width =""600"" height = ""600"" style=""position:fixed;top:50%; left:50%; transform: translate(-50%, -50%); border:5px solid black"">",NA,NA,NA,NA,NA,NA,NA,NA,NA
195.39999997615814,NA,stimuli-presentation,106,149760,0.0-22.0-1.3,SS1630643047343,NA,NA,trial,NA,40,500,695.3999999761581,images/stimuli/complex_02_A_a.gif,images/stimuli/complex_04_A_a.gif,self_paced,770,NA,7,complex_dissimilar,images/stimuli/complex_04_A_a.gif,NA,NA,NA,NA,NA,NA
null,NA,html-keyboard-response,107,150662,0.0-22.0-0.4,SS1630643047343,NA,NA,NA,NA,null,NA,NA,NA,NA,NA,NA,"<p><img src= images/blank.png width =""600"" height = ""600"" style=""position:fixed;top:50%; left:50%; transform: translate(-50%, -50%); border:5px solid black"">",NA,NA,NA,NA,NA,NA,NA,NA,NA
188.60000002384186,NA,stimuli-presentation,108,151360,0.0-22.0-1.4,SS1630643047343,NA,NA,trial,NA,40,500,688.6000000238419,images/stimuli/complex_02_A_a.gif,images/stimuli/complex_04_A_a.gif,self_paced,770,NA,7,complex_dissimilar,images/stimuli/complex_04_A_a.gif,NA,NA,NA,NA,NA,NA
null,NA,html-keyboard-response,109,152341,0.0-22.0-0.5,SS1630643047343,NA,NA,NA,NA,null,NA,NA,NA,NA,NA,NA,"<p><img src= images/blank.png width =""600"" height = ""600"" style=""position:fixed;top:50%; left:50%; transform: translate(-50%, -50%); border:5px solid black"">",NA,NA,NA,NA,NA,NA,NA,NA,NA
188.79999995231628,NA,stimuli-presentation,110,153037,0.0-22.0-1.5,SS1630643047343,NA,NA,trial,NA,40,500,688.7999999523163,images/stimuli/complex_02_A_a.gif,images/stimuli/complex_04_A_a.gif,self_paced,770,NA,7,complex_dissimilar,images/stimuli/complex_02_A_a.gif,NA,NA,NA,NA,NA,NA
2249.7000000476837,"{""Q0"":""Yes""}",survey-multi-choice,111,155290,0.0-23.0,SS1630643047343,NA,NA,memory_test,NA,NA,NA,NA,NA,NA,NA,NA,NA,NA,NA,NA,[0],images/stimuli/complex_04_A_a.gif,7,NA,NA,NA
1299.7000000476837,NA,instructions,112,156594,0.0-24.0,SS1630643047343,NA,"[{""page_index"":0,""viewing_time"":1298.8000000715256}]",instructions,NA,NA,NA,NA,NA,NA,NA,NA,NA,NA,NA,NA,NA,NA,NA,NA,NA,NA
2064.7999999523163,"{""Q0"":4}",survey-likert,113,158665,0.0-25.0,SS1630643047343,NA,NA,similarity_question,NA,NA,NA,NA,NA,NA,NA,NA,NA,NA,NA,NA,[0],NA,NA,images/stimuli/complex_06_A_a.gif,images/stimuli/complex_13_A_a.gif,NA
1035,"{""Q0"":2}",survey-likert,114,159706,0.0-26.0,SS1630643047343,NA,NA,similarity_question,NA,NA,NA,NA,NA,NA,NA,NA,NA,NA,NA,NA,[0],NA,NA,images/stimuli/complex_17_A_a.gif,images/stimuli/complex_19_A_a.gif,NA
1411.8999999761581,"{""Q0"":4}",survey-likert,115,161123,0.0-27.0,SS1630643047343,NA,NA,similarity_question,NA,NA,NA,NA,NA,NA,NA,NA,NA,NA,NA,NA,[0],NA,NA,images/stimuli/simple_08_A_a.gif,images/stimuli/simple_20_A_a.gif,NA
1468.8999999761581,"{""Q0"":1}",survey-likert,116,162599,0.0-28.0,SS1630643047343,NA,NA,similarity_question,NA,NA,NA,NA,NA,NA,NA,NA,NA,NA,NA,NA,[0],NA,NA,images/stimuli/complex_12_A_a.gif,images/stimuli/complex_10_A_a.gif,NA
940.7000000476837,"{""Q0"":2}",survey-likert,117,163543,0.0-29.0,SS1630643047343,NA,NA,similarity_question,NA,NA,NA,NA,NA,NA,NA,NA,NA,NA,NA,NA,[0],NA,NA,images/stimuli/complex_04_A_a.gif,images/stimuli/complex_02_A_a.gif,NA
1567.8999999761581,"{""Q0"":1}",survey-likert,118,165115,0.0-30.0,SS1630643047343,NA,NA,similarity_question,NA,NA,NA,NA,NA,NA,NA,NA,NA,NA,NA,NA,[0],NA,NA,images/stimuli/simple_19_A_a.gif,images/stimuli/simple_05_A_a.gif,NA
1076.4000000953674,"{""Q0"":2}",survey-likert,119,166200,0.0-31.0,SS1630643047343,NA,NA,similarity_question,NA,NA,NA,NA,NA,NA,NA,NA,NA,NA,NA,NA,[0],NA,NA,images/stimuli/simple_11_A_a.gif,images/stimuli/simple_14_A_a.gif,NA
1394.8999999761581,"{""Q0"":4}",survey-likert,120,167601,0.0-32.0,SS1630643047343,NA,NA,similarity_question,NA,NA,NA,NA,NA,NA,NA,NA,NA,NA,NA,NA,[0],NA,NA,images/stimuli/simple_07_A_a.gif,images/stimuli/simple_09_A_a.gif,NA
969.5,NA,instructions,121,168575,0.0-33.0,SS1630643047343,NA,"[{""page_index"":0,""viewing_time"":969}]",instructions,NA,NA,NA,NA,NA,NA,NA,NA,NA,NA,NA,NA,NA,NA,NA,NA,NA,NA
1799.9000000953674,"{""Q0"":4}",survey-likert,122,170379,0.0-34.0,SS1630643047343,NA,NA,NA,NA,NA,NA,NA,NA,NA,NA,NA,images/stimuli/simple_05_A_a.gif,NA,NA,NA,[0],NA,NA,NA,NA,NA
1448.3000000715256,"{""Q0"":2}",survey-likert,123,171835,0.0-35.0,SS1630643047343,NA,NA,NA,NA,NA,NA,NA,NA,NA,NA,NA,images/stimuli/complex_13_A_a.gif,NA,NA,NA,[0],NA,NA,NA,NA,NA
1416.7000000476837,"{""Q0"":5}",survey-likert,124,173258,0.0-36.0,SS1630643047343,NA,NA,NA,NA,NA,NA,NA,NA,NA,NA,NA,images/stimuli/simple_08_A_a.gif,NA,NA,NA,[0],NA,NA,NA,NA,NA
1697.8999999761581,"{""Q0"":6}",survey-likert,125,174962,0.0-37.0,SS1630643047343,NA,NA,NA,NA,NA,NA,NA,NA,NA,NA,NA,images/stimuli/complex_12_A_a.gif,NA,NA,NA,[0],NA,NA,NA,NA,NA
2115.2000000476837,"{""Q0"":2}",survey-likert,126,177083,0.0-38.0,SS1630643047343,NA,NA,NA,NA,NA,NA,NA,NA,NA,NA,NA,images/stimuli/simple_09_A_a.gif,NA,NA,NA,[0],NA,NA,NA,NA,NA
2456.6999999284744,"{""Q0"":1}",survey-likert,127,179546,0.0-39.0,SS1630643047343,NA,NA,NA,NA,NA,NA,NA,NA,NA,NA,NA,images/stimuli/complex_19_A_a.gif,NA,NA,NA,[0],NA,NA,NA,NA,NA
1401.8000000715256,"{""Q0"":4}",survey-likert,128,180953,0.0-40.0,SS1630643047343,NA,NA,NA,NA,NA,NA,NA,NA,NA,NA,NA,images/stimuli/simple_14_A_a.gif,NA,NA,NA,[0],NA,NA,NA,NA,NA
1502.8999999761581,"{""Q0"":5}",survey-likert,129,182463,0.0-41.0,SS1630643047343,NA,NA,NA,NA,NA,NA,NA,NA,NA,NA,NA,images/stimuli/complex_04_A_a.gif,NA,NA,NA,[0],NA,NA,NA,NA,NA
NA,NA,fullscreen,130,183468,0.0-42.0,SS1630643047343,TRUE,NA,NA,NA,NA,NA,NA,NA,NA,NA,NA,NA,NA,NA,NA,NA,NA,NA,NA,NA,NA
1153.1000000238419,NA,instructions,131,184626,0.0-43.0,SS1630643047343,NA,"[{""page_index"":0,""viewing_time"":1152.3999999761581}]",instructions,NA,NA,NA,NA,NA,NA,NA,NA,NA,NA,NA,NA,NA,NA,NA,NA,NA,NA
3864,"{""age"":""20""}",demog-age,132,188498,0.0-44.0,SS1630643047343,NA,NA,NA,NA,NA,NA,NA,NA,NA,NA,NA,NA,NA,NA,NA,NA,NA,NA,NA,NA,NA
1565.5,"{""ethnicity"":[""Hispanic or Latino""]}",demog-ethnic-US,133,190074,0.0-45.0,SS1630643047343,NA,NA,NA,NA,NA,NA,NA,NA,NA,NA,NA,NA,NA,NA,NA,[0],NA,NA,NA,NA,NA
2512.100000023842,"{""gender"":""Non-binary"",""education"":""High school diploma""}",demog-gender-and-education,134,192593,0.0-46.0,SS1630643047343,NA,NA,NA,NA,NA,NA,NA,NA,NA,NA,NA,NA,NA,NA,NA,"[0,1]",NA,NA,NA,NA,NA
1434.5,"{""Q0"":""2""}",survey-text,135,194034,0.0-47.0,SS1630643047343,NA,NA,feedback,NA,NA,NA,NA,NA,NA,NA,NA,NA,NA,NA,NA,NA,NA,NA,NA,NA,NA
1338.2000000476837,NA,instructions,136,195377,0.0-48.0,SS1630643047343,NA,"[{""page_index"":0,""viewing_time"":1337.7000000476837}]",instructions,NA,NA,NA,NA,NA,NA,NA,NA,NA,NA,NA,NA,NA,NA,NA,NA,NA,NA
3959.3000000715256,"{""p_id"":""5""}",survey-text,0,3964,0.0-0.0,SS1630643244267,NA,NA,NA,NA,NA,NA,NA,NA,NA,NA,NA,NA,NA,NA,NA,NA,NA,NA,NA,NA,NA
NA,NA,fullscreen,1,5643,0.0-1.0,SS1630643244267,TRUE,NA,NA,NA,NA,NA,NA,NA,NA,NA,NA,NA,NA,NA,NA,NA,NA,NA,NA,NA,NA
1924.2999999523163,NA,instructions,2,7570,0.0-2.0,SS1630643244267,NA,"[{""page_index"":0,""viewing_time"":1923.7999999523163}]",NA,NA,NA,NA,NA,NA,NA,NA,NA,NA,NA,NA,NA,NA,NA,NA,NA,NA,NA
1490.1000000238419,NA,instructions,3,11066,0.0-3.0,SS1630643244267,NA,"[{""page_index"":0,""viewing_time"":833.5},{""page_index"":1,""viewing_time"":656.1999999284744}]",instructions,NA,NA,NA,NA,NA,NA,NA,NA,NA,NA,NA,NA,NA,NA,NA,NA,NA,NA
1018.1000000238419,NA,stimuli-presentation,4,12588,0.0-4.0,SS1630643244267,NA,NA,NA,NA,40,500,1518.1000000238419,null,null,self_paced,0,NA,NA,NA,NA,NA,NA,NA,NA,NA,NA
300.60000002384186,NA,stimuli-presentation,5,13390,0.0-5.0,SS1630643244267,NA,NA,NA,NA,40,500,800.6000000238419,null,null,self_paced,0,NA,NA,NA,NA,NA,NA,NA,NA,NA,NA
1481.0999999046326,NA,instructions,6,14873,0.0-6.0,SS1630643244267,NA,"[{""page_index"":0,""viewing_time"":1480.7999999523163}]",instructions,NA,NA,NA,NA,NA,NA,NA,NA,NA,NA,NA,NA,NA,NA,NA,NA,NA,NA
2719.9000000953674,NA,instructions,7,17595,0.0-7.0,SS1630643244267,NA,"[{""page_index"":0,""viewing_time"":439.40000009536743},{""page_index"":1,""viewing_time"":592.5999999046326},{""page_index"":2,""viewing_time"":559.6000000238419},{""page_index"":3,""viewing_time"":656.2000000476837},{""page_index"":4,""viewing_time"":471.60000002384186}]",instructions,NA,NA,NA,NA,NA,NA,NA,NA,NA,NA,NA,NA,NA,NA,NA,NA,NA,NA
null,NA,html-keyboard-response,8,18757,0.0-8.0-0.0,SS1630643244267,NA,NA,NA,NA,null,NA,NA,NA,NA,NA,NA,"<p><img src= images/blank.png width =""600"" height = ""600"" style=""position:fixed;top:50%; left:50%; transform: translate(-50%, -50%); border:5px solid black"">",NA,NA,NA,NA,NA,NA,NA,NA,NA
247.39999997615814,NA,stimuli-presentation,9,19511,0.0-8.0-1.0,SS1630643244267,NA,NA,trial,NA,40,500,747.3999999761581,images/stimuli/complex_19_A_a.gif,images/stimuli/complex_02_A_a.gif,self_paced,250,NA,0,complex_dissimilar,images/stimuli/complex_02_A_a.gif,NA,NA,NA,NA,NA,NA
null,NA,html-keyboard-response,10,20763,0.0-8.0-0.1,SS1630643244267,NA,NA,NA,NA,null,NA,NA,NA,NA,NA,NA,"<p><img src= images/blank.png width =""600"" height = ""600"" style=""position:fixed;top:50%; left:50%; transform: translate(-50%, -50%); border:5px solid black"">",NA,NA,NA,NA,NA,NA,NA,NA,NA
410.10000002384186,NA,stimuli-presentation,11,21677,0.0-8.0-1.1,SS1630643244267,NA,NA,trial,NA,40,500,910.1000000238419,images/stimuli/complex_19_A_a.gif,images/stimuli/complex_02_A_a.gif,self_paced,250,NA,0,complex_dissimilar,images/stimuli/complex_02_A_a.gif,NA,NA,NA,NA,NA,NA
null,NA,html-keyboard-response,12,22616,0.0-8.0-0.2,SS1630643244267,NA,NA,NA,NA,null,NA,NA,NA,NA,NA,NA,"<p><img src= images/blank.png width =""600"" height = ""600"" style=""position:fixed;top:50%; left:50%; transform: translate(-50%, -50%); border:5px solid black"">",NA,NA,NA,NA,NA,NA,NA,NA,NA
205.29999995231628,NA,stimuli-presentation,13,23325,0.0-8.0-1.2,SS1630643244267,NA,NA,trial,NA,40,500,705.2999999523163,images/stimuli/complex_19_A_a.gif,images/stimuli/complex_02_A_a.gif,self_paced,250,NA,0,complex_dissimilar,images/stimuli/complex_02_A_a.gif,NA,NA,NA,NA,NA,NA
null,NA,html-keyboard-response,14,24400,0.0-8.0-0.3,SS1630643244267,NA,NA,NA,NA,null,NA,NA,NA,NA,NA,NA,"<p><img src= images/blank.png width =""600"" height = ""600"" style=""position:fixed;top:50%; left:50%; transform: translate(-50%, -50%); border:5px solid black"">",NA,NA,NA,NA,NA,NA,NA,NA,NA
53.40000009536743,NA,stimuli-presentation,15,24957,0.0-8.0-1.3,SS1630643244267,NA,NA,trial,NA,40,500,553.4000000953674,images/stimuli/complex_19_A_a.gif,images/stimuli/complex_02_A_a.gif,self_paced,250,NA,0,complex_dissimilar,images/stimuli/complex_02_A_a.gif,NA,NA,NA,NA,NA,NA
null,NA,html-keyboard-response,16,26233,0.0-8.0-0.4,SS1630643244267,NA,NA,NA,NA,null,NA,NA,NA,NA,NA,NA,"<p><img src= images/blank.png width =""600"" height = ""600"" style=""position:fixed;top:50%; left:50%; transform: translate(-50%, -50%); border:5px solid black"">",NA,NA,NA,NA,NA,NA,NA,NA,NA
80.89999997615814,NA,stimuli-presentation,17,26820,0.0-8.0-1.4,SS1630643244267,NA,NA,trial,NA,40,500,580.8999999761581,images/stimuli/complex_19_A_a.gif,images/stimuli/complex_02_A_a.gif,self_paced,250,NA,0,complex_dissimilar,images/stimuli/complex_02_A_a.gif,NA,NA,NA,NA,NA,NA
null,NA,html-keyboard-response,18,27707,0.0-8.0-0.5,SS1630643244267,NA,NA,NA,NA,null,NA,NA,NA,NA,NA,NA,"<p><img src= images/blank.png width =""600"" height = ""600"" style=""position:fixed;top:50%; left:50%; transform: translate(-50%, -50%); border:5px solid black"">",NA,NA,NA,NA,NA,NA,NA,NA,NA
51.799999952316284,NA,stimuli-presentation,19,28263,0.0-8.0-1.5,SS1630643244267,NA,NA,trial,NA,40,500,551.7999999523163,images/stimuli/complex_19_A_a.gif,images/stimuli/complex_02_A_a.gif,self_paced,250,NA,0,complex_dissimilar,images/stimuli/complex_02_A_a.gif,NA,NA,NA,NA,NA,NA
5250,"{""Q0"":""16""}",survey-multi-choice,20,33515,0.0-9.0,SS1630643244267,NA,NA,math_question,NA,NA,NA,NA,NA,NA,NA,NA,NA,NA,NA,NA,[0],NA,NA,NA,NA,16
null,NA,html-keyboard-response,21,34779,0.0-10.0-0.0,SS1630643244267,NA,NA,NA,NA,null,NA,NA,NA,NA,NA,NA,"<p><img src= images/blank.png width =""600"" height = ""600"" style=""position:fixed;top:50%; left:50%; transform: translate(-50%, -50%); border:5px solid black"">",NA,NA,NA,NA,NA,NA,NA,NA,NA
160.30000007152557,NA,stimuli-presentation,22,35445,0.0-10.0-1.0,SS1630643244267,NA,NA,trial,NA,40,500,660.3000000715256,images/stimuli/simple_03_A_a.gif,images/stimuli/simple_10_A_a.gif,self_paced,540,NA,1,simple_dissimilar,images/stimuli/simple_10_A_a.gif,NA,NA,NA,NA,NA,NA
null,NA,html-keyboard-response,23,36693,0.0-10.0-0.1,SS1630643244267,NA,NA,NA,NA,null,NA,NA,NA,NA,NA,NA,"<p><img src= images/blank.png width =""600"" height = ""600"" style=""position:fixed;top:50%; left:50%; transform: translate(-50%, -50%); border:5px solid black"">",NA,NA,NA,NA,NA,NA,NA,NA,NA
1446,NA,stimuli-presentation,24,38644,0.0-10.0-1.1,SS1630643244267,NA,NA,trial,NA,40,500,1946,images/stimuli/simple_03_A_a.gif,images/stimuli/simple_10_A_a.gif,self_paced,540,NA,1,simple_dissimilar,images/stimuli/simple_03_A_a.gif,NA,NA,NA,NA,NA,NA
null,NA,html-keyboard-response,25,39684,0.0-10.0-0.2,SS1630643244267,NA,NA,NA,NA,null,NA,NA,NA,NA,NA,NA,"<p><img src= images/blank.png width =""600"" height = ""600"" style=""position:fixed;top:50%; left:50%; transform: translate(-50%, -50%); border:5px solid black"">",NA,NA,NA,NA,NA,NA,NA,NA,NA
151.80000007152557,NA,stimuli-presentation,26,40341,0.0-10.0-1.2,SS1630643244267,NA,NA,trial,NA,40,500,651.8000000715256,images/stimuli/simple_03_A_a.gif,images/stimuli/simple_10_A_a.gif,self_paced,540,NA,1,simple_dissimilar,images/stimuli/simple_10_A_a.gif,NA,NA,NA,NA,NA,NA
null,NA,html-keyboard-response,27,41339,0.0-10.0-0.3,SS1630643244267,NA,NA,NA,NA,null,NA,NA,NA,NA,NA,NA,"<p><img src= images/blank.png width =""600"" height = ""600"" style=""position:fixed;top:50%; left:50%; transform: translate(-50%, -50%); border:5px solid black"">",NA,NA,NA,NA,NA,NA,NA,NA,NA
83.29999995231628,NA,stimuli-presentation,28,41931,0.0-10.0-1.3,SS1630643244267,NA,NA,trial,NA,40,500,583.2999999523163,images/stimuli/simple_03_A_a.gif,images/stimuli/simple_10_A_a.gif,self_paced,540,NA,1,simple_dissimilar,images/stimuli/simple_10_A_a.gif,NA,NA,NA,NA,NA,NA
null,NA,html-keyboard-response,29,43057,0.0-10.0-0.4,SS1630643244267,NA,NA,NA,NA,null,NA,NA,NA,NA,NA,NA,"<p><img src= images/blank.png width =""600"" height = ""600"" style=""position:fixed;top:50%; left:50%; transform: translate(-50%, -50%); border:5px solid black"">",NA,NA,NA,NA,NA,NA,NA,NA,NA
2204.399999976158,NA,stimuli-presentation,30,45766,0.0-10.0-1.4,SS1630643244267,NA,NA,trial,NA,40,500,2704.399999976158,images/stimuli/simple_03_A_a.gif,images/stimuli/simple_10_A_a.gif,self_paced,540,NA,1,simple_dissimilar,images/stimuli/simple_10_A_a.gif,NA,NA,NA,NA,NA,NA
null,NA,html-keyboard-response,31,46616,0.0-10.0-0.5,SS1630643244267,NA,NA,NA,NA,null,NA,NA,NA,NA,NA,NA,"<p><img src= images/blank.png width =""600"" height = ""600"" style=""position:fixed;top:50%; left:50%; transform: translate(-50%, -50%); border:5px solid black"">",NA,NA,NA,NA,NA,NA,NA,NA,NA
898.1999999284744,NA,stimuli-presentation,32,48019,0.0-10.0-1.5,SS1630643244267,NA,NA,trial,NA,40,500,1398.1999999284744,images/stimuli/simple_03_A_a.gif,images/stimuli/simple_10_A_a.gif,self_paced,540,NA,1,simple_dissimilar,images/stimuli/simple_10_A_a.gif,NA,NA,NA,NA,NA,NA
2334.3000000715256,"{""Q0"":""12""}",survey-multi-choice,33,50356,0.0-11.0,SS1630643244267,NA,NA,math_question,NA,NA,NA,NA,NA,NA,NA,NA,NA,NA,NA,NA,[0],NA,NA,NA,NA,12
null,NA,html-keyboard-response,34,51355,0.0-12.0-0.0,SS1630643244267,NA,NA,NA,NA,null,NA,NA,NA,NA,NA,NA,"<p><img src= images/blank.png width =""600"" height = ""600"" style=""position:fixed;top:50%; left:50%; transform: translate(-50%, -50%); border:5px solid black"">",NA,NA,NA,NA,NA,NA,NA,NA,NA
65.20000004768372,NA,stimuli-presentation,35,51925,0.0-12.0-1.0,SS1630643244267,NA,NA,trial,NA,40,500,565.2000000476837,images/stimuli/complex_04_A_a.gif,images/stimuli/complex_09_A_a.gif,self_paced,290,NA,2,complex_dissimilar,images/stimuli/complex_09_A_a.gif,NA,NA,NA,NA,NA,NA
null,NA,html-keyboard-response,36,53141,0.0-12.0-0.1,SS1630643244267,NA,NA,NA,NA,null,NA,NA,NA,NA,NA,NA,"<p><img src= images/blank.png width =""600"" height = ""600"" style=""position:fixed;top:50%; left:50%; transform: translate(-50%, -50%); border:5px solid black"">",NA,NA,NA,NA,NA,NA,NA,NA,NA
8.099999904632568,NA,stimuli-presentation,37,53657,0.0-12.0-1.1,SS1630643244267,NA,NA,trial,NA,40,500,508.09999990463257,images/stimuli/complex_04_A_a.gif,images/stimuli/complex_09_A_a.gif,self_paced,290,NA,2,complex_dissimilar,images/stimuli/complex_09_A_a.gif,NA,NA,NA,NA,NA,NA
null,NA,html-keyboard-response,38,54576,0.0-12.0-0.2,SS1630643244267,NA,NA,NA,NA,null,NA,NA,NA,NA,NA,NA,"<p><img src= images/blank.png width =""600"" height = ""600"" style=""position:fixed;top:50%; left:50%; transform: translate(-50%, -50%); border:5px solid black"">",NA,NA,NA,NA,NA,NA,NA,NA,NA
292.2999999523163,NA,stimuli-presentation,39,55370,0.0-12.0-1.2,SS1630643244267,NA,NA,trial,NA,40,500,792.2999999523163,images/stimuli/complex_04_A_a.gif,images/stimuli/complex_09_A_a.gif,self_paced,290,NA,2,complex_dissimilar,images/stimuli/complex_09_A_a.gif,NA,NA,NA,NA,NA,NA
null,NA,html-keyboard-response,40,56478,0.0-12.0-0.3,SS1630643244267,NA,NA,NA,NA,null,NA,NA,NA,NA,NA,NA,"<p><img src= images/blank.png width =""600"" height = ""600"" style=""position:fixed;top:50%; left:50%; transform: translate(-50%, -50%); border:5px solid black"">",NA,NA,NA,NA,NA,NA,NA,NA,NA
141.39999997615814,NA,stimuli-presentation,41,57124,0.0-12.0-1.3,SS1630643244267,NA,NA,trial,NA,40,500,641.3999999761581,images/stimuli/complex_04_A_a.gif,images/stimuli/complex_09_A_a.gif,self_paced,290,NA,2,complex_dissimilar,images/stimuli/complex_09_A_a.gif,NA,NA,NA,NA,NA,NA
null,NA,html-keyboard-response,42,58332,0.0-12.0-0.4,SS1630643244267,NA,NA,NA,NA,null,NA,NA,NA,NA,NA,NA,"<p><img src= images/blank.png width =""600"" height = ""600"" style=""position:fixed;top:50%; left:50%; transform: translate(-50%, -50%); border:5px solid black"">",NA,NA,NA,NA,NA,NA,NA,NA,NA
191.29999995231628,NA,stimuli-presentation,43,59028,0.0-12.0-1.4,SS1630643244267,NA,NA,trial,NA,40,500,691.2999999523163,images/stimuli/complex_04_A_a.gif,images/stimuli/complex_09_A_a.gif,self_paced,290,NA,2,complex_dissimilar,images/stimuli/complex_09_A_a.gif,NA,NA,NA,NA,NA,NA
null,NA,html-keyboard-response,44,60186,0.0-12.0-0.5,SS1630643244267,NA,NA,NA,NA,null,NA,NA,NA,NA,NA,NA,"<p><img src= images/blank.png width =""600"" height = ""600"" style=""position:fixed;top:50%; left:50%; transform: translate(-50%, -50%); border:5px solid black"">",NA,NA,NA,NA,NA,NA,NA,NA,NA
360.10000002384186,NA,stimuli-presentation,45,61051,0.0-12.0-1.5,SS1630643244267,NA,NA,trial,NA,40,500,860.1000000238419,images/stimuli/complex_04_A_a.gif,images/stimuli/complex_09_A_a.gif,self_paced,290,NA,2,complex_dissimilar,images/stimuli/complex_04_A_a.gif,NA,NA,NA,NA,NA,NA
2118.100000023842,"{""Q0"":""6""}",survey-multi-choice,46,63171,0.0-13.0,SS1630643244267,NA,NA,math_question,NA,NA,NA,NA,NA,NA,NA,NA,NA,NA,NA,NA,[0],NA,NA,NA,NA,6
null,NA,html-keyboard-response,47,64295,0.0-14.0-0.0,SS1630643244267,NA,NA,NA,NA,null,NA,NA,NA,NA,NA,NA,"<p><img src= images/blank.png width =""600"" height = ""600"" style=""position:fixed;top:50%; left:50%; transform: translate(-50%, -50%); border:5px solid black"">",NA,NA,NA,NA,NA,NA,NA,NA,NA
142.30000007152557,NA,stimuli-presentation,48,64942,0.0-14.0-1.0,SS1630643244267,NA,NA,trial,NA,40,500,642.3000000715256,images/stimuli/simple_09_A_a.gif,images/stimuli/simple_06_A_a.gif,self_paced,770,NA,3,simple_dissimilar,images/stimuli/simple_06_A_a.gif,NA,NA,NA,NA,NA,NA
null,NA,html-keyboard-response,49,65762,0.0-14.0-0.1,SS1630643244267,NA,NA,NA,NA,null,NA,NA,NA,NA,NA,NA,"<p><img src= images/blank.png width =""600"" height = ""600"" style=""position:fixed;top:50%; left:50%; transform: translate(-50%, -50%); border:5px solid black"">",NA,NA,NA,NA,NA,NA,NA,NA,NA
247.19999992847443,NA,stimuli-presentation,50,66515,0.0-14.0-1.1,SS1630643244267,NA,NA,trial,NA,40,500,747.1999999284744,images/stimuli/simple_09_A_a.gif,images/stimuli/simple_06_A_a.gif,self_paced,770,NA,3,simple_dissimilar,images/stimuli/simple_06_A_a.gif,NA,NA,NA,NA,NA,NA
null,NA,html-keyboard-response,51,67534,0.0-14.0-0.2,SS1630643244267,NA,NA,NA,NA,null,NA,NA,NA,NA,NA,NA,"<p><img src= images/blank.png width =""600"" height = ""600"" style=""position:fixed;top:50%; left:50%; transform: translate(-50%, -50%); border:5px solid black"">",NA,NA,NA,NA,NA,NA,NA,NA,NA
432.3000000715256,NA,stimuli-presentation,52,68471,0.0-14.0-1.2,SS1630643244267,NA,NA,trial,NA,40,500,932.3000000715256,images/stimuli/simple_09_A_a.gif,images/stimuli/simple_06_A_a.gif,self_paced,770,NA,3,simple_dissimilar,images/stimuli/simple_06_A_a.gif,NA,NA,NA,NA,NA,NA
null,NA,html-keyboard-response,53,69724,0.0-14.0-0.3,SS1630643244267,NA,NA,NA,NA,null,NA,NA,NA,NA,NA,NA,"<p><img src= images/blank.png width =""600"" height = ""600"" style=""position:fixed;top:50%; left:50%; transform: translate(-50%, -50%); border:5px solid black"">",NA,NA,NA,NA,NA,NA,NA,NA,NA
147.10000002384186,NA,stimuli-presentation,54,70379,0.0-14.0-1.3,SS1630643244267,NA,NA,trial,NA,40,500,647.1000000238419,images/stimuli/simple_09_A_a.gif,images/stimuli/simple_06_A_a.gif,self_paced,770,NA,3,simple_dissimilar,images/stimuli/simple_06_A_a.gif,NA,NA,NA,NA,NA,NA
null,NA,html-keyboard-response,55,71589,0.0-14.0-0.4,SS1630643244267,NA,NA,NA,NA,null,NA,NA,NA,NA,NA,NA,"<p><img src= images/blank.png width =""600"" height = ""600"" style=""position:fixed;top:50%; left:50%; transform: translate(-50%, -50%); border:5px solid black"">",NA,NA,NA,NA,NA,NA,NA,NA,NA
341,NA,stimuli-presentation,56,72436,0.0-14.0-1.4,SS1630643244267,NA,NA,trial,NA,40,500,841,images/stimuli/simple_09_A_a.gif,images/stimuli/simple_06_A_a.gif,self_paced,770,NA,3,simple_dissimilar,images/stimuli/simple_06_A_a.gif,NA,NA,NA,NA,NA,NA
null,NA,html-keyboard-response,57,73543,0.0-14.0-0.5,SS1630643244267,NA,NA,NA,NA,null,NA,NA,NA,NA,NA,NA,"<p><img src= images/blank.png width =""600"" height = ""600"" style=""position:fixed;top:50%; left:50%; transform: translate(-50%, -50%); border:5px solid black"">",NA,NA,NA,NA,NA,NA,NA,NA,NA
139.70000004768372,NA,stimuli-presentation,58,74192,0.0-14.0-1.5,SS1630643244267,NA,NA,trial,NA,40,500,639.7000000476837,images/stimuli/simple_09_A_a.gif,images/stimuli/simple_06_A_a.gif,self_paced,770,NA,3,simple_dissimilar,images/stimuli/simple_06_A_a.gif,NA,NA,NA,NA,NA,NA
30385.5,"{""Q0"":""10""}",survey-multi-choice,59,104580,0.0-15.0,SS1630643244267,NA,NA,math_question,NA,NA,NA,NA,NA,NA,NA,NA,NA,NA,NA,NA,[0],NA,NA,NA,NA,10
null,NA,html-keyboard-response,60,105666,0.0-16.0-0.0,SS1630643244267,NA,NA,NA,NA,null,NA,NA,NA,NA,NA,NA,"<p><img src= images/blank.png width =""600"" height = ""600"" style=""position:fixed;top:50%; left:50%; transform: translate(-50%, -50%); border:5px solid black"">",NA,NA,NA,NA,NA,NA,NA,NA,NA
1031.8000000715256,NA,stimuli-presentation,61,107204,0.0-16.0-1.0,SS1630643244267,NA,NA,trial,NA,40,500,1531.8000000715256,images/stimuli/complex_14_A_a.gif,images/stimuli/complex_06_A_a.gif,self_paced,390,NA,4,complex_dissimilar,images/stimuli/complex_06_A_a.gif,NA,NA,NA,NA,NA,NA
null,NA,html-keyboard-response,62,108167,0.0-16.0-0.1,SS1630643244267,NA,NA,NA,NA,null,NA,NA,NA,NA,NA,NA,"<p><img src= images/blank.png width =""600"" height = ""600"" style=""position:fixed;top:50%; left:50%; transform: translate(-50%, -50%); border:5px solid black"">",NA,NA,NA,NA,NA,NA,NA,NA,NA
319.7999999523163,NA,stimuli-presentation,63,108995,0.0-16.0-1.1,SS1630643244267,NA,NA,trial,NA,40,500,819.7999999523163,images/stimuli/complex_14_A_a.gif,images/stimuli/complex_06_A_a.gif,self_paced,390,NA,4,complex_dissimilar,images/stimuli/complex_06_A_a.gif,NA,NA,NA,NA,NA,NA
null,NA,html-keyboard-response,64,110199,0.0-16.0-0.2,SS1630643244267,NA,NA,NA,NA,null,NA,NA,NA,NA,NA,NA,"<p><img src= images/blank.png width =""600"" height = ""600"" style=""position:fixed;top:50%; left:50%; transform: translate(-50%, -50%); border:5px solid black"">",NA,NA,NA,NA,NA,NA,NA,NA,NA
179.89999997615814,NA,stimuli-presentation,65,110886,0.0-16.0-1.2,SS1630643244267,NA,NA,trial,NA,40,500,679.8999999761581,images/stimuli/complex_14_A_a.gif,images/stimuli/complex_06_A_a.gif,self_paced,390,NA,4,complex_dissimilar,images/stimuli/complex_06_A_a.gif,NA,NA,NA,NA,NA,NA
null,NA,html-keyboard-response,66,111922,0.0-16.0-0.3,SS1630643244267,NA,NA,NA,NA,null,NA,NA,NA,NA,NA,NA,"<p><img src= images/blank.png width =""600"" height = ""600"" style=""position:fixed;top:50%; left:50%; transform: translate(-50%, -50%); border:5px solid black"">",NA,NA,NA,NA,NA,NA,NA,NA,NA
1103.5999999046326,NA,stimuli-presentation,67,113533,0.0-16.0-1.3,SS1630643244267,NA,NA,trial,NA,40,500,1603.5999999046326,images/stimuli/complex_14_A_a.gif,images/stimuli/complex_06_A_a.gif,self_paced,390,NA,4,complex_dissimilar,images/stimuli/complex_14_A_a.gif,NA,NA,NA,NA,NA,NA
null,NA,html-keyboard-response,68,114642,0.0-16.0-0.4,SS1630643244267,NA,NA,NA,NA,null,NA,NA,NA,NA,NA,NA,"<p><img src= images/blank.png width =""600"" height = ""600"" style=""position:fixed;top:50%; left:50%; transform: translate(-50%, -50%); border:5px solid black"">",NA,NA,NA,NA,NA,NA,NA,NA,NA
367.39999997615814,NA,stimuli-presentation,69,115517,0.0-16.0-1.4,SS1630643244267,NA,NA,trial,NA,40,500,867.3999999761581,images/stimuli/complex_14_A_a.gif,images/stimuli/complex_06_A_a.gif,self_paced,390,NA,4,complex_dissimilar,images/stimuli/complex_06_A_a.gif,NA,NA,NA,NA,NA,NA
null,NA,html-keyboard-response,70,116483,0.0-16.0-0.5,SS1630643244267,NA,NA,NA,NA,null,NA,NA,NA,NA,NA,NA,"<p><img src= images/blank.png width =""600"" height = ""600"" style=""position:fixed;top:50%; left:50%; transform: translate(-50%, -50%); border:5px solid black"">",NA,NA,NA,NA,NA,NA,NA,NA,NA
13.799999952316284,NA,stimuli-presentation,71,117004,0.0-16.0-1.5,SS1630643244267,NA,NA,trial,NA,40,500,513.7999999523163,images/stimuli/complex_14_A_a.gif,images/stimuli/complex_06_A_a.gif,self_paced,390,NA,4,complex_dissimilar,images/stimuli/complex_06_A_a.gif,NA,NA,NA,NA,NA,NA
4068.5,"{""Q0"":""9""}",survey-multi-choice,72,121076,0.0-17.0,SS1630643244267,NA,NA,math_question,NA,NA,NA,NA,NA,NA,NA,NA,NA,NA,NA,NA,[0],NA,NA,NA,NA,9
null,NA,html-keyboard-response,73,121986,0.0-18.0-0.0,SS1630643244267,NA,NA,NA,NA,null,NA,NA,NA,NA,NA,NA,"<p><img src= images/blank.png width =""600"" height = ""600"" style=""position:fixed;top:50%; left:50%; transform: translate(-50%, -50%); border:5px solid black"">",NA,NA,NA,NA,NA,NA,NA,NA,NA
3170.5,NA,stimuli-presentation,74,125663,0.0-18.0-1.0,SS1630643244267,NA,NA,trial,NA,40,500,3670.5,images/stimuli/simple_04_A_a.gif,images/stimuli/simple_14_A_a.gif,self_paced,520,NA,5,simple_dissimilar,images/stimuli/simple_14_A_a.gif,NA,NA,NA,NA,NA,NA
null,NA,html-keyboard-response,75,126714,0.0-18.0-0.1,SS1630643244267,NA,NA,NA,NA,null,NA,NA,NA,NA,NA,NA,"<p><img src= images/blank.png width =""600"" height = ""600"" style=""position:fixed;top:50%; left:50%; transform: translate(-50%, -50%); border:5px solid black"">",NA,NA,NA,NA,NA,NA,NA,NA,NA
743.5,NA,stimuli-presentation,76,127965,0.0-18.0-1.1,SS1630643244267,NA,NA,trial,NA,40,500,1243.5,images/stimuli/simple_04_A_a.gif,images/stimuli/simple_14_A_a.gif,self_paced,520,NA,5,simple_dissimilar,images/stimuli/simple_14_A_a.gif,NA,NA,NA,NA,NA,NA
null,NA,html-keyboard-response,77,128800,0.0-18.0-0.2,SS1630643244267,NA,NA,NA,NA,null,NA,NA,NA,NA,NA,NA,"<p><img src= images/blank.png width =""600"" height = ""600"" style=""position:fixed;top:50%; left:50%; transform: translate(-50%, -50%); border:5px solid black"">",NA,NA,NA,NA,NA,NA,NA,NA,NA
185.19999992847443,NA,stimuli-presentation,78,129491,0.0-18.0-1.2,SS1630643244267,NA,NA,trial,NA,40,500,685.1999999284744,images/stimuli/simple_04_A_a.gif,images/stimuli/simple_14_A_a.gif,self_paced,520,NA,5,simple_dissimilar,images/stimuli/simple_14_A_a.gif,NA,NA,NA,NA,NA,NA
null,NA,html-keyboard-response,79,130739,0.0-18.0-0.3,SS1630643244267,NA,NA,NA,NA,null,NA,NA,NA,NA,NA,NA,"<p><img src= images/blank.png width =""600"" height = ""600"" style=""position:fixed;top:50%; left:50%; transform: translate(-50%, -50%); border:5px solid black"">",NA,NA,NA,NA,NA,NA,NA,NA,NA
64.10000002384186,NA,stimuli-presentation,80,131308,0.0-18.0-1.3,SS1630643244267,NA,NA,trial,NA,40,500,564.1000000238419,images/stimuli/simple_04_A_a.gif,images/stimuli/simple_14_A_a.gif,self_paced,520,NA,5,simple_dissimilar,images/stimuli/simple_04_A_a.gif,NA,NA,NA,NA,NA,NA
null,NA,html-keyboard-response,81,132272,0.0-18.0-0.4,SS1630643244267,NA,NA,NA,NA,null,NA,NA,NA,NA,NA,NA,"<p><img src= images/blank.png width =""600"" height = ""600"" style=""position:fixed;top:50%; left:50%; transform: translate(-50%, -50%); border:5px solid black"">",NA,NA,NA,NA,NA,NA,NA,NA,NA
4639.099999904633,NA,stimuli-presentation,82,137415,0.0-18.0-1.4,SS1630643244267,NA,NA,trial,NA,40,500,5139.099999904633,images/stimuli/simple_04_A_a.gif,images/stimuli/simple_14_A_a.gif,self_paced,520,NA,5,simple_dissimilar,images/stimuli/simple_14_A_a.gif,NA,NA,NA,NA,NA,NA
null,NA,html-keyboard-response,83,138625,0.0-18.0-0.5,SS1630643244267,NA,NA,NA,NA,null,NA,NA,NA,NA,NA,NA,"<p><img src= images/blank.png width =""600"" height = ""600"" style=""position:fixed;top:50%; left:50%; transform: translate(-50%, -50%); border:5px solid black"">",NA,NA,NA,NA,NA,NA,NA,NA,NA
101,NA,stimuli-presentation,84,139234,0.0-18.0-1.5,SS1630643244267,NA,NA,trial,NA,40,500,601,images/stimuli/simple_04_A_a.gif,images/stimuli/simple_14_A_a.gif,self_paced,520,NA,5,simple_dissimilar,images/stimuli/simple_14_A_a.gif,NA,NA,NA,NA,NA,NA
2693.6999999284744,"{""Q0"":""12""}",survey-multi-choice,85,141931,0.0-19.0,SS1630643244267,NA,NA,math_question,NA,NA,NA,NA,NA,NA,NA,NA,NA,NA,NA,NA,[0],NA,NA,NA,NA,12
null,NA,html-keyboard-response,86,143120,0.0-20.0-0.0,SS1630643244267,NA,NA,NA,NA,null,NA,NA,NA,NA,NA,NA,"<p><img src= images/blank.png width =""600"" height = ""600"" style=""position:fixed;top:50%; left:50%; transform: translate(-50%, -50%); border:5px solid black"">",NA,NA,NA,NA,NA,NA,NA,NA,NA
550.5,NA,stimuli-presentation,87,144177,0.0-20.0-1.0,SS1630643244267,NA,NA,trial,NA,40,500,1050.5,images/stimuli/simple_01_A_a.gif,images/stimuli/simple_08_A_a.gif,self_paced,500,NA,6,simple_dissimilar,images/stimuli/simple_08_A_a.gif,NA,NA,NA,NA,NA,NA
null,NA,html-keyboard-response,88,145305,0.0-20.0-0.1,SS1630643244267,NA,NA,NA,NA,null,NA,NA,NA,NA,NA,NA,"<p><img src= images/blank.png width =""600"" height = ""600"" style=""position:fixed;top:50%; left:50%; transform: translate(-50%, -50%); border:5px solid black"">",NA,NA,NA,NA,NA,NA,NA,NA,NA
231.30000007152557,NA,stimuli-presentation,89,146046,0.0-20.0-1.1,SS1630643244267,NA,NA,trial,NA,40,500,731.3000000715256,images/stimuli/simple_01_A_a.gif,images/stimuli/simple_08_A_a.gif,self_paced,500,NA,6,simple_dissimilar,images/stimuli/simple_08_A_a.gif,NA,NA,NA,NA,NA,NA
null,NA,html-keyboard-response,90,147187,0.0-20.0-0.2,SS1630643244267,NA,NA,NA,NA,null,NA,NA,NA,NA,NA,NA,"<p><img src= images/blank.png width =""600"" height = ""600"" style=""position:fixed;top:50%; left:50%; transform: translate(-50%, -50%); border:5px solid black"">",NA,NA,NA,NA,NA,NA,NA,NA,NA
141.40000009536743,NA,stimuli-presentation,91,147834,0.0-20.0-1.2,SS1630643244267,NA,NA,trial,NA,40,500,641.4000000953674,images/stimuli/simple_01_A_a.gif,images/stimuli/simple_08_A_a.gif,self_paced,500,NA,6,simple_dissimilar,images/stimuli/simple_08_A_a.gif,NA,NA,NA,NA,NA,NA
null,NA,html-keyboard-response,92,149006,0.0-20.0-0.3,SS1630643244267,NA,NA,NA,NA,null,NA,NA,NA,NA,NA,NA,"<p><img src= images/blank.png width =""600"" height = ""600"" style=""position:fixed;top:50%; left:50%; transform: translate(-50%, -50%); border:5px solid black"">",NA,NA,NA,NA,NA,NA,NA,NA,NA
78.29999995231628,NA,stimuli-presentation,93,149591,0.0-20.0-1.3,SS1630643244267,NA,NA,trial,NA,40,500,578.2999999523163,images/stimuli/simple_01_A_a.gif,images/stimuli/simple_08_A_a.gif,self_paced,500,NA,6,simple_dissimilar,images/stimuli/simple_08_A_a.gif,NA,NA,NA,NA,NA,NA
null,NA,html-keyboard-response,94,150600,0.0-20.0-0.4,SS1630643244267,NA,NA,NA,NA,null,NA,NA,NA,NA,NA,NA,"<p><img src= images/blank.png width =""600"" height = ""600"" style=""position:fixed;top:50%; left:50%; transform: translate(-50%, -50%); border:5px solid black"">",NA,NA,NA,NA,NA,NA,NA,NA,NA
152.69999992847443,NA,stimuli-presentation,95,151262,0.0-20.0-1.4,SS1630643244267,NA,NA,trial,NA,40,500,652.6999999284744,images/stimuli/simple_01_A_a.gif,images/stimuli/simple_08_A_a.gif,self_paced,500,NA,6,simple_dissimilar,images/stimuli/simple_08_A_a.gif,NA,NA,NA,NA,NA,NA
null,NA,html-keyboard-response,96,152248,0.0-20.0-0.5,SS1630643244267,NA,NA,NA,NA,null,NA,NA,NA,NA,NA,NA,"<p><img src= images/blank.png width =""600"" height = ""600"" style=""position:fixed;top:50%; left:50%; transform: translate(-50%, -50%); border:5px solid black"">",NA,NA,NA,NA,NA,NA,NA,NA,NA
249.90000009536743,NA,stimuli-presentation,97,153005,0.0-20.0-1.5,SS1630643244267,NA,NA,trial,NA,40,500,749.9000000953674,images/stimuli/simple_01_A_a.gif,images/stimuli/simple_08_A_a.gif,self_paced,500,NA,6,simple_dissimilar,images/stimuli/simple_01_A_a.gif,NA,NA,NA,NA,NA,NA
2401.600000023842,"{""Q0"":""11""}",survey-multi-choice,98,155409,0.0-21.0,SS1630643244267,NA,NA,math_question,NA,NA,NA,NA,NA,NA,NA,NA,NA,NA,NA,NA,[0],NA,NA,NA,NA,11
null,NA,html-keyboard-response,99,156558,0.0-22.0-0.0,SS1630643244267,NA,NA,NA,NA,null,NA,NA,NA,NA,NA,NA,"<p><img src= images/blank.png width =""600"" height = ""600"" style=""position:fixed;top:50%; left:50%; transform: translate(-50%, -50%); border:5px solid black"">",NA,NA,NA,NA,NA,NA,NA,NA,NA
1311.2000000476837,NA,stimuli-presentation,100,158378,0.0-22.0-1.0,SS1630643244267,NA,NA,trial,NA,40,500,1811.2000000476837,images/stimuli/complex_08_A_a.gif,images/stimuli/complex_18_A_a.gif,self_paced,500,NA,7,complex_dissimilar,images/stimuli/complex_18_A_a.gif,NA,NA,NA,NA,NA,NA
null,NA,html-keyboard-response,101,159433,0.0-22.0-0.1,SS1630643244267,NA,NA,NA,NA,null,NA,NA,NA,NA,NA,NA,"<p><img src= images/blank.png width =""600"" height = ""600"" style=""position:fixed;top:50%; left:50%; transform: translate(-50%, -50%); border:5px solid black"">",NA,NA,NA,NA,NA,NA,NA,NA,NA
399.7000000476837,NA,stimuli-presentation,102,160341,0.0-22.0-1.1,SS1630643244267,NA,NA,trial,NA,40,500,899.7000000476837,images/stimuli/complex_08_A_a.gif,images/stimuli/complex_18_A_a.gif,self_paced,500,NA,7,complex_dissimilar,images/stimuli/complex_08_A_a.gif,NA,NA,NA,NA,NA,NA
null,NA,html-keyboard-response,103,161605,0.0-22.0-0.2,SS1630643244267,NA,NA,NA,NA,null,NA,NA,NA,NA,NA,NA,"<p><img src= images/blank.png width =""600"" height = ""600"" style=""position:fixed;top:50%; left:50%; transform: translate(-50%, -50%); border:5px solid black"">",NA,NA,NA,NA,NA,NA,NA,NA,NA
3582.600000023842,NA,stimuli-presentation,104,165693,0.0-22.0-1.2,SS1630643244267,NA,NA,trial,NA,40,500,4082.600000023842,images/stimuli/complex_08_A_a.gif,images/stimuli/complex_18_A_a.gif,self_paced,500,NA,7,complex_dissimilar,images/stimuli/complex_18_A_a.gif,NA,NA,NA,NA,NA,NA
null,NA,html-keyboard-response,105,166814,0.0-22.0-0.3,SS1630643244267,NA,NA,NA,NA,null,NA,NA,NA,NA,NA,NA,"<p><img src= images/blank.png width =""600"" height = ""600"" style=""position:fixed;top:50%; left:50%; transform: translate(-50%, -50%); border:5px solid black"">",NA,NA,NA,NA,NA,NA,NA,NA,NA
127.69999992847443,NA,stimuli-presentation,106,167450,0.0-22.0-1.3,SS1630643244267,NA,NA,trial,NA,40,500,627.6999999284744,images/stimuli/complex_08_A_a.gif,images/stimuli/complex_18_A_a.gif,self_paced,500,NA,7,complex_dissimilar,images/stimuli/complex_18_A_a.gif,NA,NA,NA,NA,NA,NA
