"success","trial_type","trial_index","time_elapsed","internal_node_id","subject","rt","responses","stimulus","key_press","view_history","stimulus_type","subject_num","condition_num","block_number","block_type","fam_duration","stimulus_displayed","response","question_order"
"true","fullscreen","0","1915","0.0-0.0","SS1668794499696","","","","","","","","","","","","","",""
"","survey-text","1","21426","0.0-1.0","SS1668794499696","19501.5","{""Age"":""316"",""Gender"":""M""}","","","","","","","","","","","",""
"","audio-keyboard-response","2","29821","0.0-2.0","SS1668794499696","8386.399999999907","","stimuli/audio/music_intro.wav","39","","","","","","","","","",""
"","html-keyboard-response","3","31990","0.0-3.0","SS1668794499696","2167.2999999998137","","<p><img src=stimuli/intro/intro2.jpeg width ='1200' height = '667'></p>","39","","","","","","","","","",""
"","html-keyboard-response","4","73092","0.0-4.0","SS1668794499696","41100.200000000186","","<p><img src=stimuli/intro/intro3.jpeg width ='1200' height = '667'></p>","39","","","","","","","","","",""
"","html-keyboard-response","5","108245","0.0-5.0","SS1668794499696","35152","","<p><img src=stimuli/intro/intro4.jpeg width ='1200' height = '667'></p>","39","","","","","","","","","",""
"","html-keyboard-response","6","113852","0.0-6.0","SS1668794499696","5603.699999999721","","<p><img src=stimuli/intro/intro5.jpeg width ='1200' height = '667'></p>","39","","","","","","","","","",""
"","html-keyboard-response","7","124232","0.0-7.0","SS1668794499696","10378.899999999907","","<p><img src=stimuli/intro/intro6.jpeg width ='1200' height = '667'></p>","39","","","","","","","","","",""
"","html-keyboard-response","8","125842","0.0-8.0","SS1668794499696","1607.8000000002794","","<p><img src=stimuli/intro/intro7.jpeg width ='1200' height = '667'></p>","39","","","","","","","","","",""
"","html-keyboard-response","9","145451","0.0-9.0","SS1668794499696","19608.599999999627","","<p><img src=stimuli/intro/intro8.jpeg width ='1200' height = '667'></p>","39","","","","","","","","","",""
"","instructions","10","183979","0.0-10.0","SS1668794499696","38527.59999999963","","","","[{""page_index"":0,""viewing_time"":38527.5}]","","","","","","","","",""
"","video-keyboard-response","11","202194","0.0-11.0","SS1668794499696","null","","[""stimuli/images/calibration.mp4""]","null","","calibration","","","","","","","",""
"","video-keyboard-response","12","206854","0.0-12.0","SS1668794499696","null","","[""stimuli/images/attngetter_quiet.mp4""]","null","","attention_getter","","","","","","","",""
"","video-keyboard-response","13","281892","0.0-13.0","SS1668794499696","75032.29999999981","","[""stimuli/images/unity_stims/unitystims_004_Right_3fam_background_1_new.mp4""]","39","","trial","2","2","1","background","3","stimuli/images/unity_stims/unitystims_004_Right_3fam_background_1_new.mp4","",""
"","html-keyboard-response","14","283270","0.0-14.0","SS1668794499696","1375","","<p><img src=""stimuli/images/attngetter_blank.png""></p>","39","","between_block","","","","","","","",""
"","video-keyboard-response","15","287922","0.0-15.0","SS1668794499696","null","","[""stimuli/images/attngetter_quiet.mp4""]","null","","attention_getter","","","","","","","",""
"","video-keyboard-response","16","353039","0.0-16.0","SS1668794499696","null","","[""stimuli/images/unity_stims/unitystims_003_Left_1fam_background_1_new.mp4""]","null","","trial","2","2","2","background","1","stimuli/images/unity_stims/unitystims_003_Left_1fam_background_1_new.mp4","",""
"","html-keyboard-response","17","354331","0.0-17.0","SS1668794499696","1290.2000000001863","","<p><img src=""stimuli/images/attngetter_blank.png""></p>","39","","between_block","","","","","","","",""
"","video-keyboard-response","18","358963","0.0-18.0","SS1668794499696","null","","[""stimuli/images/attngetter_quiet.mp4""]","null","","attention_getter","","","","","","","",""
"","video-keyboard-response","19","426896","0.0-19.0","SS1668794499696","67929.3999999999","","[""stimuli/images/unity_stims/unitystims_002_Right_3fam_deviant_1_new.mp4""]","39","","trial","2","2","3","deviant","3","stimuli/images/unity_stims/unitystims_002_Right_3fam_deviant_1_new.mp4","",""
"","html-keyboard-response","20","433852","0.0-20.0","SS1668794499696","6954.899999999907","","<p><img src=""stimuli/images/attngetter_blank.png""></p>","39","","between_block","","","","","","","",""
"","video-keyboard-response","21","438493","0.0-21.0","SS1668794499696","null","","[""stimuli/images/attngetter_quiet.mp4""]","null","","attention_getter","","","","","","","",""
"","video-keyboard-response","22","498312","0.0-22.0","SS1668794499696","59816.39999999991","","[""stimuli/images/unity_stims/unitystims_006_Left_9fam_deviant_2_new.mp4""]","39","","trial","2","2","4","deviant","9","stimuli/images/unity_stims/unitystims_006_Left_9fam_deviant_2_new.mp4","",""
"","html-keyboard-response","23","499283","0.0-23.0","SS1668794499696","969.5","","<p><img src=""stimuli/images/attngetter_blank.png""></p>","39","","between_block","","","","","","","",""
"","video-keyboard-response","24","503903","0.0-24.0","SS1668794499696","null","","[""stimuli/images/attngetter_quiet.mp4""]","null","","attention_getter","","","","","","","",""
"","video-keyboard-response","25","557949","0.0-25.0","SS1668794499696","54041.40000000037","","[""stimuli/images/unity_stims/unitystims_005_Right_9fam_background_2_new.mp4""]","39","","trial","2","2","5","background","9","stimuli/images/unity_stims/unitystims_005_Right_9fam_background_2_new.mp4","",""
"","video-keyboard-response","26","581079","0.0-26.0","SS1668794499696","null","","[""stimuli/images/calibration_end.mp4""]","null","","calibration_end","","","","","","","",""
"","html-keyboard-response","27","587462","0.0-27.0","SS1668794499696","6381.799999999814","","<p><span style=""font-family: arial, helvetica, sans-serif; font-size: 48px; color: #993300;""> That's it! Thank you so much for your participation! </span></p>","39","","","","","","","","","",""
"","survey-multi-choice","28","623593","0.0-28.0","SS1668794499696","36126.89999999991","","","","","","","","","","","","{""Consent"":""<b>Option 3 (General Public)</b>: Like Option 2 but includes more public venues. You would like to share your child’s data to help us communicate our research with the general public. Your child’s data will never be used for commercial purposes. <br></h1>""}","0"
