success,timeout,failed_images,failed_audio,failed_video,trial_type,trial_index,time_elapsed,internal_node_id,subject,study,session,window_width,window_height,view_history,rt,stimulus_type,total_rt,block_type,background_stimulus,deviant_stimulus,background_type,deviant_type,violation_type,trial_number,response,question_order,rating_type,similarity_rating_background,similarity_rating_deviant,similarity_rating_violation,complexity_rating_type,complexity_reps,complexity_rating_stimulus,stimulus
TRUE,FALSE,[],[],[],preload,0,26470,0.0-0.0,SS1673386322769,63bdacb46bfec1782ed31c9f,63bdd94fa7fe7803101fe03e,1327,696,NA,NA,NA,NA,NA,NA,NA,NA,NA,NA,NA,NA,NA,NA,NA,NA,NA,NA,NA,NA,NA
TRUE,NA,NA,NA,NA,fullscreen,1,47701,0.0-1.0,SS1673386322769,63bdacb46bfec1782ed31c9f,63bdd94fa7fe7803101fe03e,1327,696,NA,NA,NA,NA,NA,NA,NA,NA,NA,NA,NA,NA,NA,NA,NA,NA,NA,NA,NA,NA,NA
NA,NA,NA,NA,NA,instructions,2,51931,0.0-2.0,SS1673386322769,63bdacb46bfec1782ed31c9f,63bdd94fa7fe7803101fe03e,1327,696,"[{""page_index"":0,""viewing_time"":4229}]",4229,NA,NA,NA,NA,NA,NA,NA,NA,NA,NA,NA,NA,NA,NA,NA,NA,NA,NA,NA
NA,NA,NA,NA,NA,instructions,3,65509,0.0-3.0,SS1673386322769,63bdacb46bfec1782ed31c9f,63bdd94fa7fe7803101fe03e,1327,696,"[{""page_index"":0,""viewing_time"":5173},{""page_index"":1,""viewing_time"":6401}]",11574,instructions,NA,NA,NA,NA,NA,NA,NA,NA,NA,NA,NA,NA,NA,NA,NA,NA,NA,NA
NA,NA,NA,NA,NA,curtain-display,4,69169,0.0-4.0,SS1673386322769,63bdacb46bfec1782ed31c9f,63bdd94fa7fe7803101fe03e,1327,696,NA,1825,instructions,2825,NA,NA,NA,NA,NA,NA,NA,NA,NA,NA,NA,NA,NA,NA,NA,NA,NA
NA,NA,NA,NA,NA,curtain-display,5,72059,0.0-5.0,SS1673386322769,63bdacb46bfec1782ed31c9f,63bdd94fa7fe7803101fe03e,1327,696,NA,1076,instructions,2076,NA,NA,NA,NA,NA,NA,NA,NA,NA,NA,NA,NA,NA,NA,NA,NA,NA
NA,NA,NA,NA,NA,curtain-display,6,74888,0.0-6.0,SS1673386322769,63bdacb46bfec1782ed31c9f,63bdd94fa7fe7803101fe03e,1327,696,NA,1002,instructions,2002,NA,NA,NA,NA,NA,NA,NA,NA,NA,NA,NA,NA,NA,NA,NA,NA,NA
NA,NA,NA,NA,NA,instructions,7,86991,0.0-7.0,SS1673386322769,63bdacb46bfec1782ed31c9f,63bdd94fa7fe7803101fe03e,1327,696,"[{""page_index"":0,""viewing_time"":5637},{""page_index"":1,""viewing_time"":2032},{""page_index"":2,""viewing_time"":2512},{""page_index"":3,""viewing_time"":1072},{""page_index"":4,""viewing_time"":848}]",12101,instructions,NA,NA,NA,NA,NA,NA,NA,NA,NA,NA,NA,NA,NA,NA,NA,NA,NA,NA
NA,NA,NA,NA,NA,curtain-display,8,89232,0.0-8.0,SS1673386322769,63bdacb46bfec1782ed31c9f,63bdd94fa7fe7803101fe03e,1327,696,NA,432,NA,1432,deviant_block,media/padded_stims/inanimate_048_left.png,media/padded_stims/animate_071_left.png,inanimate_single_left,animate_single_left,animacy,2,NA,NA,NA,NA,NA,NA,NA,NA,NA,NA
NA,NA,NA,NA,NA,curtain-display,9,91174,0.0-9.0,SS1673386322769,63bdacb46bfec1782ed31c9f,63bdd94fa7fe7803101fe03e,1327,696,NA,115,NA,1115,deviant_block,media/padded_stims/inanimate_048_left.png,media/padded_stims/animate_071_left.png,inanimate_single_left,animate_single_left,animacy,2,NA,NA,NA,NA,NA,NA,NA,NA,NA,NA
NA,NA,NA,NA,NA,survey-likert,10,94424,0.0-10.0,SS1673386322769,63bdacb46bfec1782ed31c9f,63bdd94fa7fe7803101fe03e,1327,696,NA,3248,NA,NA,NA,NA,NA,NA,NA,NA,NA,"{""Q0"":0}",[0],background,NA,NA,NA,NA,NA,NA,NA
NA,NA,NA,NA,NA,curtain-display,11,96825,0.0-11.0,SS1673386322769,63bdacb46bfec1782ed31c9f,63bdd94fa7fe7803101fe03e,1327,696,NA,589,NA,1589,deviant_block,media/padded_stims/inanimate_019_right.png,media/padded_stims/inanimate_078_left.png,inanimate_single_right,inanimate_single_left,pose,4,NA,NA,NA,NA,NA,NA,NA,NA,NA,NA
NA,NA,NA,NA,NA,curtain-display,12,98863,0.0-12.0,SS1673386322769,63bdacb46bfec1782ed31c9f,63bdd94fa7fe7803101fe03e,1327,696,NA,211,NA,1211,deviant_block,media/padded_stims/inanimate_019_right.png,media/padded_stims/inanimate_078_left.png,inanimate_single_right,inanimate_single_left,pose,4,NA,NA,NA,NA,NA,NA,NA,NA,NA,NA
NA,NA,NA,NA,NA,curtain-display,13,100807,0.0-13.0,SS1673386322769,63bdacb46bfec1782ed31c9f,63bdd94fa7fe7803101fe03e,1327,696,NA,112,NA,1112,deviant_block,media/padded_stims/inanimate_019_right.png,media/padded_stims/inanimate_078_left.png,inanimate_single_right,inanimate_single_left,pose,4,NA,NA,NA,NA,NA,NA,NA,NA,NA,NA
NA,NA,NA,NA,NA,curtain-display,14,103063,0.0-14.0,SS1673386322769,63bdacb46bfec1782ed31c9f,63bdd94fa7fe7803101fe03e,1327,696,NA,436,NA,1436,deviant_block,media/padded_stims/inanimate_019_right.png,media/padded_stims/inanimate_078_left.png,inanimate_single_right,inanimate_single_left,pose,4,NA,NA,NA,NA,NA,NA,NA,NA,NA,NA
NA,NA,NA,NA,NA,survey-likert,15,105618,0.0-15.0,SS1673386322769,63bdacb46bfec1782ed31c9f,63bdd94fa7fe7803101fe03e,1327,696,NA,2553,NA,NA,NA,NA,NA,NA,NA,NA,NA,"{""Q0"":0}",[0],background,NA,NA,NA,NA,NA,NA,NA
NA,NA,NA,NA,NA,curtain-display,16,107871,0.0-16.0,SS1673386322769,63bdacb46bfec1782ed31c9f,63bdd94fa7fe7803101fe03e,1327,696,NA,432,NA,1432,background_block,media/padded_stims/animate_037_left.png,null,animate_single_left,null,null,4,NA,NA,NA,NA,NA,NA,NA,NA,NA,NA
NA,NA,NA,NA,NA,curtain-display,17,110900,0.0-17.0,SS1673386322769,63bdacb46bfec1782ed31c9f,63bdd94fa7fe7803101fe03e,1327,696,NA,1205,NA,2205,background_block,media/padded_stims/animate_037_left.png,null,animate_single_left,null,null,4,NA,NA,NA,NA,NA,NA,NA,NA,NA,NA
NA,NA,NA,NA,NA,curtain-display,18,112905,0.0-18.0,SS1673386322769,63bdacb46bfec1782ed31c9f,63bdd94fa7fe7803101fe03e,1327,696,NA,175,NA,1175,background_block,media/padded_stims/animate_037_left.png,null,animate_single_left,null,null,4,NA,NA,NA,NA,NA,NA,NA,NA,NA,NA
NA,NA,NA,NA,NA,curtain-display,19,114941,0.0-19.0,SS1673386322769,63bdacb46bfec1782ed31c9f,63bdd94fa7fe7803101fe03e,1327,696,NA,210,NA,1210,background_block,media/padded_stims/animate_037_left.png,null,animate_single_left,null,null,4,NA,NA,NA,NA,NA,NA,NA,NA,NA,NA
NA,NA,NA,NA,NA,survey-likert,20,117939,0.0-20.0,SS1673386322769,63bdacb46bfec1782ed31c9f,63bdd94fa7fe7803101fe03e,1327,696,NA,2996,NA,NA,NA,NA,NA,NA,NA,NA,NA,"{""Q0"":0}",[0],background,NA,NA,NA,NA,NA,NA,NA
NA,NA,NA,NA,NA,curtain-display,21,120134,0.0-21.0,SS1673386322769,63bdacb46bfec1782ed31c9f,63bdd94fa7fe7803101fe03e,1327,696,NA,375,NA,1375,deviant_block,media/padded_stims/inanimate_012_right.png,media/padded_stims/inanimate_018_right.png,inanimate_pair_right,inanimate_pair_right,identity,6,NA,NA,NA,NA,NA,NA,NA,NA,NA,NA
NA,NA,NA,NA,NA,curtain-display,22,122175,0.0-22.0,SS1673386322769,63bdacb46bfec1782ed31c9f,63bdd94fa7fe7803101fe03e,1327,696,NA,224,NA,1224,deviant_block,media/padded_stims/inanimate_012_right.png,media/padded_stims/inanimate_018_right.png,inanimate_pair_right,inanimate_pair_right,identity,6,NA,NA,NA,NA,NA,NA,NA,NA,NA,NA
NA,NA,NA,NA,NA,curtain-display,23,124156,0.0-23.0,SS1673386322769,63bdacb46bfec1782ed31c9f,63bdd94fa7fe7803101fe03e,1327,696,NA,165,NA,1165,deviant_block,media/padded_stims/inanimate_012_right.png,media/padded_stims/inanimate_018_right.png,inanimate_pair_right,inanimate_pair_right,identity,6,NA,NA,NA,NA,NA,NA,NA,NA,NA,NA
NA,NA,NA,NA,NA,curtain-display,24,126183,0.0-24.0,SS1673386322769,63bdacb46bfec1782ed31c9f,63bdd94fa7fe7803101fe03e,1327,696,NA,215,NA,1215,deviant_block,media/padded_stims/inanimate_012_right.png,media/padded_stims/inanimate_018_right.png,inanimate_pair_right,inanimate_pair_right,identity,6,NA,NA,NA,NA,NA,NA,NA,NA,NA,NA
NA,NA,NA,NA,NA,curtain-display,25,128606,0.0-25.0,SS1673386322769,63bdacb46bfec1782ed31c9f,63bdd94fa7fe7803101fe03e,1327,696,NA,597,NA,1597,deviant_block,media/padded_stims/inanimate_012_right.png,media/padded_stims/inanimate_018_right.png,inanimate_pair_right,inanimate_pair_right,identity,6,NA,NA,NA,NA,NA,NA,NA,NA,NA,NA
NA,NA,NA,NA,NA,curtain-display,26,130801,0.0-26.0,SS1673386322769,63bdacb46bfec1782ed31c9f,63bdd94fa7fe7803101fe03e,1327,696,NA,388,NA,1388,deviant_block,media/padded_stims/inanimate_012_right.png,media/padded_stims/inanimate_018_right.png,inanimate_pair_right,inanimate_pair_right,identity,6,NA,NA,NA,NA,NA,NA,NA,NA,NA,NA
NA,NA,NA,NA,NA,survey-likert,27,132933,0.0-27.0,SS1673386322769,63bdacb46bfec1782ed31c9f,63bdd94fa7fe7803101fe03e,1327,696,NA,2130,NA,NA,NA,NA,NA,NA,NA,NA,NA,"{""Q0"":1}",[0],background,NA,NA,NA,NA,NA,NA,NA
NA,NA,NA,NA,NA,curtain-display,28,134839,0.0-28.0,SS1673386322769,63bdacb46bfec1782ed31c9f,63bdd94fa7fe7803101fe03e,1327,696,NA,83,NA,1083,background_block,media/padded_stims/animate_006_right.png,null,animate_single_right,null,null,2,NA,NA,NA,NA,NA,NA,NA,NA,NA,NA
NA,NA,NA,NA,NA,curtain-display,29,137082,0.0-29.0,SS1673386322769,63bdacb46bfec1782ed31c9f,63bdd94fa7fe7803101fe03e,1327,696,NA,424,NA,1424,background_block,media/padded_stims/animate_006_right.png,null,animate_single_right,null,null,2,NA,NA,NA,NA,NA,NA,NA,NA,NA,NA
NA,NA,NA,NA,NA,survey-likert,30,139022,0.0-30.0,SS1673386322769,63bdacb46bfec1782ed31c9f,63bdd94fa7fe7803101fe03e,1327,696,NA,1935,NA,NA,NA,NA,NA,NA,NA,NA,NA,"{""Q0"":0}",[0],background,NA,NA,NA,NA,NA,NA,NA
NA,NA,NA,NA,NA,curtain-display,31,141288,0.0-31.0,SS1673386322769,63bdacb46bfec1782ed31c9f,63bdd94fa7fe7803101fe03e,1327,696,NA,440,NA,1440,deviant_block,media/padded_stims/animate_007_left.png,media/padded_stims/animate_058_right.png,animate_pair_left,animate_pair_right,pose,2,NA,NA,NA,NA,NA,NA,NA,NA,NA,NA
NA,NA,NA,NA,NA,curtain-display,32,143280,0.0-32.0,SS1673386322769,63bdacb46bfec1782ed31c9f,63bdd94fa7fe7803101fe03e,1327,696,NA,155,NA,1155,deviant_block,media/padded_stims/animate_007_left.png,media/padded_stims/animate_058_right.png,animate_pair_left,animate_pair_right,pose,2,NA,NA,NA,NA,NA,NA,NA,NA,NA,NA
NA,NA,NA,NA,NA,survey-likert,33,145136,0.0-33.0,SS1673386322769,63bdacb46bfec1782ed31c9f,63bdd94fa7fe7803101fe03e,1327,696,NA,1853,NA,NA,NA,NA,NA,NA,NA,NA,NA,"{""Q0"":0}",[0],background,NA,NA,NA,NA,NA,NA,NA
NA,NA,NA,NA,NA,curtain-display,34,147180,0.0-34.0,SS1673386322769,63bdacb46bfec1782ed31c9f,63bdd94fa7fe7803101fe03e,1327,696,NA,221,NA,1221,background_block,media/padded_stims/inanimate_032_left.png,null,inanimate_pair_left,null,null,4,NA,NA,NA,NA,NA,NA,NA,NA,NA,NA
NA,NA,NA,NA,NA,curtain-display,35,149546,0.0-35.0,SS1673386322769,63bdacb46bfec1782ed31c9f,63bdd94fa7fe7803101fe03e,1327,696,NA,540,NA,1540,background_block,media/padded_stims/inanimate_032_left.png,null,inanimate_pair_left,null,null,4,NA,NA,NA,NA,NA,NA,NA,NA,NA,NA
NA,NA,NA,NA,NA,curtain-display,36,151883,0.0-36.0,SS1673386322769,63bdacb46bfec1782ed31c9f,63bdd94fa7fe7803101fe03e,1327,696,NA,511,NA,1511,background_block,media/padded_stims/inanimate_032_left.png,null,inanimate_pair_left,null,null,4,NA,NA,NA,NA,NA,NA,NA,NA,NA,NA
NA,NA,NA,NA,NA,curtain-display,37,154523,0.0-37.0,SS1673386322769,63bdacb46bfec1782ed31c9f,63bdd94fa7fe7803101fe03e,1327,696,NA,806,NA,1806,background_block,media/padded_stims/inanimate_032_left.png,null,inanimate_pair_left,null,null,4,NA,NA,NA,NA,NA,NA,NA,NA,NA,NA
NA,NA,NA,NA,NA,survey-likert,38,156672,0.0-38.0,SS1673386322769,63bdacb46bfec1782ed31c9f,63bdd94fa7fe7803101fe03e,1327,696,NA,2147,NA,NA,NA,NA,NA,NA,NA,NA,NA,"{""Q0"":0}",[0],background,NA,NA,NA,NA,NA,NA,NA
NA,NA,NA,NA,NA,curtain-display,39,159906,0.0-39.0,SS1673386322769,63bdacb46bfec1782ed31c9f,63bdd94fa7fe7803101fe03e,1327,696,NA,1406,NA,2406,background_block,media/padded_stims/inanimate_038_right.png,null,inanimate_single_right,null,null,6,NA,NA,NA,NA,NA,NA,NA,NA,NA,NA
NA,NA,NA,NA,NA,curtain-display,40,167897,0.0-40.0,SS1673386322769,63bdacb46bfec1782ed31c9f,63bdd94fa7fe7803101fe03e,1327,696,NA,6157,NA,7157,background_block,media/padded_stims/inanimate_038_right.png,null,inanimate_single_right,null,null,6,NA,NA,NA,NA,NA,NA,NA,NA,NA,NA
NA,NA,NA,NA,NA,curtain-display,41,170124,0.0-41.0,SS1673386322769,63bdacb46bfec1782ed31c9f,63bdd94fa7fe7803101fe03e,1327,696,NA,390,NA,1390,background_block,media/padded_stims/inanimate_038_right.png,null,inanimate_single_right,null,null,6,NA,NA,NA,NA,NA,NA,NA,NA,NA,NA
NA,NA,NA,NA,NA,curtain-display,42,172166,0.0-42.0,SS1673386322769,63bdacb46bfec1782ed31c9f,63bdd94fa7fe7803101fe03e,1327,696,NA,222,NA,1222,background_block,media/padded_stims/inanimate_038_right.png,null,inanimate_single_right,null,null,6,NA,NA,NA,NA,NA,NA,NA,NA,NA,NA
NA,NA,NA,NA,NA,curtain-display,43,174375,0.0-43.0,SS1673386322769,63bdacb46bfec1782ed31c9f,63bdd94fa7fe7803101fe03e,1327,696,NA,378,NA,1378,background_block,media/padded_stims/inanimate_038_right.png,null,inanimate_single_right,null,null,6,NA,NA,NA,NA,NA,NA,NA,NA,NA,NA
NA,NA,NA,NA,NA,curtain-display,44,177401,0.0-44.0,SS1673386322769,63bdacb46bfec1782ed31c9f,63bdd94fa7fe7803101fe03e,1327,696,NA,1199,NA,2199,background_block,media/padded_stims/inanimate_038_right.png,null,inanimate_single_right,null,null,6,NA,NA,NA,NA,NA,NA,NA,NA,NA,NA
NA,NA,NA,NA,NA,survey-likert,45,179235,0.0-45.0,SS1673386322769,63bdacb46bfec1782ed31c9f,63bdd94fa7fe7803101fe03e,1327,696,NA,1831,NA,NA,NA,NA,NA,NA,NA,NA,NA,"{""Q0"":0}",[0],background,NA,NA,NA,NA,NA,NA,NA
NA,NA,NA,NA,NA,curtain-display,46,181819,0.0-46.0,SS1673386322769,63bdacb46bfec1782ed31c9f,63bdd94fa7fe7803101fe03e,1327,696,NA,764,NA,1764,background_block,media/padded_stims/inanimate_026_left.png,null,inanimate_single_left,null,null,4,NA,NA,NA,NA,NA,NA,NA,NA,NA,NA
NA,NA,NA,NA,NA,curtain-display,47,183720,0.0-47.0,SS1673386322769,63bdacb46bfec1782ed31c9f,63bdd94fa7fe7803101fe03e,1327,696,NA,85,NA,1085,background_block,media/padded_stims/inanimate_026_left.png,null,inanimate_single_left,null,null,4,NA,NA,NA,NA,NA,NA,NA,NA,NA,NA
NA,NA,NA,NA,NA,curtain-display,48,185637,0.0-48.0,SS1673386322769,63bdacb46bfec1782ed31c9f,63bdd94fa7fe7803101fe03e,1327,696,NA,84,NA,1084,background_block,media/padded_stims/inanimate_026_left.png,null,inanimate_single_left,null,null,4,NA,NA,NA,NA,NA,NA,NA,NA,NA,NA
NA,NA,NA,NA,NA,curtain-display,49,187474,0.0-49.0,SS1673386322769,63bdacb46bfec1782ed31c9f,63bdd94fa7fe7803101fe03e,1327,696,NA,13,NA,1013,background_block,media/padded_stims/inanimate_026_left.png,null,inanimate_single_left,null,null,4,NA,NA,NA,NA,NA,NA,NA,NA,NA,NA
NA,NA,NA,NA,NA,survey-likert,50,189883,0.0-50.0,SS1673386322769,63bdacb46bfec1782ed31c9f,63bdd94fa7fe7803101fe03e,1327,696,NA,2408,NA,NA,NA,NA,NA,NA,NA,NA,NA,"{""Q0"":0}",[0],background,NA,NA,NA,NA,NA,NA,NA
NA,NA,NA,NA,NA,curtain-display,51,192094,0.0-51.0,SS1673386322769,63bdacb46bfec1782ed31c9f,63bdd94fa7fe7803101fe03e,1327,696,NA,393,NA,1393,background_block,media/padded_stims/animate_009_right.png,null,animate_pair_right,null,null,6,NA,NA,NA,NA,NA,NA,NA,NA,NA,NA
NA,NA,NA,NA,NA,curtain-display,52,194124,0.0-52.0,SS1673386322769,63bdacb46bfec1782ed31c9f,63bdd94fa7fe7803101fe03e,1327,696,NA,214,NA,1214,background_block,media/padded_stims/animate_009_right.png,null,animate_pair_right,null,null,6,NA,NA,NA,NA,NA,NA,NA,NA,NA,NA
NA,NA,NA,NA,NA,curtain-display,53,196324,0.0-53.0,SS1673386322769,63bdacb46bfec1782ed31c9f,63bdd94fa7fe7803101fe03e,1327,696,NA,382,NA,1382,background_block,media/padded_stims/animate_009_right.png,null,animate_pair_right,null,null,6,NA,NA,NA,NA,NA,NA,NA,NA,NA,NA
NA,NA,NA,NA,NA,curtain-display,54,198583,0.0-54.0,SS1673386322769,63bdacb46bfec1782ed31c9f,63bdd94fa7fe7803101fe03e,1327,696,NA,451,NA,1451,background_block,media/padded_stims/animate_009_right.png,null,animate_pair_right,null,null,6,NA,NA,NA,NA,NA,NA,NA,NA,NA,NA
NA,NA,NA,NA,NA,curtain-display,55,201366,0.0-55.0,SS1673386322769,63bdacb46bfec1782ed31c9f,63bdd94fa7fe7803101fe03e,1327,696,NA,954,NA,1954,background_block,media/padded_stims/animate_009_right.png,null,animate_pair_right,null,null,6,NA,NA,NA,NA,NA,NA,NA,NA,NA,NA
NA,NA,NA,NA,NA,curtain-display,56,203438,0.0-56.0,SS1673386322769,63bdacb46bfec1782ed31c9f,63bdd94fa7fe7803101fe03e,1327,696,NA,243,NA,1243,background_block,media/padded_stims/animate_009_right.png,null,animate_pair_right,null,null,6,NA,NA,NA,NA,NA,NA,NA,NA,NA,NA
NA,NA,NA,NA,NA,survey-likert,57,206455,0.0-57.0,SS1673386322769,63bdacb46bfec1782ed31c9f,63bdd94fa7fe7803101fe03e,1327,696,NA,3013,NA,NA,NA,NA,NA,NA,NA,NA,NA,"{""Q0"":0}",[0],background,NA,NA,NA,NA,NA,NA,NA
NA,NA,NA,NA,NA,curtain-display,58,208432,0.0-58.0,SS1673386322769,63bdacb46bfec1782ed31c9f,63bdd94fa7fe7803101fe03e,1327,696,NA,156,NA,1156,background_block,media/padded_stims/animate_059_left.png,null,animate_pair_left,null,null,6,NA,NA,NA,NA,NA,NA,NA,NA,NA,NA
NA,NA,NA,NA,NA,curtain-display,59,210348,0.0-59.0,SS1673386322769,63bdacb46bfec1782ed31c9f,63bdd94fa7fe7803101fe03e,1327,696,NA,86,NA,1086,background_block,media/padded_stims/animate_059_left.png,null,animate_pair_left,null,null,6,NA,NA,NA,NA,NA,NA,NA,NA,NA,NA
NA,NA,NA,NA,NA,curtain-display,60,212760,0.0-60.0,SS1673386322769,63bdacb46bfec1782ed31c9f,63bdd94fa7fe7803101fe03e,1327,696,NA,605,NA,1605,background_block,media/padded_stims/animate_059_left.png,null,animate_pair_left,null,null,6,NA,NA,NA,NA,NA,NA,NA,NA,NA,NA
NA,NA,NA,NA,NA,curtain-display,61,214659,0.0-61.0,SS1673386322769,63bdacb46bfec1782ed31c9f,63bdd94fa7fe7803101fe03e,1327,696,NA,81,NA,1081,background_block,media/padded_stims/animate_059_left.png,null,animate_pair_left,null,null,6,NA,NA,NA,NA,NA,NA,NA,NA,NA,NA
NA,NA,NA,NA,NA,curtain-display,62,216637,0.0-62.0,SS1673386322769,63bdacb46bfec1782ed31c9f,63bdd94fa7fe7803101fe03e,1327,696,NA,155,NA,1155,background_block,media/padded_stims/animate_059_left.png,null,animate_pair_left,null,null,6,NA,NA,NA,NA,NA,NA,NA,NA,NA,NA
NA,NA,NA,NA,NA,curtain-display,63,218677,0.0-63.0,SS1673386322769,63bdacb46bfec1782ed31c9f,63bdd94fa7fe7803101fe03e,1327,696,NA,216,NA,1216,background_block,media/padded_stims/animate_059_left.png,null,animate_pair_left,null,null,6,NA,NA,NA,NA,NA,NA,NA,NA,NA,NA
NA,NA,NA,NA,NA,survey-likert,64,220736,0.0-64.0,SS1673386322769,63bdacb46bfec1782ed31c9f,63bdd94fa7fe7803101fe03e,1327,696,NA,2056,NA,NA,NA,NA,NA,NA,NA,NA,NA,"{""Q0"":1}",[0],background,NA,NA,NA,NA,NA,NA,NA
NA,NA,NA,NA,NA,curtain-display,65,222695,0.0-65.0,SS1673386322769,63bdacb46bfec1782ed31c9f,63bdd94fa7fe7803101fe03e,1327,696,NA,142,NA,1142,deviant_block,media/padded_stims/animate_002_left.png,media/padded_stims/animate_072_right.png,animate_single_left,animate_single_right,pose,4,NA,NA,NA,NA,NA,NA,NA,NA,NA,NA
NA,NA,NA,NA,NA,curtain-display,66,225042,0.0-66.0,SS1673386322769,63bdacb46bfec1782ed31c9f,63bdd94fa7fe7803101fe03e,1327,696,NA,514,NA,1514,deviant_block,media/padded_stims/animate_002_left.png,media/padded_stims/animate_072_right.png,animate_single_left,animate_single_right,pose,4,NA,NA,NA,NA,NA,NA,NA,NA,NA,NA
NA,NA,NA,NA,NA,curtain-display,67,226882,0.0-67.0,SS1673386322769,63bdacb46bfec1782ed31c9f,63bdd94fa7fe7803101fe03e,1327,696,NA,33,NA,1033,deviant_block,media/padded_stims/animate_002_left.png,media/padded_stims/animate_072_right.png,animate_single_left,animate_single_right,pose,4,NA,NA,NA,NA,NA,NA,NA,NA,NA,NA
NA,NA,NA,NA,NA,curtain-display,68,228951,0.0-68.0,SS1673386322769,63bdacb46bfec1782ed31c9f,63bdd94fa7fe7803101fe03e,1327,696,NA,242,NA,1242,deviant_block,media/padded_stims/animate_002_left.png,media/padded_stims/animate_072_right.png,animate_single_left,animate_single_right,pose,4,NA,NA,NA,NA,NA,NA,NA,NA,NA,NA
NA,NA,NA,NA,NA,survey-likert,69,231322,0.0-69.0,SS1673386322769,63bdacb46bfec1782ed31c9f,63bdd94fa7fe7803101fe03e,1327,696,NA,2369,NA,NA,NA,NA,NA,NA,NA,NA,NA,"{""Q0"":1}",[0],deviant,NA,NA,NA,NA,NA,NA,NA
NA,NA,NA,NA,NA,curtain-display,70,233166,0.0-70.0,SS1673386322769,63bdacb46bfec1782ed31c9f,63bdd94fa7fe7803101fe03e,1327,696,NA,21,NA,1021,deviant_block,media/padded_stims/inanimate_053_left.png,media/padded_stims/animate_048_left.png,inanimate_pair_left,animate_pair_left,animacy,4,NA,NA,NA,NA,NA,NA,NA,NA,NA,NA
NA,NA,NA,NA,NA,curtain-display,71,235019,0.0-71.0,SS1673386322769,63bdacb46bfec1782ed31c9f,63bdd94fa7fe7803101fe03e,1327,696,NA,21,NA,1021,deviant_block,media/padded_stims/inanimate_053_left.png,media/padded_stims/animate_048_left.png,inanimate_pair_left,animate_pair_left,animacy,4,NA,NA,NA,NA,NA,NA,NA,NA,NA,NA
NA,NA,NA,NA,NA,curtain-display,72,236848,0.0-72.0,SS1673386322769,63bdacb46bfec1782ed31c9f,63bdd94fa7fe7803101fe03e,1327,696,NA,16,NA,1016,deviant_block,media/padded_stims/inanimate_053_left.png,media/padded_stims/animate_048_left.png,inanimate_pair_left,animate_pair_left,animacy,4,NA,NA,NA,NA,NA,NA,NA,NA,NA,NA
NA,NA,NA,NA,NA,curtain-display,73,239026,0.0-73.0,SS1673386322769,63bdacb46bfec1782ed31c9f,63bdd94fa7fe7803101fe03e,1327,696,NA,354,NA,1354,deviant_block,media/padded_stims/inanimate_053_left.png,media/padded_stims/animate_048_left.png,inanimate_pair_left,animate_pair_left,animacy,4,NA,NA,NA,NA,NA,NA,NA,NA,NA,NA
NA,NA,NA,NA,NA,survey-likert,74,241610,0.0-74.0,SS1673386322769,63bdacb46bfec1782ed31c9f,63bdd94fa7fe7803101fe03e,1327,696,NA,2579,NA,NA,NA,NA,NA,NA,NA,NA,NA,"{""Q0"":1}",[0],deviant,NA,NA,NA,NA,NA,NA,NA
NA,NA,NA,NA,NA,curtain-display,75,243478,0.0-75.0,SS1673386322769,63bdacb46bfec1782ed31c9f,63bdd94fa7fe7803101fe03e,1327,696,NA,35,NA,1035,deviant_block,media/padded_stims/animate_020_right.png,media/padded_stims/inanimate_032_right.png,animate_single_right,inanimate_single_right,animacy,6,NA,NA,NA,NA,NA,NA,NA,NA,NA,NA
NA,NA,NA,NA,NA,curtain-display,76,245625,0.0-76.0,SS1673386322769,63bdacb46bfec1782ed31c9f,63bdd94fa7fe7803101fe03e,1327,696,NA,318,NA,1318,deviant_block,media/padded_stims/animate_020_right.png,media/padded_stims/inanimate_032_right.png,animate_single_right,inanimate_single_right,animacy,6,NA,NA,NA,NA,NA,NA,NA,NA,NA,NA
NA,NA,NA,NA,NA,curtain-display,77,247509,0.0-77.0,SS1673386322769,63bdacb46bfec1782ed31c9f,63bdd94fa7fe7803101fe03e,1327,696,NA,57,NA,1057,deviant_block,media/padded_stims/animate_020_right.png,media/padded_stims/inanimate_032_right.png,animate_single_right,inanimate_single_right,animacy,6,NA,NA,NA,NA,NA,NA,NA,NA,NA,NA
NA,NA,NA,NA,NA,curtain-display,78,249739,0.0-78.0,SS1673386322769,63bdacb46bfec1782ed31c9f,63bdd94fa7fe7803101fe03e,1327,696,NA,415,NA,1415,deviant_block,media/padded_stims/animate_020_right.png,media/padded_stims/inanimate_032_right.png,animate_single_right,inanimate_single_right,animacy,6,NA,NA,NA,NA,NA,NA,NA,NA,NA,NA
NA,NA,NA,NA,NA,curtain-display,79,251594,0.0-79.0,SS1673386322769,63bdacb46bfec1782ed31c9f,63bdd94fa7fe7803101fe03e,1327,696,NA,26,NA,1026,deviant_block,media/padded_stims/animate_020_right.png,media/padded_stims/inanimate_032_right.png,animate_single_right,inanimate_single_right,animacy,6,NA,NA,NA,NA,NA,NA,NA,NA,NA,NA
NA,NA,NA,NA,NA,curtain-display,80,253480,0.0-80.0,SS1673386322769,63bdacb46bfec1782ed31c9f,63bdd94fa7fe7803101fe03e,1327,696,NA,62,NA,1062,deviant_block,media/padded_stims/animate_020_right.png,media/padded_stims/inanimate_032_right.png,animate_single_right,inanimate_single_right,animacy,6,NA,NA,NA,NA,NA,NA,NA,NA,NA,NA
NA,NA,NA,NA,NA,survey-likert,81,255284,0.0-81.0,SS1673386322769,63bdacb46bfec1782ed31c9f,63bdd94fa7fe7803101fe03e,1327,696,NA,1801,NA,NA,NA,NA,NA,NA,NA,NA,NA,"{""Q0"":0}",[0],background,NA,NA,NA,NA,NA,NA,NA
NA,NA,NA,NA,NA,curtain-display,82,257173,0.0-82.0,SS1673386322769,63bdacb46bfec1782ed31c9f,63bdd94fa7fe7803101fe03e,1327,696,NA,76,NA,1076,deviant_block,media/padded_stims/animate_043_right.png,media/padded_stims/animate_038_right.png,animate_pair_right,animate_single_right,number,2,NA,NA,NA,NA,NA,NA,NA,NA,NA,NA
NA,NA,NA,NA,NA,curtain-display,83,259489,0.0-83.0,SS1673386322769,63bdacb46bfec1782ed31c9f,63bdd94fa7fe7803101fe03e,1327,696,NA,482,NA,1482,deviant_block,media/padded_stims/animate_043_right.png,media/padded_stims/animate_038_right.png,animate_pair_right,animate_single_right,number,2,NA,NA,NA,NA,NA,NA,NA,NA,NA,NA
NA,NA,NA,NA,NA,survey-likert,84,260973,0.0-84.0,SS1673386322769,63bdacb46bfec1782ed31c9f,63bdd94fa7fe7803101fe03e,1327,696,NA,1480,NA,NA,NA,NA,NA,NA,NA,NA,NA,"{""Q0"":0}",[0],deviant,NA,NA,NA,NA,NA,NA,NA
NA,NA,NA,NA,NA,curtain-display,85,263258,0.0-85.0,SS1673386322769,63bdacb46bfec1782ed31c9f,63bdd94fa7fe7803101fe03e,1327,696,NA,468,NA,1468,background_block,media/padded_stims/inanimate_069_right.png,null,inanimate_pair_right,null,null,4,NA,NA,NA,NA,NA,NA,NA,NA,NA,NA
NA,NA,NA,NA,NA,curtain-display,86,265141,0.0-86.0,SS1673386322769,63bdacb46bfec1782ed31c9f,63bdd94fa7fe7803101fe03e,1327,696,NA,50,NA,1050,background_block,media/padded_stims/inanimate_069_right.png,null,inanimate_pair_right,null,null,4,NA,NA,NA,NA,NA,NA,NA,NA,NA,NA
NA,NA,NA,NA,NA,curtain-display,87,267119,0.0-87.0,SS1673386322769,63bdacb46bfec1782ed31c9f,63bdd94fa7fe7803101fe03e,1327,696,NA,158,NA,1158,background_block,media/padded_stims/inanimate_069_right.png,null,inanimate_pair_right,null,null,4,NA,NA,NA,NA,NA,NA,NA,NA,NA,NA
NA,NA,NA,NA,NA,curtain-display,88,269195,0.0-88.0,SS1673386322769,63bdacb46bfec1782ed31c9f,63bdd94fa7fe7803101fe03e,1327,696,NA,257,NA,1257,background_block,media/padded_stims/inanimate_069_right.png,null,inanimate_pair_right,null,null,4,NA,NA,NA,NA,NA,NA,NA,NA,NA,NA
NA,NA,NA,NA,NA,survey-likert,89,271246,0.0-89.0,SS1673386322769,63bdacb46bfec1782ed31c9f,63bdd94fa7fe7803101fe03e,1327,696,NA,2048,NA,NA,NA,NA,NA,NA,NA,NA,NA,"{""Q0"":0}",[0],background,NA,NA,NA,NA,NA,NA,NA
NA,NA,NA,NA,NA,instructions,90,272477,0.0-90.0,SS1673386322769,63bdacb46bfec1782ed31c9f,63bdd94fa7fe7803101fe03e,1327,696,"[{""page_index"":0,""viewing_time"":1226}]",1227,NA,NA,NA,NA,NA,NA,NA,NA,NA,NA,NA,NA,NA,NA,NA,NA,NA,NA,NA
NA,NA,NA,NA,NA,survey-likert,91,278624,0.0-91.0,SS1673386322769,63bdacb46bfec1782ed31c9f,63bdd94fa7fe7803101fe03e,1327,696,NA,6143,NA,NA,NA,NA,NA,NA,NA,animacy,2,"{""Q0"":1}",[0],NA,media/padded_stims/inanimate_048_left.png,media/padded_stims/animate_071_left.png,animacy,NA,NA,NA,NA
NA,NA,NA,NA,NA,survey-likert,92,283119,0.0-92.0,SS1673386322769,63bdacb46bfec1782ed31c9f,63bdd94fa7fe7803101fe03e,1327,696,NA,4492,NA,NA,NA,NA,NA,NA,NA,pose,4,"{""Q0"":4}",[0],NA,media/padded_stims/inanimate_019_right.png,media/padded_stims/inanimate_078_left.png,pose,NA,NA,NA,NA
NA,NA,NA,NA,NA,survey-likert,93,285175,0.0-93.0,SS1673386322769,63bdacb46bfec1782ed31c9f,63bdd94fa7fe7803101fe03e,1327,696,NA,2052,NA,NA,NA,NA,NA,NA,NA,identity,6,"{""Q0"":3}",[0],NA,media/padded_stims/inanimate_012_right.png,media/padded_stims/inanimate_018_right.png,identity,NA,NA,NA,NA
NA,NA,NA,NA,NA,survey-likert,94,287696,0.0-94.0,SS1673386322769,63bdacb46bfec1782ed31c9f,63bdd94fa7fe7803101fe03e,1327,696,NA,2517,NA,NA,NA,NA,NA,NA,NA,pose,2,"{""Q0"":2}",[0],NA,media/padded_stims/animate_007_left.png,media/padded_stims/animate_058_right.png,pose,NA,NA,NA,NA
NA,NA,NA,NA,NA,survey-likert,95,290296,0.0-95.0,SS1673386322769,63bdacb46bfec1782ed31c9f,63bdd94fa7fe7803101fe03e,1327,696,NA,2596,NA,NA,NA,NA,NA,NA,NA,pose,4,"{""Q0"":2}",[0],NA,media/padded_stims/animate_002_left.png,media/padded_stims/animate_072_right.png,pose,NA,NA,NA,NA
NA,NA,NA,NA,NA,survey-likert,96,292551,0.0-96.0,SS1673386322769,63bdacb46bfec1782ed31c9f,63bdd94fa7fe7803101fe03e,1327,696,NA,2253,NA,NA,NA,NA,NA,NA,NA,animacy,4,"{""Q0"":0}",[0],NA,media/padded_stims/inanimate_053_left.png,media/padded_stims/animate_048_left.png,animacy,NA,NA,NA,NA
NA,NA,NA,NA,NA,survey-likert,97,295048,0.0-97.0,SS1673386322769,63bdacb46bfec1782ed31c9f,63bdd94fa7fe7803101fe03e,1327,696,NA,2492,NA,NA,NA,NA,NA,NA,NA,animacy,6,"{""Q0"":2}",[0],NA,media/padded_stims/animate_020_right.png,media/padded_stims/inanimate_032_right.png,animacy,NA,NA,NA,NA
NA,NA,NA,NA,NA,survey-likert,98,297272,0.0-98.0,SS1673386322769,63bdacb46bfec1782ed31c9f,63bdd94fa7fe7803101fe03e,1327,696,NA,2222,NA,NA,NA,NA,NA,NA,NA,number,2,"{""Q0"":1}",[0],NA,media/padded_stims/animate_043_right.png,media/padded_stims/animate_038_right.png,number,NA,NA,NA,NA
NA,NA,NA,NA,NA,survey-likert,99,301561,0.0-99.0,SS1673386322769,63bdacb46bfec1782ed31c9f,63bdd94fa7fe7803101fe03e,1327,696,NA,4286,NA,NA,NA,NA,NA,NA,NA,NA,NA,"{""Q0"":1}",[0],NA,NA,NA,NA,background,1,media/padded_stims/inanimate_048_left.png,NA
NA,NA,NA,NA,NA,survey-likert,100,302633,0.0-100.0,SS1673386322769,63bdacb46bfec1782ed31c9f,63bdd94fa7fe7803101fe03e,1327,696,NA,1070,NA,NA,NA,NA,NA,NA,NA,NA,NA,"{""Q0"":1}",[0],NA,NA,NA,NA,deviant,1,media/padded_stims/animate_071_left.png,NA
NA,NA,NA,NA,NA,survey-likert,101,304065,0.0-101.0,SS1673386322769,63bdacb46bfec1782ed31c9f,63bdd94fa7fe7803101fe03e,1327,696,NA,1429,NA,NA,NA,NA,NA,NA,NA,NA,NA,"{""Q0"":1}",[0],NA,NA,NA,NA,background,3,media/padded_stims/inanimate_019_right.png,NA
NA,NA,NA,NA,NA,survey-likert,102,305697,0.0-102.0,SS1673386322769,63bdacb46bfec1782ed31c9f,63bdd94fa7fe7803101fe03e,1327,696,NA,1630,NA,NA,NA,NA,NA,NA,NA,NA,NA,"{""Q0"":1}",[0],NA,NA,NA,NA,deviant,1,media/padded_stims/inanimate_078_left.png,NA
NA,NA,NA,NA,NA,survey-likert,103,308091,0.0-103.0,SS1673386322769,63bdacb46bfec1782ed31c9f,63bdd94fa7fe7803101fe03e,1327,696,NA,2391,NA,NA,NA,NA,NA,NA,NA,NA,NA,"{""Q0"":0}",[0],NA,NA,NA,NA,background,4,media/padded_stims/animate_037_left.png,NA
NA,NA,NA,NA,NA,survey-likert,104,309482,0.0-104.0,SS1673386322769,63bdacb46bfec1782ed31c9f,63bdd94fa7fe7803101fe03e,1327,696,NA,1387,NA,NA,NA,NA,NA,NA,NA,NA,NA,"{""Q0"":1}",[0],NA,NA,NA,NA,background,5,media/padded_stims/inanimate_012_right.png,NA
NA,NA,NA,NA,NA,survey-likert,105,310554,0.0-105.0,SS1673386322769,63bdacb46bfec1782ed31c9f,63bdd94fa7fe7803101fe03e,1327,696,NA,1069,NA,NA,NA,NA,NA,NA,NA,NA,NA,"{""Q0"":1}",[0],NA,NA,NA,NA,deviant,1,media/padded_stims/inanimate_018_right.png,NA
NA,NA,NA,NA,NA,survey-likert,106,311897,0.0-106.0,SS1673386322769,63bdacb46bfec1782ed31c9f,63bdd94fa7fe7803101fe03e,1327,696,NA,1341,NA,NA,NA,NA,NA,NA,NA,NA,NA,"{""Q0"":1}",[0],NA,NA,NA,NA,background,2,media/padded_stims/animate_006_right.png,NA
NA,NA,NA,NA,NA,survey-likert,107,313043,0.0-107.0,SS1673386322769,63bdacb46bfec1782ed31c9f,63bdd94fa7fe7803101fe03e,1327,696,NA,1142,NA,NA,NA,NA,NA,NA,NA,NA,NA,"{""Q0"":1}",[0],NA,NA,NA,NA,background,1,media/padded_stims/animate_007_left.png,NA
NA,NA,NA,NA,NA,survey-likert,108,314595,0.0-108.0,SS1673386322769,63bdacb46bfec1782ed31c9f,63bdd94fa7fe7803101fe03e,1327,696,NA,1548,NA,NA,NA,NA,NA,NA,NA,NA,NA,"{""Q0"":2}",[0],NA,NA,NA,NA,deviant,1,media/padded_stims/animate_058_right.png,NA
NA,NA,NA,NA,NA,survey-likert,109,316923,0.0-109.0,SS1673386322769,63bdacb46bfec1782ed31c9f,63bdd94fa7fe7803101fe03e,1327,696,NA,2326,NA,NA,NA,NA,NA,NA,NA,NA,NA,"{""Q0"":1}",[0],NA,NA,NA,NA,background,4,media/padded_stims/inanimate_032_left.png,NA
NA,NA,NA,NA,NA,survey-likert,110,319011,0.0-110.0,SS1673386322769,63bdacb46bfec1782ed31c9f,63bdd94fa7fe7803101fe03e,1327,696,NA,2086,NA,NA,NA,NA,NA,NA,NA,NA,NA,"{""Q0"":2}",[0],NA,NA,NA,NA,background,6,media/padded_stims/inanimate_038_right.png,NA
NA,NA,NA,NA,NA,survey-likert,111,321395,0.0-111.0,SS1673386322769,63bdacb46bfec1782ed31c9f,63bdd94fa7fe7803101fe03e,1327,696,NA,2381,NA,NA,NA,NA,NA,NA,NA,NA,NA,"{""Q0"":1}",[0],NA,NA,NA,NA,background,4,media/padded_stims/inanimate_026_left.png,NA
NA,NA,NA,NA,NA,survey-likert,112,348799,0.0-112.0,SS1673386322769,63bdacb46bfec1782ed31c9f,63bdd94fa7fe7803101fe03e,1327,696,NA,27401,NA,NA,NA,NA,NA,NA,NA,NA,NA,"{""Q0"":1}",[0],NA,NA,NA,NA,background,6,media/padded_stims/animate_009_right.png,NA
NA,NA,NA,NA,NA,survey-likert,113,350071,0.0-113.0,SS1673386322769,63bdacb46bfec1782ed31c9f,63bdd94fa7fe7803101fe03e,1327,696,NA,1266,NA,NA,NA,NA,NA,NA,NA,NA,NA,"{""Q0"":1}",[0],NA,NA,NA,NA,background,6,media/padded_stims/animate_059_left.png,NA
NA,NA,NA,NA,NA,survey-likert,114,351479,0.0-114.0,SS1673386322769,63bdacb46bfec1782ed31c9f,63bdd94fa7fe7803101fe03e,1327,696,NA,1403,NA,NA,NA,NA,NA,NA,NA,NA,NA,"{""Q0"":1}",[0],NA,NA,NA,NA,background,3,media/padded_stims/animate_002_left.png,NA
NA,NA,NA,NA,NA,survey-likert,115,355705,0.0-115.0,SS1673386322769,63bdacb46bfec1782ed31c9f,63bdd94fa7fe7803101fe03e,1327,696,NA,4220,NA,NA,NA,NA,NA,NA,NA,NA,NA,"{""Q0"":0}",[0],NA,NA,NA,NA,deviant,1,media/padded_stims/animate_072_right.png,NA
NA,NA,NA,NA,NA,survey-likert,116,357536,0.0-116.0,SS1673386322769,63bdacb46bfec1782ed31c9f,63bdd94fa7fe7803101fe03e,1327,696,NA,1828,NA,NA,NA,NA,NA,NA,NA,NA,NA,"{""Q0"":1}",[0],NA,NA,NA,NA,background,3,media/padded_stims/inanimate_053_left.png,NA
NA,NA,NA,NA,NA,survey-likert,117,359193,0.0-117.0,SS1673386322769,63bdacb46bfec1782ed31c9f,63bdd94fa7fe7803101fe03e,1327,696,NA,1654,NA,NA,NA,NA,NA,NA,NA,NA,NA,"{""Q0"":1}",[0],NA,NA,NA,NA,deviant,1,media/padded_stims/animate_048_left.png,NA
NA,NA,NA,NA,NA,survey-likert,118,361161,0.0-118.0,SS1673386322769,63bdacb46bfec1782ed31c9f,63bdd94fa7fe7803101fe03e,1327,696,NA,1964,NA,NA,NA,NA,NA,NA,NA,NA,NA,"{""Q0"":1}",[0],NA,NA,NA,NA,background,5,media/padded_stims/animate_020_right.png,NA
NA,NA,NA,NA,NA,survey-likert,119,362968,0.0-119.0,SS1673386322769,63bdacb46bfec1782ed31c9f,63bdd94fa7fe7803101fe03e,1327,696,NA,1803,NA,NA,NA,NA,NA,NA,NA,NA,NA,"{""Q0"":1}",[0],NA,NA,NA,NA,deviant,1,media/padded_stims/inanimate_032_right.png,NA
NA,NA,NA,NA,NA,survey-likert,120,365161,0.0-120.0,SS1673386322769,63bdacb46bfec1782ed31c9f,63bdd94fa7fe7803101fe03e,1327,696,NA,2189,NA,NA,NA,NA,NA,NA,NA,NA,NA,"{""Q0"":0}",[0],NA,NA,NA,NA,background,1,media/padded_stims/animate_043_right.png,NA
NA,NA,NA,NA,NA,survey-likert,121,367226,0.0-121.0,SS1673386322769,63bdacb46bfec1782ed31c9f,63bdd94fa7fe7803101fe03e,1327,696,NA,2062,NA,NA,NA,NA,NA,NA,NA,NA,NA,"{""Q0"":2}",[0],NA,NA,NA,NA,deviant,1,media/padded_stims/animate_038_right.png,NA
NA,NA,NA,NA,NA,survey-likert,122,368801,0.0-122.0,SS1673386322769,63bdacb46bfec1782ed31c9f,63bdd94fa7fe7803101fe03e,1327,696,NA,1571,NA,NA,NA,NA,NA,NA,NA,NA,NA,"{""Q0"":1}",[0],NA,NA,NA,NA,background,4,media/padded_stims/inanimate_069_right.png,NA
NA,NA,NA,NA,NA,html-button-response,123,369857,0.0-123.0,SS1673386322769,63bdacb46bfec1782ed31c9f,63bdd94fa7fe7803101fe03e,1327,696,NA,1052,NA,NA,NA,NA,NA,NA,NA,NA,NA,0,NA,NA,NA,NA,NA,NA,NA,NA,"<p>Congratulations! You have finished all the tasks tasks!</p><p>Now, we would like to ask a few questions about you.</p>"
NA,NA,NA,NA,NA,survey-text,124,372794,0.0-124.0,SS1673386322769,63bdacb46bfec1782ed31c9f,63bdd94fa7fe7803101fe03e,1327,696,NA,2931,NA,NA,NA,NA,NA,NA,NA,NA,NA,"{""Q0"":""35""}",NA,NA,NA,NA,NA,NA,NA,NA,NA
NA,NA,NA,NA,NA,survey-multi-select,125,376010,0.0-125.0,SS1673386322769,63bdacb46bfec1782ed31c9f,63bdd94fa7fe7803101fe03e,1327,696,NA,3212,NA,NA,NA,NA,NA,NA,NA,NA,NA,"{""ethnicity"":[""White""]}",[0],NA,NA,NA,NA,NA,NA,NA,NA
NA,NA,NA,NA,NA,survey-text,126,378677,0.0-126.0,SS1673386322769,63bdacb46bfec1782ed31c9f,63bdd94fa7fe7803101fe03e,1327,696,NA,2664,NA,NA,NA,NA,NA,NA,NA,NA,NA,"{""Q0"":""male""}",NA,NA,NA,NA,NA,NA,NA,NA,NA
NA,NA,NA,NA,NA,survey-multi-choice,127,381587,0.0-127.0,SS1673386322769,63bdacb46bfec1782ed31c9f,63bdd94fa7fe7803101fe03e,1327,696,NA,2906,NA,NA,NA,NA,NA,NA,NA,NA,NA,"{""education"":""Master's Degree""}",[0],NA,NA,NA,NA,NA,NA,NA,NA
TRUE,NA,NA,NA,NA,fullscreen,128,381589,0.0-128.0,SS1673386322769,63bdacb46bfec1782ed31c9f,63bdd94fa7fe7803101fe03e,1327,696,NA,NA,NA,NA,NA,NA,NA,NA,NA,NA,NA,NA,NA,NA,NA,NA,NA,NA,NA,NA,NA
NA,NA,NA,NA,NA,html-button-response,129,386706,0.0-129.0,SS1673386322769,63bdacb46bfec1782ed31c9f,63bdd94fa7fe7803101fe03e,1327,696,NA,5113,NA,NA,NA,NA,NA,NA,NA,NA,NA,0,NA,NA,NA,NA,NA,NA,NA,NA,<p>Congratulations! You are all done! </p>Your survey code is<p><b>3D699F4F</b></p><p>Please make sure you save this somewhere safe. You will need to enter this code into Prolific to be paid.</p>
TRUE,FALSE,[],[],[],preload,0,24923,0.0-0.0,SS1673386325239,63bdacb46bfec1782ed31c9f,63bdd954ad9f99afc086ce0d,1366,621,NA,NA,NA,NA,NA,NA,NA,NA,NA,NA,NA,NA,NA,NA,NA,NA,NA,NA,NA,NA,NA
TRUE,NA,NA,NA,NA,fullscreen,1,28186,0.0-1.0,SS1673386325239,63bdacb46bfec1782ed31c9f,63bdd954ad9f99afc086ce0d,1366,621,NA,NA,NA,NA,NA,NA,NA,NA,NA,NA,NA,NA,NA,NA,NA,NA,NA,NA,NA,NA,NA
NA,NA,NA,NA,NA,instructions,2,30806,0.0-2.0,SS1673386325239,63bdacb46bfec1782ed31c9f,63bdd954ad9f99afc086ce0d,1366,621,"[{""page_index"":0,""viewing_time"":2618}]",2618,NA,NA,NA,NA,NA,NA,NA,NA,NA,NA,NA,NA,NA,NA,NA,NA,NA,NA,NA
NA,NA,NA,NA,NA,instructions,3,104619,0.0-3.0,SS1673386325239,63bdacb46bfec1782ed31c9f,63bdd954ad9f99afc086ce0d,1366,621,"[{""page_index"":0,""viewing_time"":15514},{""page_index"":1,""viewing_time"":56288}]",71802,instructions,NA,NA,NA,NA,NA,NA,NA,NA,NA,NA,NA,NA,NA,NA,NA,NA,NA,NA
NA,NA,NA,NA,NA,curtain-display,4,110329,0.0-4.0,SS1673386325239,63bdacb46bfec1782ed31c9f,63bdd954ad9f99afc086ce0d,1366,621,NA,3865,instructions,4865,NA,NA,NA,NA,NA,NA,NA,NA,NA,NA,NA,NA,NA,NA,NA,NA,NA
NA,NA,NA,NA,NA,curtain-display,5,114665,0.0-5.0,SS1673386325239,63bdacb46bfec1782ed31c9f,63bdd954ad9f99afc086ce0d,1366,621,NA,2510,instructions,3510,NA,NA,NA,NA,NA,NA,NA,NA,NA,NA,NA,NA,NA,NA,NA,NA,NA
NA,NA,NA,NA,NA,curtain-display,6,117942,0.0-6.0,SS1673386325239,63bdacb46bfec1782ed31c9f,63bdd954ad9f99afc086ce0d,1366,621,NA,1453,instructions,2453,NA,NA,NA,NA,NA,NA,NA,NA,NA,NA,NA,NA,NA,NA,NA,NA,NA
NA,NA,NA,NA,NA,instructions,7,196890,0.0-7.0,SS1673386325239,63bdacb46bfec1782ed31c9f,63bdd954ad9f99afc086ce0d,1366,621,"[{""page_index"":0,""viewing_time"":11546},{""page_index"":1,""viewing_time"":9551},{""page_index"":2,""viewing_time"":53873},{""page_index"":3,""viewing_time"":2329},{""page_index"":4,""viewing_time"":1647}]",78946,instructions,NA,NA,NA,NA,NA,NA,NA,NA,NA,NA,NA,NA,NA,NA,NA,NA,NA,NA
NA,NA,NA,NA,NA,curtain-display,8,199650,0.0-8.0,SS1673386325239,63bdacb46bfec1782ed31c9f,63bdd954ad9f99afc086ce0d,1366,621,NA,938,NA,1938,background_block,media/padded_stims/animate_042_left.png,null,animate_single_left,null,null,2,NA,NA,NA,NA,NA,NA,NA,NA,NA,NA
NA,NA,NA,NA,NA,curtain-display,9,201712,0.0-9.0,SS1673386325239,63bdacb46bfec1782ed31c9f,63bdd954ad9f99afc086ce0d,1366,621,NA,241,NA,1241,background_block,media/padded_stims/animate_042_left.png,null,animate_single_left,null,null,2,NA,NA,NA,NA,NA,NA,NA,NA,NA,NA
NA,NA,NA,NA,NA,survey-likert,10,205959,0.0-10.0,SS1673386325239,63bdacb46bfec1782ed31c9f,63bdd954ad9f99afc086ce0d,1366,621,NA,4240,NA,NA,NA,NA,NA,NA,NA,NA,NA,"{""Q0"":0}",[0],background,NA,NA,NA,NA,NA,NA,NA
NA,NA,NA,NA,NA,curtain-display,11,208639,0.0-11.0,SS1673386325239,63bdacb46bfec1782ed31c9f,63bdd954ad9f99afc086ce0d,1366,621,NA,845,NA,1845,background_block,media/padded_stims/inanimate_019_left.png,null,inanimate_single_left,null,null,2,NA,NA,NA,NA,NA,NA,NA,NA,NA,NA
NA,NA,NA,NA,NA,curtain-display,12,210490,0.0-12.0,SS1673386325239,63bdacb46bfec1782ed31c9f,63bdd954ad9f99afc086ce0d,1366,621,NA,40,NA,1040,background_block,media/padded_stims/inanimate_019_left.png,null,inanimate_single_left,null,null,2,NA,NA,NA,NA,NA,NA,NA,NA,NA,NA
NA,NA,NA,NA,NA,survey-likert,13,215319,0.0-13.0,SS1673386325239,63bdacb46bfec1782ed31c9f,63bdd954ad9f99afc086ce0d,1366,621,NA,4826,NA,NA,NA,NA,NA,NA,NA,NA,NA,"{""Q0"":0}",[0],background,NA,NA,NA,NA,NA,NA,NA
NA,NA,NA,NA,NA,curtain-display,14,218630,0.0-14.0,SS1673386325239,63bdacb46bfec1782ed31c9f,63bdd954ad9f99afc086ce0d,1366,621,NA,1482,NA,2482,deviant_block,media/padded_stims/animate_072_left.png,media/padded_stims/animate_020_right.png,animate_single_left,animate_single_right,pose,4,NA,NA,NA,NA,NA,NA,NA,NA,NA,NA
NA,NA,NA,NA,NA,curtain-display,15,221812,0.0-15.0,SS1673386325239,63bdacb46bfec1782ed31c9f,63bdd954ad9f99afc086ce0d,1366,621,NA,1366,NA,2366,deviant_block,media/padded_stims/animate_072_left.png,media/padded_stims/animate_020_right.png,animate_single_left,animate_single_right,pose,4,NA,NA,NA,NA,NA,NA,NA,NA,NA,NA
NA,NA,NA,NA,NA,curtain-display,16,223941,0.0-16.0,SS1673386325239,63bdacb46bfec1782ed31c9f,63bdd954ad9f99afc086ce0d,1366,621,NA,308,NA,1308,deviant_block,media/padded_stims/animate_072_left.png,media/padded_stims/animate_020_right.png,animate_single_left,animate_single_right,pose,4,NA,NA,NA,NA,NA,NA,NA,NA,NA,NA
NA,NA,NA,NA,NA,curtain-display,17,226008,0.0-17.0,SS1673386325239,63bdacb46bfec1782ed31c9f,63bdd954ad9f99afc086ce0d,1366,621,NA,254,NA,1254,deviant_block,media/padded_stims/animate_072_left.png,media/padded_stims/animate_020_right.png,animate_single_left,animate_single_right,pose,4,NA,NA,NA,NA,NA,NA,NA,NA,NA,NA
NA,NA,NA,NA,NA,survey-likert,18,229618,0.0-18.0,SS1673386325239,63bdacb46bfec1782ed31c9f,63bdd954ad9f99afc086ce0d,1366,621,NA,3607,NA,NA,NA,NA,NA,NA,NA,NA,NA,"{""Q0"":0}",[0],deviant,NA,NA,NA,NA,NA,NA,NA
NA,NA,NA,NA,NA,curtain-display,19,231634,0.0-19.0,SS1673386325239,63bdacb46bfec1782ed31c9f,63bdd954ad9f99afc086ce0d,1366,621,NA,197,NA,1197,background_block,media/padded_stims/inanimate_010_right.png,null,inanimate_pair_right,null,null,2,NA,NA,NA,NA,NA,NA,NA,NA,NA,NA
NA,NA,NA,NA,NA,curtain-display,20,233479,0.0-20.0,SS1673386325239,63bdacb46bfec1782ed31c9f,63bdd954ad9f99afc086ce0d,1366,621,NA,39,NA,1039,background_block,media/padded_stims/inanimate_010_right.png,null,inanimate_pair_right,null,null,2,NA,NA,NA,NA,NA,NA,NA,NA,NA,NA
NA,NA,NA,NA,NA,survey-likert,21,239984,0.0-21.0,SS1673386325239,63bdacb46bfec1782ed31c9f,63bdd954ad9f99afc086ce0d,1366,621,NA,6501,NA,NA,NA,NA,NA,NA,NA,NA,NA,"{""Q0"":0}",[0],background,NA,NA,NA,NA,NA,NA,NA
NA,NA,NA,NA,NA,curtain-display,22,242015,0.0-22.0,SS1673386325239,63bdacb46bfec1782ed31c9f,63bdd954ad9f99afc086ce0d,1366,621,NA,203,NA,1203,deviant_block,media/padded_stims/inanimate_076_right.png,media/padded_stims/animate_036_right.png,inanimate_single_right,animate_single_right,animacy,6,NA,NA,NA,NA,NA,NA,NA,NA,NA,NA
NA,NA,NA,NA,NA,curtain-display,23,244119,0.0-23.0,SS1673386325239,63bdacb46bfec1782ed31c9f,63bdd954ad9f99afc086ce0d,1366,621,NA,289,NA,1289,deviant_block,media/padded_stims/inanimate_076_right.png,media/padded_stims/animate_036_right.png,inanimate_single_right,animate_single_right,animacy,6,NA,NA,NA,NA,NA,NA,NA,NA,NA,NA
NA,NA,NA,NA,NA,curtain-display,24,246153,0.0-24.0,SS1673386325239,63bdacb46bfec1782ed31c9f,63bdd954ad9f99afc086ce0d,1366,621,NA,224,NA,1224,deviant_block,media/padded_stims/inanimate_076_right.png,media/padded_stims/animate_036_right.png,inanimate_single_right,animate_single_right,animacy,6,NA,NA,NA,NA,NA,NA,NA,NA,NA,NA
NA,NA,NA,NA,NA,curtain-display,25,247983,0.0-25.0,SS1673386325239,63bdacb46bfec1782ed31c9f,63bdd954ad9f99afc086ce0d,1366,621,NA,4,NA,1004,deviant_block,media/padded_stims/inanimate_076_right.png,media/padded_stims/animate_036_right.png,inanimate_single_right,animate_single_right,animacy,6,NA,NA,NA,NA,NA,NA,NA,NA,NA,NA
NA,NA,NA,NA,NA,curtain-display,26,249943,0.0-26.0,SS1673386325239,63bdacb46bfec1782ed31c9f,63bdd954ad9f99afc086ce0d,1366,621,NA,137,NA,1137,deviant_block,media/padded_stims/inanimate_076_right.png,media/padded_stims/animate_036_right.png,inanimate_single_right,animate_single_right,animacy,6,NA,NA,NA,NA,NA,NA,NA,NA,NA,NA
NA,NA,NA,NA,NA,curtain-display,27,252128,0.0-27.0,SS1673386325239,63bdacb46bfec1782ed31c9f,63bdd954ad9f99afc086ce0d,1366,621,NA,374,NA,1374,deviant_block,media/padded_stims/inanimate_076_right.png,media/padded_stims/animate_036_right.png,inanimate_single_right,animate_single_right,animacy,6,NA,NA,NA,NA,NA,NA,NA,NA,NA,NA
NA,NA,NA,NA,NA,survey-likert,28,256240,0.0-28.0,SS1673386325239,63bdacb46bfec1782ed31c9f,63bdd954ad9f99afc086ce0d,1366,621,NA,4107,NA,NA,NA,NA,NA,NA,NA,NA,NA,"{""Q0"":0}",[0],background,NA,NA,NA,NA,NA,NA,NA
NA,NA,NA,NA,NA,curtain-display,29,258740,0.0-29.0,SS1673386325239,63bdacb46bfec1782ed31c9f,63bdd954ad9f99afc086ce0d,1366,621,NA,666,NA,1666,deviant_block,media/padded_stims/inanimate_075_left.png,media/padded_stims/animate_046_left.png,inanimate_single_left,animate_single_left,animacy,6,NA,NA,NA,NA,NA,NA,NA,NA,NA,NA
NA,NA,NA,NA,NA,curtain-display,30,261126,0.0-30.0,SS1673386325239,63bdacb46bfec1782ed31c9f,63bdd954ad9f99afc086ce0d,1366,621,NA,575,NA,1575,deviant_block,media/padded_stims/inanimate_075_left.png,media/padded_stims/animate_046_left.png,inanimate_single_left,animate_single_left,animacy,6,NA,NA,NA,NA,NA,NA,NA,NA,NA,NA
NA,NA,NA,NA,NA,curtain-display,31,263303,0.0-31.0,SS1673386325239,63bdacb46bfec1782ed31c9f,63bdd954ad9f99afc086ce0d,1366,621,NA,359,NA,1359,deviant_block,media/padded_stims/inanimate_075_left.png,media/padded_stims/animate_046_left.png,inanimate_single_left,animate_single_left,animacy,6,NA,NA,NA,NA,NA,NA,NA,NA,NA,NA
NA,NA,NA,NA,NA,curtain-display,32,265301,0.0-32.0,SS1673386325239,63bdacb46bfec1782ed31c9f,63bdd954ad9f99afc086ce0d,1366,621,NA,174,NA,1174,deviant_block,media/padded_stims/inanimate_075_left.png,media/padded_stims/animate_046_left.png,inanimate_single_left,animate_single_left,animacy,6,NA,NA,NA,NA,NA,NA,NA,NA,NA,NA
NA,NA,NA,NA,NA,curtain-display,33,267798,0.0-33.0,SS1673386325239,63bdacb46bfec1782ed31c9f,63bdd954ad9f99afc086ce0d,1366,621,NA,682,NA,1682,deviant_block,media/padded_stims/inanimate_075_left.png,media/padded_stims/animate_046_left.png,inanimate_single_left,animate_single_left,animacy,6,NA,NA,NA,NA,NA,NA,NA,NA,NA,NA
NA,NA,NA,NA,NA,curtain-display,34,270544,0.0-34.0,SS1673386325239,63bdacb46bfec1782ed31c9f,63bdd954ad9f99afc086ce0d,1366,621,NA,931,NA,1931,deviant_block,media/padded_stims/inanimate_075_left.png,media/padded_stims/animate_046_left.png,inanimate_single_left,animate_single_left,animacy,6,NA,NA,NA,NA,NA,NA,NA,NA,NA,NA
NA,NA,NA,NA,NA,survey-likert,35,274080,0.0-35.0,SS1673386325239,63bdacb46bfec1782ed31c9f,63bdd954ad9f99afc086ce0d,1366,621,NA,3532,NA,NA,NA,NA,NA,NA,NA,NA,NA,"{""Q0"":0}",[0],background,NA,NA,NA,NA,NA,NA,NA
NA,NA,NA,NA,NA,curtain-display,36,276119,0.0-36.0,SS1673386325239,63bdacb46bfec1782ed31c9f,63bdd954ad9f99afc086ce0d,1366,621,NA,209,NA,1209,deviant_block,media/padded_stims/inanimate_065_left.png,media/padded_stims/inanimate_015_right.png,inanimate_pair_left,inanimate_pair_right,pose,4,NA,NA,NA,NA,NA,NA,NA,NA,NA,NA
NA,NA,NA,NA,NA,curtain-display,37,278031,0.0-37.0,SS1673386325239,63bdacb46bfec1782ed31c9f,63bdd954ad9f99afc086ce0d,1366,621,NA,94,NA,1094,deviant_block,media/padded_stims/inanimate_065_left.png,media/padded_stims/inanimate_015_right.png,inanimate_pair_left,inanimate_pair_right,pose,4,NA,NA,NA,NA,NA,NA,NA,NA,NA,NA
NA,NA,NA,NA,NA,curtain-display,38,280015,0.0-38.0,SS1673386325239,63bdacb46bfec1782ed31c9f,63bdd954ad9f99afc086ce0d,1366,621,NA,169,NA,1169,deviant_block,media/padded_stims/inanimate_065_left.png,media/padded_stims/inanimate_015_right.png,inanimate_pair_left,inanimate_pair_right,pose,4,NA,NA,NA,NA,NA,NA,NA,NA,NA,NA
NA,NA,NA,NA,NA,curtain-display,39,282167,0.0-39.0,SS1673386325239,63bdacb46bfec1782ed31c9f,63bdd954ad9f99afc086ce0d,1366,621,NA,326,NA,1326,deviant_block,media/padded_stims/inanimate_065_left.png,media/padded_stims/inanimate_015_right.png,inanimate_pair_left,inanimate_pair_right,pose,4,NA,NA,NA,NA,NA,NA,NA,NA,NA,NA
NA,NA,NA,NA,NA,survey-likert,40,285868,0.0-40.0,SS1673386325239,63bdacb46bfec1782ed31c9f,63bdd954ad9f99afc086ce0d,1366,621,NA,3695,NA,NA,NA,NA,NA,NA,NA,NA,NA,"{""Q0"":0}",[0],background,NA,NA,NA,NA,NA,NA,NA
NA,NA,NA,NA,NA,curtain-display,41,287864,0.0-41.0,SS1673386325239,63bdacb46bfec1782ed31c9f,63bdd954ad9f99afc086ce0d,1366,621,NA,167,NA,1167,deviant_block,media/padded_stims/animate_010_right.png,media/padded_stims/inanimate_004_right.png,animate_single_right,inanimate_single_right,animacy,4,NA,NA,NA,NA,NA,NA,NA,NA,NA,NA
NA,NA,NA,NA,NA,curtain-display,42,289711,0.0-42.0,SS1673386325239,63bdacb46bfec1782ed31c9f,63bdd954ad9f99afc086ce0d,1366,621,NA,32,NA,1032,deviant_block,media/padded_stims/animate_010_right.png,media/padded_stims/inanimate_004_right.png,animate_single_right,inanimate_single_right,animacy,4,NA,NA,NA,NA,NA,NA,NA,NA,NA,NA
NA,NA,NA,NA,NA,curtain-display,43,291552,0.0-43.0,SS1673386325239,63bdacb46bfec1782ed31c9f,63bdd954ad9f99afc086ce0d,1366,621,NA,26,NA,1026,deviant_block,media/padded_stims/animate_010_right.png,media/padded_stims/inanimate_004_right.png,animate_single_right,inanimate_single_right,animacy,4,NA,NA,NA,NA,NA,NA,NA,NA,NA,NA
NA,NA,NA,NA,NA,curtain-display,44,293465,0.0-44.0,SS1673386325239,63bdacb46bfec1782ed31c9f,63bdd954ad9f99afc086ce0d,1366,621,NA,92,NA,1092,deviant_block,media/padded_stims/animate_010_right.png,media/padded_stims/inanimate_004_right.png,animate_single_right,inanimate_single_right,animacy,4,NA,NA,NA,NA,NA,NA,NA,NA,NA,NA
NA,NA,NA,NA,NA,survey-likert,45,297293,0.0-45.0,SS1673386325239,63bdacb46bfec1782ed31c9f,63bdd954ad9f99afc086ce0d,1366,621,NA,3823,NA,NA,NA,NA,NA,NA,NA,NA,NA,"{""Q0"":0}",[0],background,NA,NA,NA,NA,NA,NA,NA
NA,NA,NA,NA,NA,curtain-display,46,299570,0.0-46.0,SS1673386325239,63bdacb46bfec1782ed31c9f,63bdd954ad9f99afc086ce0d,1366,621,NA,449,NA,1449,deviant_block,media/padded_stims/inanimate_043_right.png,media/padded_stims/inanimate_053_right.png,inanimate_pair_right,inanimate_pair_right,identity,4,NA,NA,NA,NA,NA,NA,NA,NA,NA,NA
NA,NA,NA,NA,NA,curtain-display,47,301432,0.0-47.0,SS1673386325239,63bdacb46bfec1782ed31c9f,63bdd954ad9f99afc086ce0d,1366,621,NA,44,NA,1044,deviant_block,media/padded_stims/inanimate_043_right.png,media/padded_stims/inanimate_053_right.png,inanimate_pair_right,inanimate_pair_right,identity,4,NA,NA,NA,NA,NA,NA,NA,NA,NA,NA
NA,NA,NA,NA,NA,curtain-display,48,303529,0.0-48.0,SS1673386325239,63bdacb46bfec1782ed31c9f,63bdd954ad9f99afc086ce0d,1366,621,NA,286,NA,1286,deviant_block,media/padded_stims/inanimate_043_right.png,media/padded_stims/inanimate_053_right.png,inanimate_pair_right,inanimate_pair_right,identity,4,NA,NA,NA,NA,NA,NA,NA,NA,NA,NA
NA,NA,NA,NA,NA,curtain-display,49,305712,0.0-49.0,SS1673386325239,63bdacb46bfec1782ed31c9f,63bdd954ad9f99afc086ce0d,1366,621,NA,365,NA,1365,deviant_block,media/padded_stims/inanimate_043_right.png,media/padded_stims/inanimate_053_right.png,inanimate_pair_right,inanimate_pair_right,identity,4,NA,NA,NA,NA,NA,NA,NA,NA,NA,NA
NA,NA,NA,NA,NA,survey-likert,50,309046,0.0-50.0,SS1673386325239,63bdacb46bfec1782ed31c9f,63bdd954ad9f99afc086ce0d,1366,621,NA,3329,NA,NA,NA,NA,NA,NA,NA,NA,NA,"{""Q0"":0}",[0],background,NA,NA,NA,NA,NA,NA,NA
NA,NA,NA,NA,NA,curtain-display,51,311320,0.0-51.0,SS1673386325239,63bdacb46bfec1782ed31c9f,63bdd954ad9f99afc086ce0d,1366,621,NA,444,NA,1444,background_block,media/padded_stims/inanimate_027_left.png,null,inanimate_pair_left,null,null,6,NA,NA,NA,NA,NA,NA,NA,NA,NA,NA
NA,NA,NA,NA,NA,curtain-display,52,313258,0.0-52.0,SS1673386325239,63bdacb46bfec1782ed31c9f,63bdd954ad9f99afc086ce0d,1366,621,NA,119,NA,1119,background_block,media/padded_stims/inanimate_027_left.png,null,inanimate_pair_left,null,null,6,NA,NA,NA,NA,NA,NA,NA,NA,NA,NA
NA,NA,NA,NA,NA,curtain-display,53,315144,0.0-53.0,SS1673386325239,63bdacb46bfec1782ed31c9f,63bdd954ad9f99afc086ce0d,1366,621,NA,67,NA,1067,background_block,media/padded_stims/inanimate_027_left.png,null,inanimate_pair_left,null,null,6,NA,NA,NA,NA,NA,NA,NA,NA,NA,NA
NA,NA,NA,NA,NA,curtain-display,54,317832,0.0-54.0,SS1673386325239,63bdacb46bfec1782ed31c9f,63bdd954ad9f99afc086ce0d,1366,621,NA,861,NA,1861,background_block,media/padded_stims/inanimate_027_left.png,null,inanimate_pair_left,null,null,6,NA,NA,NA,NA,NA,NA,NA,NA,NA,NA
NA,NA,NA,NA,NA,curtain-display,55,320614,0.0-55.0,SS1673386325239,63bdacb46bfec1782ed31c9f,63bdd954ad9f99afc086ce0d,1366,621,NA,970,NA,1970,background_block,media/padded_stims/inanimate_027_left.png,null,inanimate_pair_left,null,null,6,NA,NA,NA,NA,NA,NA,NA,NA,NA,NA
NA,NA,NA,NA,NA,curtain-display,56,322544,0.0-56.0,SS1673386325239,63bdacb46bfec1782ed31c9f,63bdd954ad9f99afc086ce0d,1366,621,NA,110,NA,1110,background_block,media/padded_stims/inanimate_027_left.png,null,inanimate_pair_left,null,null,6,NA,NA,NA,NA,NA,NA,NA,NA,NA,NA
NA,NA,NA,NA,NA,survey-likert,57,331151,0.0-57.0,SS1673386325239,63bdacb46bfec1782ed31c9f,63bdd954ad9f99afc086ce0d,1366,621,NA,8602,NA,NA,NA,NA,NA,NA,NA,NA,NA,"{""Q0"":0}",[0],background,NA,NA,NA,NA,NA,NA,NA
NA,NA,NA,NA,NA,curtain-display,58,333232,0.0-58.0,SS1673386325239,63bdacb46bfec1782ed31c9f,63bdd954ad9f99afc086ce0d,1366,621,NA,244,NA,1244,background_block,media/padded_stims/animate_079_left.png,null,animate_pair_left,null,null,4,NA,NA,NA,NA,NA,NA,NA,NA,NA,NA
NA,NA,NA,NA,NA,curtain-display,59,335067,0.0-59.0,SS1673386325239,63bdacb46bfec1782ed31c9f,63bdd954ad9f99afc086ce0d,1366,621,NA,16,NA,1016,background_block,media/padded_stims/animate_079_left.png,null,animate_pair_left,null,null,4,NA,NA,NA,NA,NA,NA,NA,NA,NA,NA
NA,NA,NA,NA,NA,curtain-display,60,337240,0.0-60.0,SS1673386325239,63bdacb46bfec1782ed31c9f,63bdd954ad9f99afc086ce0d,1366,621,NA,355,NA,1355,background_block,media/padded_stims/animate_079_left.png,null,animate_pair_left,null,null,4,NA,NA,NA,NA,NA,NA,NA,NA,NA,NA
NA,NA,NA,NA,NA,curtain-display,61,339144,0.0-61.0,SS1673386325239,63bdacb46bfec1782ed31c9f,63bdd954ad9f99afc086ce0d,1366,621,NA,80,NA,1080,background_block,media/padded_stims/animate_079_left.png,null,animate_pair_left,null,null,4,NA,NA,NA,NA,NA,NA,NA,NA,NA,NA
NA,NA,NA,NA,NA,survey-likert,62,343030,0.0-62.0,SS1673386325239,63bdacb46bfec1782ed31c9f,63bdd954ad9f99afc086ce0d,1366,621,NA,3880,NA,NA,NA,NA,NA,NA,NA,NA,NA,"{""Q0"":0}",[0],background,NA,NA,NA,NA,NA,NA,NA
NA,NA,NA,NA,NA,curtain-display,63,345072,0.0-63.0,SS1673386325239,63bdacb46bfec1782ed31c9f,63bdd954ad9f99afc086ce0d,1366,621,NA,213,NA,1213,deviant_block,media/padded_stims/animate_002_left.png,media/padded_stims/animate_033_left.png,animate_pair_left,animate_single_left,number,2,NA,NA,NA,NA,NA,NA,NA,NA,NA,NA
NA,NA,NA,NA,NA,curtain-display,64,346988,0.0-64.0,SS1673386325239,63bdacb46bfec1782ed31c9f,63bdd954ad9f99afc086ce0d,1366,621,NA,106,NA,1106,deviant_block,media/padded_stims/animate_002_left.png,media/padded_stims/animate_033_left.png,animate_pair_left,animate_single_left,number,2,NA,NA,NA,NA,NA,NA,NA,NA,NA,NA
NA,NA,NA,NA,NA,survey-likert,65,350538,0.0-65.0,SS1673386325239,63bdacb46bfec1782ed31c9f,63bdd954ad9f99afc086ce0d,1366,621,NA,3544,NA,NA,NA,NA,NA,NA,NA,NA,NA,"{""Q0"":0}",[0],background,NA,NA,NA,NA,NA,NA,NA
NA,NA,NA,NA,NA,curtain-display,66,352543,0.0-66.0,SS1673386325239,63bdacb46bfec1782ed31c9f,63bdd954ad9f99afc086ce0d,1366,621,NA,177,NA,1177,background_block,media/padded_stims/animate_047_right.png,null,animate_single_right,null,null,6,NA,NA,NA,NA,NA,NA,NA,NA,NA,NA
NA,NA,NA,NA,NA,curtain-display,67,354535,0.0-67.0,SS1673386325239,63bdacb46bfec1782ed31c9f,63bdd954ad9f99afc086ce0d,1366,621,NA,183,NA,1183,background_block,media/padded_stims/animate_047_right.png,null,animate_single_right,null,null,6,NA,NA,NA,NA,NA,NA,NA,NA,NA,NA
NA,NA,NA,NA,NA,curtain-display,68,356456,0.0-68.0,SS1673386325239,63bdacb46bfec1782ed31c9f,63bdd954ad9f99afc086ce0d,1366,621,NA,106,NA,1106,background_block,media/padded_stims/animate_047_right.png,null,animate_single_right,null,null,6,NA,NA,NA,NA,NA,NA,NA,NA,NA,NA
NA,NA,NA,NA,NA,curtain-display,69,358440,0.0-69.0,SS1673386325239,63bdacb46bfec1782ed31c9f,63bdd954ad9f99afc086ce0d,1366,621,NA,165,NA,1165,background_block,media/padded_stims/animate_047_right.png,null,animate_single_right,null,null,6,NA,NA,NA,NA,NA,NA,NA,NA,NA,NA
NA,NA,NA,NA,NA,curtain-display,70,360368,0.0-70.0,SS1673386325239,63bdacb46bfec1782ed31c9f,63bdd954ad9f99afc086ce0d,1366,621,NA,116,NA,1116,background_block,media/padded_stims/animate_047_right.png,null,animate_single_right,null,null,6,NA,NA,NA,NA,NA,NA,NA,NA,NA,NA
NA,NA,NA,NA,NA,curtain-display,71,362711,0.0-71.0,SS1673386325239,63bdacb46bfec1782ed31c9f,63bdd954ad9f99afc086ce0d,1366,621,NA,534,NA,1534,background_block,media/padded_stims/animate_047_right.png,null,animate_single_right,null,null,6,NA,NA,NA,NA,NA,NA,NA,NA,NA,NA
NA,NA,NA,NA,NA,survey-likert,72,366266,0.0-72.0,SS1673386325239,63bdacb46bfec1782ed31c9f,63bdd954ad9f99afc086ce0d,1366,621,NA,3546,NA,NA,NA,NA,NA,NA,NA,NA,NA,"{""Q0"":0}",[0],background,NA,NA,NA,NA,NA,NA,NA
NA,NA,NA,NA,NA,curtain-display,73,368256,0.0-73.0,SS1673386325239,63bdacb46bfec1782ed31c9f,63bdd954ad9f99afc086ce0d,1366,621,NA,167,NA,1167,background_block,media/padded_stims/inanimate_070_right.png,null,inanimate_single_right,null,null,6,NA,NA,NA,NA,NA,NA,NA,NA,NA,NA
NA,NA,NA,NA,NA,curtain-display,74,370113,0.0-74.0,SS1673386325239,63bdacb46bfec1782ed31c9f,63bdd954ad9f99afc086ce0d,1366,621,NA,44,NA,1044,background_block,media/padded_stims/inanimate_070_right.png,null,inanimate_single_right,null,null,6,NA,NA,NA,NA,NA,NA,NA,NA,NA,NA
NA,NA,NA,NA,NA,curtain-display,75,371944,0.0-75.0,SS1673386325239,63bdacb46bfec1782ed31c9f,63bdd954ad9f99afc086ce0d,1366,621,NA,15,NA,1015,background_block,media/padded_stims/inanimate_070_right.png,null,inanimate_single_right,null,null,6,NA,NA,NA,NA,NA,NA,NA,NA,NA,NA
NA,NA,NA,NA,NA,curtain-display,76,373776,0.0-76.0,SS1673386325239,63bdacb46bfec1782ed31c9f,63bdd954ad9f99afc086ce0d,1366,621,NA,9,NA,1009,background_block,media/padded_stims/inanimate_070_right.png,null,inanimate_single_right,null,null,6,NA,NA,NA,NA,NA,NA,NA,NA,NA,NA
NA,NA,NA,NA,NA,curtain-display,77,375694,0.0-77.0,SS1673386325239,63bdacb46bfec1782ed31c9f,63bdd954ad9f99afc086ce0d,1366,621,NA,105,NA,1105,background_block,media/padded_stims/inanimate_070_right.png,null,inanimate_single_right,null,null,6,NA,NA,NA,NA,NA,NA,NA,NA,NA,NA
NA,NA,NA,NA,NA,curtain-display,78,377536,0.0-78.0,SS1673386325239,63bdacb46bfec1782ed31c9f,63bdd954ad9f99afc086ce0d,1366,621,NA,25,NA,1025,background_block,media/padded_stims/inanimate_070_right.png,null,inanimate_single_right,null,null,6,NA,NA,NA,NA,NA,NA,NA,NA,NA,NA
NA,NA,NA,NA,NA,survey-likert,79,381325,0.0-79.0,SS1673386325239,63bdacb46bfec1782ed31c9f,63bdd954ad9f99afc086ce0d,1366,621,NA,3782,NA,NA,NA,NA,NA,NA,NA,NA,NA,"{""Q0"":0}",[0],background,NA,NA,NA,NA,NA,NA,NA
NA,NA,NA,NA,NA,curtain-display,80,383360,0.0-80.0,SS1673386325239,63bdacb46bfec1782ed31c9f,63bdd954ad9f99afc086ce0d,1366,621,NA,206,NA,1206,background_block,media/padded_stims/animate_046_right.png,null,animate_pair_right,null,null,2,NA,NA,NA,NA,NA,NA,NA,NA,NA,NA
NA,NA,NA,NA,NA,curtain-display,81,385280,0.0-81.0,SS1673386325239,63bdacb46bfec1782ed31c9f,63bdd954ad9f99afc086ce0d,1366,621,NA,103,NA,1103,background_block,media/padded_stims/animate_046_right.png,null,animate_pair_right,null,null,2,NA,NA,NA,NA,NA,NA,NA,NA,NA,NA
NA,NA,NA,NA,NA,survey-likert,82,391033,0.0-82.0,SS1673386325239,63bdacb46bfec1782ed31c9f,63bdd954ad9f99afc086ce0d,1366,621,NA,5745,NA,NA,NA,NA,NA,NA,NA,NA,NA,"{""Q0"":0}",[0],background,NA,NA,NA,NA,NA,NA,NA
NA,NA,NA,NA,NA,curtain-display,83,393030,0.0-83.0,SS1673386325239,63bdacb46bfec1782ed31c9f,63bdd954ad9f99afc086ce0d,1366,621,NA,168,NA,1168,deviant_block,media/padded_stims/animate_009_right.png,media/padded_stims/inanimate_055_right.png,animate_pair_right,inanimate_pair_right,animacy,4,NA,NA,NA,NA,NA,NA,NA,NA,NA,NA
NA,NA,NA,NA,NA,curtain-display,84,395108,0.0-84.0,SS1673386325239,63bdacb46bfec1782ed31c9f,63bdd954ad9f99afc086ce0d,1366,621,NA,267,NA,1267,deviant_block,media/padded_stims/animate_009_right.png,media/padded_stims/inanimate_055_right.png,animate_pair_right,inanimate_pair_right,animacy,4,NA,NA,NA,NA,NA,NA,NA,NA,NA,NA
NA,NA,NA,NA,NA,curtain-display,85,397539,0.0-85.0,SS1673386325239,63bdacb46bfec1782ed31c9f,63bdd954ad9f99afc086ce0d,1366,621,NA,615,NA,1615,deviant_block,media/padded_stims/animate_009_right.png,media/padded_stims/inanimate_055_right.png,animate_pair_right,inanimate_pair_right,animacy,4,NA,NA,NA,NA,NA,NA,NA,NA,NA,NA
NA,NA,NA,NA,NA,curtain-display,86,399648,0.0-86.0,SS1673386325239,63bdacb46bfec1782ed31c9f,63bdd954ad9f99afc086ce0d,1366,621,NA,283,NA,1283,deviant_block,media/padded_stims/animate_009_right.png,media/padded_stims/inanimate_055_right.png,animate_pair_right,inanimate_pair_right,animacy,4,NA,NA,NA,NA,NA,NA,NA,NA,NA,NA
NA,NA,NA,NA,NA,survey-likert,87,404103,0.0-87.0,SS1673386325239,63bdacb46bfec1782ed31c9f,63bdd954ad9f99afc086ce0d,1366,621,NA,4447,NA,NA,NA,NA,NA,NA,NA,NA,NA,"{""Q0"":0}",[0],background,NA,NA,NA,NA,NA,NA,NA
NA,NA,NA,NA,NA,instructions,88,407206,0.0-88.0,SS1673386325239,63bdacb46bfec1782ed31c9f,63bdd954ad9f99afc086ce0d,1366,621,"[{""page_index"":0,""viewing_time"":3092}]",3093,NA,NA,NA,NA,NA,NA,NA,NA,NA,NA,NA,NA,NA,NA,NA,NA,NA,NA,NA
NA,NA,NA,NA,NA,survey-likert,89,416875,0.0-89.0,SS1673386325239,63bdacb46bfec1782ed31c9f,63bdd954ad9f99afc086ce0d,1366,621,NA,9661,NA,NA,NA,NA,NA,NA,NA,pose,4,"{""Q0"":4}",[0],NA,media/padded_stims/animate_072_left.png,media/padded_stims/animate_020_right.png,pose,NA,NA,NA,NA
NA,NA,NA,NA,NA,survey-likert,90,424286,0.0-90.0,SS1673386325239,63bdacb46bfec1782ed31c9f,63bdd954ad9f99afc086ce0d,1366,621,NA,7401,NA,NA,NA,NA,NA,NA,NA,animacy,6,"{""Q0"":1}",[0],NA,media/padded_stims/inanimate_076_right.png,media/padded_stims/animate_036_right.png,animacy,NA,NA,NA,NA
NA,NA,NA,NA,NA,survey-likert,91,436625,0.0-91.0,SS1673386325239,63bdacb46bfec1782ed31c9f,63bdd954ad9f99afc086ce0d,1366,621,NA,12327,NA,NA,NA,NA,NA,NA,NA,animacy,6,"{""Q0"":1}",[0],NA,media/padded_stims/inanimate_075_left.png,media/padded_stims/animate_046_left.png,animacy,NA,NA,NA,NA
NA,NA,NA,NA,NA,survey-likert,92,439835,0.0-92.0,SS1673386325239,63bdacb46bfec1782ed31c9f,63bdd954ad9f99afc086ce0d,1366,621,NA,3196,NA,NA,NA,NA,NA,NA,NA,pose,4,"{""Q0"":4}",[0],NA,media/padded_stims/inanimate_065_left.png,media/padded_stims/inanimate_015_right.png,pose,NA,NA,NA,NA
NA,NA,NA,NA,NA,survey-likert,93,451203,0.0-93.0,SS1673386325239,63bdacb46bfec1782ed31c9f,63bdd954ad9f99afc086ce0d,1366,621,NA,11357,NA,NA,NA,NA,NA,NA,NA,animacy,4,"{""Q0"":1}",[0],NA,media/padded_stims/animate_010_right.png,media/padded_stims/inanimate_004_right.png,animacy,NA,NA,NA,NA
NA,NA,NA,NA,NA,survey-likert,94,458267,0.0-94.0,SS1673386325239,63bdacb46bfec1782ed31c9f,63bdd954ad9f99afc086ce0d,1366,621,NA,7051,NA,NA,NA,NA,NA,NA,NA,identity,4,"{""Q0"":3}",[0],NA,media/padded_stims/inanimate_043_right.png,media/padded_stims/inanimate_053_right.png,identity,NA,NA,NA,NA
NA,NA,NA,NA,NA,survey-likert,95,464566,0.0-95.0,SS1673386325239,63bdacb46bfec1782ed31c9f,63bdd954ad9f99afc086ce0d,1366,621,NA,6288,NA,NA,NA,NA,NA,NA,NA,number,2,"{""Q0"":5}",[0],NA,media/padded_stims/animate_002_left.png,media/padded_stims/animate_033_left.png,number,NA,NA,NA,NA
NA,NA,NA,NA,NA,survey-likert,96,483243,0.0-96.0,SS1673386325239,63bdacb46bfec1782ed31c9f,63bdd954ad9f99afc086ce0d,1366,621,NA,18664,NA,NA,NA,NA,NA,NA,NA,animacy,4,"{""Q0"":1}",[0],NA,media/padded_stims/animate_009_right.png,media/padded_stims/inanimate_055_right.png,animacy,NA,NA,NA,NA
NA,NA,NA,NA,NA,survey-likert,97,488271,0.0-97.0,SS1673386325239,63bdacb46bfec1782ed31c9f,63bdd954ad9f99afc086ce0d,1366,621,NA,5016,NA,NA,NA,NA,NA,NA,NA,NA,NA,"{""Q0"":3}",[0],NA,NA,NA,NA,background,2,media/padded_stims/animate_042_left.png,NA
NA,NA,NA,NA,NA,survey-likert,98,499451,0.0-98.0,SS1673386325239,63bdacb46bfec1782ed31c9f,63bdd954ad9f99afc086ce0d,1366,621,NA,11166,NA,NA,NA,NA,NA,NA,NA,NA,NA,"{""Q0"":3}",[0],NA,NA,NA,NA,background,2,media/padded_stims/inanimate_019_left.png,NA
NA,NA,NA,NA,NA,survey-likert,99,506944,0.0-99.0,SS1673386325239,63bdacb46bfec1782ed31c9f,63bdd954ad9f99afc086ce0d,1366,621,NA,7477,NA,NA,NA,NA,NA,NA,NA,NA,NA,"{""Q0"":3}",[0],NA,NA,NA,NA,background,3,media/padded_stims/animate_072_left.png,NA
NA,NA,NA,NA,NA,survey-likert,100,509036,0.0-100.0,SS1673386325239,63bdacb46bfec1782ed31c9f,63bdd954ad9f99afc086ce0d,1366,621,NA,2079,NA,NA,NA,NA,NA,NA,NA,NA,NA,"{""Q0"":3}",[0],NA,NA,NA,NA,deviant,1,media/padded_stims/animate_020_right.png,NA
NA,NA,NA,NA,NA,survey-likert,101,513862,0.0-101.0,SS1673386325239,63bdacb46bfec1782ed31c9f,63bdd954ad9f99afc086ce0d,1366,621,NA,4811,NA,NA,NA,NA,NA,NA,NA,NA,NA,"{""Q0"":3}",[0],NA,NA,NA,NA,background,2,media/padded_stims/inanimate_010_right.png,NA
NA,NA,NA,NA,NA,survey-likert,102,519358,0.0-102.0,SS1673386325239,63bdacb46bfec1782ed31c9f,63bdd954ad9f99afc086ce0d,1366,621,NA,5484,NA,NA,NA,NA,NA,NA,NA,NA,NA,"{""Q0"":3}",[0],NA,NA,NA,NA,background,5,media/padded_stims/inanimate_076_right.png,NA
NA,NA,NA,NA,NA,survey-likert,103,521607,0.0-103.0,SS1673386325239,63bdacb46bfec1782ed31c9f,63bdd954ad9f99afc086ce0d,1366,621,NA,2236,NA,NA,NA,NA,NA,NA,NA,NA,NA,"{""Q0"":3}",[0],NA,NA,NA,NA,deviant,1,media/padded_stims/animate_036_right.png,NA
NA,NA,NA,NA,NA,survey-likert,104,523624,0.0-104.0,SS1673386325239,63bdacb46bfec1782ed31c9f,63bdd954ad9f99afc086ce0d,1366,621,NA,2002,NA,NA,NA,NA,NA,NA,NA,NA,NA,"{""Q0"":3}",[0],NA,NA,NA,NA,background,5,media/padded_stims/inanimate_075_left.png,NA
NA,NA,NA,NA,NA,survey-likert,105,527036,0.0-105.0,SS1673386325239,63bdacb46bfec1782ed31c9f,63bdd954ad9f99afc086ce0d,1366,621,NA,3397,NA,NA,NA,NA,NA,NA,NA,NA,NA,"{""Q0"":3}",[0],NA,NA,NA,NA,deviant,1,media/padded_stims/animate_046_left.png,NA
NA,NA,NA,NA,NA,survey-likert,106,528985,0.0-106.0,SS1673386325239,63bdacb46bfec1782ed31c9f,63bdd954ad9f99afc086ce0d,1366,621,NA,1936,NA,NA,NA,NA,NA,NA,NA,NA,NA,"{""Q0"":3}",[0],NA,NA,NA,NA,background,3,media/padded_stims/inanimate_065_left.png,NA
NA,NA,NA,NA,NA,survey-likert,107,535158,0.0-107.0,SS1673386325239,63bdacb46bfec1782ed31c9f,63bdd954ad9f99afc086ce0d,1366,621,NA,6160,NA,NA,NA,NA,NA,NA,NA,NA,NA,"{""Q0"":3}",[0],NA,NA,NA,NA,deviant,1,media/padded_stims/inanimate_015_right.png,NA
NA,NA,NA,NA,NA,survey-likert,108,537060,0.0-108.0,SS1673386325239,63bdacb46bfec1782ed31c9f,63bdd954ad9f99afc086ce0d,1366,621,NA,1889,NA,NA,NA,NA,NA,NA,NA,NA,NA,"{""Q0"":3}",[0],NA,NA,NA,NA,background,3,media/padded_stims/animate_010_right.png,NA
NA,NA,NA,NA,NA,survey-likert,109,539181,0.0-109.0,SS1673386325239,63bdacb46bfec1782ed31c9f,63bdd954ad9f99afc086ce0d,1366,621,NA,2106,NA,NA,NA,NA,NA,NA,NA,NA,NA,"{""Q0"":3}",[0],NA,NA,NA,NA,deviant,1,media/padded_stims/inanimate_004_right.png,NA
NA,NA,NA,NA,NA,survey-likert,110,542005,0.0-110.0,SS1673386325239,63bdacb46bfec1782ed31c9f,63bdd954ad9f99afc086ce0d,1366,621,NA,2813,NA,NA,NA,NA,NA,NA,NA,NA,NA,"{""Q0"":3}",[0],NA,NA,NA,NA,background,3,media/padded_stims/inanimate_043_right.png,NA
NA,NA,NA,NA,NA,survey-likert,111,544801,0.0-111.0,SS1673386325239,63bdacb46bfec1782ed31c9f,63bdd954ad9f99afc086ce0d,1366,621,NA,2781,NA,NA,NA,NA,NA,NA,NA,NA,NA,"{""Q0"":3}",[0],NA,NA,NA,NA,deviant,1,media/padded_stims/inanimate_053_right.png,NA
NA,NA,NA,NA,NA,survey-likert,112,551614,0.0-112.0,SS1673386325239,63bdacb46bfec1782ed31c9f,63bdd954ad9f99afc086ce0d,1366,621,NA,6799,NA,NA,NA,NA,NA,NA,NA,NA,NA,"{""Q0"":3}",[0],NA,NA,NA,NA,background,6,media/padded_stims/inanimate_027_left.png,NA
NA,NA,NA,NA,NA,survey-likert,113,571440,0.0-113.0,SS1673386325239,63bdacb46bfec1782ed31c9f,63bdd954ad9f99afc086ce0d,1366,621,NA,19811,NA,NA,NA,NA,NA,NA,NA,NA,NA,"{""Q0"":3}",[0],NA,NA,NA,NA,background,4,media/padded_stims/animate_079_left.png,NA
NA,NA,NA,NA,NA,survey-likert,114,573940,0.0-114.0,SS1673386325239,63bdacb46bfec1782ed31c9f,63bdd954ad9f99afc086ce0d,1366,621,NA,2484,NA,NA,NA,NA,NA,NA,NA,NA,NA,"{""Q0"":3}",[0],NA,NA,NA,NA,background,1,media/padded_stims/animate_002_left.png,NA
NA,NA,NA,NA,NA,survey-likert,115,578941,0.0-115.0,SS1673386325239,63bdacb46bfec1782ed31c9f,63bdd954ad9f99afc086ce0d,1366,621,NA,4988,NA,NA,NA,NA,NA,NA,NA,NA,NA,"{""Q0"":3}",[0],NA,NA,NA,NA,deviant,1,media/padded_stims/animate_033_left.png,NA
NA,NA,NA,NA,NA,survey-likert,116,581185,0.0-116.0,SS1673386325239,63bdacb46bfec1782ed31c9f,63bdd954ad9f99afc086ce0d,1366,621,NA,2229,NA,NA,NA,NA,NA,NA,NA,NA,NA,"{""Q0"":3}",[0],NA,NA,NA,NA,background,6,media/padded_stims/animate_047_right.png,NA
NA,NA,NA,NA,NA,survey-likert,117,583134,0.0-117.0,SS1673386325239,63bdacb46bfec1782ed31c9f,63bdd954ad9f99afc086ce0d,1366,621,NA,1935,NA,NA,NA,NA,NA,NA,NA,NA,NA,"{""Q0"":3}",[0],NA,NA,NA,NA,background,6,media/padded_stims/inanimate_070_right.png,NA
NA,NA,NA,NA,NA,survey-likert,118,584777,0.0-118.0,SS1673386325239,63bdacb46bfec1782ed31c9f,63bdd954ad9f99afc086ce0d,1366,621,NA,1631,NA,NA,NA,NA,NA,NA,NA,NA,NA,"{""Q0"":3}",[0],NA,NA,NA,NA,background,2,media/padded_stims/animate_046_right.png,NA
NA,NA,NA,NA,NA,survey-likert,119,586260,0.0-119.0,SS1673386325239,63bdacb46bfec1782ed31c9f,63bdd954ad9f99afc086ce0d,1366,621,NA,1473,NA,NA,NA,NA,NA,NA,NA,NA,NA,"{""Q0"":3}",[0],NA,NA,NA,NA,background,3,media/padded_stims/animate_009_right.png,NA
NA,NA,NA,NA,NA,survey-likert,120,587899,0.0-120.0,SS1673386325239,63bdacb46bfec1782ed31c9f,63bdd954ad9f99afc086ce0d,1366,621,NA,1624,NA,NA,NA,NA,NA,NA,NA,NA,NA,"{""Q0"":3}",[0],NA,NA,NA,NA,deviant,1,media/padded_stims/inanimate_055_right.png,NA
NA,NA,NA,NA,NA,html-button-response,121,589910,0.0-121.0,SS1673386325239,63bdacb46bfec1782ed31c9f,63bdd954ad9f99afc086ce0d,1366,621,NA,1998,NA,NA,NA,NA,NA,NA,NA,NA,NA,0,NA,NA,NA,NA,NA,NA,NA,NA,"<p>Congratulations! You have finished all the tasks tasks!</p><p>Now, we would like to ask a few questions about you.</p>"
NA,NA,NA,NA,NA,survey-text,122,592769,0.0-122.0,SS1673386325239,63bdacb46bfec1782ed31c9f,63bdd954ad9f99afc086ce0d,1366,621,NA,2844,NA,NA,NA,NA,NA,NA,NA,NA,NA,"{""Q0"":""26""}",NA,NA,NA,NA,NA,NA,NA,NA,NA
NA,NA,NA,NA,NA,survey-multi-select,123,599000,0.0-123.0,SS1673386325239,63bdacb46bfec1782ed31c9f,63bdd954ad9f99afc086ce0d,1366,621,NA,6220,NA,NA,NA,NA,NA,NA,NA,NA,NA,"{""ethnicity"":[""White""]}",[0],NA,NA,NA,NA,NA,NA,NA,NA
NA,NA,NA,NA,NA,survey-text,124,604656,0.0-124.0,SS1673386325239,63bdacb46bfec1782ed31c9f,63bdd954ad9f99afc086ce0d,1366,621,NA,5637,NA,NA,NA,NA,NA,NA,NA,NA,NA,"{""Q0"":""Male""}",NA,NA,NA,NA,NA,NA,NA,NA,NA
NA,NA,NA,NA,NA,survey-multi-choice,125,610435,0.0-125.0,SS1673386325239,63bdacb46bfec1782ed31c9f,63bdd954ad9f99afc086ce0d,1366,621,NA,5769,NA,NA,NA,NA,NA,NA,NA,NA,NA,"{""education"":""Associate Degree/Technical certification""}",[0],NA,NA,NA,NA,NA,NA,NA,NA
TRUE,NA,NA,NA,NA,fullscreen,126,610458,0.0-126.0,SS1673386325239,63bdacb46bfec1782ed31c9f,63bdd954ad9f99afc086ce0d,1366,621,NA,NA,NA,NA,NA,NA,NA,NA,NA,NA,NA,NA,NA,NA,NA,NA,NA,NA,NA,NA,NA
NA,NA,NA,NA,NA,html-button-response,127,615842,0.0-127.0,SS1673386325239,63bdacb46bfec1782ed31c9f,63bdd954ad9f99afc086ce0d,1366,621,NA,5371,NA,NA,NA,NA,NA,NA,NA,NA,NA,0,NA,NA,NA,NA,NA,NA,NA,NA,<p>Congratulations! You are all done! </p>Your survey code is<p><b>3D699F4F</b></p><p>Please make sure you save this somewhere safe. You will need to enter this code into Prolific to be paid.</p>
TRUE,FALSE,[],[],[],preload,0,63324,0.0-0.0,SS1673386327030,63bdacb46bfec1782ed31c9f,63bdd955009296adc7416d66,1920,937,NA,NA,NA,NA,NA,NA,NA,NA,NA,NA,NA,NA,NA,NA,NA,NA,NA,NA,NA,NA,NA
TRUE,NA,NA,NA,NA,fullscreen,1,68914,0.0-1.0,SS1673386327030,63bdacb46bfec1782ed31c9f,63bdd955009296adc7416d66,1920,937,NA,NA,NA,NA,NA,NA,NA,NA,NA,NA,NA,NA,NA,NA,NA,NA,NA,NA,NA,NA,NA
NA,NA,NA,NA,NA,instructions,2,83823,0.0-2.0,SS1673386327030,63bdacb46bfec1782ed31c9f,63bdd955009296adc7416d66,1920,937,"[{""page_index"":0,""viewing_time"":14907}]",14907,NA,NA,NA,NA,NA,NA,NA,NA,NA,NA,NA,NA,NA,NA,NA,NA,NA,NA,NA
NA,NA,NA,NA,NA,instructions,3,105113,0.0-3.0,SS1673386327030,63bdacb46bfec1782ed31c9f,63bdd955009296adc7416d66,1920,937,"[{""page_index"":0,""viewing_time"":9645},{""page_index"":1,""viewing_time"":9641}]",19286,instructions,NA,NA,NA,NA,NA,NA,NA,NA,NA,NA,NA,NA,NA,NA,NA,NA,NA,NA
NA,NA,NA,NA,NA,curtain-display,4,111409,0.0-4.0,SS1673386327030,63bdacb46bfec1782ed31c9f,63bdd955009296adc7416d66,1920,937,NA,4455,instructions,5455,NA,NA,NA,NA,NA,NA,NA,NA,NA,NA,NA,NA,NA,NA,NA,NA,NA
NA,NA,NA,NA,NA,curtain-display,5,116092,0.0-5.0,SS1673386327030,63bdacb46bfec1782ed31c9f,63bdd955009296adc7416d66,1920,937,NA,2862,instructions,3862,NA,NA,NA,NA,NA,NA,NA,NA,NA,NA,NA,NA,NA,NA,NA,NA,NA
NA,NA,NA,NA,NA,curtain-display,6,121320,0.0-6.0,SS1673386327030,63bdacb46bfec1782ed31c9f,63bdd955009296adc7416d66,1920,937,NA,3404,instructions,4404,NA,NA,NA,NA,NA,NA,NA,NA,NA,NA,NA,NA,NA,NA,NA,NA,NA
NA,NA,NA,NA,NA,instructions,7,142621,0.0-7.0,SS1673386327030,63bdacb46bfec1782ed31c9f,63bdd955009296adc7416d66,1920,937,"[{""page_index"":0,""viewing_time"":6244},{""page_index"":1,""viewing_time"":8241},{""page_index"":2,""viewing_time"":4624},{""page_index"":3,""viewing_time"":1192},{""page_index"":4,""viewing_time"":1000}]",21301,instructions,NA,NA,NA,NA,NA,NA,NA,NA,NA,NA,NA,NA,NA,NA,NA,NA,NA,NA
NA,NA,NA,NA,NA,curtain-display,8,146834,0.0-8.0,SS1673386327030,63bdacb46bfec1782ed31c9f,63bdd955009296adc7416d66,1920,937,NA,2398,NA,3398,background_block,media/padded_stims/animate_069_left.png,null,animate_single_left,null,null,6,NA,NA,NA,NA,NA,NA,NA,NA,NA,NA
NA,NA,NA,NA,NA,curtain-display,9,152363,0.0-9.0,SS1673386327030,63bdacb46bfec1782ed31c9f,63bdd955009296adc7416d66,1920,937,NA,3719,NA,4719,background_block,media/padded_stims/animate_069_left.png,null,animate_single_left,null,null,6,NA,NA,NA,NA,NA,NA,NA,NA,NA,NA
NA,NA,NA,NA,NA,curtain-display,10,156204,0.0-10.0,SS1673386327030,63bdacb46bfec1782ed31c9f,63bdd955009296adc7416d66,1920,937,NA,2025,NA,3025,background_block,media/padded_stims/animate_069_left.png,null,animate_single_left,null,null,6,NA,NA,NA,NA,NA,NA,NA,NA,NA,NA
NA,NA,NA,NA,NA,curtain-display,11,159818,0.0-11.0,SS1673386327030,63bdacb46bfec1782ed31c9f,63bdd955009296adc7416d66,1920,937,NA,1808,NA,2808,background_block,media/padded_stims/animate_069_left.png,null,animate_single_left,null,null,6,NA,NA,NA,NA,NA,NA,NA,NA,NA,NA
NA,NA,NA,NA,NA,curtain-display,12,163682,0.0-12.0,SS1673386327030,63bdacb46bfec1782ed31c9f,63bdd955009296adc7416d66,1920,937,NA,2042,NA,3042,background_block,media/padded_stims/animate_069_left.png,null,animate_single_left,null,null,6,NA,NA,NA,NA,NA,NA,NA,NA,NA,NA
NA,NA,NA,NA,NA,curtain-display,13,167175,0.0-13.0,SS1673386327030,63bdacb46bfec1782ed31c9f,63bdd955009296adc7416d66,1920,937,NA,1682,NA,2682,background_block,media/padded_stims/animate_069_left.png,null,animate_single_left,null,null,6,NA,NA,NA,NA,NA,NA,NA,NA,NA,NA
NA,NA,NA,NA,NA,survey-likert,14,172321,0.0-14.0,SS1673386327030,63bdacb46bfec1782ed31c9f,63bdd955009296adc7416d66,1920,937,NA,5145,NA,NA,NA,NA,NA,NA,NA,NA,NA,"{""Q0"":1}",[0],background,NA,NA,NA,NA,NA,NA,NA
NA,NA,NA,NA,NA,curtain-display,15,176208,0.0-15.0,SS1673386327030,63bdacb46bfec1782ed31c9f,63bdd955009296adc7416d66,1920,937,NA,2066,NA,3066,deviant_block,media/padded_stims/animate_036_right.png,media/padded_stims/animate_061_right.png,animate_single_right,animate_single_right,identity,6,NA,NA,NA,NA,NA,NA,NA,NA,NA,NA
NA,NA,NA,NA,NA,curtain-display,16,179738,0.0-16.0,SS1673386327030,63bdacb46bfec1782ed31c9f,63bdd955009296adc7416d66,1920,937,NA,1714,NA,2714,deviant_block,media/padded_stims/animate_036_right.png,media/padded_stims/animate_061_right.png,animate_single_right,animate_single_right,identity,6,NA,NA,NA,NA,NA,NA,NA,NA,NA,NA
NA,NA,NA,NA,NA,curtain-display,17,182851,0.0-17.0,SS1673386327030,63bdacb46bfec1782ed31c9f,63bdd955009296adc7416d66,1920,937,NA,1290,NA,2290,deviant_block,media/padded_stims/animate_036_right.png,media/padded_stims/animate_061_right.png,animate_single_right,animate_single_right,identity,6,NA,NA,NA,NA,NA,NA,NA,NA,NA,NA
NA,NA,NA,NA,NA,curtain-display,18,186208,0.0-18.0,SS1673386327030,63bdacb46bfec1782ed31c9f,63bdd955009296adc7416d66,1920,937,NA,1546,NA,2546,deviant_block,media/padded_stims/animate_036_right.png,media/padded_stims/animate_061_right.png,animate_single_right,animate_single_right,identity,6,NA,NA,NA,NA,NA,NA,NA,NA,NA,NA
NA,NA,NA,NA,NA,curtain-display,19,188893,0.0-19.0,SS1673386327030,63bdacb46bfec1782ed31c9f,63bdd955009296adc7416d66,1920,937,NA,868,NA,1868,deviant_block,media/padded_stims/animate_036_right.png,media/padded_stims/animate_061_right.png,animate_single_right,animate_single_right,identity,6,NA,NA,NA,NA,NA,NA,NA,NA,NA,NA
NA,NA,NA,NA,NA,curtain-display,20,193051,0.0-20.0,SS1673386327030,63bdacb46bfec1782ed31c9f,63bdd955009296adc7416d66,1920,937,NA,2350,NA,3350,deviant_block,media/padded_stims/animate_036_right.png,media/padded_stims/animate_061_right.png,animate_single_right,animate_single_right,identity,6,NA,NA,NA,NA,NA,NA,NA,NA,NA,NA
NA,NA,NA,NA,NA,survey-likert,21,196812,0.0-21.0,SS1673386327030,63bdacb46bfec1782ed31c9f,63bdd955009296adc7416d66,1920,937,NA,3760,NA,NA,NA,NA,NA,NA,NA,NA,NA,"{""Q0"":3}",[0],deviant,NA,NA,NA,NA,NA,NA,NA
NA,NA,NA,NA,NA,curtain-display,22,201090,0.0-22.0,SS1673386327030,63bdacb46bfec1782ed31c9f,63bdd955009296adc7416d66,1920,937,NA,2464,NA,3464,background_block,media/padded_stims/inanimate_048_right.png,null,inanimate_pair_right,null,null,6,NA,NA,NA,NA,NA,NA,NA,NA,NA,NA
NA,NA,NA,NA,NA,curtain-display,23,205083,0.0-23.0,SS1673386327030,63bdacb46bfec1782ed31c9f,63bdd955009296adc7416d66,1920,937,NA,2185,NA,3185,background_block,media/padded_stims/inanimate_048_right.png,null,inanimate_pair_right,null,null,6,NA,NA,NA,NA,NA,NA,NA,NA,NA,NA
NA,NA,NA,NA,NA,curtain-display,24,208027,0.0-24.0,SS1673386327030,63bdacb46bfec1782ed31c9f,63bdd955009296adc7416d66,1920,937,NA,1129,NA,2129,background_block,media/padded_stims/inanimate_048_right.png,null,inanimate_pair_right,null,null,6,NA,NA,NA,NA,NA,NA,NA,NA,NA,NA
NA,NA,NA,NA,NA,curtain-display,25,210457,0.0-25.0,SS1673386327030,63bdacb46bfec1782ed31c9f,63bdd955009296adc7416d66,1920,937,NA,621,NA,1621,background_block,media/padded_stims/inanimate_048_right.png,null,inanimate_pair_right,null,null,6,NA,NA,NA,NA,NA,NA,NA,NA,NA,NA
NA,NA,NA,NA,NA,curtain-display,26,213099,0.0-26.0,SS1673386327030,63bdacb46bfec1782ed31c9f,63bdd955009296adc7416d66,1920,937,NA,806,NA,1806,background_block,media/padded_stims/inanimate_048_right.png,null,inanimate_pair_right,null,null,6,NA,NA,NA,NA,NA,NA,NA,NA,NA,NA
NA,NA,NA,NA,NA,curtain-display,27,215954,0.0-27.0,SS1673386327030,63bdacb46bfec1782ed31c9f,63bdd955009296adc7416d66,1920,937,NA,1046,NA,2046,background_block,media/padded_stims/inanimate_048_right.png,null,inanimate_pair_right,null,null,6,NA,NA,NA,NA,NA,NA,NA,NA,NA,NA
NA,NA,NA,NA,NA,survey-likert,28,221904,0.0-28.0,SS1673386327030,63bdacb46bfec1782ed31c9f,63bdd955009296adc7416d66,1920,937,NA,5949,NA,NA,NA,NA,NA,NA,NA,NA,NA,"{""Q0"":0}",[0],background,NA,NA,NA,NA,NA,NA,NA
NA,NA,NA,NA,NA,curtain-display,29,225218,0.0-29.0,SS1673386327030,63bdacb46bfec1782ed31c9f,63bdd955009296adc7416d66,1920,937,NA,1489,NA,2489,deviant_block,media/padded_stims/inanimate_057_left.png,media/padded_stims/inanimate_006_left.png,inanimate_pair_left,inanimate_pair_left,identity,2,NA,NA,NA,NA,NA,NA,NA,NA,NA,NA
NA,NA,NA,NA,NA,curtain-display,30,228860,0.0-30.0,SS1673386327030,63bdacb46bfec1782ed31c9f,63bdd955009296adc7416d66,1920,937,NA,1836,NA,2836,deviant_block,media/padded_stims/inanimate_057_left.png,media/padded_stims/inanimate_006_left.png,inanimate_pair_left,inanimate_pair_left,identity,2,NA,NA,NA,NA,NA,NA,NA,NA,NA,NA
NA,NA,NA,NA,NA,survey-likert,31,232210,0.0-31.0,SS1673386327030,63bdacb46bfec1782ed31c9f,63bdd955009296adc7416d66,1920,937,NA,3348,NA,NA,NA,NA,NA,NA,NA,NA,NA,"{""Q0"":0}",[0],deviant,NA,NA,NA,NA,NA,NA,NA
NA,NA,NA,NA,NA,curtain-display,32,234927,0.0-32.0,SS1673386327030,63bdacb46bfec1782ed31c9f,63bdd955009296adc7416d66,1920,937,NA,900,NA,1900,deviant_block,media/padded_stims/inanimate_071_right.png,media/padded_stims/inanimate_049_left.png,inanimate_pair_right,inanimate_pair_left,pose,6,NA,NA,NA,NA,NA,NA,NA,NA,NA,NA
NA,NA,NA,NA,NA,curtain-display,33,237258,0.0-33.0,SS1673386327030,63bdacb46bfec1782ed31c9f,63bdd955009296adc7416d66,1920,937,NA,522,NA,1522,deviant_block,media/padded_stims/inanimate_071_right.png,media/padded_stims/inanimate_049_left.png,inanimate_pair_right,inanimate_pair_left,pose,6,NA,NA,NA,NA,NA,NA,NA,NA,NA,NA
NA,NA,NA,NA,NA,curtain-display,34,239558,0.0-34.0,SS1673386327030,63bdacb46bfec1782ed31c9f,63bdd955009296adc7416d66,1920,937,NA,482,NA,1482,deviant_block,media/padded_stims/inanimate_071_right.png,media/padded_stims/inanimate_049_left.png,inanimate_pair_right,inanimate_pair_left,pose,6,NA,NA,NA,NA,NA,NA,NA,NA,NA,NA
NA,NA,NA,NA,NA,curtain-display,35,241924,0.0-35.0,SS1673386327030,63bdacb46bfec1782ed31c9f,63bdd955009296adc7416d66,1920,937,NA,555,NA,1555,deviant_block,media/padded_stims/inanimate_071_right.png,media/padded_stims/inanimate_049_left.png,inanimate_pair_right,inanimate_pair_left,pose,6,NA,NA,NA,NA,NA,NA,NA,NA,NA,NA
NA,NA,NA,NA,NA,curtain-display,36,244555,0.0-36.0,SS1673386327030,63bdacb46bfec1782ed31c9f,63bdd955009296adc7416d66,1920,937,NA,820,NA,1820,deviant_block,media/padded_stims/inanimate_071_right.png,media/padded_stims/inanimate_049_left.png,inanimate_pair_right,inanimate_pair_left,pose,6,NA,NA,NA,NA,NA,NA,NA,NA,NA,NA
NA,NA,NA,NA,NA,curtain-display,37,247158,0.0-37.0,SS1673386327030,63bdacb46bfec1782ed31c9f,63bdd955009296adc7416d66,1920,937,NA,791,NA,1791,deviant_block,media/padded_stims/inanimate_071_right.png,media/padded_stims/inanimate_049_left.png,inanimate_pair_right,inanimate_pair_left,pose,6,NA,NA,NA,NA,NA,NA,NA,NA,NA,NA
NA,NA,NA,NA,NA,survey-likert,38,250740,0.0-38.0,SS1673386327030,63bdacb46bfec1782ed31c9f,63bdd955009296adc7416d66,1920,937,NA,3581,NA,NA,NA,NA,NA,NA,NA,NA,NA,"{""Q0"":0}",[0],background,NA,NA,NA,NA,NA,NA,NA
NA,NA,NA,NA,NA,curtain-display,39,255991,0.0-39.0,SS1673386327030,63bdacb46bfec1782ed31c9f,63bdd955009296adc7416d66,1920,937,NA,3434,NA,4434,background_block,media/padded_stims/animate_042_left.png,null,animate_pair_left,null,null,6,NA,NA,NA,NA,NA,NA,NA,NA,NA,NA
NA,NA,NA,NA,NA,curtain-display,40,258241,0.0-40.0,SS1673386327030,63bdacb46bfec1782ed31c9f,63bdd955009296adc7416d66,1920,937,NA,433,NA,1433,background_block,media/padded_stims/animate_042_left.png,null,animate_pair_left,null,null,6,NA,NA,NA,NA,NA,NA,NA,NA,NA,NA
NA,NA,NA,NA,NA,curtain-display,41,260474,0.0-41.0,SS1673386327030,63bdacb46bfec1782ed31c9f,63bdd955009296adc7416d66,1920,937,NA,428,NA,1428,background_block,media/padded_stims/animate_042_left.png,null,animate_pair_left,null,null,6,NA,NA,NA,NA,NA,NA,NA,NA,NA,NA
NA,NA,NA,NA,NA,curtain-display,42,262311,0.0-42.0,SS1673386327030,63bdacb46bfec1782ed31c9f,63bdd955009296adc7416d66,1920,937,NA,31,NA,1031,background_block,media/padded_stims/animate_042_left.png,null,animate_pair_left,null,null,6,NA,NA,NA,NA,NA,NA,NA,NA,NA,NA
NA,NA,NA,NA,NA,curtain-display,43,264587,0.0-43.0,SS1673386327030,63bdacb46bfec1782ed31c9f,63bdd955009296adc7416d66,1920,937,NA,457,NA,1457,background_block,media/padded_stims/animate_042_left.png,null,animate_pair_left,null,null,6,NA,NA,NA,NA,NA,NA,NA,NA,NA,NA
NA,NA,NA,NA,NA,curtain-display,44,267008,0.0-44.0,SS1673386327030,63bdacb46bfec1782ed31c9f,63bdd955009296adc7416d66,1920,937,NA,612,NA,1612,background_block,media/padded_stims/animate_042_left.png,null,animate_pair_left,null,null,6,NA,NA,NA,NA,NA,NA,NA,NA,NA,NA
NA,NA,NA,NA,NA,survey-likert,45,269643,0.0-45.0,SS1673386327030,63bdacb46bfec1782ed31c9f,63bdd955009296adc7416d66,1920,937,NA,2633,NA,NA,NA,NA,NA,NA,NA,NA,NA,"{""Q0"":1}",[0],background,NA,NA,NA,NA,NA,NA,NA
NA,NA,NA,NA,NA,curtain-display,46,273139,0.0-46.0,SS1673386327030,63bdacb46bfec1782ed31c9f,63bdd955009296adc7416d66,1920,937,NA,1676,NA,2676,background_block,media/padded_stims/inanimate_009_right.png,null,inanimate_single_right,null,null,6,NA,NA,NA,NA,NA,NA,NA,NA,NA,NA
NA,NA,NA,NA,NA,curtain-display,47,275441,0.0-47.0,SS1673386327030,63bdacb46bfec1782ed31c9f,63bdd955009296adc7416d66,1920,937,NA,492,NA,1492,background_block,media/padded_stims/inanimate_009_right.png,null,inanimate_single_right,null,null,6,NA,NA,NA,NA,NA,NA,NA,NA,NA,NA
NA,NA,NA,NA,NA,curtain-display,48,277707,0.0-48.0,SS1673386327030,63bdacb46bfec1782ed31c9f,63bdd955009296adc7416d66,1920,937,NA,443,NA,1443,background_block,media/padded_stims/inanimate_009_right.png,null,inanimate_single_right,null,null,6,NA,NA,NA,NA,NA,NA,NA,NA,NA,NA
NA,NA,NA,NA,NA,curtain-display,49,279941,0.0-49.0,SS1673386327030,63bdacb46bfec1782ed31c9f,63bdd955009296adc7416d66,1920,937,NA,429,NA,1429,background_block,media/padded_stims/inanimate_009_right.png,null,inanimate_single_right,null,null,6,NA,NA,NA,NA,NA,NA,NA,NA,NA,NA
NA,NA,NA,NA,NA,curtain-display,50,282308,0.0-50.0,SS1673386327030,63bdacb46bfec1782ed31c9f,63bdd955009296adc7416d66,1920,937,NA,555,NA,1555,background_block,media/padded_stims/inanimate_009_right.png,null,inanimate_single_right,null,null,6,NA,NA,NA,NA,NA,NA,NA,NA,NA,NA
NA,NA,NA,NA,NA,curtain-display,51,284358,0.0-51.0,SS1673386327030,63bdacb46bfec1782ed31c9f,63bdd955009296adc7416d66,1920,937,NA,234,NA,1234,background_block,media/padded_stims/inanimate_009_right.png,null,inanimate_single_right,null,null,6,NA,NA,NA,NA,NA,NA,NA,NA,NA,NA
NA,NA,NA,NA,NA,survey-likert,52,287781,0.0-52.0,SS1673386327030,63bdacb46bfec1782ed31c9f,63bdd955009296adc7416d66,1920,937,NA,3422,NA,NA,NA,NA,NA,NA,NA,NA,NA,"{""Q0"":1}",[0],background,NA,NA,NA,NA,NA,NA,NA
NA,NA,NA,NA,NA,curtain-display,53,290977,0.0-53.0,SS1673386327030,63bdacb46bfec1782ed31c9f,63bdd955009296adc7416d66,1920,937,NA,1382,NA,2382,deviant_block,media/padded_stims/inanimate_014_left.png,media/padded_stims/inanimate_028_left.png,inanimate_single_left,inanimate_pair_left,number,6,NA,NA,NA,NA,NA,NA,NA,NA,NA,NA
NA,NA,NA,NA,NA,curtain-display,54,293010,0.0-54.0,SS1673386327030,63bdacb46bfec1782ed31c9f,63bdd955009296adc7416d66,1920,937,NA,222,NA,1222,deviant_block,media/padded_stims/inanimate_014_left.png,media/padded_stims/inanimate_028_left.png,inanimate_single_left,inanimate_pair_left,number,6,NA,NA,NA,NA,NA,NA,NA,NA,NA,NA
NA,NA,NA,NA,NA,curtain-display,55,295162,0.0-55.0,SS1673386327030,63bdacb46bfec1782ed31c9f,63bdd955009296adc7416d66,1920,937,NA,338,NA,1338,deviant_block,media/padded_stims/inanimate_014_left.png,media/padded_stims/inanimate_028_left.png,inanimate_single_left,inanimate_pair_left,number,6,NA,NA,NA,NA,NA,NA,NA,NA,NA,NA
NA,NA,NA,NA,NA,curtain-display,56,297506,0.0-56.0,SS1673386327030,63bdacb46bfec1782ed31c9f,63bdd955009296adc7416d66,1920,937,NA,533,NA,1533,deviant_block,media/padded_stims/inanimate_014_left.png,media/padded_stims/inanimate_028_left.png,inanimate_single_left,inanimate_pair_left,number,6,NA,NA,NA,NA,NA,NA,NA,NA,NA,NA
NA,NA,NA,NA,NA,curtain-display,57,299627,0.0-57.0,SS1673386327030,63bdacb46bfec1782ed31c9f,63bdd955009296adc7416d66,1920,937,NA,309,NA,1309,deviant_block,media/padded_stims/inanimate_014_left.png,media/padded_stims/inanimate_028_left.png,inanimate_single_left,inanimate_pair_left,number,6,NA,NA,NA,NA,NA,NA,NA,NA,NA,NA
NA,NA,NA,NA,NA,curtain-display,58,302402,0.0-58.0,SS1673386327030,63bdacb46bfec1782ed31c9f,63bdd955009296adc7416d66,1920,937,NA,960,NA,1960,deviant_block,media/padded_stims/inanimate_014_left.png,media/padded_stims/inanimate_028_left.png,inanimate_single_left,inanimate_pair_left,number,6,NA,NA,NA,NA,NA,NA,NA,NA,NA,NA
NA,NA,NA,NA,NA,survey-likert,59,306582,0.0-59.0,SS1673386327030,63bdacb46bfec1782ed31c9f,63bdd955009296adc7416d66,1920,937,NA,4178,NA,NA,NA,NA,NA,NA,NA,NA,NA,"{""Q0"":1}",[0],background,NA,NA,NA,NA,NA,NA,NA
NA,NA,NA,NA,NA,curtain-display,60,309683,0.0-60.0,SS1673386327030,63bdacb46bfec1782ed31c9f,63bdd955009296adc7416d66,1920,937,NA,1277,NA,2277,deviant_block,media/padded_stims/animate_080_right.png,media/padded_stims/animate_010_right.png,animate_pair_right,animate_single_right,number,6,NA,NA,NA,NA,NA,NA,NA,NA,NA,NA
NA,NA,NA,NA,NA,curtain-display,61,312171,0.0-61.0,SS1673386327030,63bdacb46bfec1782ed31c9f,63bdd955009296adc7416d66,1920,937,NA,677,NA,1677,deviant_block,media/padded_stims/animate_080_right.png,media/padded_stims/animate_010_right.png,animate_pair_right,animate_single_right,number,6,NA,NA,NA,NA,NA,NA,NA,NA,NA,NA
NA,NA,NA,NA,NA,curtain-display,62,314724,0.0-62.0,SS1673386327030,63bdacb46bfec1782ed31c9f,63bdd955009296adc7416d66,1920,937,NA,733,NA,1733,deviant_block,media/padded_stims/animate_080_right.png,media/padded_stims/animate_010_right.png,animate_pair_right,animate_single_right,number,6,NA,NA,NA,NA,NA,NA,NA,NA,NA,NA
NA,NA,NA,NA,NA,curtain-display,63,317370,0.0-63.0,SS1673386327030,63bdacb46bfec1782ed31c9f,63bdd955009296adc7416d66,1920,937,NA,837,NA,1837,deviant_block,media/padded_stims/animate_080_right.png,media/padded_stims/animate_010_right.png,animate_pair_right,animate_single_right,number,6,NA,NA,NA,NA,NA,NA,NA,NA,NA,NA
NA,NA,NA,NA,NA,curtain-display,64,320003,0.0-64.0,SS1673386327030,63bdacb46bfec1782ed31c9f,63bdd955009296adc7416d66,1920,937,NA,808,NA,1808,deviant_block,media/padded_stims/animate_080_right.png,media/padded_stims/animate_010_right.png,animate_pair_right,animate_single_right,number,6,NA,NA,NA,NA,NA,NA,NA,NA,NA,NA
NA,NA,NA,NA,NA,curtain-display,65,322794,0.0-65.0,SS1673386327030,63bdacb46bfec1782ed31c9f,63bdd955009296adc7416d66,1920,937,NA,984,NA,1984,deviant_block,media/padded_stims/animate_080_right.png,media/padded_stims/animate_010_right.png,animate_pair_right,animate_single_right,number,6,NA,NA,NA,NA,NA,NA,NA,NA,NA,NA
NA,NA,NA,NA,NA,survey-likert,66,325682,0.0-66.0,SS1673386327030,63bdacb46bfec1782ed31c9f,63bdd955009296adc7416d66,1920,937,NA,2884,NA,NA,NA,NA,NA,NA,NA,NA,NA,"{""Q0"":3}",[0],deviant,NA,NA,NA,NA,NA,NA,NA
NA,NA,NA,NA,NA,curtain-display,67,328497,0.0-67.0,SS1673386327030,63bdacb46bfec1782ed31c9f,63bdd955009296adc7416d66,1920,937,NA,993,NA,1993,background_block,media/padded_stims/animate_002_right.png,null,animate_pair_right,null,null,6,NA,NA,NA,NA,NA,NA,NA,NA,NA,NA
NA,NA,NA,NA,NA,curtain-display,68,330858,0.0-68.0,SS1673386327030,63bdacb46bfec1782ed31c9f,63bdd955009296adc7416d66,1920,937,NA,544,NA,1544,background_block,media/padded_stims/animate_002_right.png,null,animate_pair_right,null,null,6,NA,NA,NA,NA,NA,NA,NA,NA,NA,NA
NA,NA,NA,NA,NA,curtain-display,69,333008,0.0-69.0,SS1673386327030,63bdacb46bfec1782ed31c9f,63bdd955009296adc7416d66,1920,937,NA,331,NA,1331,background_block,media/padded_stims/animate_002_right.png,null,animate_pair_right,null,null,6,NA,NA,NA,NA,NA,NA,NA,NA,NA,NA
NA,NA,NA,NA,NA,curtain-display,70,335732,0.0-70.0,SS1673386327030,63bdacb46bfec1782ed31c9f,63bdd955009296adc7416d66,1920,937,NA,906,NA,1906,background_block,media/padded_stims/animate_002_right.png,null,animate_pair_right,null,null,6,NA,NA,NA,NA,NA,NA,NA,NA,NA,NA
NA,NA,NA,NA,NA,curtain-display,71,337786,0.0-71.0,SS1673386327030,63bdacb46bfec1782ed31c9f,63bdd955009296adc7416d66,1920,937,NA,242,NA,1242,background_block,media/padded_stims/animate_002_right.png,null,animate_pair_right,null,null,6,NA,NA,NA,NA,NA,NA,NA,NA,NA,NA
NA,NA,NA,NA,NA,curtain-display,72,340058,0.0-72.0,SS1673386327030,63bdacb46bfec1782ed31c9f,63bdd955009296adc7416d66,1920,937,NA,450,NA,1450,background_block,media/padded_stims/animate_002_right.png,null,animate_pair_right,null,null,6,NA,NA,NA,NA,NA,NA,NA,NA,NA,NA
NA,NA,NA,NA,NA,survey-likert,73,344147,0.0-73.0,SS1673386327030,63bdacb46bfec1782ed31c9f,63bdd955009296adc7416d66,1920,937,NA,4087,NA,NA,NA,NA,NA,NA,NA,NA,NA,"{""Q0"":1}",[0],background,NA,NA,NA,NA,NA,NA,NA
NA,NA,NA,NA,NA,curtain-display,74,346587,0.0-74.0,SS1673386327030,63bdacb46bfec1782ed31c9f,63bdd955009296adc7416d66,1920,937,NA,618,NA,1618,background_block,media/padded_stims/inanimate_059_left.png,null,inanimate_single_left,null,null,2,NA,NA,NA,NA,NA,NA,NA,NA,NA,NA
NA,NA,NA,NA,NA,curtain-display,75,348508,0.0-75.0,SS1673386327030,63bdacb46bfec1782ed31c9f,63bdd955009296adc7416d66,1920,937,NA,109,NA,1109,background_block,media/padded_stims/inanimate_059_left.png,null,inanimate_single_left,null,null,2,NA,NA,NA,NA,NA,NA,NA,NA,NA,NA
NA,NA,NA,NA,NA,survey-likert,76,352236,0.0-76.0,SS1673386327030,63bdacb46bfec1782ed31c9f,63bdd955009296adc7416d66,1920,937,NA,3726,NA,NA,NA,NA,NA,NA,NA,NA,NA,"{""Q0"":1}",[0],background,NA,NA,NA,NA,NA,NA,NA
NA,NA,NA,NA,NA,curtain-display,77,354603,0.0-77.0,SS1673386327030,63bdacb46bfec1782ed31c9f,63bdd955009296adc7416d66,1920,937,NA,550,NA,1550,deviant_block,media/padded_stims/animate_049_left.png,media/padded_stims/inanimate_070_left.png,animate_pair_left,inanimate_pair_left,animacy,6,NA,NA,NA,NA,NA,NA,NA,NA,NA,NA
NA,NA,NA,NA,NA,curtain-display,78,356579,0.0-78.0,SS1673386327030,63bdacb46bfec1782ed31c9f,63bdd955009296adc7416d66,1920,937,NA,168,NA,1168,deviant_block,media/padded_stims/animate_049_left.png,media/padded_stims/inanimate_070_left.png,animate_pair_left,inanimate_pair_left,animacy,6,NA,NA,NA,NA,NA,NA,NA,NA,NA,NA
NA,NA,NA,NA,NA,curtain-display,79,358620,0.0-79.0,SS1673386327030,63bdacb46bfec1782ed31c9f,63bdd955009296adc7416d66,1920,937,NA,230,NA,1230,deviant_block,media/padded_stims/animate_049_left.png,media/padded_stims/inanimate_070_left.png,animate_pair_left,inanimate_pair_left,animacy,6,NA,NA,NA,NA,NA,NA,NA,NA,NA,NA
NA,NA,NA,NA,NA,curtain-display,80,360484,0.0-80.0,SS1673386327030,63bdacb46bfec1782ed31c9f,63bdd955009296adc7416d66,1920,937,NA,45,NA,1045,deviant_block,media/padded_stims/animate_049_left.png,media/padded_stims/inanimate_070_left.png,animate_pair_left,inanimate_pair_left,animacy,6,NA,NA,NA,NA,NA,NA,NA,NA,NA,NA
NA,NA,NA,NA,NA,curtain-display,81,362419,0.0-81.0,SS1673386327030,63bdacb46bfec1782ed31c9f,63bdd955009296adc7416d66,1920,937,NA,125,NA,1125,deviant_block,media/padded_stims/animate_049_left.png,media/padded_stims/inanimate_070_left.png,animate_pair_left,inanimate_pair_left,animacy,6,NA,NA,NA,NA,NA,NA,NA,NA,NA,NA
NA,NA,NA,NA,NA,curtain-display,82,364892,0.0-82.0,SS1673386327030,63bdacb46bfec1782ed31c9f,63bdd955009296adc7416d66,1920,937,NA,663,NA,1663,deviant_block,media/padded_stims/animate_049_left.png,media/padded_stims/inanimate_070_left.png,animate_pair_left,inanimate_pair_left,animacy,6,NA,NA,NA,NA,NA,NA,NA,NA,NA,NA
NA,NA,NA,NA,NA,survey-likert,83,368303,0.0-83.0,SS1673386327030,63bdacb46bfec1782ed31c9f,63bdd955009296adc7416d66,1920,937,NA,3408,NA,NA,NA,NA,NA,NA,NA,NA,NA,"{""Q0"":2}",[0],background,NA,NA,NA,NA,NA,NA,NA
NA,NA,NA,NA,NA,curtain-display,84,370804,0.0-84.0,SS1673386327030,63bdacb46bfec1782ed31c9f,63bdd955009296adc7416d66,1920,937,NA,676,NA,1676,background_block,media/padded_stims/inanimate_080_left.png,null,inanimate_pair_left,null,null,6,NA,NA,NA,NA,NA,NA,NA,NA,NA,NA
NA,NA,NA,NA,NA,curtain-display,85,373075,0.0-85.0,SS1673386327030,63bdacb46bfec1782ed31c9f,63bdd955009296adc7416d66,1920,937,NA,461,NA,1461,background_block,media/padded_stims/inanimate_080_left.png,null,inanimate_pair_left,null,null,6,NA,NA,NA,NA,NA,NA,NA,NA,NA,NA
NA,NA,NA,NA,NA,curtain-display,86,375003,0.0-86.0,SS1673386327030,63bdacb46bfec1782ed31c9f,63bdd955009296adc7416d66,1920,937,NA,117,NA,1117,background_block,media/padded_stims/inanimate_080_left.png,null,inanimate_pair_left,null,null,6,NA,NA,NA,NA,NA,NA,NA,NA,NA,NA
NA,NA,NA,NA,NA,curtain-display,87,376964,0.0-87.0,SS1673386327030,63bdacb46bfec1782ed31c9f,63bdd955009296adc7416d66,1920,937,NA,141,NA,1141,background_block,media/padded_stims/inanimate_080_left.png,null,inanimate_pair_left,null,null,6,NA,NA,NA,NA,NA,NA,NA,NA,NA,NA
NA,NA,NA,NA,NA,curtain-display,88,378867,0.0-88.0,SS1673386327030,63bdacb46bfec1782ed31c9f,63bdd955009296adc7416d66,1920,937,NA,94,NA,1094,background_block,media/padded_stims/inanimate_080_left.png,null,inanimate_pair_left,null,null,6,NA,NA,NA,NA,NA,NA,NA,NA,NA,NA
NA,NA,NA,NA,NA,curtain-display,89,380932,0.0-89.0,SS1673386327030,63bdacb46bfec1782ed31c9f,63bdd955009296adc7416d66,1920,937,NA,250,NA,1250,background_block,media/padded_stims/inanimate_080_left.png,null,inanimate_pair_left,null,null,6,NA,NA,NA,NA,NA,NA,NA,NA,NA,NA
NA,NA,NA,NA,NA,survey-likert,90,383639,0.0-90.0,SS1673386327030,63bdacb46bfec1782ed31c9f,63bdd955009296adc7416d66,1920,937,NA,2704,NA,NA,NA,NA,NA,NA,NA,NA,NA,"{""Q0"":0}",[0],background,NA,NA,NA,NA,NA,NA,NA
NA,NA,NA,NA,NA,curtain-display,91,386323,0.0-91.0,SS1673386327030,63bdacb46bfec1782ed31c9f,63bdd955009296adc7416d66,1920,937,NA,862,NA,1862,deviant_block,media/padded_stims/animate_079_left.png,media/padded_stims/animate_005_right.png,animate_single_left,animate_single_right,pose,6,NA,NA,NA,NA,NA,NA,NA,NA,NA,NA
NA,NA,NA,NA,NA,curtain-display,92,388860,0.0-92.0,SS1673386327030,63bdacb46bfec1782ed31c9f,63bdd955009296adc7416d66,1920,937,NA,727,NA,1727,deviant_block,media/padded_stims/animate_079_left.png,media/padded_stims/animate_005_right.png,animate_single_left,animate_single_right,pose,6,NA,NA,NA,NA,NA,NA,NA,NA,NA,NA
NA,NA,NA,NA,NA,curtain-display,93,391675,0.0-93.0,SS1673386327030,63bdacb46bfec1782ed31c9f,63bdd955009296adc7416d66,1920,937,NA,998,NA,1998,deviant_block,media/padded_stims/animate_079_left.png,media/padded_stims/animate_005_right.png,animate_single_left,animate_single_right,pose,6,NA,NA,NA,NA,NA,NA,NA,NA,NA,NA
NA,NA,NA,NA,NA,curtain-display,94,394308,0.0-94.0,SS1673386327030,63bdacb46bfec1782ed31c9f,63bdd955009296adc7416d66,1920,937,NA,821,NA,1821,deviant_block,media/padded_stims/animate_079_left.png,media/padded_stims/animate_005_right.png,animate_single_left,animate_single_right,pose,6,NA,NA,NA,NA,NA,NA,NA,NA,NA,NA
NA,NA,NA,NA,NA,curtain-display,95,396564,0.0-95.0,SS1673386327030,63bdacb46bfec1782ed31c9f,63bdd955009296adc7416d66,1920,937,NA,435,NA,1435,deviant_block,media/padded_stims/animate_079_left.png,media/padded_stims/animate_005_right.png,animate_single_left,animate_single_right,pose,6,NA,NA,NA,NA,NA,NA,NA,NA,NA,NA
NA,NA,NA,NA,NA,curtain-display,96,398852,0.0-96.0,SS1673386327030,63bdacb46bfec1782ed31c9f,63bdd955009296adc7416d66,1920,937,NA,477,NA,1477,deviant_block,media/padded_stims/animate_079_left.png,media/padded_stims/animate_005_right.png,animate_single_left,animate_single_right,pose,6,NA,NA,NA,NA,NA,NA,NA,NA,NA,NA
NA,NA,NA,NA,NA,survey-likert,97,402873,0.0-97.0,SS1673386327030,63bdacb46bfec1782ed31c9f,63bdd955009296adc7416d66,1920,937,NA,4019,NA,NA,NA,NA,NA,NA,NA,NA,NA,"{""Q0"":1}",[0],deviant,NA,NA,NA,NA,NA,NA,NA
NA,NA,NA,NA,NA,curtain-display,98,406220,0.0-98.0,SS1673386327030,63bdacb46bfec1782ed31c9f,63bdd955009296adc7416d66,1920,937,NA,1521,NA,2521,background_block,media/padded_stims/animate_049_right.png,null,animate_single_right,null,null,2,NA,NA,NA,NA,NA,NA,NA,NA,NA,NA
NA,NA,NA,NA,NA,curtain-display,99,408292,0.0-99.0,SS1673386327030,63bdacb46bfec1782ed31c9f,63bdd955009296adc7416d66,1920,937,NA,260,NA,1260,background_block,media/padded_stims/animate_049_right.png,null,animate_single_right,null,null,2,NA,NA,NA,NA,NA,NA,NA,NA,NA,NA
NA,NA,NA,NA,NA,survey-likert,100,410978,0.0-100.0,SS1673386327030,63bdacb46bfec1782ed31c9f,63bdd955009296adc7416d66,1920,937,NA,2685,NA,NA,NA,NA,NA,NA,NA,NA,NA,"{""Q0"":2}",[0],background,NA,NA,NA,NA,NA,NA,NA
NA,NA,NA,NA,NA,curtain-display,101,413268,0.0-101.0,SS1673386327030,63bdacb46bfec1782ed31c9f,63bdd955009296adc7416d66,1920,937,NA,469,NA,1469,deviant_block,media/padded_stims/inanimate_057_right.png,media/padded_stims/animate_037_right.png,inanimate_single_right,animate_single_right,animacy,6,NA,NA,NA,NA,NA,NA,NA,NA,NA,NA
NA,NA,NA,NA,NA,curtain-display,102,415763,0.0-102.0,SS1673386327030,63bdacb46bfec1782ed31c9f,63bdd955009296adc7416d66,1920,937,NA,683,NA,1683,deviant_block,media/padded_stims/inanimate_057_right.png,media/padded_stims/animate_037_right.png,inanimate_single_right,animate_single_right,animacy,6,NA,NA,NA,NA,NA,NA,NA,NA,NA,NA
NA,NA,NA,NA,NA,curtain-display,103,418139,0.0-103.0,SS1673386327030,63bdacb46bfec1782ed31c9f,63bdd955009296adc7416d66,1920,937,NA,561,NA,1561,deviant_block,media/padded_stims/inanimate_057_right.png,media/padded_stims/animate_037_right.png,inanimate_single_right,animate_single_right,animacy,6,NA,NA,NA,NA,NA,NA,NA,NA,NA,NA
NA,NA,NA,NA,NA,curtain-display,104,420668,0.0-104.0,SS1673386327030,63bdacb46bfec1782ed31c9f,63bdd955009296adc7416d66,1920,937,NA,703,NA,1703,deviant_block,media/padded_stims/inanimate_057_right.png,media/padded_stims/animate_037_right.png,inanimate_single_right,animate_single_right,animacy,6,NA,NA,NA,NA,NA,NA,NA,NA,NA,NA
NA,NA,NA,NA,NA,curtain-display,105,423148,0.0-105.0,SS1673386327030,63bdacb46bfec1782ed31c9f,63bdd955009296adc7416d66,1920,937,NA,669,NA,1669,deviant_block,media/padded_stims/inanimate_057_right.png,media/padded_stims/animate_037_right.png,inanimate_single_right,animate_single_right,animacy,6,NA,NA,NA,NA,NA,NA,NA,NA,NA,NA
NA,NA,NA,NA,NA,curtain-display,106,429595,0.0-106.0,SS1673386327030,63bdacb46bfec1782ed31c9f,63bdd955009296adc7416d66,1920,937,NA,4636,NA,5636,deviant_block,media/padded_stims/inanimate_057_right.png,media/padded_stims/animate_037_right.png,inanimate_single_right,animate_single_right,animacy,6,NA,NA,NA,NA,NA,NA,NA,NA,NA,NA
NA,NA,NA,NA,NA,survey-likert,107,434169,0.0-107.0,SS1673386327030,63bdacb46bfec1782ed31c9f,63bdd955009296adc7416d66,1920,937,NA,4570,NA,NA,NA,NA,NA,NA,NA,NA,NA,"{""Q0"":1}",[0],background,NA,NA,NA,NA,NA,NA,NA
NA,NA,NA,NA,NA,instructions,108,436034,0.0-108.0,SS1673386327030,63bdacb46bfec1782ed31c9f,63bdd955009296adc7416d66,1920,937,"[{""page_index"":0,""viewing_time"":1861}]",1861,NA,NA,NA,NA,NA,NA,NA,NA,NA,NA,NA,NA,NA,NA,NA,NA,NA,NA,NA
NA,NA,NA,NA,NA,survey-likert,109,445523,0.0-109.0,SS1673386327030,63bdacb46bfec1782ed31c9f,63bdd955009296adc7416d66,1920,937,NA,9486,NA,NA,NA,NA,NA,NA,NA,identity,6,"{""Q0"":4}",[0],NA,media/padded_stims/animate_036_right.png,media/padded_stims/animate_061_right.png,identity,NA,NA,NA,NA
NA,NA,NA,NA,NA,survey-likert,110,455032,0.0-110.0,SS1673386327030,63bdacb46bfec1782ed31c9f,63bdd955009296adc7416d66,1920,937,NA,9504,NA,NA,NA,NA,NA,NA,NA,identity,2,"{""Q0"":4}",[0],NA,media/padded_stims/inanimate_057_left.png,media/padded_stims/inanimate_006_left.png,identity,NA,NA,NA,NA
NA,NA,NA,NA,NA,survey-likert,111,458513,0.0-111.0,SS1673386327030,63bdacb46bfec1782ed31c9f,63bdd955009296adc7416d66,1920,937,NA,3477,NA,NA,NA,NA,NA,NA,NA,pose,6,"{""Q0"":4}",[0],NA,media/padded_stims/inanimate_071_right.png,media/padded_stims/inanimate_049_left.png,pose,NA,NA,NA,NA
