success,timeout,failed_images,failed_audio,failed_video,trial_type,trial_index,time_elapsed,internal_node_id,subject,study,session,window_width,window_height,view_history,rt,stimulus_type,total_rt,block_type,background_stimulus,deviant_stimulus,background_type,deviant_type,violation_type,trial_number,response,question_order,rating_type,complexity_rating_type,complexity_reps,stimulus
TRUE,FALSE,[],[],[],preload,0,26677,0.0-0.0,SS1673375379147,63bdacb46bfec1782ed31c9f,63bdae8a53a2077a4ed02af0,2560,1218,NA,NA,NA,NA,NA,NA,NA,NA,NA,NA,NA,NA,NA,NA,NA,NA,NA
TRUE,NA,NA,NA,NA,fullscreen,1,31551,0.0-1.0,SS1673375379147,63bdacb46bfec1782ed31c9f,63bdae8a53a2077a4ed02af0,2560,1218,NA,NA,NA,NA,NA,NA,NA,NA,NA,NA,NA,NA,NA,NA,NA,NA,NA
NA,NA,NA,NA,NA,instructions,2,48758,0.0-2.0,SS1673375379147,63bdacb46bfec1782ed31c9f,63bdae8a53a2077a4ed02af0,2560,1218,"[{""page_index"":0,""viewing_time"":17206}]",17206,NA,NA,NA,NA,NA,NA,NA,NA,NA,NA,NA,NA,NA,NA,NA
NA,NA,NA,NA,NA,instructions,3,94368,0.0-3.0,SS1673375379147,63bdacb46bfec1782ed31c9f,63bdae8a53a2077a4ed02af0,2560,1218,"[{""page_index"":0,""viewing_time"":18639},{""page_index"":1,""viewing_time"":24968}]",43607,instructions,NA,NA,NA,NA,NA,NA,NA,NA,NA,NA,NA,NA,NA,NA
NA,NA,NA,NA,NA,curtain-display,4,99625,0.0-4.0,SS1673375379147,63bdacb46bfec1782ed31c9f,63bdae8a53a2077a4ed02af0,2560,1218,NA,3447,instructions,4447,NA,NA,NA,NA,NA,NA,NA,NA,NA,NA,NA,NA,NA
NA,NA,NA,NA,NA,curtain-display,5,103936,0.0-5.0,SS1673375379147,63bdacb46bfec1782ed31c9f,63bdae8a53a2077a4ed02af0,2560,1218,NA,2503,instructions,3503,NA,NA,NA,NA,NA,NA,NA,NA,NA,NA,NA,NA,NA
NA,NA,NA,NA,NA,curtain-display,6,106721,0.0-6.0,SS1673375379147,63bdacb46bfec1782ed31c9f,63bdae8a53a2077a4ed02af0,2560,1218,NA,981,instructions,1981,NA,NA,NA,NA,NA,NA,NA,NA,NA,NA,NA,NA,NA
NA,NA,NA,NA,NA,instructions,7,146139,0.0-7.0,SS1673375379147,63bdacb46bfec1782ed31c9f,63bdae8a53a2077a4ed02af0,2560,1218,"[{""page_index"":0,""viewing_time"":12535},{""page_index"":1,""viewing_time"":12966},{""page_index"":2,""viewing_time"":10353},{""page_index"":3,""viewing_time"":1993},{""page_index"":4,""viewing_time"":1569}]",39416,instructions,NA,NA,NA,NA,NA,NA,NA,NA,NA,NA,NA,NA,NA,NA
NA,NA,NA,NA,NA,curtain-display,8,152296,0.0-8.0,SS1673375379147,63bdacb46bfec1782ed31c9f,63bdae8a53a2077a4ed02af0,2560,1218,NA,4347,NA,5347,deviant_block,media/padded_stims/animate_063_left.png,media/padded_stims/animate_046_left.png,animate_single_left,animate_pair_left,number,4,NA,NA,NA,NA,NA,NA
NA,NA,NA,NA,NA,curtain-display,9,156058,0.0-9.0,SS1673375379147,63bdacb46bfec1782ed31c9f,63bdae8a53a2077a4ed02af0,2560,1218,NA,1952,NA,2952,deviant_block,media/padded_stims/animate_063_left.png,media/padded_stims/animate_046_left.png,animate_single_left,animate_pair_left,number,4,NA,NA,NA,NA,NA,NA
NA,NA,NA,NA,NA,curtain-display,10,158401,0.0-10.0,SS1673375379147,63bdacb46bfec1782ed31c9f,63bdae8a53a2077a4ed02af0,2560,1218,NA,534,NA,1534,deviant_block,media/padded_stims/animate_063_left.png,media/padded_stims/animate_046_left.png,animate_single_left,animate_pair_left,number,4,NA,NA,NA,NA,NA,NA
NA,NA,NA,NA,NA,curtain-display,11,163423,0.0-11.0,SS1673375379147,63bdacb46bfec1782ed31c9f,63bdae8a53a2077a4ed02af0,2560,1218,NA,3213,NA,4213,deviant_block,media/padded_stims/animate_063_left.png,media/padded_stims/animate_046_left.png,animate_single_left,animate_pair_left,number,4,NA,NA,NA,NA,NA,NA
NA,NA,NA,NA,NA,survey-likert,12,169884,0.0-12.0,SS1673375379147,63bdacb46bfec1782ed31c9f,63bdae8a53a2077a4ed02af0,2560,1218,NA,6459,NA,NA,NA,NA,NA,NA,NA,NA,NA,"{""Q0"":1}",[0],deviant,NA,NA,NA
NA,NA,NA,NA,NA,curtain-display,13,175184,0.0-13.0,SS1673375379147,63bdacb46bfec1782ed31c9f,63bdae8a53a2077a4ed02af0,2560,1218,NA,3491,NA,4491,deviant_block,media/padded_stims/animate_079_right.png,media/padded_stims/animate_080_left.png,animate_single_right,animate_single_left,pose,4,NA,NA,NA,NA,NA,NA
NA,NA,NA,NA,NA,curtain-display,14,177988,0.0-14.0,SS1673375379147,63bdacb46bfec1782ed31c9f,63bdae8a53a2077a4ed02af0,2560,1218,NA,994,NA,1994,deviant_block,media/padded_stims/animate_079_right.png,media/padded_stims/animate_080_left.png,animate_single_right,animate_single_left,pose,4,NA,NA,NA,NA,NA,NA
NA,NA,NA,NA,NA,curtain-display,15,180027,0.0-15.0,SS1673375379147,63bdacb46bfec1782ed31c9f,63bdae8a53a2077a4ed02af0,2560,1218,NA,234,NA,1234,deviant_block,media/padded_stims/animate_079_right.png,media/padded_stims/animate_080_left.png,animate_single_right,animate_single_left,pose,4,NA,NA,NA,NA,NA,NA
NA,NA,NA,NA,NA,curtain-display,16,185338,0.0-16.0,SS1673375379147,63bdacb46bfec1782ed31c9f,63bdae8a53a2077a4ed02af0,2560,1218,NA,3506,NA,4506,deviant_block,media/padded_stims/animate_079_right.png,media/padded_stims/animate_080_left.png,animate_single_right,animate_single_left,pose,4,NA,NA,NA,NA,NA,NA
NA,NA,NA,NA,NA,survey-likert,17,190698,0.0-17.0,SS1673375379147,63bdacb46bfec1782ed31c9f,63bdae8a53a2077a4ed02af0,2560,1218,NA,5359,NA,NA,NA,NA,NA,NA,NA,NA,NA,"{""Q0"":2}",[0],deviant,NA,NA,NA
NA,NA,NA,NA,NA,curtain-display,18,196814,0.0-18.0,SS1673375379147,63bdacb46bfec1782ed31c9f,63bdae8a53a2077a4ed02af0,2560,1218,NA,4302,NA,5302,deviant_block,media/padded_stims/animate_036_left.png,media/padded_stims/animate_023_left.png,animate_pair_left,animate_single_left,number,6,NA,NA,NA,NA,NA,NA
NA,NA,NA,NA,NA,curtain-display,19,199891,0.0-19.0,SS1673375379147,63bdacb46bfec1782ed31c9f,63bdae8a53a2077a4ed02af0,2560,1218,NA,1264,NA,2264,deviant_block,media/padded_stims/animate_036_left.png,media/padded_stims/animate_023_left.png,animate_pair_left,animate_single_left,number,6,NA,NA,NA,NA,NA,NA
NA,NA,NA,NA,NA,curtain-display,20,201795,0.0-20.0,SS1673375379147,63bdacb46bfec1782ed31c9f,63bdae8a53a2077a4ed02af0,2560,1218,NA,96,NA,1096,deviant_block,media/padded_stims/animate_036_left.png,media/padded_stims/animate_023_left.png,animate_pair_left,animate_single_left,number,6,NA,NA,NA,NA,NA,NA
NA,NA,NA,NA,NA,curtain-display,21,204164,0.0-21.0,SS1673375379147,63bdacb46bfec1782ed31c9f,63bdae8a53a2077a4ed02af0,2560,1218,NA,561,NA,1561,deviant_block,media/padded_stims/animate_036_left.png,media/padded_stims/animate_023_left.png,animate_pair_left,animate_single_left,number,6,NA,NA,NA,NA,NA,NA
NA,NA,NA,NA,NA,curtain-display,22,206700,0.0-22.0,SS1673375379147,63bdacb46bfec1782ed31c9f,63bdae8a53a2077a4ed02af0,2560,1218,NA,724,NA,1724,deviant_block,media/padded_stims/animate_036_left.png,media/padded_stims/animate_023_left.png,animate_pair_left,animate_single_left,number,6,NA,NA,NA,NA,NA,NA
NA,NA,NA,NA,NA,curtain-display,23,211274,0.0-23.0,SS1673375379147,63bdacb46bfec1782ed31c9f,63bdae8a53a2077a4ed02af0,2560,1218,NA,2766,NA,3766,deviant_block,media/padded_stims/animate_036_left.png,media/padded_stims/animate_023_left.png,animate_pair_left,animate_single_left,number,6,NA,NA,NA,NA,NA,NA
NA,NA,NA,NA,NA,survey-likert,24,215424,0.0-24.0,SS1673375379147,63bdacb46bfec1782ed31c9f,63bdae8a53a2077a4ed02af0,2560,1218,NA,4149,NA,NA,NA,NA,NA,NA,NA,NA,NA,"{""Q0"":1}",[0],deviant,NA,NA,NA
NA,NA,NA,NA,NA,curtain-display,25,222241,0.0-25.0,SS1673375379147,63bdacb46bfec1782ed31c9f,63bdae8a53a2077a4ed02af0,2560,1218,NA,5001,NA,6001,deviant_block,media/padded_stims/animate_067_right.png,media/padded_stims/animate_061_right.png,animate_pair_right,animate_single_right,number,6,NA,NA,NA,NA,NA,NA
NA,NA,NA,NA,NA,curtain-display,26,227082,0.0-26.0,SS1673375379147,63bdacb46bfec1782ed31c9f,63bdae8a53a2077a4ed02af0,2560,1218,NA,3032,NA,4032,deviant_block,media/padded_stims/animate_067_right.png,media/padded_stims/animate_061_right.png,animate_pair_right,animate_single_right,number,6,NA,NA,NA,NA,NA,NA
NA,NA,NA,NA,NA,curtain-display,27,230666,0.0-27.0,SS1673375379147,63bdacb46bfec1782ed31c9f,63bdae8a53a2077a4ed02af0,2560,1218,NA,1779,NA,2779,deviant_block,media/padded_stims/animate_067_right.png,media/padded_stims/animate_061_right.png,animate_pair_right,animate_single_right,number,6,NA,NA,NA,NA,NA,NA
NA,NA,NA,NA,NA,curtain-display,28,235140,0.0-28.0,SS1673375379147,63bdacb46bfec1782ed31c9f,63bdae8a53a2077a4ed02af0,2560,1218,NA,2661,NA,3661,deviant_block,media/padded_stims/animate_067_right.png,media/padded_stims/animate_061_right.png,animate_pair_right,animate_single_right,number,6,NA,NA,NA,NA,NA,NA
NA,NA,NA,NA,NA,curtain-display,29,238408,0.0-29.0,SS1673375379147,63bdacb46bfec1782ed31c9f,63bdae8a53a2077a4ed02af0,2560,1218,NA,1462,NA,2462,deviant_block,media/padded_stims/animate_067_right.png,media/padded_stims/animate_061_right.png,animate_pair_right,animate_single_right,number,6,NA,NA,NA,NA,NA,NA
NA,NA,NA,NA,NA,curtain-display,30,243658,0.0-30.0,SS1673375379147,63bdacb46bfec1782ed31c9f,63bdae8a53a2077a4ed02af0,2560,1218,NA,3441,NA,4441,deviant_block,media/padded_stims/animate_067_right.png,media/padded_stims/animate_061_right.png,animate_pair_right,animate_single_right,number,6,NA,NA,NA,NA,NA,NA
NA,NA,NA,NA,NA,survey-likert,31,247409,0.0-31.0,SS1673375379147,63bdacb46bfec1782ed31c9f,63bdae8a53a2077a4ed02af0,2560,1218,NA,3750,NA,NA,NA,NA,NA,NA,NA,NA,NA,"{""Q0"":3}",[0],background,NA,NA,NA
NA,NA,NA,NA,NA,curtain-display,32,251951,0.0-32.0,SS1673375379147,63bdacb46bfec1782ed31c9f,63bdae8a53a2077a4ed02af0,2560,1218,NA,2734,NA,3734,deviant_block,media/padded_stims/inanimate_006_left.png,media/padded_stims/inanimate_075_left.png,inanimate_single_left,inanimate_single_left,identity,6,NA,NA,NA,NA,NA,NA
NA,NA,NA,NA,NA,curtain-display,33,255553,0.0-33.0,SS1673375379147,63bdacb46bfec1782ed31c9f,63bdae8a53a2077a4ed02af0,2560,1218,NA,1794,NA,2794,deviant_block,media/padded_stims/inanimate_006_left.png,media/padded_stims/inanimate_075_left.png,inanimate_single_left,inanimate_single_left,identity,6,NA,NA,NA,NA,NA,NA
NA,NA,NA,NA,NA,curtain-display,34,258836,0.0-34.0,SS1673375379147,63bdacb46bfec1782ed31c9f,63bdae8a53a2077a4ed02af0,2560,1218,NA,1474,NA,2474,deviant_block,media/padded_stims/inanimate_006_left.png,media/padded_stims/inanimate_075_left.png,inanimate_single_left,inanimate_single_left,identity,6,NA,NA,NA,NA,NA,NA
NA,NA,NA,NA,NA,curtain-display,35,261641,0.0-35.0,SS1673375379147,63bdacb46bfec1782ed31c9f,63bdae8a53a2077a4ed02af0,2560,1218,NA,999,NA,1999,deviant_block,media/padded_stims/inanimate_006_left.png,media/padded_stims/inanimate_075_left.png,inanimate_single_left,inanimate_single_left,identity,6,NA,NA,NA,NA,NA,NA
NA,NA,NA,NA,NA,curtain-display,36,264390,0.0-36.0,SS1673375379147,63bdacb46bfec1782ed31c9f,63bdae8a53a2077a4ed02af0,2560,1218,NA,939,NA,1939,deviant_block,media/padded_stims/inanimate_006_left.png,media/padded_stims/inanimate_075_left.png,inanimate_single_left,inanimate_single_left,identity,6,NA,NA,NA,NA,NA,NA
NA,NA,NA,NA,NA,curtain-display,37,266877,0.0-37.0,SS1673375379147,63bdacb46bfec1782ed31c9f,63bdae8a53a2077a4ed02af0,2560,1218,NA,680,NA,1680,deviant_block,media/padded_stims/inanimate_006_left.png,media/padded_stims/inanimate_075_left.png,inanimate_single_left,inanimate_single_left,identity,6,NA,NA,NA,NA,NA,NA
NA,NA,NA,NA,NA,survey-likert,38,270345,0.0-38.0,SS1673375379147,63bdacb46bfec1782ed31c9f,63bdae8a53a2077a4ed02af0,2560,1218,NA,3467,NA,NA,NA,NA,NA,NA,NA,NA,NA,"{""Q0"":0}",[0],background,NA,NA,NA
NA,NA,NA,NA,NA,curtain-display,39,274947,0.0-39.0,SS1673375379147,63bdacb46bfec1782ed31c9f,63bdae8a53a2077a4ed02af0,2560,1218,NA,2791,NA,3791,deviant_block,media/padded_stims/inanimate_034_right.png,media/padded_stims/inanimate_030_left.png,inanimate_single_right,inanimate_single_left,pose,4,NA,NA,NA,NA,NA,NA
NA,NA,NA,NA,NA,curtain-display,40,279626,0.0-40.0,SS1673375379147,63bdacb46bfec1782ed31c9f,63bdae8a53a2077a4ed02af0,2560,1218,NA,2874,NA,3874,deviant_block,media/padded_stims/inanimate_034_right.png,media/padded_stims/inanimate_030_left.png,inanimate_single_right,inanimate_single_left,pose,4,NA,NA,NA,NA,NA,NA
NA,NA,NA,NA,NA,curtain-display,41,282479,0.0-41.0,SS1673375379147,63bdacb46bfec1782ed31c9f,63bdae8a53a2077a4ed02af0,2560,1218,NA,1041,NA,2041,deviant_block,media/padded_stims/inanimate_034_right.png,media/padded_stims/inanimate_030_left.png,inanimate_single_right,inanimate_single_left,pose,4,NA,NA,NA,NA,NA,NA
NA,NA,NA,NA,NA,curtain-display,42,287129,0.0-42.0,SS1673375379147,63bdacb46bfec1782ed31c9f,63bdae8a53a2077a4ed02af0,2560,1218,NA,2844,NA,3844,deviant_block,media/padded_stims/inanimate_034_right.png,media/padded_stims/inanimate_030_left.png,inanimate_single_right,inanimate_single_left,pose,4,NA,NA,NA,NA,NA,NA
NA,NA,NA,NA,NA,survey-likert,43,290226,0.0-43.0,SS1673375379147,63bdacb46bfec1782ed31c9f,63bdae8a53a2077a4ed02af0,2560,1218,NA,3095,NA,NA,NA,NA,NA,NA,NA,NA,NA,"{""Q0"":2}",[0],background,NA,NA,NA
NA,NA,NA,NA,NA,curtain-display,44,294416,0.0-44.0,SS1673375379147,63bdacb46bfec1782ed31c9f,63bdae8a53a2077a4ed02af0,2560,1218,NA,2381,NA,3381,deviant_block,media/padded_stims/inanimate_021_left.png,media/padded_stims/inanimate_047_right.png,inanimate_pair_left,inanimate_pair_right,pose,6,NA,NA,NA,NA,NA,NA
NA,NA,NA,NA,NA,curtain-display,45,296939,0.0-45.0,SS1673375379147,63bdacb46bfec1782ed31c9f,63bdae8a53a2077a4ed02af0,2560,1218,NA,715,NA,1715,deviant_block,media/padded_stims/inanimate_021_left.png,media/padded_stims/inanimate_047_right.png,inanimate_pair_left,inanimate_pair_right,pose,6,NA,NA,NA,NA,NA,NA
NA,NA,NA,NA,NA,curtain-display,46,299458,0.0-46.0,SS1673375379147,63bdacb46bfec1782ed31c9f,63bdae8a53a2077a4ed02af0,2560,1218,NA,710,NA,1710,deviant_block,media/padded_stims/inanimate_021_left.png,media/padded_stims/inanimate_047_right.png,inanimate_pair_left,inanimate_pair_right,pose,6,NA,NA,NA,NA,NA,NA
NA,NA,NA,NA,NA,curtain-display,47,301470,0.0-47.0,SS1673375379147,63bdacb46bfec1782ed31c9f,63bdae8a53a2077a4ed02af0,2560,1218,NA,204,NA,1204,deviant_block,media/padded_stims/inanimate_021_left.png,media/padded_stims/inanimate_047_right.png,inanimate_pair_left,inanimate_pair_right,pose,6,NA,NA,NA,NA,NA,NA
NA,NA,NA,NA,NA,curtain-display,48,303658,0.0-48.0,SS1673375379147,63bdacb46bfec1782ed31c9f,63bdae8a53a2077a4ed02af0,2560,1218,NA,382,NA,1382,deviant_block,media/padded_stims/inanimate_021_left.png,media/padded_stims/inanimate_047_right.png,inanimate_pair_left,inanimate_pair_right,pose,6,NA,NA,NA,NA,NA,NA
NA,NA,NA,NA,NA,curtain-display,49,306791,0.0-49.0,SS1673375379147,63bdacb46bfec1782ed31c9f,63bdae8a53a2077a4ed02af0,2560,1218,NA,1323,NA,2323,deviant_block,media/padded_stims/inanimate_021_left.png,media/padded_stims/inanimate_047_right.png,inanimate_pair_left,inanimate_pair_right,pose,6,NA,NA,NA,NA,NA,NA
NA,NA,NA,NA,NA,survey-likert,50,309989,0.0-50.0,SS1673375379147,63bdacb46bfec1782ed31c9f,63bdae8a53a2077a4ed02af0,2560,1218,NA,3197,NA,NA,NA,NA,NA,NA,NA,NA,NA,"{""Q0"":1}",[0],deviant,NA,NA,NA
NA,NA,NA,NA,NA,curtain-display,51,315448,0.0-51.0,SS1673375379147,63bdacb46bfec1782ed31c9f,63bdae8a53a2077a4ed02af0,2560,1218,NA,3643,NA,4643,deviant_block,media/padded_stims/inanimate_004_right.png,media/padded_stims/inanimate_059_left.png,inanimate_pair_right,inanimate_pair_left,pose,6,NA,NA,NA,NA,NA,NA
NA,NA,NA,NA,NA,curtain-display,52,319724,0.0-52.0,SS1673375379147,63bdacb46bfec1782ed31c9f,63bdae8a53a2077a4ed02af0,2560,1218,NA,2466,NA,3466,deviant_block,media/padded_stims/inanimate_004_right.png,media/padded_stims/inanimate_059_left.png,inanimate_pair_right,inanimate_pair_left,pose,6,NA,NA,NA,NA,NA,NA
NA,NA,NA,NA,NA,curtain-display,53,322931,0.0-53.0,SS1673375379147,63bdacb46bfec1782ed31c9f,63bdae8a53a2077a4ed02af0,2560,1218,NA,1401,NA,2401,deviant_block,media/padded_stims/inanimate_004_right.png,media/padded_stims/inanimate_059_left.png,inanimate_pair_right,inanimate_pair_left,pose,6,NA,NA,NA,NA,NA,NA
NA,NA,NA,NA,NA,curtain-display,54,325874,0.0-54.0,SS1673375379147,63bdacb46bfec1782ed31c9f,63bdae8a53a2077a4ed02af0,2560,1218,NA,1131,NA,2131,deviant_block,media/padded_stims/inanimate_004_right.png,media/padded_stims/inanimate_059_left.png,inanimate_pair_right,inanimate_pair_left,pose,6,NA,NA,NA,NA,NA,NA
NA,NA,NA,NA,NA,curtain-display,55,329205,0.0-55.0,SS1673375379147,63bdacb46bfec1782ed31c9f,63bdae8a53a2077a4ed02af0,2560,1218,NA,1522,NA,2522,deviant_block,media/padded_stims/inanimate_004_right.png,media/padded_stims/inanimate_059_left.png,inanimate_pair_right,inanimate_pair_left,pose,6,NA,NA,NA,NA,NA,NA
NA,NA,NA,NA,NA,curtain-display,56,332251,0.0-56.0,SS1673375379147,63bdacb46bfec1782ed31c9f,63bdae8a53a2077a4ed02af0,2560,1218,NA,1232,NA,2232,deviant_block,media/padded_stims/inanimate_004_right.png,media/padded_stims/inanimate_059_left.png,inanimate_pair_right,inanimate_pair_left,pose,6,NA,NA,NA,NA,NA,NA
NA,NA,NA,NA,NA,survey-likert,57,335874,0.0-57.0,SS1673375379147,63bdacb46bfec1782ed31c9f,63bdae8a53a2077a4ed02af0,2560,1218,NA,3620,NA,NA,NA,NA,NA,NA,NA,NA,NA,"{""Q0"":2}",[0],deviant,NA,NA,NA
NA,NA,NA,NA,NA,curtain-display,58,342913,0.0-58.0,SS1673375379147,63bdacb46bfec1782ed31c9f,63bdae8a53a2077a4ed02af0,2560,1218,NA,5228,NA,6228,background_block,media/padded_stims/animate_047_left.png,null,animate_single_left,null,null,6,NA,NA,NA,NA,NA,NA
NA,NA,NA,NA,NA,curtain-display,59,346738,0.0-59.0,SS1673375379147,63bdacb46bfec1782ed31c9f,63bdae8a53a2077a4ed02af0,2560,1218,NA,2014,NA,3014,background_block,media/padded_stims/animate_047_left.png,null,animate_single_left,null,null,6,NA,NA,NA,NA,NA,NA
NA,NA,NA,NA,NA,curtain-display,60,349887,0.0-60.0,SS1673375379147,63bdacb46bfec1782ed31c9f,63bdae8a53a2077a4ed02af0,2560,1218,NA,1341,NA,2341,background_block,media/padded_stims/animate_047_left.png,null,animate_single_left,null,null,6,NA,NA,NA,NA,NA,NA
NA,NA,NA,NA,NA,curtain-display,61,352650,0.0-61.0,SS1673375379147,63bdacb46bfec1782ed31c9f,63bdae8a53a2077a4ed02af0,2560,1218,NA,952,NA,1952,background_block,media/padded_stims/animate_047_left.png,null,animate_single_left,null,null,6,NA,NA,NA,NA,NA,NA
NA,NA,NA,NA,NA,curtain-display,62,356247,0.0-62.0,SS1673375379147,63bdacb46bfec1782ed31c9f,63bdae8a53a2077a4ed02af0,2560,1218,NA,1791,NA,2791,background_block,media/padded_stims/animate_047_left.png,null,animate_single_left,null,null,6,NA,NA,NA,NA,NA,NA
NA,NA,NA,NA,NA,curtain-display,63,359786,0.0-63.0,SS1673375379147,63bdacb46bfec1782ed31c9f,63bdae8a53a2077a4ed02af0,2560,1218,NA,1730,NA,2730,background_block,media/padded_stims/animate_047_left.png,null,animate_single_left,null,null,6,NA,NA,NA,NA,NA,NA
NA,NA,NA,NA,NA,survey-likert,64,362930,0.0-64.0,SS1673375379147,63bdacb46bfec1782ed31c9f,63bdae8a53a2077a4ed02af0,2560,1218,NA,3140,NA,NA,NA,NA,NA,NA,NA,NA,NA,"{""Q0"":2}",[0],background,NA,NA,NA
NA,NA,NA,NA,NA,curtain-display,65,369374,0.0-65.0,SS1673375379147,63bdacb46bfec1782ed31c9f,63bdae8a53a2077a4ed02af0,2560,1218,NA,4630,NA,5630,background_block,media/padded_stims/animate_068_right.png,null,animate_single_right,null,null,6,NA,NA,NA,NA,NA,NA
NA,NA,NA,NA,NA,curtain-display,66,374878,0.0-66.0,SS1673375379147,63bdacb46bfec1782ed31c9f,63bdae8a53a2077a4ed02af0,2560,1218,NA,3692,NA,4692,background_block,media/padded_stims/animate_068_right.png,null,animate_single_right,null,null,6,NA,NA,NA,NA,NA,NA
NA,NA,NA,NA,NA,curtain-display,67,379122,0.0-67.0,SS1673375379147,63bdacb46bfec1782ed31c9f,63bdae8a53a2077a4ed02af0,2560,1218,NA,2436,NA,3436,background_block,media/padded_stims/animate_068_right.png,null,animate_single_right,null,null,6,NA,NA,NA,NA,NA,NA
NA,NA,NA,NA,NA,curtain-display,68,383429,0.0-68.0,SS1673375379147,63bdacb46bfec1782ed31c9f,63bdae8a53a2077a4ed02af0,2560,1218,NA,2497,NA,3497,background_block,media/padded_stims/animate_068_right.png,null,animate_single_right,null,null,6,NA,NA,NA,NA,NA,NA
NA,NA,NA,NA,NA,curtain-display,69,387330,0.0-69.0,SS1673375379147,63bdacb46bfec1782ed31c9f,63bdae8a53a2077a4ed02af0,2560,1218,NA,2086,NA,3086,background_block,media/padded_stims/animate_068_right.png,null,animate_single_right,null,null,6,NA,NA,NA,NA,NA,NA
NA,NA,NA,NA,NA,curtain-display,70,390012,0.0-70.0,SS1673375379147,63bdacb46bfec1782ed31c9f,63bdae8a53a2077a4ed02af0,2560,1218,NA,874,NA,1874,background_block,media/padded_stims/animate_068_right.png,null,animate_single_right,null,null,6,NA,NA,NA,NA,NA,NA
NA,NA,NA,NA,NA,survey-likert,71,392408,0.0-71.0,SS1673375379147,63bdacb46bfec1782ed31c9f,63bdae8a53a2077a4ed02af0,2560,1218,NA,2393,NA,NA,NA,NA,NA,NA,NA,NA,NA,"{""Q0"":2}",[0],background,NA,NA,NA
NA,NA,NA,NA,NA,curtain-display,72,401336,0.0-72.0,SS1673375379147,63bdacb46bfec1782ed31c9f,63bdae8a53a2077a4ed02af0,2560,1218,NA,7118,NA,8118,background_block,media/padded_stims/animate_018_left.png,null,animate_pair_left,null,null,6,NA,NA,NA,NA,NA,NA
NA,NA,NA,NA,NA,curtain-display,73,408552,0.0-73.0,SS1673375379147,63bdacb46bfec1782ed31c9f,63bdae8a53a2077a4ed02af0,2560,1218,NA,5405,NA,6405,background_block,media/padded_stims/animate_018_left.png,null,animate_pair_left,null,null,6,NA,NA,NA,NA,NA,NA
NA,NA,NA,NA,NA,curtain-display,74,415287,0.0-74.0,SS1673375379147,63bdacb46bfec1782ed31c9f,63bdae8a53a2077a4ed02af0,2560,1218,NA,4928,NA,5928,background_block,media/padded_stims/animate_018_left.png,null,animate_pair_left,null,null,6,NA,NA,NA,NA,NA,NA
NA,NA,NA,NA,NA,curtain-display,75,420267,0.0-75.0,SS1673375379147,63bdacb46bfec1782ed31c9f,63bdae8a53a2077a4ed02af0,2560,1218,NA,3170,NA,4170,background_block,media/padded_stims/animate_018_left.png,null,animate_pair_left,null,null,6,NA,NA,NA,NA,NA,NA
NA,NA,NA,NA,NA,curtain-display,76,423839,0.0-76.0,SS1673375379147,63bdacb46bfec1782ed31c9f,63bdae8a53a2077a4ed02af0,2560,1218,NA,1765,NA,2765,background_block,media/padded_stims/animate_018_left.png,null,animate_pair_left,null,null,6,NA,NA,NA,NA,NA,NA
NA,NA,NA,NA,NA,curtain-display,77,427377,0.0-77.0,SS1673375379147,63bdacb46bfec1782ed31c9f,63bdae8a53a2077a4ed02af0,2560,1218,NA,1729,NA,2729,background_block,media/padded_stims/animate_018_left.png,null,animate_pair_left,null,null,6,NA,NA,NA,NA,NA,NA
NA,NA,NA,NA,NA,survey-likert,78,429993,0.0-78.0,SS1673375379147,63bdacb46bfec1782ed31c9f,63bdae8a53a2077a4ed02af0,2560,1218,NA,2613,NA,NA,NA,NA,NA,NA,NA,NA,NA,"{""Q0"":3}",[0],background,NA,NA,NA
NA,NA,NA,NA,NA,curtain-display,79,437039,0.0-79.0,SS1673375379147,63bdacb46bfec1782ed31c9f,63bdae8a53a2077a4ed02af0,2560,1218,NA,5232,NA,6232,background_block,media/padded_stims/animate_071_right.png,null,animate_pair_right,null,null,6,NA,NA,NA,NA,NA,NA
NA,NA,NA,NA,NA,curtain-display,80,442002,0.0-80.0,SS1673375379147,63bdacb46bfec1782ed31c9f,63bdae8a53a2077a4ed02af0,2560,1218,NA,3154,NA,4154,background_block,media/padded_stims/animate_071_right.png,null,animate_pair_right,null,null,6,NA,NA,NA,NA,NA,NA
NA,NA,NA,NA,NA,curtain-display,81,445497,0.0-81.0,SS1673375379147,63bdacb46bfec1782ed31c9f,63bdae8a53a2077a4ed02af0,2560,1218,NA,1687,NA,2687,background_block,media/padded_stims/animate_071_right.png,null,animate_pair_right,null,null,6,NA,NA,NA,NA,NA,NA
NA,NA,NA,NA,NA,curtain-display,82,448782,0.0-82.0,SS1673375379147,63bdacb46bfec1782ed31c9f,63bdae8a53a2077a4ed02af0,2560,1218,NA,1475,NA,2475,background_block,media/padded_stims/animate_071_right.png,null,animate_pair_right,null,null,6,NA,NA,NA,NA,NA,NA
NA,NA,NA,NA,NA,curtain-display,83,452369,0.0-83.0,SS1673375379147,63bdacb46bfec1782ed31c9f,63bdae8a53a2077a4ed02af0,2560,1218,NA,1779,NA,2779,background_block,media/padded_stims/animate_071_right.png,null,animate_pair_right,null,null,6,NA,NA,NA,NA,NA,NA
NA,NA,NA,NA,NA,curtain-display,84,457170,0.0-84.0,SS1673375379147,63bdacb46bfec1782ed31c9f,63bdae8a53a2077a4ed02af0,2560,1218,NA,2990,NA,3990,background_block,media/padded_stims/animate_071_right.png,null,animate_pair_right,null,null,6,NA,NA,NA,NA,NA,NA
NA,NA,NA,NA,NA,survey-likert,85,459654,0.0-85.0,SS1673375379147,63bdacb46bfec1782ed31c9f,63bdae8a53a2077a4ed02af0,2560,1218,NA,2481,NA,NA,NA,NA,NA,NA,NA,NA,NA,"{""Q0"":2}",[0],background,NA,NA,NA
NA,NA,NA,NA,NA,curtain-display,86,462495,0.0-86.0,SS1673375379147,63bdacb46bfec1782ed31c9f,63bdae8a53a2077a4ed02af0,2560,1218,NA,1026,NA,2026,background_block,media/padded_stims/inanimate_018_left.png,null,inanimate_single_left,null,null,6,NA,NA,NA,NA,NA,NA
NA,NA,NA,NA,NA,curtain-display,87,464472,0.0-87.0,SS1673375379147,63bdacb46bfec1782ed31c9f,63bdae8a53a2077a4ed02af0,2560,1218,NA,170,NA,1170,background_block,media/padded_stims/inanimate_018_left.png,null,inanimate_single_left,null,null,6,NA,NA,NA,NA,NA,NA
NA,NA,NA,NA,NA,curtain-display,88,466364,0.0-88.0,SS1673375379147,63bdacb46bfec1782ed31c9f,63bdae8a53a2077a4ed02af0,2560,1218,NA,83,NA,1083,background_block,media/padded_stims/inanimate_018_left.png,null,inanimate_single_left,null,null,6,NA,NA,NA,NA,NA,NA
NA,NA,NA,NA,NA,curtain-display,89,468960,0.0-89.0,SS1673375379147,63bdacb46bfec1782ed31c9f,63bdae8a53a2077a4ed02af0,2560,1218,NA,781,NA,1781,background_block,media/padded_stims/inanimate_018_left.png,null,inanimate_single_left,null,null,6,NA,NA,NA,NA,NA,NA
NA,NA,NA,NA,NA,curtain-display,90,471991,0.0-90.0,SS1673375379147,63bdacb46bfec1782ed31c9f,63bdae8a53a2077a4ed02af0,2560,1218,NA,1219,NA,2219,background_block,media/padded_stims/inanimate_018_left.png,null,inanimate_single_left,null,null,6,NA,NA,NA,NA,NA,NA
NA,NA,NA,NA,NA,curtain-display,91,474761,0.0-91.0,SS1673375379147,63bdacb46bfec1782ed31c9f,63bdae8a53a2077a4ed02af0,2560,1218,NA,963,NA,1963,background_block,media/padded_stims/inanimate_018_left.png,null,inanimate_single_left,null,null,6,NA,NA,NA,NA,NA,NA
NA,NA,NA,NA,NA,survey-likert,92,478146,0.0-92.0,SS1673375379147,63bdacb46bfec1782ed31c9f,63bdae8a53a2077a4ed02af0,2560,1218,NA,3382,NA,NA,NA,NA,NA,NA,NA,NA,NA,"{""Q0"":0}",[0],background,NA,NA,NA
NA,NA,NA,NA,NA,curtain-display,93,483657,0.0-93.0,SS1673375379147,63bdacb46bfec1782ed31c9f,63bdae8a53a2077a4ed02af0,2560,1218,NA,3700,NA,4700,background_block,media/padded_stims/inanimate_016_right.png,null,inanimate_single_right,null,null,6,NA,NA,NA,NA,NA,NA
NA,NA,NA,NA,NA,curtain-display,94,486297,0.0-94.0,SS1673375379147,63bdacb46bfec1782ed31c9f,63bdae8a53a2077a4ed02af0,2560,1218,NA,831,NA,1831,background_block,media/padded_stims/inanimate_016_right.png,null,inanimate_single_right,null,null,6,NA,NA,NA,NA,NA,NA
NA,NA,NA,NA,NA,curtain-display,95,488655,0.0-95.0,SS1673375379147,63bdacb46bfec1782ed31c9f,63bdae8a53a2077a4ed02af0,2560,1218,NA,547,NA,1547,background_block,media/padded_stims/inanimate_016_right.png,null,inanimate_single_right,null,null,6,NA,NA,NA,NA,NA,NA
NA,NA,NA,NA,NA,curtain-display,96,491910,0.0-96.0,SS1673375379147,63bdacb46bfec1782ed31c9f,63bdae8a53a2077a4ed02af0,2560,1218,NA,1447,NA,2447,background_block,media/padded_stims/inanimate_016_right.png,null,inanimate_single_right,null,null,6,NA,NA,NA,NA,NA,NA
NA,NA,NA,NA,NA,curtain-display,97,495298,0.0-97.0,SS1673375379147,63bdacb46bfec1782ed31c9f,63bdae8a53a2077a4ed02af0,2560,1218,NA,1577,NA,2577,background_block,media/padded_stims/inanimate_016_right.png,null,inanimate_single_right,null,null,6,NA,NA,NA,NA,NA,NA
NA,NA,NA,NA,NA,curtain-display,98,498343,0.0-98.0,SS1673375379147,63bdacb46bfec1782ed31c9f,63bdae8a53a2077a4ed02af0,2560,1218,NA,1237,NA,2237,background_block,media/padded_stims/inanimate_016_right.png,null,inanimate_single_right,null,null,6,NA,NA,NA,NA,NA,NA
NA,NA,NA,NA,NA,survey-likert,99,501337,0.0-99.0,SS1673375379147,63bdacb46bfec1782ed31c9f,63bdae8a53a2077a4ed02af0,2560,1218,NA,2991,NA,NA,NA,NA,NA,NA,NA,NA,NA,"{""Q0"":0}",[0],background,NA,NA,NA
NA,NA,NA,NA,NA,curtain-display,100,505440,0.0-100.0,SS1673375379147,63bdacb46bfec1782ed31c9f,63bdae8a53a2077a4ed02af0,2560,1218,NA,2290,NA,3290,background_block,media/padded_stims/inanimate_046_left.png,null,inanimate_pair_left,null,null,6,NA,NA,NA,NA,NA,NA
NA,NA,NA,NA,NA,curtain-display,101,508587,0.0-101.0,SS1673375379147,63bdacb46bfec1782ed31c9f,63bdae8a53a2077a4ed02af0,2560,1218,NA,1343,NA,2343,background_block,media/padded_stims/inanimate_046_left.png,null,inanimate_pair_left,null,null,6,NA,NA,NA,NA,NA,NA
NA,NA,NA,NA,NA,curtain-display,102,511886,0.0-102.0,SS1673375379147,63bdacb46bfec1782ed31c9f,63bdae8a53a2077a4ed02af0,2560,1218,NA,1490,NA,2490,background_block,media/padded_stims/inanimate_046_left.png,null,inanimate_pair_left,null,null,6,NA,NA,NA,NA,NA,NA
NA,NA,NA,NA,NA,curtain-display,103,515262,0.0-103.0,SS1673375379147,63bdacb46bfec1782ed31c9f,63bdae8a53a2077a4ed02af0,2560,1218,NA,1568,NA,2568,background_block,media/padded_stims/inanimate_046_left.png,null,inanimate_pair_left,null,null,6,NA,NA,NA,NA,NA,NA
NA,NA,NA,NA,NA,curtain-display,104,518519,0.0-104.0,SS1673375379147,63bdacb46bfec1782ed31c9f,63bdae8a53a2077a4ed02af0,2560,1218,NA,1444,NA,2444,background_block,media/padded_stims/inanimate_046_left.png,null,inanimate_pair_left,null,null,6,NA,NA,NA,NA,NA,NA
NA,NA,NA,NA,NA,curtain-display,105,521851,0.0-105.0,SS1673375379147,63bdacb46bfec1782ed31c9f,63bdae8a53a2077a4ed02af0,2560,1218,NA,1521,NA,2521,background_block,media/padded_stims/inanimate_046_left.png,null,inanimate_pair_left,null,null,6,NA,NA,NA,NA,NA,NA
NA,NA,NA,NA,NA,survey-likert,106,524886,0.0-106.0,SS1673375379147,63bdacb46bfec1782ed31c9f,63bdae8a53a2077a4ed02af0,2560,1218,NA,3032,NA,NA,NA,NA,NA,NA,NA,NA,NA,"{""Q0"":0}",[0],background,NA,NA,NA
NA,NA,NA,NA,NA,curtain-display,107,528405,0.0-107.0,SS1673375379147,63bdacb46bfec1782ed31c9f,63bdae8a53a2077a4ed02af0,2560,1218,NA,1703,NA,2703,background_block,media/padded_stims/inanimate_054_right.png,null,inanimate_pair_right,null,null,6,NA,NA,NA,NA,NA,NA
NA,NA,NA,NA,NA,curtain-display,108,531898,0.0-108.0,SS1673375379147,63bdacb46bfec1782ed31c9f,63bdae8a53a2077a4ed02af0,2560,1218,NA,1684,NA,2684,background_block,media/padded_stims/inanimate_054_right.png,null,inanimate_pair_right,null,null,6,NA,NA,NA,NA,NA,NA
NA,NA,NA,NA,NA,curtain-display,109,535244,0.0-109.0,SS1673375379147,63bdacb46bfec1782ed31c9f,63bdae8a53a2077a4ed02af0,2560,1218,NA,1531,NA,2531,background_block,media/padded_stims/inanimate_054_right.png,null,inanimate_pair_right,null,null,6,NA,NA,NA,NA,NA,NA
NA,NA,NA,NA,NA,curtain-display,110,538576,0.0-110.0,SS1673375379147,63bdacb46bfec1782ed31c9f,63bdae8a53a2077a4ed02af0,2560,1218,NA,1522,NA,2522,background_block,media/padded_stims/inanimate_054_right.png,null,inanimate_pair_right,null,null,6,NA,NA,NA,NA,NA,NA
NA,NA,NA,NA,NA,curtain-display,111,541932,0.0-111.0,SS1673375379147,63bdacb46bfec1782ed31c9f,63bdae8a53a2077a4ed02af0,2560,1218,NA,1547,NA,2547,background_block,media/padded_stims/inanimate_054_right.png,null,inanimate_pair_right,null,null,6,NA,NA,NA,NA,NA,NA
NA,NA,NA,NA,NA,curtain-display,112,545157,0.0-112.0,SS1673375379147,63bdacb46bfec1782ed31c9f,63bdae8a53a2077a4ed02af0,2560,1218,NA,1419,NA,2419,background_block,media/padded_stims/inanimate_054_right.png,null,inanimate_pair_right,null,null,6,NA,NA,NA,NA,NA,NA
NA,NA,NA,NA,NA,survey-likert,113,547661,0.0-113.0,SS1673375379147,63bdacb46bfec1782ed31c9f,63bdae8a53a2077a4ed02af0,2560,1218,NA,2501,NA,NA,NA,NA,NA,NA,NA,NA,NA,"{""Q0"":0}",[0],background,NA,NA,NA
NA,NA,NA,NA,NA,instructions,114,551951,0.0-114.0,SS1673375379147,63bdacb46bfec1782ed31c9f,63bdae8a53a2077a4ed02af0,2560,1218,"[{""page_index"":0,""viewing_time"":4284}]",4284,NA,NA,NA,NA,NA,NA,NA,NA,NA,NA,NA,NA,NA,NA,NA
NA,NA,NA,NA,NA,survey-likert,115,561745,0.0-115.0,SS1673375379147,63bdacb46bfec1782ed31c9f,63bdae8a53a2077a4ed02af0,2560,1218,NA,9790,NA,NA,NA,NA,NA,NA,NA,number,4,"{""Q0"":4}",[0],NA,NA,NA,NA
NA,NA,NA,NA,NA,survey-likert,116,566245,0.0-116.0,SS1673375379147,63bdacb46bfec1782ed31c9f,63bdae8a53a2077a4ed02af0,2560,1218,NA,4493,NA,NA,NA,NA,NA,NA,NA,pose,4,"{""Q0"":2}",[0],NA,NA,NA,NA
NA,NA,NA,NA,NA,survey-likert,117,570371,0.0-117.0,SS1673375379147,63bdacb46bfec1782ed31c9f,63bdae8a53a2077a4ed02af0,2560,1218,NA,4120,NA,NA,NA,NA,NA,NA,NA,number,6,"{""Q0"":2}",[0],NA,NA,NA,NA
NA,NA,NA,NA,NA,survey-likert,118,574459,0.0-118.0,SS1673375379147,63bdacb46bfec1782ed31c9f,63bdae8a53a2077a4ed02af0,2560,1218,NA,4082,NA,NA,NA,NA,NA,NA,NA,number,6,"{""Q0"":4}",[0],NA,NA,NA,NA
NA,NA,NA,NA,NA,survey-likert,119,582240,0.0-119.0,SS1673375379147,63bdacb46bfec1782ed31c9f,63bdae8a53a2077a4ed02af0,2560,1218,NA,7775,NA,NA,NA,NA,NA,NA,NA,identity,6,"{""Q0"":2}",[0],NA,NA,NA,NA
NA,NA,NA,NA,NA,survey-likert,120,589415,0.0-120.0,SS1673375379147,63bdacb46bfec1782ed31c9f,63bdae8a53a2077a4ed02af0,2560,1218,NA,7169,NA,NA,NA,NA,NA,NA,NA,pose,4,"{""Q0"":2}",[0],NA,NA,NA,NA
NA,NA,NA,NA,NA,survey-likert,121,593390,0.0-121.0,SS1673375379147,63bdacb46bfec1782ed31c9f,63bdae8a53a2077a4ed02af0,2560,1218,NA,3968,NA,NA,NA,NA,NA,NA,NA,pose,6,"{""Q0"":2}",[0],NA,NA,NA,NA
NA,NA,NA,NA,NA,survey-likert,122,597698,0.0-122.0,SS1673375379147,63bdacb46bfec1782ed31c9f,63bdae8a53a2077a4ed02af0,2560,1218,NA,4302,NA,NA,NA,NA,NA,NA,NA,pose,6,"{""Q0"":2}",[0],NA,NA,NA,NA
NA,NA,NA,NA,NA,survey-likert,123,603012,0.0-123.0,SS1673375379147,63bdacb46bfec1782ed31c9f,63bdae8a53a2077a4ed02af0,2560,1218,NA,5308,NA,NA,NA,NA,NA,NA,NA,NA,NA,"{""Q0"":0}",[0],NA,background,3,NA
NA,NA,NA,NA,NA,survey-likert,124,607208,0.0-124.0,SS1673375379147,63bdacb46bfec1782ed31c9f,63bdae8a53a2077a4ed02af0,2560,1218,NA,4189,NA,NA,NA,NA,NA,NA,NA,NA,NA,"{""Q0"":2}",[0],NA,deviant,1,NA
NA,NA,NA,NA,NA,survey-likert,125,610107,0.0-125.0,SS1673375379147,63bdacb46bfec1782ed31c9f,63bdae8a53a2077a4ed02af0,2560,1218,NA,2895,NA,NA,NA,NA,NA,NA,NA,NA,NA,"{""Q0"":4}",[0],NA,background,3,NA
NA,NA,NA,NA,NA,survey-likert,126,613326,0.0-126.0,SS1673375379147,63bdacb46bfec1782ed31c9f,63bdae8a53a2077a4ed02af0,2560,1218,NA,3212,NA,NA,NA,NA,NA,NA,NA,NA,NA,"{""Q0"":4}",[0],NA,deviant,1,NA
NA,NA,NA,NA,NA,survey-likert,127,617708,0.0-127.0,SS1673375379147,63bdacb46bfec1782ed31c9f,63bdae8a53a2077a4ed02af0,2560,1218,NA,4376,NA,NA,NA,NA,NA,NA,NA,NA,NA,"{""Q0"":3}",[0],NA,background,5,NA
NA,NA,NA,NA,NA,survey-likert,128,621656,0.0-128.0,SS1673375379147,63bdacb46bfec1782ed31c9f,63bdae8a53a2077a4ed02af0,2560,1218,NA,3942,NA,NA,NA,NA,NA,NA,NA,NA,NA,"{""Q0"":2}",[0],NA,deviant,1,NA
NA,NA,NA,NA,NA,survey-likert,129,624055,0.0-129.0,SS1673375379147,63bdacb46bfec1782ed31c9f,63bdae8a53a2077a4ed02af0,2560,1218,NA,2393,NA,NA,NA,NA,NA,NA,NA,NA,NA,"{""Q0"":3}",[0],NA,background,5,NA
NA,NA,NA,NA,NA,survey-likert,130,627764,0.0-130.0,SS1673375379147,63bdacb46bfec1782ed31c9f,63bdae8a53a2077a4ed02af0,2560,1218,NA,3702,NA,NA,NA,NA,NA,NA,NA,NA,NA,"{""Q0"":3}",[0],NA,deviant,1,NA
NA,NA,NA,NA,NA,survey-likert,131,631318,0.0-131.0,SS1673375379147,63bdacb46bfec1782ed31c9f,63bdae8a53a2077a4ed02af0,2560,1218,NA,3548,NA,NA,NA,NA,NA,NA,NA,NA,NA,"{""Q0"":4}",[0],NA,background,5,NA
NA,NA,NA,NA,NA,survey-likert,132,634507,0.0-132.0,SS1673375379147,63bdacb46bfec1782ed31c9f,63bdae8a53a2077a4ed02af0,2560,1218,NA,3183,NA,NA,NA,NA,NA,NA,NA,NA,NA,"{""Q0"":2}",[0],NA,deviant,1,NA
NA,NA,NA,NA,NA,survey-likert,133,636598,0.0-133.0,SS1673375379147,63bdacb46bfec1782ed31c9f,63bdae8a53a2077a4ed02af0,2560,1218,NA,2085,NA,NA,NA,NA,NA,NA,NA,NA,NA,"{""Q0"":3}",[0],NA,background,3,NA
NA,NA,NA,NA,NA,survey-likert,134,639364,0.0-134.0,SS1673375379147,63bdacb46bfec1782ed31c9f,63bdae8a53a2077a4ed02af0,2560,1218,NA,2760,NA,NA,NA,NA,NA,NA,NA,NA,NA,"{""Q0"":3}",[0],NA,deviant,1,NA
NA,NA,NA,NA,NA,survey-likert,135,641854,0.0-135.0,SS1673375379147,63bdacb46bfec1782ed31c9f,63bdae8a53a2077a4ed02af0,2560,1218,NA,2484,NA,NA,NA,NA,NA,NA,NA,NA,NA,"{""Q0"":0}",[0],NA,background,5,NA
NA,NA,NA,NA,NA,survey-likert,136,646241,0.0-136.0,SS1673375379147,63bdacb46bfec1782ed31c9f,63bdae8a53a2077a4ed02af0,2560,1218,NA,4380,NA,NA,NA,NA,NA,NA,NA,NA,NA,"{""Q0"":4}",[0],NA,deviant,1,NA
NA,NA,NA,NA,NA,survey-likert,137,648666,0.0-137.0,SS1673375379147,63bdacb46bfec1782ed31c9f,63bdae8a53a2077a4ed02af0,2560,1218,NA,2418,NA,NA,NA,NA,NA,NA,NA,NA,NA,"{""Q0"":4}",[0],NA,background,5,NA
NA,NA,NA,NA,NA,survey-likert,138,652508,0.0-138.0,SS1673375379147,63bdacb46bfec1782ed31c9f,63bdae8a53a2077a4ed02af0,2560,1218,NA,3835,NA,NA,NA,NA,NA,NA,NA,NA,NA,"{""Q0"":4}",[0],NA,deviant,1,NA
NA,NA,NA,NA,NA,survey-likert,139,655805,0.0-139.0,SS1673375379147,63bdacb46bfec1782ed31c9f,63bdae8a53a2077a4ed02af0,2560,1218,NA,3290,NA,NA,NA,NA,NA,NA,NA,NA,NA,"{""Q0"":2}",[0],NA,background,6,NA
NA,NA,NA,NA,NA,survey-likert,140,658525,0.0-140.0,SS1673375379147,63bdacb46bfec1782ed31c9f,63bdae8a53a2077a4ed02af0,2560,1218,NA,2714,NA,NA,NA,NA,NA,NA,NA,NA,NA,"{""Q0"":5}",[0],NA,background,6,NA
NA,NA,NA,NA,NA,survey-likert,141,663504,0.0-141.0,SS1673375379147,63bdacb46bfec1782ed31c9f,63bdae8a53a2077a4ed02af0,2560,1218,NA,4973,NA,NA,NA,NA,NA,NA,NA,NA,NA,"{""Q0"":3}",[0],NA,background,6,NA
NA,NA,NA,NA,NA,survey-likert,142,667721,0.0-142.0,SS1673375379147,63bdacb46bfec1782ed31c9f,63bdae8a53a2077a4ed02af0,2560,1218,NA,4211,NA,NA,NA,NA,NA,NA,NA,NA,NA,"{""Q0"":3}",[0],NA,background,6,NA
NA,NA,NA,NA,NA,survey-likert,143,670848,0.0-143.0,SS1673375379147,63bdacb46bfec1782ed31c9f,63bdae8a53a2077a4ed02af0,2560,1218,NA,3121,NA,NA,NA,NA,NA,NA,NA,NA,NA,"{""Q0"":2}",[0],NA,background,6,NA
NA,NA,NA,NA,NA,survey-likert,144,672952,0.0-144.0,SS1673375379147,63bdacb46bfec1782ed31c9f,63bdae8a53a2077a4ed02af0,2560,1218,NA,2098,NA,NA,NA,NA,NA,NA,NA,NA,NA,"{""Q0"":3}",[0],NA,background,6,NA
NA,NA,NA,NA,NA,survey-likert,145,676356,0.0-145.0,SS1673375379147,63bdacb46bfec1782ed31c9f,63bdae8a53a2077a4ed02af0,2560,1218,NA,3400,NA,NA,NA,NA,NA,NA,NA,NA,NA,"{""Q0"":3}",[0],NA,background,6,NA
NA,NA,NA,NA,NA,survey-likert,146,679279,0.0-146.0,SS1673375379147,63bdacb46bfec1782ed31c9f,63bdae8a53a2077a4ed02af0,2560,1218,NA,2917,NA,NA,NA,NA,NA,NA,NA,NA,NA,"{""Q0"":1}",[0],NA,background,6,NA
NA,NA,NA,NA,NA,html-button-response,147,683875,0.0-147.0,SS1673375379147,63bdacb46bfec1782ed31c9f,63bdae8a53a2077a4ed02af0,2560,1218,NA,4589,NA,NA,NA,NA,NA,NA,NA,NA,NA,0,NA,NA,NA,NA,"<p>Congratulations! You have finished all the tasks tasks!</p><p>Now, we would like to ask a few questions about you.</p>"
NA,NA,NA,NA,NA,survey-text,148,688270,0.0-148.0,SS1673375379147,63bdacb46bfec1782ed31c9f,63bdae8a53a2077a4ed02af0,2560,1218,NA,4389,NA,NA,NA,NA,NA,NA,NA,NA,NA,"{""Q0"":""48""}",NA,NA,NA,NA,NA
NA,NA,NA,NA,NA,survey-multi-select,149,697962,0.0-149.0,SS1673375379147,63bdacb46bfec1782ed31c9f,63bdae8a53a2077a4ed02af0,2560,1218,NA,9686,NA,NA,NA,NA,NA,NA,NA,NA,NA,"{""ethnicity"":[""White""]}",[0],NA,NA,NA,NA
NA,NA,NA,NA,NA,survey-text,150,703431,0.0-150.0,SS1673375379147,63bdacb46bfec1782ed31c9f,63bdae8a53a2077a4ed02af0,2560,1218,NA,5462,NA,NA,NA,NA,NA,NA,NA,NA,NA,"{""Q0"":""female""}",NA,NA,NA,NA,NA
NA,NA,NA,NA,NA,survey-multi-choice,151,706743,0.0-151.0,SS1673375379147,63bdacb46bfec1782ed31c9f,63bdae8a53a2077a4ed02af0,2560,1218,NA,3307,NA,NA,NA,NA,NA,NA,NA,NA,NA,"{""education"":""Master's Degree""}",[0],NA,NA,NA,NA
TRUE,NA,NA,NA,NA,fullscreen,152,706754,0.0-152.0,SS1673375379147,63bdacb46bfec1782ed31c9f,63bdae8a53a2077a4ed02af0,2560,1218,NA,NA,NA,NA,NA,NA,NA,NA,NA,NA,NA,NA,NA,NA,NA,NA,NA
NA,NA,NA,NA,NA,html-button-response,153,715026,0.0-153.0,SS1673375379147,63bdacb46bfec1782ed31c9f,63bdae8a53a2077a4ed02af0,2560,1218,NA,8266,NA,NA,NA,NA,NA,NA,NA,NA,NA,0,NA,NA,NA,NA,<p>Congratulations! You are all done! </p>Your survey code is<p><b>3D699F4F</b></p><p>Please make sure you save this somewhere safe. You will need to enter this code into Prolific to be paid.</p>
TRUE,FALSE,[],[],[],preload,0,36881,0.0-0.0,SS1673375379669,63bdacb46bfec1782ed31c9f,63bdae8ca62b6502e91fdff0,1920,961,NA,NA,NA,NA,NA,NA,NA,NA,NA,NA,NA,NA,NA,NA,NA,NA,NA
TRUE,NA,NA,NA,NA,fullscreen,1,48638,0.0-1.0,SS1673375379669,63bdacb46bfec1782ed31c9f,63bdae8ca62b6502e91fdff0,1920,961,NA,NA,NA,NA,NA,NA,NA,NA,NA,NA,NA,NA,NA,NA,NA,NA,NA
NA,NA,NA,NA,NA,instructions,2,53428,0.0-2.0,SS1673375379669,63bdacb46bfec1782ed31c9f,63bdae8ca62b6502e91fdff0,1920,961,"[{""page_index"":0,""viewing_time"":4790}]",4790,NA,NA,NA,NA,NA,NA,NA,NA,NA,NA,NA,NA,NA,NA,NA
NA,NA,NA,NA,NA,instructions,3,89027,0.0-3.0,SS1673375379669,63bdacb46bfec1782ed31c9f,63bdae8ca62b6502e91fdff0,1920,961,"[{""page_index"":0,""viewing_time"":15131},{""page_index"":1,""viewing_time"":18466}]",33597,instructions,NA,NA,NA,NA,NA,NA,NA,NA,NA,NA,NA,NA,NA,NA
NA,NA,NA,NA,NA,curtain-display,4,100011,0.0-4.0,SS1673375379669,63bdacb46bfec1782ed31c9f,63bdae8ca62b6502e91fdff0,1920,961,NA,9163,instructions,10163,NA,NA,NA,NA,NA,NA,NA,NA,NA,NA,NA,NA,NA
NA,NA,NA,NA,NA,curtain-display,5,105011,0.0-5.0,SS1673375379669,63bdacb46bfec1782ed31c9f,63bdae8ca62b6502e91fdff0,1920,961,NA,3180,instructions,4180,NA,NA,NA,NA,NA,NA,NA,NA,NA,NA,NA,NA,NA
NA,NA,NA,NA,NA,curtain-display,6,111795,0.0-6.0,SS1673375379669,63bdacb46bfec1782ed31c9f,63bdae8ca62b6502e91fdff0,1920,961,NA,4976,instructions,5976,NA,NA,NA,NA,NA,NA,NA,NA,NA,NA,NA,NA,NA
NA,NA,NA,NA,NA,instructions,7,138779,0.0-7.0,SS1673375379669,63bdacb46bfec1782ed31c9f,63bdae8ca62b6502e91fdff0,1920,961,"[{""page_index"":0,""viewing_time"":9562},{""page_index"":1,""viewing_time"":7984},{""page_index"":2,""viewing_time"":6037},{""page_index"":3,""viewing_time"":1264},{""page_index"":4,""viewing_time"":2136}]",26984,instructions,NA,NA,NA,NA,NA,NA,NA,NA,NA,NA,NA,NA,NA,NA
NA,NA,NA,NA,NA,curtain-display,8,145494,0.0-8.0,SS1673375379669,63bdacb46bfec1782ed31c9f,63bdae8ca62b6502e91fdff0,1920,961,NA,4896,NA,5896,deviant_block,media/padded_stims/animate_053_left.png,media/padded_stims/animate_010_left.png,animate_single_left,animate_single_left,identity,2,NA,NA,NA,NA,NA,NA
NA,NA,NA,NA,NA,curtain-display,9,155486,0.0-9.0,SS1673375379669,63bdacb46bfec1782ed31c9f,63bdae8ca62b6502e91fdff0,1920,961,NA,8169,NA,9169,deviant_block,media/padded_stims/animate_053_left.png,media/padded_stims/animate_010_left.png,animate_single_left,animate_single_left,identity,2,NA,NA,NA,NA,NA,NA
NA,NA,NA,NA,NA,survey-likert,10,162793,0.0-10.0,SS1673375379669,63bdacb46bfec1782ed31c9f,63bdae8ca62b6502e91fdff0,1920,961,NA,7306,NA,NA,NA,NA,NA,NA,NA,NA,NA,"{""Q0"":0}",[0],background,NA,NA,NA
NA,NA,NA,NA,NA,curtain-display,11,173269,0.0-11.0,SS1673375379669,63bdacb46bfec1782ed31c9f,63bdae8ca62b6502e91fdff0,1920,961,NA,8655,NA,9655,deviant_block,media/padded_stims/animate_062_right.png,media/padded_stims/animate_015_right.png,animate_single_right,animate_single_right,identity,2,NA,NA,NA,NA,NA,NA
NA,NA,NA,NA,NA,curtain-display,12,177853,0.0-12.0,SS1673375379669,63bdacb46bfec1782ed31c9f,63bdae8ca62b6502e91fdff0,1920,961,NA,2760,NA,3760,deviant_block,media/padded_stims/animate_062_right.png,media/padded_stims/animate_015_right.png,animate_single_right,animate_single_right,identity,2,NA,NA,NA,NA,NA,NA
NA,NA,NA,NA,NA,survey-likert,13,180653,0.0-13.0,SS1673375379669,63bdacb46bfec1782ed31c9f,63bdae8ca62b6502e91fdff0,1920,961,NA,2798,NA,NA,NA,NA,NA,NA,NA,NA,NA,"{""Q0"":3}",[0],background,NA,NA,NA
NA,NA,NA,NA,NA,curtain-display,14,192949,0.0-14.0,SS1673375379669,63bdacb46bfec1782ed31c9f,63bdae8ca62b6502e91fdff0,1920,961,NA,10478,NA,11478,deviant_block,media/padded_stims/animate_042_left.png,media/padded_stims/animate_069_left.png,animate_pair_left,animate_pair_left,identity,4,NA,NA,NA,NA,NA,NA
NA,NA,NA,NA,NA,curtain-display,15,204967,0.0-15.0,SS1673375379669,63bdacb46bfec1782ed31c9f,63bdae8ca62b6502e91fdff0,1920,961,NA,10203,NA,11203,deviant_block,media/padded_stims/animate_042_left.png,media/padded_stims/animate_069_left.png,animate_pair_left,animate_pair_left,identity,4,NA,NA,NA,NA,NA,NA
NA,NA,NA,NA,NA,curtain-display,16,212574,0.0-16.0,SS1673375379669,63bdacb46bfec1782ed31c9f,63bdae8ca62b6502e91fdff0,1920,961,NA,5789,NA,6789,deviant_block,media/padded_stims/animate_042_left.png,media/padded_stims/animate_069_left.png,animate_pair_left,animate_pair_left,identity,4,NA,NA,NA,NA,NA,NA
NA,NA,NA,NA,NA,curtain-display,17,221886,0.0-17.0,SS1673375379669,63bdacb46bfec1782ed31c9f,63bdae8ca62b6502e91fdff0,1920,961,NA,7494,NA,8494,deviant_block,media/padded_stims/animate_042_left.png,media/padded_stims/animate_069_left.png,animate_pair_left,animate_pair_left,identity,4,NA,NA,NA,NA,NA,NA
NA,NA,NA,NA,NA,survey-likert,18,226115,0.0-18.0,SS1673375379669,63bdacb46bfec1782ed31c9f,63bdae8ca62b6502e91fdff0,1920,961,NA,4227,NA,NA,NA,NA,NA,NA,NA,NA,NA,"{""Q0"":2}",[0],background,NA,NA,NA
NA,NA,NA,NA,NA,curtain-display,19,233749,0.0-19.0,SS1673375379669,63bdacb46bfec1782ed31c9f,63bdae8ca62b6502e91fdff0,1920,961,NA,5820,NA,6820,deviant_block,media/padded_stims/animate_056_right.png,media/padded_stims/animate_002_right.png,animate_pair_right,animate_single_right,number,6,NA,NA,NA,NA,NA,NA
NA,NA,NA,NA,NA,curtain-display,20,239860,0.0-20.0,SS1673375379669,63bdacb46bfec1782ed31c9f,63bdae8ca62b6502e91fdff0,1920,961,NA,4298,NA,5298,deviant_block,media/padded_stims/animate_056_right.png,media/padded_stims/animate_002_right.png,animate_pair_right,animate_single_right,number,6,NA,NA,NA,NA,NA,NA
NA,NA,NA,NA,NA,curtain-display,21,248469,0.0-21.0,SS1673375379669,63bdacb46bfec1782ed31c9f,63bdae8ca62b6502e91fdff0,1920,961,NA,6789,NA,7789,deviant_block,media/padded_stims/animate_056_right.png,media/padded_stims/animate_002_right.png,animate_pair_right,animate_single_right,number,6,NA,NA,NA,NA,NA,NA
NA,NA,NA,NA,NA,curtain-display,22,252982,0.0-22.0,SS1673375379669,63bdacb46bfec1782ed31c9f,63bdae8ca62b6502e91fdff0,1920,961,NA,2692,NA,3692,deviant_block,media/padded_stims/animate_056_right.png,media/padded_stims/animate_002_right.png,animate_pair_right,animate_single_right,number,6,NA,NA,NA,NA,NA,NA
NA,NA,NA,NA,NA,curtain-display,23,258010,0.0-23.0,SS1673375379669,63bdacb46bfec1782ed31c9f,63bdae8ca62b6502e91fdff0,1920,961,NA,3220,NA,4220,deviant_block,media/padded_stims/animate_056_right.png,media/padded_stims/animate_002_right.png,animate_pair_right,animate_single_right,number,6,NA,NA,NA,NA,NA,NA
NA,NA,NA,NA,NA,curtain-display,24,263126,0.0-24.0,SS1673375379669,63bdacb46bfec1782ed31c9f,63bdae8ca62b6502e91fdff0,1920,961,NA,3300,NA,4300,deviant_block,media/padded_stims/animate_056_right.png,media/padded_stims/animate_002_right.png,animate_pair_right,animate_single_right,number,6,NA,NA,NA,NA,NA,NA
NA,NA,NA,NA,NA,survey-likert,25,269416,0.0-25.0,SS1673375379669,63bdacb46bfec1782ed31c9f,63bdae8ca62b6502e91fdff0,1920,961,NA,6289,NA,NA,NA,NA,NA,NA,NA,NA,NA,"{""Q0"":1}",[0],deviant,NA,NA,NA
NA,NA,NA,NA,NA,curtain-display,26,276086,0.0-26.0,SS1673375379669,63bdacb46bfec1782ed31c9f,63bdae8ca62b6502e91fdff0,1920,961,NA,4852,NA,5852,deviant_block,media/padded_stims/inanimate_077_left.png,media/padded_stims/inanimate_066_right.png,inanimate_single_left,inanimate_single_right,pose,4,NA,NA,NA,NA,NA,NA
NA,NA,NA,NA,NA,curtain-display,27,282070,0.0-27.0,SS1673375379669,63bdacb46bfec1782ed31c9f,63bdae8ca62b6502e91fdff0,1920,961,NA,4163,NA,5163,deviant_block,media/padded_stims/inanimate_077_left.png,media/padded_stims/inanimate_066_right.png,inanimate_single_left,inanimate_single_right,pose,4,NA,NA,NA,NA,NA,NA
NA,NA,NA,NA,NA,curtain-display,28,286426,0.0-28.0,SS1673375379669,63bdacb46bfec1782ed31c9f,63bdae8ca62b6502e91fdff0,1920,961,NA,2539,NA,3539,deviant_block,media/padded_stims/inanimate_077_left.png,media/padded_stims/inanimate_066_right.png,inanimate_single_left,inanimate_single_right,pose,4,NA,NA,NA,NA,NA,NA
NA,NA,NA,NA,NA,curtain-display,29,291286,0.0-29.0,SS1673375379669,63bdacb46bfec1782ed31c9f,63bdae8ca62b6502e91fdff0,1920,961,NA,3052,NA,4052,deviant_block,media/padded_stims/inanimate_077_left.png,media/padded_stims/inanimate_066_right.png,inanimate_single_left,inanimate_single_right,pose,4,NA,NA,NA,NA,NA,NA
NA,NA,NA,NA,NA,survey-likert,30,298542,0.0-30.0,SS1673375379669,63bdacb46bfec1782ed31c9f,63bdae8ca62b6502e91fdff0,1920,961,NA,7255,NA,NA,NA,NA,NA,NA,NA,NA,NA,"{""Q0"":2}",[0],background,NA,NA,NA
NA,NA,NA,NA,NA,curtain-display,31,307901,0.0-31.0,SS1673375379669,63bdacb46bfec1782ed31c9f,63bdae8ca62b6502e91fdff0,1920,961,NA,7540,NA,8540,deviant_block,media/padded_stims/inanimate_024_right.png,media/padded_stims/inanimate_030_right.png,inanimate_single_right,inanimate_single_right,identity,2,NA,NA,NA,NA,NA,NA
NA,NA,NA,NA,NA,curtain-display,32,312838,0.0-32.0,SS1673375379669,63bdacb46bfec1782ed31c9f,63bdae8ca62b6502e91fdff0,1920,961,NA,3115,NA,4115,deviant_block,media/padded_stims/inanimate_024_right.png,media/padded_stims/inanimate_030_right.png,inanimate_single_right,inanimate_single_right,identity,2,NA,NA,NA,NA,NA,NA
NA,NA,NA,NA,NA,survey-likert,33,318085,0.0-33.0,SS1673375379669,63bdacb46bfec1782ed31c9f,63bdae8ca62b6502e91fdff0,1920,961,NA,5245,NA,NA,NA,NA,NA,NA,NA,NA,NA,"{""Q0"":0}",[0],background,NA,NA,NA
NA,NA,NA,NA,NA,curtain-display,34,325613,0.0-34.0,SS1673375379669,63bdacb46bfec1782ed31c9f,63bdae8ca62b6502e91fdff0,1920,961,NA,5708,NA,6708,deviant_block,media/padded_stims/inanimate_014_left.png,media/padded_stims/animate_022_left.png,inanimate_pair_left,animate_pair_left,animacy,4,NA,NA,NA,NA,NA,NA
NA,NA,NA,NA,NA,curtain-display,35,329413,0.0-35.0,SS1673375379669,63bdacb46bfec1782ed31c9f,63bdae8ca62b6502e91fdff0,1920,961,NA,1980,NA,2980,deviant_block,media/padded_stims/inanimate_014_left.png,media/padded_stims/animate_022_left.png,inanimate_pair_left,animate_pair_left,animacy,4,NA,NA,NA,NA,NA,NA
NA,NA,NA,NA,NA,curtain-display,36,335292,0.0-36.0,SS1673375379669,63bdacb46bfec1782ed31c9f,63bdae8ca62b6502e91fdff0,1920,961,NA,4065,NA,5065,deviant_block,media/padded_stims/inanimate_014_left.png,media/padded_stims/animate_022_left.png,inanimate_pair_left,animate_pair_left,animacy,4,NA,NA,NA,NA,NA,NA
NA,NA,NA,NA,NA,curtain-display,37,339565,0.0-37.0,SS1673375379669,63bdacb46bfec1782ed31c9f,63bdae8ca62b6502e91fdff0,1920,961,NA,2450,NA,3450,deviant_block,media/padded_stims/inanimate_014_left.png,media/padded_stims/animate_022_left.png,inanimate_pair_left,animate_pair_left,animacy,4,NA,NA,NA,NA,NA,NA
NA,NA,NA,NA,NA,survey-likert,38,345093,0.0-38.0,SS1673375379669,63bdacb46bfec1782ed31c9f,63bdae8ca62b6502e91fdff0,1920,961,NA,5527,NA,NA,NA,NA,NA,NA,NA,NA,NA,"{""Q0"":4}",[0],deviant,NA,NA,NA
NA,NA,NA,NA,NA,curtain-display,39,348925,0.0-39.0,SS1673375379669,63bdacb46bfec1782ed31c9f,63bdae8ca62b6502e91fdff0,1920,961,NA,2009,NA,3009,deviant_block,media/padded_stims/inanimate_028_right.png,media/padded_stims/inanimate_006_left.png,inanimate_pair_right,inanimate_pair_left,pose,2,NA,NA,NA,NA,NA,NA
NA,NA,NA,NA,NA,curtain-display,40,351108,0.0-40.0,SS1673375379669,63bdacb46bfec1782ed31c9f,63bdae8ca62b6502e91fdff0,1920,961,NA,368,NA,1368,deviant_block,media/padded_stims/inanimate_028_right.png,media/padded_stims/inanimate_006_left.png,inanimate_pair_right,inanimate_pair_left,pose,2,NA,NA,NA,NA,NA,NA
NA,NA,NA,NA,NA,survey-likert,41,354137,0.0-41.0,SS1673375379669,63bdacb46bfec1782ed31c9f,63bdae8ca62b6502e91fdff0,1920,961,NA,3027,NA,NA,NA,NA,NA,NA,NA,NA,NA,"{""Q0"":1}",[0],background,NA,NA,NA
NA,NA,NA,NA,NA,curtain-display,42,358908,0.0-42.0,SS1673375379669,63bdacb46bfec1782ed31c9f,63bdae8ca62b6502e91fdff0,1920,961,NA,2955,NA,3955,background_block,media/padded_stims/animate_001_left.png,null,animate_single_left,null,null,2,NA,NA,NA,NA,NA,NA
NA,NA,NA,NA,NA,curtain-display,43,363557,0.0-43.0,SS1673375379669,63bdacb46bfec1782ed31c9f,63bdae8ca62b6502e91fdff0,1920,961,NA,2833,NA,3833,background_block,media/padded_stims/animate_001_left.png,null,animate_single_left,null,null,2,NA,NA,NA,NA,NA,NA
NA,NA,NA,NA,NA,survey-likert,44,369539,0.0-44.0,SS1673375379669,63bdacb46bfec1782ed31c9f,63bdae8ca62b6502e91fdff0,1920,961,NA,5980,NA,NA,NA,NA,NA,NA,NA,NA,NA,"{""Q0"":3}",[0],background,NA,NA,NA
NA,NA,NA,NA,NA,curtain-display,45,381008,0.0-45.0,SS1673375379669,63bdacb46bfec1782ed31c9f,63bdae8ca62b6502e91fdff0,1920,961,NA,9652,NA,10652,background_block,media/padded_stims/animate_014_right.png,null,animate_single_right,null,null,2,NA,NA,NA,NA,NA,NA
NA,NA,NA,NA,NA,curtain-display,46,383806,0.0-46.0,SS1673375379669,63bdacb46bfec1782ed31c9f,63bdae8ca62b6502e91fdff0,1920,961,NA,975,NA,1975,background_block,media/padded_stims/animate_014_right.png,null,animate_single_right,null,null,2,NA,NA,NA,NA,NA,NA
NA,NA,NA,NA,NA,survey-likert,47,386137,0.0-47.0,SS1673375379669,63bdacb46bfec1782ed31c9f,63bdae8ca62b6502e91fdff0,1920,961,NA,2329,NA,NA,NA,NA,NA,NA,NA,NA,NA,"{""Q0"":0}",[0],background,NA,NA,NA
NA,NA,NA,NA,NA,curtain-display,48,391141,0.0-48.0,SS1673375379669,63bdacb46bfec1782ed31c9f,63bdae8ca62b6502e91fdff0,1920,961,NA,3192,NA,4192,background_block,media/padded_stims/animate_065_left.png,null,animate_pair_left,null,null,2,NA,NA,NA,NA,NA,NA
NA,NA,NA,NA,NA,curtain-display,49,395397,0.0-49.0,SS1673375379669,63bdacb46bfec1782ed31c9f,63bdae8ca62b6502e91fdff0,1920,961,NA,2447,NA,3447,background_block,media/padded_stims/animate_065_left.png,null,animate_pair_left,null,null,2,NA,NA,NA,NA,NA,NA
NA,NA,NA,NA,NA,survey-likert,50,399864,0.0-50.0,SS1673375379669,63bdacb46bfec1782ed31c9f,63bdae8ca62b6502e91fdff0,1920,961,NA,4466,NA,NA,NA,NA,NA,NA,NA,NA,NA,"{""Q0"":1}",[0],background,NA,NA,NA
NA,NA,NA,NA,NA,curtain-display,51,404045,0.0-51.0,SS1673375379669,63bdacb46bfec1782ed31c9f,63bdae8ca62b6502e91fdff0,1920,961,NA,2369,NA,3369,background_block,media/padded_stims/animate_043_right.png,null,animate_pair_right,null,null,2,NA,NA,NA,NA,NA,NA
NA,NA,NA,NA,NA,curtain-display,52,407061,0.0-52.0,SS1673375379669,63bdacb46bfec1782ed31c9f,63bdae8ca62b6502e91fdff0,1920,961,NA,1207,NA,2207,background_block,media/padded_stims/animate_043_right.png,null,animate_pair_right,null,null,2,NA,NA,NA,NA,NA,NA
NA,NA,NA,NA,NA,survey-likert,53,411056,0.0-53.0,SS1673375379669,63bdacb46bfec1782ed31c9f,63bdae8ca62b6502e91fdff0,1920,961,NA,3994,NA,NA,NA,NA,NA,NA,NA,NA,NA,"{""Q0"":3}",[0],background,NA,NA,NA
NA,NA,NA,NA,NA,curtain-display,54,418469,0.0-54.0,SS1673375379669,63bdacb46bfec1782ed31c9f,63bdae8ca62b6502e91fdff0,1920,961,NA,5599,NA,6599,background_block,media/padded_stims/inanimate_050_left.png,null,inanimate_single_left,null,null,2,NA,NA,NA,NA,NA,NA
NA,NA,NA,NA,NA,curtain-display,55,421556,0.0-55.0,SS1673375379669,63bdacb46bfec1782ed31c9f,63bdae8ca62b6502e91fdff0,1920,961,NA,1271,NA,2271,background_block,media/padded_stims/inanimate_050_left.png,null,inanimate_single_left,null,null,2,NA,NA,NA,NA,NA,NA
NA,NA,NA,NA,NA,survey-likert,56,426119,0.0-56.0,SS1673375379669,63bdacb46bfec1782ed31c9f,63bdae8ca62b6502e91fdff0,1920,961,NA,4560,NA,NA,NA,NA,NA,NA,NA,NA,NA,"{""Q0"":4}",[0],background,NA,NA,NA
NA,NA,NA,NA,NA,curtain-display,57,432029,0.0-57.0,SS1673375379669,63bdacb46bfec1782ed31c9f,63bdae8ca62b6502e91fdff0,1920,961,NA,4094,NA,5094,background_block,media/padded_stims/inanimate_006_right.png,null,inanimate_single_right,null,null,2,NA,NA,NA,NA,NA,NA
NA,NA,NA,NA,NA,curtain-display,58,436949,0.0-58.0,SS1673375379669,63bdacb46bfec1782ed31c9f,63bdae8ca62b6502e91fdff0,1920,961,NA,3101,NA,4101,background_block,media/padded_stims/inanimate_006_right.png,null,inanimate_single_right,null,null,2,NA,NA,NA,NA,NA,NA
NA,NA,NA,NA,NA,survey-likert,59,452530,0.0-59.0,SS1673375379669,63bdacb46bfec1782ed31c9f,63bdae8ca62b6502e91fdff0,1920,961,NA,15579,NA,NA,NA,NA,NA,NA,NA,NA,NA,"{""Q0"":2}",[0],background,NA,NA,NA
NA,NA,NA,NA,NA,curtain-display,60,456397,0.0-60.0,SS1673375379669,63bdacb46bfec1782ed31c9f,63bdae8ca62b6502e91fdff0,1920,961,NA,2054,NA,3054,background_block,media/padded_stims/inanimate_003_left.png,null,inanimate_pair_left,null,null,2,NA,NA,NA,NA,NA,NA
NA,NA,NA,NA,NA,curtain-display,61,465349,0.0-61.0,SS1673375379669,63bdacb46bfec1782ed31c9f,63bdae8ca62b6502e91fdff0,1920,961,NA,7141,NA,8141,background_block,media/padded_stims/inanimate_003_left.png,null,inanimate_pair_left,null,null,2,NA,NA,NA,NA,NA,NA
NA,NA,NA,NA,NA,survey-likert,62,469455,0.0-62.0,SS1673375379669,63bdacb46bfec1782ed31c9f,63bdae8ca62b6502e91fdff0,1920,961,NA,4104,NA,NA,NA,NA,NA,NA,NA,NA,NA,"{""Q0"":1}",[0],background,NA,NA,NA
NA,NA,NA,NA,NA,curtain-display,63,471893,0.0-63.0,SS1673375379669,63bdacb46bfec1782ed31c9f,63bdae8ca62b6502e91fdff0,1920,961,NA,622,NA,1622,background_block,media/padded_stims/inanimate_050_right.png,null,inanimate_pair_right,null,null,2,NA,NA,NA,NA,NA,NA
NA,NA,NA,NA,NA,curtain-display,64,474413,0.0-64.0,SS1673375379669,63bdacb46bfec1782ed31c9f,63bdae8ca62b6502e91fdff0,1920,961,NA,711,NA,1711,background_block,media/padded_stims/inanimate_050_right.png,null,inanimate_pair_right,null,null,2,NA,NA,NA,NA,NA,NA
NA,NA,NA,NA,NA,survey-likert,65,478748,0.0-65.0,SS1673375379669,63bdacb46bfec1782ed31c9f,63bdae8ca62b6502e91fdff0,1920,961,NA,4333,NA,NA,NA,NA,NA,NA,NA,NA,NA,"{""Q0"":3}",[0],background,NA,NA,NA
NA,NA,NA,NA,NA,instructions,66,480977,0.0-66.0,SS1673375379669,63bdacb46bfec1782ed31c9f,63bdae8ca62b6502e91fdff0,1920,961,"[{""page_index"":0,""viewing_time"":2227}]",2228,NA,NA,NA,NA,NA,NA,NA,NA,NA,NA,NA,NA,NA,NA,NA
NA,NA,NA,NA,NA,survey-likert,67,496150,0.0-67.0,SS1673375379669,63bdacb46bfec1782ed31c9f,63bdae8ca62b6502e91fdff0,1920,961,NA,15170,NA,NA,NA,NA,NA,NA,NA,identity,2,"{""Q0"":5}",[0],NA,NA,NA,NA
NA,NA,NA,NA,NA,survey-likert,68,501743,0.0-68.0,SS1673375379669,63bdacb46bfec1782ed31c9f,63bdae8ca62b6502e91fdff0,1920,961,NA,5590,NA,NA,NA,NA,NA,NA,NA,identity,2,"{""Q0"":2}",[0],NA,NA,NA,NA
NA,NA,NA,NA,NA,survey-likert,69,508749,0.0-69.0,SS1673375379669,63bdacb46bfec1782ed31c9f,63bdae8ca62b6502e91fdff0,1920,961,NA,7002,NA,NA,NA,NA,NA,NA,NA,identity,4,"{""Q0"":1}",[0],NA,NA,NA,NA
NA,NA,NA,NA,NA,survey-likert,70,514110,0.0-70.0,SS1673375379669,63bdacb46bfec1782ed31c9f,63bdae8ca62b6502e91fdff0,1920,961,NA,5358,NA,NA,NA,NA,NA,NA,NA,number,6,"{""Q0"":4}",[0],NA,NA,NA,NA
NA,NA,NA,NA,NA,survey-likert,71,521325,0.0-71.0,SS1673375379669,63bdacb46bfec1782ed31c9f,63bdae8ca62b6502e91fdff0,1920,961,NA,7212,NA,NA,NA,NA,NA,NA,NA,pose,4,"{""Q0"":6}",[0],NA,NA,NA,NA
NA,NA,NA,NA,NA,survey-likert,72,527223,0.0-72.0,SS1673375379669,63bdacb46bfec1782ed31c9f,63bdae8ca62b6502e91fdff0,1920,961,NA,5895,NA,NA,NA,NA,NA,NA,NA,identity,2,"{""Q0"":3}",[0],NA,NA,NA,NA
NA,NA,NA,NA,NA,survey-likert,73,532224,0.0-73.0,SS1673375379669,63bdacb46bfec1782ed31c9f,63bdae8ca62b6502e91fdff0,1920,961,NA,4999,NA,NA,NA,NA,NA,NA,NA,animacy,4,"{""Q0"":0}",[0],NA,NA,NA,NA
NA,NA,NA,NA,NA,survey-likert,74,537474,0.0-74.0,SS1673375379669,63bdacb46bfec1782ed31c9f,63bdae8ca62b6502e91fdff0,1920,961,NA,5246,NA,NA,NA,NA,NA,NA,NA,pose,2,"{""Q0"":2}",[0],NA,NA,NA,NA
NA,NA,NA,NA,NA,survey-likert,75,543368,0.0-75.0,SS1673375379669,63bdacb46bfec1782ed31c9f,63bdae8ca62b6502e91fdff0,1920,961,NA,5892,NA,NA,NA,NA,NA,NA,NA,NA,NA,"{""Q0"":1}",[0],NA,background,1,NA
NA,NA,NA,NA,NA,survey-likert,76,548129,0.0-76.0,SS1673375379669,63bdacb46bfec1782ed31c9f,63bdae8ca62b6502e91fdff0,1920,961,NA,4759,NA,NA,NA,NA,NA,NA,NA,NA,NA,"{""Q0"":0}",[0],NA,deviant,1,NA
NA,NA,NA,NA,NA,survey-likert,77,557551,0.0-77.0,SS1673375379669,63bdacb46bfec1782ed31c9f,63bdae8ca62b6502e91fdff0,1920,961,NA,9419,NA,NA,NA,NA,NA,NA,NA,NA,NA,"{""Q0"":2}",[0],NA,background,1,NA
NA,NA,NA,NA,NA,survey-likert,78,560660,0.0-78.0,SS1673375379669,63bdacb46bfec1782ed31c9f,63bdae8ca62b6502e91fdff0,1920,961,NA,3105,NA,NA,NA,NA,NA,NA,NA,NA,NA,"{""Q0"":1}",[0],NA,deviant,1,NA
NA,NA,NA,NA,NA,survey-likert,79,563269,0.0-79.0,SS1673375379669,63bdacb46bfec1782ed31c9f,63bdae8ca62b6502e91fdff0,1920,961,NA,2607,NA,NA,NA,NA,NA,NA,NA,NA,NA,"{""Q0"":1}",[0],NA,background,3,NA
NA,NA,NA,NA,NA,survey-likert,80,567226,0.0-80.0,SS1673375379669,63bdacb46bfec1782ed31c9f,63bdae8ca62b6502e91fdff0,1920,961,NA,3953,NA,NA,NA,NA,NA,NA,NA,NA,NA,"{""Q0"":2}",[0],NA,deviant,1,NA
NA,NA,NA,NA,NA,survey-likert,81,571647,0.0-81.0,SS1673375379669,63bdacb46bfec1782ed31c9f,63bdae8ca62b6502e91fdff0,1920,961,NA,4417,NA,NA,NA,NA,NA,NA,NA,NA,NA,"{""Q0"":1}",[0],NA,background,5,NA
NA,NA,NA,NA,NA,survey-likert,82,578339,0.0-82.0,SS1673375379669,63bdacb46bfec1782ed31c9f,63bdae8ca62b6502e91fdff0,1920,961,NA,6689,NA,NA,NA,NA,NA,NA,NA,NA,NA,"{""Q0"":0}",[0],NA,deviant,1,NA
NA,NA,NA,NA,NA,survey-likert,83,582147,0.0-83.0,SS1673375379669,63bdacb46bfec1782ed31c9f,63bdae8ca62b6502e91fdff0,1920,961,NA,3804,NA,NA,NA,NA,NA,NA,NA,NA,NA,"{""Q0"":1}",[0],NA,background,3,NA
NA,NA,NA,NA,NA,survey-likert,84,589529,0.0-84.0,SS1673375379669,63bdacb46bfec1782ed31c9f,63bdae8ca62b6502e91fdff0,1920,961,NA,7379,NA,NA,NA,NA,NA,NA,NA,NA,NA,"{""Q0"":1}",[0],NA,deviant,1,NA
NA,NA,NA,NA,NA,survey-likert,85,594236,0.0-85.0,SS1673375379669,63bdacb46bfec1782ed31c9f,63bdae8ca62b6502e91fdff0,1920,961,NA,4704,NA,NA,NA,NA,NA,NA,NA,NA,NA,"{""Q0"":3}",[0],NA,background,1,NA
NA,NA,NA,NA,NA,survey-likert,86,597535,0.0-86.0,SS1673375379669,63bdacb46bfec1782ed31c9f,63bdae8ca62b6502e91fdff0,1920,961,NA,3296,NA,NA,NA,NA,NA,NA,NA,NA,NA,"{""Q0"":1}",[0],NA,deviant,1,NA
NA,NA,NA,NA,NA,survey-likert,87,601623,0.0-87.0,SS1673375379669,63bdacb46bfec1782ed31c9f,63bdae8ca62b6502e91fdff0,1920,961,NA,4085,NA,NA,NA,NA,NA,NA,NA,NA,NA,"{""Q0"":1}",[0],NA,background,3,NA
NA,NA,NA,NA,NA,survey-likert,88,605628,0.0-88.0,SS1673375379669,63bdacb46bfec1782ed31c9f,63bdae8ca62b6502e91fdff0,1920,961,NA,4003,NA,NA,NA,NA,NA,NA,NA,NA,NA,"{""Q0"":2}",[0],NA,deviant,1,NA
NA,NA,NA,NA,NA,survey-likert,89,614859,0.0-89.0,SS1673375379669,63bdacb46bfec1782ed31c9f,63bdae8ca62b6502e91fdff0,1920,961,NA,9228,NA,NA,NA,NA,NA,NA,NA,NA,NA,"{""Q0"":2}",[0],NA,background,1,NA
NA,NA,NA,NA,NA,survey-likert,90,616560,0.0-90.0,SS1673375379669,63bdacb46bfec1782ed31c9f,63bdae8ca62b6502e91fdff0,1920,961,NA,1697,NA,NA,NA,NA,NA,NA,NA,NA,NA,"{""Q0"":1}",[0],NA,deviant,1,NA
NA,NA,NA,NA,NA,survey-likert,91,621707,0.0-91.0,SS1673375379669,63bdacb46bfec1782ed31c9f,63bdae8ca62b6502e91fdff0,1920,961,NA,5145,NA,NA,NA,NA,NA,NA,NA,NA,NA,"{""Q0"":1}",[0],NA,background,2,NA
NA,NA,NA,NA,NA,survey-likert,92,627043,0.0-92.0,SS1673375379669,63bdacb46bfec1782ed31c9f,63bdae8ca62b6502e91fdff0,1920,961,NA,5332,NA,NA,NA,NA,NA,NA,NA,NA,NA,"{""Q0"":2}",[0],NA,background,2,NA
NA,NA,NA,NA,NA,survey-likert,93,629539,0.0-93.0,SS1673375379669,63bdacb46bfec1782ed31c9f,63bdae8ca62b6502e91fdff0,1920,961,NA,2491,NA,NA,NA,NA,NA,NA,NA,NA,NA,"{""Q0"":0}",[0],NA,background,2,NA
NA,NA,NA,NA,NA,survey-likert,94,632086,0.0-94.0,SS1673375379669,63bdacb46bfec1782ed31c9f,63bdae8ca62b6502e91fdff0,1920,961,NA,2544,NA,NA,NA,NA,NA,NA,NA,NA,NA,"{""Q0"":0}",[0],NA,background,2,NA
NA,NA,NA,NA,NA,survey-likert,95,636913,0.0-95.0,SS1673375379669,63bdacb46bfec1782ed31c9f,63bdae8ca62b6502e91fdff0,1920,961,NA,4824,NA,NA,NA,NA,NA,NA,NA,NA,NA,"{""Q0"":2}",[0],NA,background,2,NA
NA,NA,NA,NA,NA,survey-likert,96,639653,0.0-96.0,SS1673375379669,63bdacb46bfec1782ed31c9f,63bdae8ca62b6502e91fdff0,1920,961,NA,2737,NA,NA,NA,NA,NA,NA,NA,NA,NA,"{""Q0"":1}",[0],NA,background,2,NA
NA,NA,NA,NA,NA,survey-likert,97,641489,0.0-97.0,SS1673375379669,63bdacb46bfec1782ed31c9f,63bdae8ca62b6502e91fdff0,1920,961,NA,1833,NA,NA,NA,NA,NA,NA,NA,NA,NA,"{""Q0"":1}",[0],NA,background,2,NA
NA,NA,NA,NA,NA,survey-likert,98,643424,0.0-98.0,SS1673375379669,63bdacb46bfec1782ed31c9f,63bdae8ca62b6502e91fdff0,1920,961,NA,1932,NA,NA,NA,NA,NA,NA,NA,NA,NA,"{""Q0"":2}",[0],NA,background,2,NA
NA,NA,NA,NA,NA,html-button-response,99,645253,0.0-99.0,SS1673375379669,63bdacb46bfec1782ed31c9f,63bdae8ca62b6502e91fdff0,1920,961,NA,1824,NA,NA,NA,NA,NA,NA,NA,NA,NA,0,NA,NA,NA,NA,"<p>Congratulations! You have finished all the tasks tasks!</p><p>Now, we would like to ask a few questions about you.</p>"
NA,NA,NA,NA,NA,survey-text,100,648491,0.0-100.0,SS1673375379669,63bdacb46bfec1782ed31c9f,63bdae8ca62b6502e91fdff0,1920,961,NA,3236,NA,NA,NA,NA,NA,NA,NA,NA,NA,"{""Q0"":""20""}",NA,NA,NA,NA,NA
NA,NA,NA,NA,NA,survey-multi-select,101,651788,0.0-101.0,SS1673375379669,63bdacb46bfec1782ed31c9f,63bdae8ca62b6502e91fdff0,1920,961,NA,3293,NA,NA,NA,NA,NA,NA,NA,NA,NA,"{""ethnicity"":[""White""]}",[0],NA,NA,NA,NA
NA,NA,NA,NA,NA,survey-text,102,658100,0.0-102.0,SS1673375379669,63bdacb46bfec1782ed31c9f,63bdae8ca62b6502e91fdff0,1920,961,NA,6308,NA,NA,NA,NA,NA,NA,NA,NA,NA,"{""Q0"":""Male""}",NA,NA,NA,NA,NA
NA,NA,NA,NA,NA,survey-multi-choice,103,671697,0.0-103.0,SS1673375379669,63bdacb46bfec1782ed31c9f,63bdae8ca62b6502e91fdff0,1920,961,NA,13594,NA,NA,NA,NA,NA,NA,NA,NA,NA,"{""education"":""High school diploma""}",[0],NA,NA,NA,NA
TRUE,NA,NA,NA,NA,fullscreen,104,671700,0.0-104.0,SS1673375379669,63bdacb46bfec1782ed31c9f,63bdae8ca62b6502e91fdff0,1920,961,NA,NA,NA,NA,NA,NA,NA,NA,NA,NA,NA,NA,NA,NA,NA,NA,NA
NA,NA,NA,NA,NA,html-button-response,105,675411,0.0-105.0,SS1673375379669,63bdacb46bfec1782ed31c9f,63bdae8ca62b6502e91fdff0,1920,961,NA,3710,NA,NA,NA,NA,NA,NA,NA,NA,NA,0,NA,NA,NA,NA,<p>Congratulations! You are all done! </p>Your survey code is<p><b>3D699F4F</b></p><p>Please make sure you save this somewhere safe. You will need to enter this code into Prolific to be paid.</p>
TRUE,FALSE,[],[],[],preload,0,80928,0.0-0.0,SS1673375393333,63bdacb46bfec1782ed31c9f,63bdae8f8a9effc8d776bbd5,1280,609,NA,NA,NA,NA,NA,NA,NA,NA,NA,NA,NA,NA,NA,NA,NA,NA,NA
TRUE,NA,NA,NA,NA,fullscreen,1,175549,0.0-1.0,SS1673375393333,63bdacb46bfec1782ed31c9f,63bdae8f8a9effc8d776bbd5,1280,609,NA,NA,NA,NA,NA,NA,NA,NA,NA,NA,NA,NA,NA,NA,NA,NA,NA
NA,NA,NA,NA,NA,instructions,2,178885,0.0-2.0,SS1673375393333,63bdacb46bfec1782ed31c9f,63bdae8f8a9effc8d776bbd5,1280,609,"[{""page_index"":0,""viewing_time"":3332}]",3333,NA,NA,NA,NA,NA,NA,NA,NA,NA,NA,NA,NA,NA,NA,NA
NA,NA,NA,NA,NA,instructions,3,187399,0.0-3.0,SS1673375393333,63bdacb46bfec1782ed31c9f,63bdae8f8a9effc8d776bbd5,1280,609,"[{""page_index"":0,""viewing_time"":1870},{""page_index"":1,""viewing_time"":4630}]",6500,instructions,NA,NA,NA,NA,NA,NA,NA,NA,NA,NA,NA,NA,NA,NA
NA,NA,NA,NA,NA,curtain-display,4,191785,0.0-4.0,SS1673375393333,63bdacb46bfec1782ed31c9f,63bdae8f8a9effc8d776bbd5,1280,609,NA,2500,instructions,3500,NA,NA,NA,NA,NA,NA,NA,NA,NA,NA,NA,NA,NA
NA,NA,NA,NA,NA,curtain-display,5,193913,0.0-5.0,SS1673375393333,63bdacb46bfec1782ed31c9f,63bdae8f8a9effc8d776bbd5,1280,609,NA,311,instructions,1311,NA,NA,NA,NA,NA,NA,NA,NA,NA,NA,NA,NA,NA
NA,NA,NA,NA,NA,curtain-display,6,196413,0.0-6.0,SS1673375393333,63bdacb46bfec1782ed31c9f,63bdae8f8a9effc8d776bbd5,1280,609,NA,657,instructions,1657,NA,NA,NA,NA,NA,NA,NA,NA,NA,NA,NA,NA,NA
NA,NA,NA,NA,NA,instructions,7,208252,0.0-7.0,SS1673375393333,63bdacb46bfec1782ed31c9f,63bdae8f8a9effc8d776bbd5,1280,609,"[{""page_index"":0,""viewing_time"":3071},{""page_index"":1,""viewing_time"":2556},{""page_index"":2,""viewing_time"":2945},{""page_index"":3,""viewing_time"":2093},{""page_index"":4,""viewing_time"":1170}]",11836,instructions,NA,NA,NA,NA,NA,NA,NA,NA,NA,NA,NA,NA,NA,NA
NA,NA,NA,NA,NA,curtain-display,8,213524,0.0-8.0,SS1673375393333,63bdacb46bfec1782ed31c9f,63bdae8f8a9effc8d776bbd5,1280,609,NA,3420,NA,4420,deviant_block,media/padded_stims/animate_024_left.png,media/padded_stims/animate_061_right.png,animate_single_left,animate_single_right,pose,4,NA,NA,NA,NA,NA,NA
NA,NA,NA,NA,NA,curtain-display,9,216159,0.0-9.0,SS1673375393333,63bdacb46bfec1782ed31c9f,63bdae8f8a9effc8d776bbd5,1280,609,NA,795,NA,1795,deviant_block,media/padded_stims/animate_024_left.png,media/padded_stims/animate_061_right.png,animate_single_left,animate_single_right,pose,4,NA,NA,NA,NA,NA,NA
NA,NA,NA,NA,NA,curtain-display,10,218623,0.0-10.0,SS1673375393333,63bdacb46bfec1782ed31c9f,63bdae8f8a9effc8d776bbd5,1280,609,NA,636,NA,1636,deviant_block,media/padded_stims/animate_024_left.png,media/padded_stims/animate_061_right.png,animate_single_left,animate_single_right,pose,4,NA,NA,NA,NA,NA,NA
NA,NA,NA,NA,NA,curtain-display,11,220792,0.0-11.0,SS1673375393333,63bdacb46bfec1782ed31c9f,63bdae8f8a9effc8d776bbd5,1280,609,NA,306,NA,1306,deviant_block,media/padded_stims/animate_024_left.png,media/padded_stims/animate_061_right.png,animate_single_left,animate_single_right,pose,4,NA,NA,NA,NA,NA,NA
NA,NA,NA,NA,NA,survey-likert,12,225400,0.0-12.0,SS1673375393333,63bdacb46bfec1782ed31c9f,63bdae8f8a9effc8d776bbd5,1280,609,NA,4599,NA,NA,NA,NA,NA,NA,NA,NA,NA,"{""Q0"":3}",[0],deviant,NA,NA,NA
NA,NA,NA,NA,NA,curtain-display,13,227491,0.0-13.0,SS1673375393333,63bdacb46bfec1782ed31c9f,63bdae8f8a9effc8d776bbd5,1280,609,NA,233,NA,1233,deviant_block,media/padded_stims/animate_013_right.png,media/padded_stims/animate_017_right.png,animate_single_right,animate_single_right,identity,2,NA,NA,NA,NA,NA,NA
NA,NA,NA,NA,NA,curtain-display,14,229641,0.0-14.0,SS1673375393333,63bdacb46bfec1782ed31c9f,63bdae8f8a9effc8d776bbd5,1280,609,NA,329,NA,1329,deviant_block,media/padded_stims/animate_013_right.png,media/padded_stims/animate_017_right.png,animate_single_right,animate_single_right,identity,2,NA,NA,NA,NA,NA,NA
NA,NA,NA,NA,NA,survey-likert,15,232935,0.0-15.0,SS1673375393333,63bdacb46bfec1782ed31c9f,63bdae8f8a9effc8d776bbd5,1280,609,NA,3289,NA,NA,NA,NA,NA,NA,NA,NA,NA,"{""Q0"":3}",[0],background,NA,NA,NA
NA,NA,NA,NA,NA,curtain-display,16,238154,0.0-16.0,SS1673375393333,63bdacb46bfec1782ed31c9f,63bdae8f8a9effc8d776bbd5,1280,609,NA,3368,NA,4368,deviant_block,media/padded_stims/animate_080_left.png,media/padded_stims/animate_006_left.png,animate_pair_left,animate_single_left,number,6,NA,NA,NA,NA,NA,NA
NA,NA,NA,NA,NA,curtain-display,17,240587,0.0-17.0,SS1673375393333,63bdacb46bfec1782ed31c9f,63bdae8f8a9effc8d776bbd5,1280,609,NA,591,NA,1591,deviant_block,media/padded_stims/animate_080_left.png,media/padded_stims/animate_006_left.png,animate_pair_left,animate_single_left,number,6,NA,NA,NA,NA,NA,NA
NA,NA,NA,NA,NA,curtain-display,18,242803,0.0-18.0,SS1673375393333,63bdacb46bfec1782ed31c9f,63bdae8f8a9effc8d776bbd5,1280,609,NA,402,NA,1402,deviant_block,media/padded_stims/animate_080_left.png,media/padded_stims/animate_006_left.png,animate_pair_left,animate_single_left,number,6,NA,NA,NA,NA,NA,NA
NA,NA,NA,NA,NA,curtain-display,19,244850,0.0-19.0,SS1673375393333,63bdacb46bfec1782ed31c9f,63bdae8f8a9effc8d776bbd5,1280,609,NA,228,NA,1228,deviant_block,media/padded_stims/animate_080_left.png,media/padded_stims/animate_006_left.png,animate_pair_left,animate_single_left,number,6,NA,NA,NA,NA,NA,NA
NA,NA,NA,NA,NA,curtain-display,20,246760,0.0-20.0,SS1673375393333,63bdacb46bfec1782ed31c9f,63bdae8f8a9effc8d776bbd5,1280,609,NA,68,NA,1068,deviant_block,media/padded_stims/animate_080_left.png,media/padded_stims/animate_006_left.png,animate_pair_left,animate_single_left,number,6,NA,NA,NA,NA,NA,NA
NA,NA,NA,NA,NA,curtain-display,21,248580,0.0-21.0,SS1673375393333,63bdacb46bfec1782ed31c9f,63bdae8f8a9effc8d776bbd5,1280,609,NA,7,NA,1007,deviant_block,media/padded_stims/animate_080_left.png,media/padded_stims/animate_006_left.png,animate_pair_left,animate_single_left,number,6,NA,NA,NA,NA,NA,NA
NA,NA,NA,NA,NA,survey-likert,22,251567,0.0-22.0,SS1673375393333,63bdacb46bfec1782ed31c9f,63bdae8f8a9effc8d776bbd5,1280,609,NA,2982,NA,NA,NA,NA,NA,NA,NA,NA,NA,"{""Q0"":4}",[0],deviant,NA,NA,NA
NA,NA,NA,NA,NA,curtain-display,23,254152,0.0-23.0,SS1673375393333,63bdacb46bfec1782ed31c9f,63bdae8f8a9effc8d776bbd5,1280,609,NA,728,NA,1728,deviant_block,media/padded_stims/animate_030_right.png,media/padded_stims/animate_042_right.png,animate_pair_right,animate_single_right,number,4,NA,NA,NA,NA,NA,NA
NA,NA,NA,NA,NA,curtain-display,24,257218,0.0-24.0,SS1673375393333,63bdacb46bfec1782ed31c9f,63bdae8f8a9effc8d776bbd5,1280,609,NA,1244,NA,2244,deviant_block,media/padded_stims/animate_030_right.png,media/padded_stims/animate_042_right.png,animate_pair_right,animate_single_right,number,4,NA,NA,NA,NA,NA,NA
NA,NA,NA,NA,NA,curtain-display,25,260567,0.0-25.0,SS1673375393333,63bdacb46bfec1782ed31c9f,63bdae8f8a9effc8d776bbd5,1280,609,NA,1498,NA,2498,deviant_block,media/padded_stims/animate_030_right.png,media/padded_stims/animate_042_right.png,animate_pair_right,animate_single_right,number,4,NA,NA,NA,NA,NA,NA
NA,NA,NA,NA,NA,curtain-display,26,263888,0.0-26.0,SS1673375393333,63bdacb46bfec1782ed31c9f,63bdae8f8a9effc8d776bbd5,1280,609,NA,1504,NA,2504,deviant_block,media/padded_stims/animate_030_right.png,media/padded_stims/animate_042_right.png,animate_pair_right,animate_single_right,number,4,NA,NA,NA,NA,NA,NA
NA,NA,NA,NA,NA,survey-likert,27,267269,0.0-27.0,SS1673375393333,63bdacb46bfec1782ed31c9f,63bdae8f8a9effc8d776bbd5,1280,609,NA,3375,NA,NA,NA,NA,NA,NA,NA,NA,NA,"{""Q0"":4}",[0],background,NA,NA,NA
NA,NA,NA,NA,NA,curtain-display,28,271382,0.0-28.0,SS1673375393333,63bdacb46bfec1782ed31c9f,63bdae8f8a9effc8d776bbd5,1280,609,NA,2265,NA,3265,deviant_block,media/padded_stims/inanimate_002_left.png,media/padded_stims/inanimate_018_left.png,inanimate_single_left,inanimate_single_left,identity,6,NA,NA,NA,NA,NA,NA
NA,NA,NA,NA,NA,curtain-display,29,274219,0.0-29.0,SS1673375393333,63bdacb46bfec1782ed31c9f,63bdae8f8a9effc8d776bbd5,1280,609,NA,1012,NA,2012,deviant_block,media/padded_stims/inanimate_002_left.png,media/padded_stims/inanimate_018_left.png,inanimate_single_left,inanimate_single_left,identity,6,NA,NA,NA,NA,NA,NA
NA,NA,NA,NA,NA,curtain-display,30,278431,0.0-30.0,SS1673375393333,63bdacb46bfec1782ed31c9f,63bdae8f8a9effc8d776bbd5,1280,609,NA,2372,NA,3372,deviant_block,media/padded_stims/inanimate_002_left.png,media/padded_stims/inanimate_018_left.png,inanimate_single_left,inanimate_single_left,identity,6,NA,NA,NA,NA,NA,NA
NA,NA,NA,NA,NA,curtain-display,31,281748,0.0-31.0,SS1673375393333,63bdacb46bfec1782ed31c9f,63bdae8f8a9effc8d776bbd5,1280,609,NA,1489,NA,2489,deviant_block,media/padded_stims/inanimate_002_left.png,media/padded_stims/inanimate_018_left.png,inanimate_single_left,inanimate_single_left,identity,6,NA,NA,NA,NA,NA,NA
NA,NA,NA,NA,NA,curtain-display,32,285187,0.0-32.0,SS1673375393333,63bdacb46bfec1782ed31c9f,63bdae8f8a9effc8d776bbd5,1280,609,NA,1599,NA,2599,deviant_block,media/padded_stims/inanimate_002_left.png,media/padded_stims/inanimate_018_left.png,inanimate_single_left,inanimate_single_left,identity,6,NA,NA,NA,NA,NA,NA
NA,NA,NA,NA,NA,curtain-display,33,287247,0.0-33.0,SS1673375393333,63bdacb46bfec1782ed31c9f,63bdae8f8a9effc8d776bbd5,1280,609,NA,239,NA,1239,deviant_block,media/padded_stims/inanimate_002_left.png,media/padded_stims/inanimate_018_left.png,inanimate_single_left,inanimate_single_left,identity,6,NA,NA,NA,NA,NA,NA
NA,NA,NA,NA,NA,survey-likert,34,290128,0.0-34.0,SS1673375393333,63bdacb46bfec1782ed31c9f,63bdae8f8a9effc8d776bbd5,1280,609,NA,2872,NA,NA,NA,NA,NA,NA,NA,NA,NA,"{""Q0"":1}",[0],background,NA,NA,NA
NA,NA,NA,NA,NA,curtain-display,35,292395,0.0-35.0,SS1673375393333,63bdacb46bfec1782ed31c9f,63bdae8f8a9effc8d776bbd5,1280,609,NA,401,NA,1401,deviant_block,media/padded_stims/inanimate_021_right.png,media/padded_stims/inanimate_022_right.png,inanimate_single_right,inanimate_single_right,identity,6,NA,NA,NA,NA,NA,NA
NA,NA,NA,NA,NA,curtain-display,36,295008,0.0-36.0,SS1673375393333,63bdacb46bfec1782ed31c9f,63bdae8f8a9effc8d776bbd5,1280,609,NA,793,NA,1793,deviant_block,media/padded_stims/inanimate_021_right.png,media/padded_stims/inanimate_022_right.png,inanimate_single_right,inanimate_single_right,identity,6,NA,NA,NA,NA,NA,NA
NA,NA,NA,NA,NA,curtain-display,37,297258,0.0-37.0,SS1673375393333,63bdacb46bfec1782ed31c9f,63bdae8f8a9effc8d776bbd5,1280,609,NA,431,NA,1431,deviant_block,media/padded_stims/inanimate_021_right.png,media/padded_stims/inanimate_022_right.png,inanimate_single_right,inanimate_single_right,identity,6,NA,NA,NA,NA,NA,NA
NA,NA,NA,NA,NA,curtain-display,38,299358,0.0-38.0,SS1673375393333,63bdacb46bfec1782ed31c9f,63bdae8f8a9effc8d776bbd5,1280,609,NA,252,NA,1252,deviant_block,media/padded_stims/inanimate_021_right.png,media/padded_stims/inanimate_022_right.png,inanimate_single_right,inanimate_single_right,identity,6,NA,NA,NA,NA,NA,NA
NA,NA,NA,NA,NA,curtain-display,39,301376,0.0-39.0,SS1673375393333,63bdacb46bfec1782ed31c9f,63bdae8f8a9effc8d776bbd5,1280,609,NA,185,NA,1185,deviant_block,media/padded_stims/inanimate_021_right.png,media/padded_stims/inanimate_022_right.png,inanimate_single_right,inanimate_single_right,identity,6,NA,NA,NA,NA,NA,NA
NA,NA,NA,NA,NA,curtain-display,40,303342,0.0-40.0,SS1673375393333,63bdacb46bfec1782ed31c9f,63bdae8f8a9effc8d776bbd5,1280,609,NA,141,NA,1141,deviant_block,media/padded_stims/inanimate_021_right.png,media/padded_stims/inanimate_022_right.png,inanimate_single_right,inanimate_single_right,identity,6,NA,NA,NA,NA,NA,NA
NA,NA,NA,NA,NA,survey-likert,41,306566,0.0-41.0,SS1673375393333,63bdacb46bfec1782ed31c9f,63bdae8f8a9effc8d776bbd5,1280,609,NA,3218,NA,NA,NA,NA,NA,NA,NA,NA,NA,"{""Q0"":3}",[0],deviant,NA,NA,NA
NA,NA,NA,NA,NA,curtain-display,42,309675,0.0-42.0,SS1673375393333,63bdacb46bfec1782ed31c9f,63bdae8f8a9effc8d776bbd5,1280,609,NA,1240,NA,2240,deviant_block,media/padded_stims/inanimate_009_left.png,media/padded_stims/inanimate_026_left.png,inanimate_pair_left,inanimate_single_left,number,6,NA,NA,NA,NA,NA,NA
NA,NA,NA,NA,NA,curtain-display,43,312318,0.0-43.0,SS1673375393333,63bdacb46bfec1782ed31c9f,63bdae8f8a9effc8d776bbd5,1280,609,NA,819,NA,1819,deviant_block,media/padded_stims/inanimate_009_left.png,media/padded_stims/inanimate_026_left.png,inanimate_pair_left,inanimate_single_left,number,6,NA,NA,NA,NA,NA,NA
NA,NA,NA,NA,NA,curtain-display,44,314324,0.0-44.0,SS1673375393333,63bdacb46bfec1782ed31c9f,63bdae8f8a9effc8d776bbd5,1280,609,NA,165,NA,1165,deviant_block,media/padded_stims/inanimate_009_left.png,media/padded_stims/inanimate_026_left.png,inanimate_pair_left,inanimate_single_left,number,6,NA,NA,NA,NA,NA,NA
NA,NA,NA,NA,NA,curtain-display,45,316157,0.0-45.0,SS1673375393333,63bdacb46bfec1782ed31c9f,63bdae8f8a9effc8d776bbd5,1280,609,NA,6,NA,1006,deviant_block,media/padded_stims/inanimate_009_left.png,media/padded_stims/inanimate_026_left.png,inanimate_pair_left,inanimate_single_left,number,6,NA,NA,NA,NA,NA,NA
NA,NA,NA,NA,NA,curtain-display,46,318563,0.0-46.0,SS1673375393333,63bdacb46bfec1782ed31c9f,63bdae8f8a9effc8d776bbd5,1280,609,NA,583,NA,1583,deviant_block,media/padded_stims/inanimate_009_left.png,media/padded_stims/inanimate_026_left.png,inanimate_pair_left,inanimate_single_left,number,6,NA,NA,NA,NA,NA,NA
NA,NA,NA,NA,NA,curtain-display,47,321338,0.0-47.0,SS1673375393333,63bdacb46bfec1782ed31c9f,63bdae8f8a9effc8d776bbd5,1280,609,NA,917,NA,1917,deviant_block,media/padded_stims/inanimate_009_left.png,media/padded_stims/inanimate_026_left.png,inanimate_pair_left,inanimate_single_left,number,6,NA,NA,NA,NA,NA,NA
NA,NA,NA,NA,NA,survey-likert,48,344926,0.0-48.0,SS1673375393333,63bdacb46bfec1782ed31c9f,63bdae8f8a9effc8d776bbd5,1280,609,NA,23579,NA,NA,NA,NA,NA,NA,NA,NA,NA,"{""Q0"":3}",[0],deviant,NA,NA,NA
NA,NA,NA,NA,NA,curtain-display,49,352212,0.0-49.0,SS1673375393333,63bdacb46bfec1782ed31c9f,63bdae8f8a9effc8d776bbd5,1280,609,NA,5313,NA,6313,deviant_block,media/padded_stims/inanimate_047_right.png,media/padded_stims/inanimate_071_right.png,inanimate_pair_right,inanimate_single_right,number,6,NA,NA,NA,NA,NA,NA
NA,NA,NA,NA,NA,curtain-display,50,354521,0.0-50.0,SS1673375393333,63bdacb46bfec1782ed31c9f,63bdae8f8a9effc8d776bbd5,1280,609,NA,362,NA,1362,deviant_block,media/padded_stims/inanimate_047_right.png,media/padded_stims/inanimate_071_right.png,inanimate_pair_right,inanimate_single_right,number,6,NA,NA,NA,NA,NA,NA
NA,NA,NA,NA,NA,curtain-display,51,362671,0.0-51.0,SS1673375393333,63bdacb46bfec1782ed31c9f,63bdae8f8a9effc8d776bbd5,1280,609,NA,6323,NA,7323,deviant_block,media/padded_stims/inanimate_047_right.png,media/padded_stims/inanimate_071_right.png,inanimate_pair_right,inanimate_single_right,number,6,NA,NA,NA,NA,NA,NA
NA,NA,NA,NA,NA,curtain-display,52,364626,0.0-52.0,SS1673375393333,63bdacb46bfec1782ed31c9f,63bdae8f8a9effc8d776bbd5,1280,609,NA,99,NA,1099,deviant_block,media/padded_stims/inanimate_047_right.png,media/padded_stims/inanimate_071_right.png,inanimate_pair_right,inanimate_single_right,number,6,NA,NA,NA,NA,NA,NA
NA,NA,NA,NA,NA,curtain-display,53,366570,0.0-53.0,SS1673375393333,63bdacb46bfec1782ed31c9f,63bdae8f8a9effc8d776bbd5,1280,609,NA,125,NA,1125,deviant_block,media/padded_stims/inanimate_047_right.png,media/padded_stims/inanimate_071_right.png,inanimate_pair_right,inanimate_single_right,number,6,NA,NA,NA,NA,NA,NA
NA,NA,NA,NA,NA,curtain-display,54,368598,0.0-54.0,SS1673375393333,63bdacb46bfec1782ed31c9f,63bdae8f8a9effc8d776bbd5,1280,609,NA,196,NA,1196,deviant_block,media/padded_stims/inanimate_047_right.png,media/padded_stims/inanimate_071_right.png,inanimate_pair_right,inanimate_single_right,number,6,NA,NA,NA,NA,NA,NA
NA,NA,NA,NA,NA,survey-likert,55,371256,0.0-55.0,SS1673375393333,63bdacb46bfec1782ed31c9f,63bdae8f8a9effc8d776bbd5,1280,609,NA,2647,NA,NA,NA,NA,NA,NA,NA,NA,NA,"{""Q0"":3}",[0],deviant,NA,NA,NA
NA,NA,NA,NA,NA,curtain-display,56,373928,0.0-56.0,SS1673375393333,63bdacb46bfec1782ed31c9f,63bdae8f8a9effc8d776bbd5,1280,609,NA,800,NA,1800,background_block,media/padded_stims/animate_073_left.png,null,animate_single_left,null,null,6,NA,NA,NA,NA,NA,NA
NA,NA,NA,NA,NA,curtain-display,57,377941,0.0-57.0,SS1673375393333,63bdacb46bfec1782ed31c9f,63bdae8f8a9effc8d776bbd5,1280,609,NA,2186,NA,3186,background_block,media/padded_stims/animate_073_left.png,null,animate_single_left,null,null,6,NA,NA,NA,NA,NA,NA
NA,NA,NA,NA,NA,curtain-display,58,379981,0.0-58.0,SS1673375393333,63bdacb46bfec1782ed31c9f,63bdae8f8a9effc8d776bbd5,1280,609,NA,177,NA,1177,background_block,media/padded_stims/animate_073_left.png,null,animate_single_left,null,null,6,NA,NA,NA,NA,NA,NA
NA,NA,NA,NA,NA,curtain-display,59,381931,0.0-59.0,SS1673375393333,63bdacb46bfec1782ed31c9f,63bdae8f8a9effc8d776bbd5,1280,609,NA,129,NA,1129,background_block,media/padded_stims/animate_073_left.png,null,animate_single_left,null,null,6,NA,NA,NA,NA,NA,NA
NA,NA,NA,NA,NA,curtain-display,60,383954,0.0-60.0,SS1673375393333,63bdacb46bfec1782ed31c9f,63bdae8f8a9effc8d776bbd5,1280,609,NA,194,NA,1194,background_block,media/padded_stims/animate_073_left.png,null,animate_single_left,null,null,6,NA,NA,NA,NA,NA,NA
NA,NA,NA,NA,NA,curtain-display,61,385931,0.0-61.0,SS1673375393333,63bdacb46bfec1782ed31c9f,63bdae8f8a9effc8d776bbd5,1280,609,NA,133,NA,1133,background_block,media/padded_stims/animate_073_left.png,null,animate_single_left,null,null,6,NA,NA,NA,NA,NA,NA
NA,NA,NA,NA,NA,survey-likert,62,388460,0.0-62.0,SS1673375393333,63bdacb46bfec1782ed31c9f,63bdae8f8a9effc8d776bbd5,1280,609,NA,2518,NA,NA,NA,NA,NA,NA,NA,NA,NA,"{""Q0"":3}",[0],background,NA,NA,NA
NA,NA,NA,NA,NA,curtain-display,63,392009,0.0-63.0,SS1673375393333,63bdacb46bfec1782ed31c9f,63bdae8f8a9effc8d776bbd5,1280,609,NA,1701,NA,2701,background_block,media/padded_stims/animate_025_right.png,null,animate_single_right,null,null,6,NA,NA,NA,NA,NA,NA
NA,NA,NA,NA,NA,curtain-display,64,395481,0.0-64.0,SS1673375393333,63bdacb46bfec1782ed31c9f,63bdae8f8a9effc8d776bbd5,1280,609,NA,1610,NA,2610,background_block,media/padded_stims/animate_025_right.png,null,animate_single_right,null,null,6,NA,NA,NA,NA,NA,NA
NA,NA,NA,NA,NA,curtain-display,65,399849,0.0-65.0,SS1673375393333,63bdacb46bfec1782ed31c9f,63bdae8f8a9effc8d776bbd5,1280,609,NA,2530,NA,3530,background_block,media/padded_stims/animate_025_right.png,null,animate_single_right,null,null,6,NA,NA,NA,NA,NA,NA
NA,NA,NA,NA,NA,curtain-display,66,402004,0.0-66.0,SS1673375393333,63bdacb46bfec1782ed31c9f,63bdae8f8a9effc8d776bbd5,1280,609,NA,281,NA,1281,background_block,media/padded_stims/animate_025_right.png,null,animate_single_right,null,null,6,NA,NA,NA,NA,NA,NA
NA,NA,NA,NA,NA,curtain-display,67,405151,0.0-67.0,SS1673375393333,63bdacb46bfec1782ed31c9f,63bdae8f8a9effc8d776bbd5,1280,609,NA,1323,NA,2323,background_block,media/padded_stims/animate_025_right.png,null,animate_single_right,null,null,6,NA,NA,NA,NA,NA,NA
NA,NA,NA,NA,NA,curtain-display,68,407481,0.0-68.0,SS1673375393333,63bdacb46bfec1782ed31c9f,63bdae8f8a9effc8d776bbd5,1280,609,NA,455,NA,1455,background_block,media/padded_stims/animate_025_right.png,null,animate_single_right,null,null,6,NA,NA,NA,NA,NA,NA
NA,NA,NA,NA,NA,survey-likert,69,409947,0.0-69.0,SS1673375393333,63bdacb46bfec1782ed31c9f,63bdae8f8a9effc8d776bbd5,1280,609,NA,2457,NA,NA,NA,NA,NA,NA,NA,NA,NA,"{""Q0"":4}",[0],background,NA,NA,NA
NA,NA,NA,NA,NA,curtain-display,70,413116,0.0-70.0,SS1673375393333,63bdacb46bfec1782ed31c9f,63bdae8f8a9effc8d776bbd5,1280,609,NA,1328,NA,2328,background_block,media/padded_stims/animate_012_left.png,null,animate_pair_left,null,null,6,NA,NA,NA,NA,NA,NA
NA,NA,NA,NA,NA,curtain-display,71,415616,0.0-71.0,SS1673375393333,63bdacb46bfec1782ed31c9f,63bdae8f8a9effc8d776bbd5,1280,609,NA,648,NA,1648,background_block,media/padded_stims/animate_012_left.png,null,animate_pair_left,null,null,6,NA,NA,NA,NA,NA,NA
NA,NA,NA,NA,NA,curtain-display,72,418191,0.0-72.0,SS1673375393333,63bdacb46bfec1782ed31c9f,63bdae8f8a9effc8d776bbd5,1280,609,NA,737,NA,1737,background_block,media/padded_stims/animate_012_left.png,null,animate_pair_left,null,null,6,NA,NA,NA,NA,NA,NA
NA,NA,NA,NA,NA,curtain-display,73,421559,0.0-73.0,SS1673375393333,63bdacb46bfec1782ed31c9f,63bdae8f8a9effc8d776bbd5,1280,609,NA,1517,NA,2517,background_block,media/padded_stims/animate_012_left.png,null,animate_pair_left,null,null,6,NA,NA,NA,NA,NA,NA
NA,NA,NA,NA,NA,curtain-display,74,427190,0.0-74.0,SS1673375393333,63bdacb46bfec1782ed31c9f,63bdae8f8a9effc8d776bbd5,1280,609,NA,3805,NA,4805,background_block,media/padded_stims/animate_012_left.png,null,animate_pair_left,null,null,6,NA,NA,NA,NA,NA,NA
NA,NA,NA,NA,NA,curtain-display,75,429756,0.0-75.0,SS1673375393333,63bdacb46bfec1782ed31c9f,63bdae8f8a9effc8d776bbd5,1280,609,NA,714,NA,1714,background_block,media/padded_stims/animate_012_left.png,null,animate_pair_left,null,null,6,NA,NA,NA,NA,NA,NA
NA,NA,NA,NA,NA,survey-likert,76,442371,0.0-76.0,SS1673375393333,63bdacb46bfec1782ed31c9f,63bdae8f8a9effc8d776bbd5,1280,609,NA,12600,NA,NA,NA,NA,NA,NA,NA,NA,NA,"{""Q0"":4}",[0],background,NA,NA,NA
NA,NA,NA,NA,NA,curtain-display,77,449184,0.0-77.0,SS1673375393333,63bdacb46bfec1782ed31c9f,63bdae8f8a9effc8d776bbd5,1280,609,NA,4940,NA,5940,background_block,media/padded_stims/animate_002_right.png,null,animate_pair_right,null,null,6,NA,NA,NA,NA,NA,NA
NA,NA,NA,NA,NA,curtain-display,78,451494,0.0-78.0,SS1673375393333,63bdacb46bfec1782ed31c9f,63bdae8f8a9effc8d776bbd5,1280,609,NA,449,NA,1449,background_block,media/padded_stims/animate_002_right.png,null,animate_pair_right,null,null,6,NA,NA,NA,NA,NA,NA
NA,NA,NA,NA,NA,curtain-display,79,453453,0.0-79.0,SS1673375393333,63bdacb46bfec1782ed31c9f,63bdae8f8a9effc8d776bbd5,1280,609,NA,123,NA,1123,background_block,media/padded_stims/animate_002_right.png,null,animate_pair_right,null,null,6,NA,NA,NA,NA,NA,NA
NA,NA,NA,NA,NA,curtain-display,80,455686,0.0-80.0,SS1673375393333,63bdacb46bfec1782ed31c9f,63bdae8f8a9effc8d776bbd5,1280,609,NA,403,NA,1403,background_block,media/padded_stims/animate_002_right.png,null,animate_pair_right,null,null,6,NA,NA,NA,NA,NA,NA
NA,NA,NA,NA,NA,curtain-display,81,457828,0.0-81.0,SS1673375393333,63bdacb46bfec1782ed31c9f,63bdae8f8a9effc8d776bbd5,1280,609,NA,291,NA,1291,background_block,media/padded_stims/animate_002_right.png,null,animate_pair_right,null,null,6,NA,NA,NA,NA,NA,NA
NA,NA,NA,NA,NA,curtain-display,82,461086,0.0-82.0,SS1673375393333,63bdacb46bfec1782ed31c9f,63bdae8f8a9effc8d776bbd5,1280,609,NA,1426,NA,2426,background_block,media/padded_stims/animate_002_right.png,null,animate_pair_right,null,null,6,NA,NA,NA,NA,NA,NA
NA,NA,NA,NA,NA,survey-likert,83,463680,0.0-83.0,SS1673375393333,63bdacb46bfec1782ed31c9f,63bdae8f8a9effc8d776bbd5,1280,609,NA,2580,NA,NA,NA,NA,NA,NA,NA,NA,NA,"{""Q0"":4}",[0],background,NA,NA,NA
NA,NA,NA,NA,NA,curtain-display,84,475190,0.0-84.0,SS1673375393333,63bdacb46bfec1782ed31c9f,63bdae8f8a9effc8d776bbd5,1280,609,NA,9625,NA,10625,background_block,media/padded_stims/inanimate_036_left.png,null,inanimate_single_left,null,null,6,NA,NA,NA,NA,NA,NA
NA,NA,NA,NA,NA,curtain-display,85,477108,0.0-85.0,SS1673375393333,63bdacb46bfec1782ed31c9f,63bdae8f8a9effc8d776bbd5,1280,609,NA,47,NA,1047,background_block,media/padded_stims/inanimate_036_left.png,null,inanimate_single_left,null,null,6,NA,NA,NA,NA,NA,NA
NA,NA,NA,NA,NA,curtain-display,86,479331,0.0-86.0,SS1673375393333,63bdacb46bfec1782ed31c9f,63bdae8f8a9effc8d776bbd5,1280,609,NA,388,NA,1388,background_block,media/padded_stims/inanimate_036_left.png,null,inanimate_single_left,null,null,6,NA,NA,NA,NA,NA,NA
NA,NA,NA,NA,NA,curtain-display,87,481282,0.0-87.0,SS1673375393333,63bdacb46bfec1782ed31c9f,63bdae8f8a9effc8d776bbd5,1280,609,NA,110,NA,1110,background_block,media/padded_stims/inanimate_036_left.png,null,inanimate_single_left,null,null,6,NA,NA,NA,NA,NA,NA
NA,NA,NA,NA,NA,curtain-display,88,483247,0.0-88.0,SS1673375393333,63bdacb46bfec1782ed31c9f,63bdae8f8a9effc8d776bbd5,1280,609,NA,117,NA,1117,background_block,media/padded_stims/inanimate_036_left.png,null,inanimate_single_left,null,null,6,NA,NA,NA,NA,NA,NA
NA,NA,NA,NA,NA,curtain-display,89,486799,0.0-89.0,SS1673375393333,63bdacb46bfec1782ed31c9f,63bdae8f8a9effc8d776bbd5,1280,609,NA,1719,NA,2719,background_block,media/padded_stims/inanimate_036_left.png,null,inanimate_single_left,null,null,6,NA,NA,NA,NA,NA,NA
NA,NA,NA,NA,NA,survey-likert,90,489948,0.0-90.0,SS1673375393333,63bdacb46bfec1782ed31c9f,63bdae8f8a9effc8d776bbd5,1280,609,NA,3135,NA,NA,NA,NA,NA,NA,NA,NA,NA,"{""Q0"":4}",[0],background,NA,NA,NA
NA,NA,NA,NA,NA,curtain-display,91,495072,0.0-91.0,SS1673375393333,63bdacb46bfec1782ed31c9f,63bdae8f8a9effc8d776bbd5,1280,609,NA,3258,NA,4258,background_block,media/padded_stims/inanimate_020_right.png,null,inanimate_single_right,null,null,6,NA,NA,NA,NA,NA,NA
NA,NA,NA,NA,NA,curtain-display,92,498427,0.0-92.0,SS1673375393333,63bdacb46bfec1782ed31c9f,63bdae8f8a9effc8d776bbd5,1280,609,NA,1495,NA,2495,background_block,media/padded_stims/inanimate_020_right.png,null,inanimate_single_right,null,null,6,NA,NA,NA,NA,NA,NA
NA,NA,NA,NA,NA,curtain-display,93,501427,0.0-93.0,SS1673375393333,63bdacb46bfec1782ed31c9f,63bdae8f8a9effc8d776bbd5,1280,609,NA,1161,NA,2161,background_block,media/padded_stims/inanimate_020_right.png,null,inanimate_single_right,null,null,6,NA,NA,NA,NA,NA,NA
NA,NA,NA,NA,NA,curtain-display,94,504147,0.0-94.0,SS1673375393333,63bdacb46bfec1782ed31c9f,63bdae8f8a9effc8d776bbd5,1280,609,NA,853,NA,1853,background_block,media/padded_stims/inanimate_020_right.png,null,inanimate_single_right,null,null,6,NA,NA,NA,NA,NA,NA
NA,NA,NA,NA,NA,curtain-display,95,507619,0.0-95.0,SS1673375393333,63bdacb46bfec1782ed31c9f,63bdae8f8a9effc8d776bbd5,1280,609,NA,1648,NA,2648,background_block,media/padded_stims/inanimate_020_right.png,null,inanimate_single_right,null,null,6,NA,NA,NA,NA,NA,NA
NA,NA,NA,NA,NA,curtain-display,96,510450,0.0-96.0,SS1673375393333,63bdacb46bfec1782ed31c9f,63bdae8f8a9effc8d776bbd5,1280,609,NA,964,NA,1964,background_block,media/padded_stims/inanimate_020_right.png,null,inanimate_single_right,null,null,6,NA,NA,NA,NA,NA,NA
NA,NA,NA,NA,NA,survey-likert,97,513467,0.0-97.0,SS1673375393333,63bdacb46bfec1782ed31c9f,63bdae8f8a9effc8d776bbd5,1280,609,NA,2999,NA,NA,NA,NA,NA,NA,NA,NA,NA,"{""Q0"":4}",[0],background,NA,NA,NA
NA,NA,NA,NA,NA,curtain-display,98,518741,0.0-98.0,SS1673375393333,63bdacb46bfec1782ed31c9f,63bdae8f8a9effc8d776bbd5,1280,609,NA,3393,NA,4393,background_block,media/padded_stims/inanimate_051_left.png,null,inanimate_pair_left,null,null,6,NA,NA,NA,NA,NA,NA
NA,NA,NA,NA,NA,curtain-display,99,524915,0.0-99.0,SS1673375393333,63bdacb46bfec1782ed31c9f,63bdae8f8a9effc8d776bbd5,1280,609,NA,4294,NA,5294,background_block,media/padded_stims/inanimate_051_left.png,null,inanimate_pair_left,null,null,6,NA,NA,NA,NA,NA,NA
NA,NA,NA,NA,NA,curtain-display,100,527817,0.0-100.0,SS1673375393333,63bdacb46bfec1782ed31c9f,63bdae8f8a9effc8d776bbd5,1280,609,NA,1034,NA,2034,background_block,media/padded_stims/inanimate_051_left.png,null,inanimate_pair_left,null,null,6,NA,NA,NA,NA,NA,NA
NA,NA,NA,NA,NA,curtain-display,101,530072,0.0-101.0,SS1673375393333,63bdacb46bfec1782ed31c9f,63bdae8f8a9effc8d776bbd5,1280,609,NA,400,NA,1400,background_block,media/padded_stims/inanimate_051_left.png,null,inanimate_pair_left,null,null,6,NA,NA,NA,NA,NA,NA
NA,NA,NA,NA,NA,curtain-display,102,532132,0.0-102.0,SS1673375393333,63bdacb46bfec1782ed31c9f,63bdae8f8a9effc8d776bbd5,1280,609,NA,200,NA,1200,background_block,media/padded_stims/inanimate_051_left.png,null,inanimate_pair_left,null,null,6,NA,NA,NA,NA,NA,NA
NA,NA,NA,NA,NA,curtain-display,103,534742,0.0-103.0,SS1673375393333,63bdacb46bfec1782ed31c9f,63bdae8f8a9effc8d776bbd5,1280,609,NA,766,NA,1766,background_block,media/padded_stims/inanimate_051_left.png,null,inanimate_pair_left,null,null,6,NA,NA,NA,NA,NA,NA
NA,NA,NA,NA,NA,survey-likert,104,538275,0.0-104.0,SS1673375393333,63bdacb46bfec1782ed31c9f,63bdae8f8a9effc8d776bbd5,1280,609,NA,3522,NA,NA,NA,NA,NA,NA,NA,NA,NA,"{""Q0"":4}",[0],background,NA,NA,NA
NA,NA,NA,NA,NA,curtain-display,105,555377,0.0-105.0,SS1673375393333,63bdacb46bfec1782ed31c9f,63bdae8f8a9effc8d776bbd5,1280,609,NA,15214,NA,16214,background_block,media/padded_stims/inanimate_041_right.png,null,inanimate_pair_right,null,null,6,NA,NA,NA,NA,NA,NA
NA,NA,NA,NA,NA,curtain-display,106,558386,0.0-106.0,SS1673375393333,63bdacb46bfec1782ed31c9f,63bdae8f8a9effc8d776bbd5,1280,609,NA,1149,NA,2149,background_block,media/padded_stims/inanimate_041_right.png,null,inanimate_pair_right,null,null,6,NA,NA,NA,NA,NA,NA
NA,NA,NA,NA,NA,curtain-display,107,561343,0.0-107.0,SS1673375393333,63bdacb46bfec1782ed31c9f,63bdae8f8a9effc8d776bbd5,1280,609,NA,1111,NA,2111,background_block,media/padded_stims/inanimate_041_right.png,null,inanimate_pair_right,null,null,6,NA,NA,NA,NA,NA,NA
NA,NA,NA,NA,NA,curtain-display,108,564866,0.0-108.0,SS1673375393333,63bdacb46bfec1782ed31c9f,63bdae8f8a9effc8d776bbd5,1280,609,NA,1652,NA,2652,background_block,media/padded_stims/inanimate_041_right.png,null,inanimate_pair_right,null,null,6,NA,NA,NA,NA,NA,NA
NA,NA,NA,NA,NA,curtain-display,109,568935,0.0-109.0,SS1673375393333,63bdacb46bfec1782ed31c9f,63bdae8f8a9effc8d776bbd5,1280,609,NA,2246,NA,3246,background_block,media/padded_stims/inanimate_041_right.png,null,inanimate_pair_right,null,null,6,NA,NA,NA,NA,NA,NA
NA,NA,NA,NA,NA,curtain-display,110,571317,0.0-110.0,SS1673375393333,63bdacb46bfec1782ed31c9f,63bdae8f8a9effc8d776bbd5,1280,609,NA,500,NA,1500,background_block,media/padded_stims/inanimate_041_right.png,null,inanimate_pair_right,null,null,6,NA,NA,NA,NA,NA,NA
NA,NA,NA,NA,NA,survey-likert,111,574529,0.0-111.0,SS1673375393333,63bdacb46bfec1782ed31c9f,63bdae8f8a9effc8d776bbd5,1280,609,NA,3190,NA,NA,NA,NA,NA,NA,NA,NA,NA,"{""Q0"":2}",[0],background,NA,NA,NA
NA,NA,NA,NA,NA,instructions,112,577420,0.0-112.0,SS1673375393333,63bdacb46bfec1782ed31c9f,63bdae8f8a9effc8d776bbd5,1280,609,"[{""page_index"":0,""viewing_time"":2869}]",2870,NA,NA,NA,NA,NA,NA,NA,NA,NA,NA,NA,NA,NA,NA,NA
NA,NA,NA,NA,NA,survey-likert,113,591975,0.0-113.0,SS1673375393333,63bdacb46bfec1782ed31c9f,63bdae8f8a9effc8d776bbd5,1280,609,NA,14540,NA,NA,NA,NA,NA,NA,NA,pose,4,"{""Q0"":2}",[0],NA,NA,NA,NA
NA,NA,NA,NA,NA,survey-likert,114,600301,0.0-114.0,SS1673375393333,63bdacb46bfec1782ed31c9f,63bdae8f8a9effc8d776bbd5,1280,609,NA,8298,NA,NA,NA,NA,NA,NA,NA,identity,2,"{""Q0"":1}",[0],NA,NA,NA,NA
NA,NA,NA,NA,NA,survey-likert,115,606725,0.0-115.0,SS1673375393333,63bdacb46bfec1782ed31c9f,63bdae8f8a9effc8d776bbd5,1280,609,NA,6399,NA,NA,NA,NA,NA,NA,NA,number,6,"{""Q0"":0}",[0],NA,NA,NA,NA
NA,NA,NA,NA,NA,survey-likert,116,611874,0.0-116.0,SS1673375393333,63bdacb46bfec1782ed31c9f,63bdae8f8a9effc8d776bbd5,1280,609,NA,5129,NA,NA,NA,NA,NA,NA,NA,number,4,"{""Q0"":0}",[0],NA,NA,NA,NA
NA,NA,NA,NA,NA,survey-likert,117,617307,0.0-117.0,SS1673375393333,63bdacb46bfec1782ed31c9f,63bdae8f8a9effc8d776bbd5,1280,609,NA,5410,NA,NA,NA,NA,NA,NA,NA,identity,6,"{""Q0"":0}",[0],NA,NA,NA,NA
NA,NA,NA,NA,NA,survey-likert,118,625194,0.0-118.0,SS1673375393333,63bdacb46bfec1782ed31c9f,63bdae8f8a9effc8d776bbd5,1280,609,NA,7854,NA,NA,NA,NA,NA,NA,NA,identity,6,"{""Q0"":1}",[0],NA,NA,NA,NA
NA,NA,NA,NA,NA,survey-likert,119,634781,0.0-119.0,SS1673375393333,63bdacb46bfec1782ed31c9f,63bdae8f8a9effc8d776bbd5,1280,609,NA,9548,NA,NA,NA,NA,NA,NA,NA,number,6,"{""Q0"":1}",[0],NA,NA,NA,NA
NA,NA,NA,NA,NA,survey-likert,120,638462,0.0-120.0,SS1673375393333,63bdacb46bfec1782ed31c9f,63bdae8f8a9effc8d776bbd5,1280,609,NA,3656,NA,NA,NA,NA,NA,NA,NA,number,6,"{""Q0"":1}",[0],NA,NA,NA,NA
NA,NA,NA,NA,NA,survey-likert,121,648540,0.0-121.0,SS1673375393333,63bdacb46bfec1782ed31c9f,63bdae8f8a9effc8d776bbd5,1280,609,NA,10050,NA,NA,NA,NA,NA,NA,NA,NA,NA,"{""Q0"":3}",[0],NA,background,3,NA
NA,NA,NA,NA,NA,survey-likert,122,653797,0.0-122.0,SS1673375393333,63bdacb46bfec1782ed31c9f,63bdae8f8a9effc8d776bbd5,1280,609,NA,5239,NA,NA,NA,NA,NA,NA,NA,NA,NA,"{""Q0"":2}",[0],NA,deviant,1,NA
NA,NA,NA,NA,NA,survey-likert,123,657409,0.0-123.0,SS1673375393333,63bdacb46bfec1782ed31c9f,63bdae8f8a9effc8d776bbd5,1280,609,NA,3583,NA,NA,NA,NA,NA,NA,NA,NA,NA,"{""Q0"":4}",[0],NA,background,1,NA
NA,NA,NA,NA,NA,survey-likert,124,662462,0.0-124.0,SS1673375393333,63bdacb46bfec1782ed31c9f,63bdae8f8a9effc8d776bbd5,1280,609,NA,5030,NA,NA,NA,NA,NA,NA,NA,NA,NA,"{""Q0"":5}",[0],NA,deviant,1,NA
NA,NA,NA,NA,NA,survey-likert,125,665930,0.0-125.0,SS1673375393333,63bdacb46bfec1782ed31c9f,63bdae8f8a9effc8d776bbd5,1280,609,NA,3444,NA,NA,NA,NA,NA,NA,NA,NA,NA,"{""Q0"":5}",[0],NA,background,5,NA
NA,NA,NA,NA,NA,survey-likert,126,670029,0.0-126.0,SS1673375393333,63bdacb46bfec1782ed31c9f,63bdae8f8a9effc8d776bbd5,1280,609,NA,4078,NA,NA,NA,NA,NA,NA,NA,NA,NA,"{""Q0"":5}",[0],NA,deviant,1,NA
NA,NA,NA,NA,NA,survey-likert,127,676650,0.0-127.0,SS1673375393333,63bdacb46bfec1782ed31c9f,63bdae8f8a9effc8d776bbd5,1280,609,NA,6572,NA,NA,NA,NA,NA,NA,NA,NA,NA,"{""Q0"":3}",[0],NA,background,3,NA
NA,NA,NA,NA,NA,survey-likert,128,681025,0.0-128.0,SS1673375393333,63bdacb46bfec1782ed31c9f,63bdae8f8a9effc8d776bbd5,1280,609,NA,4350,NA,NA,NA,NA,NA,NA,NA,NA,NA,"{""Q0"":5}",[0],NA,deviant,1,NA
NA,NA,NA,NA,NA,survey-likert,129,686600,0.0-129.0,SS1673375393333,63bdacb46bfec1782ed31c9f,63bdae8f8a9effc8d776bbd5,1280,609,NA,5547,NA,NA,NA,NA,NA,NA,NA,NA,NA,"{""Q0"":6}",[0],NA,background,5,NA
NA,NA,NA,NA,NA,survey-likert,130,691029,0.0-130.0,SS1673375393333,63bdacb46bfec1782ed31c9f,63bdae8f8a9effc8d776bbd5,1280,609,NA,4404,NA,NA,NA,NA,NA,NA,NA,NA,NA,"{""Q0"":4}",[0],NA,deviant,1,NA
NA,NA,NA,NA,NA,survey-likert,131,711740,0.0-131.0,SS1673375393333,63bdacb46bfec1782ed31c9f,63bdae8f8a9effc8d776bbd5,1280,609,NA,20681,NA,NA,NA,NA,NA,NA,NA,NA,NA,"{""Q0"":4}",[0],NA,background,5,NA
NA,NA,NA,NA,NA,survey-likert,132,714628,0.0-132.0,SS1673375393333,63bdacb46bfec1782ed31c9f,63bdae8f8a9effc8d776bbd5,1280,609,NA,2858,NA,NA,NA,NA,NA,NA,NA,NA,NA,"{""Q0"":5}",[0],NA,deviant,1,NA
NA,NA,NA,NA,NA,survey-likert,133,717454,0.0-133.0,SS1673375393333,63bdacb46bfec1782ed31c9f,63bdae8f8a9effc8d776bbd5,1280,609,NA,2789,NA,NA,NA,NA,NA,NA,NA,NA,NA,"{""Q0"":5}",[0],NA,background,5,NA
NA,NA,NA,NA,NA,survey-likert,134,720469,0.0-134.0,SS1673375393333,63bdacb46bfec1782ed31c9f,63bdae8f8a9effc8d776bbd5,1280,609,NA,2988,NA,NA,NA,NA,NA,NA,NA,NA,NA,"{""Q0"":5}",[0],NA,deviant,1,NA
NA,NA,NA,NA,NA,survey-likert,135,727375,0.0-135.0,SS1673375393333,63bdacb46bfec1782ed31c9f,63bdae8f8a9effc8d776bbd5,1280,609,NA,6885,NA,NA,NA,NA,NA,NA,NA,NA,NA,"{""Q0"":5}",[0],NA,background,5,NA
NA,NA,NA,NA,NA,survey-likert,136,730862,0.0-136.0,SS1673375393333,63bdacb46bfec1782ed31c9f,63bdae8f8a9effc8d776bbd5,1280,609,NA,3464,NA,NA,NA,NA,NA,NA,NA,NA,NA,"{""Q0"":5}",[0],NA,deviant,1,NA
NA,NA,NA,NA,NA,survey-likert,137,737144,0.0-137.0,SS1673375393333,63bdacb46bfec1782ed31c9f,63bdae8f8a9effc8d776bbd5,1280,609,NA,6246,NA,NA,NA,NA,NA,NA,NA,NA,NA,"{""Q0"":4}",[0],NA,background,6,NA
NA,NA,NA,NA,NA,survey-likert,138,740448,0.0-138.0,SS1673375393333,63bdacb46bfec1782ed31c9f,63bdae8f8a9effc8d776bbd5,1280,609,NA,3280,NA,NA,NA,NA,NA,NA,NA,NA,NA,"{""Q0"":5}",[0],NA,background,6,NA
NA,NA,NA,NA,NA,survey-likert,139,745847,0.0-139.0,SS1673375393333,63bdacb46bfec1782ed31c9f,63bdae8f8a9effc8d776bbd5,1280,609,NA,5367,NA,NA,NA,NA,NA,NA,NA,NA,NA,"{""Q0"":4}",[0],NA,background,6,NA
NA,NA,NA,NA,NA,survey-likert,140,752434,0.0-140.0,SS1673375393333,63bdacb46bfec1782ed31c9f,63bdae8f8a9effc8d776bbd5,1280,609,NA,6562,NA,NA,NA,NA,NA,NA,NA,NA,NA,"{""Q0"":4}",[0],NA,background,6,NA
NA,NA,NA,NA,NA,survey-likert,141,759704,0.0-141.0,SS1673375393333,63bdacb46bfec1782ed31c9f,63bdae8f8a9effc8d776bbd5,1280,609,NA,7218,NA,NA,NA,NA,NA,NA,NA,NA,NA,"{""Q0"":4}",[0],NA,background,6,NA
NA,NA,NA,NA,NA,survey-likert,142,767244,0.0-142.0,SS1673375393333,63bdacb46bfec1782ed31c9f,63bdae8f8a9effc8d776bbd5,1280,609,NA,7496,NA,NA,NA,NA,NA,NA,NA,NA,NA,"{""Q0"":4}",[0],NA,background,6,NA
NA,NA,NA,NA,NA,survey-likert,143,772797,0.0-143.0,SS1673375393333,63bdacb46bfec1782ed31c9f,63bdae8f8a9effc8d776bbd5,1280,609,NA,5510,NA,NA,NA,NA,NA,NA,NA,NA,NA,"{""Q0"":4}",[0],NA,background,6,NA
NA,NA,NA,NA,NA,survey-likert,144,776663,0.0-144.0,SS1673375393333,63bdacb46bfec1782ed31c9f,63bdae8f8a9effc8d776bbd5,1280,609,NA,3841,NA,NA,NA,NA,NA,NA,NA,NA,NA,"{""Q0"":5}",[0],NA,background,6,NA
NA,NA,NA,NA,NA,html-button-response,145,778978,0.0-145.0,SS1673375393333,63bdacb46bfec1782ed31c9f,63bdae8f8a9effc8d776bbd5,1280,609,NA,2288,NA,NA,NA,NA,NA,NA,NA,NA,NA,0,NA,NA,NA,NA,"<p>Congratulations! You have finished all the tasks tasks!</p><p>Now, we would like to ask a few questions about you.</p>"
NA,NA,NA,NA,NA,survey-text,146,801243,0.0-146.0,SS1673375393333,63bdacb46bfec1782ed31c9f,63bdae8f8a9effc8d776bbd5,1280,609,NA,22237,NA,NA,NA,NA,NA,NA,NA,NA,NA,"{""Q0"":""21""}",NA,NA,NA,NA,NA
