success,timeout,failed_images,failed_audio,failed_video,trial_type,trial_index,time_elapsed,internal_node_id,subject,study,session,window_width,window_height,view_history,rt,stimulus_type,total_rt,block_type,background_stimulus,deviant_stimulus,background_type,deviant_type,violation_type,trial_number,response,question_order,rating_type,stimulus
TRUE,FALSE,[],[],[],preload,0,7472,0.0-0.0,SS1681494090912,64398e10912e97b8a1478925,643990439a5d3107103bc62f,1920,969,NA,NA,NA,NA,NA,NA,NA,NA,NA,NA,NA,NA,NA,NA,NA
TRUE,NA,NA,NA,NA,fullscreen,1,227726,0.0-1.0,SS1681494090912,64398e10912e97b8a1478925,643990439a5d3107103bc62f,1920,969,NA,NA,NA,NA,NA,NA,NA,NA,NA,NA,NA,NA,NA,NA,NA
NA,NA,NA,NA,NA,instructions,2,232580,0.0-2.0,SS1681494090912,64398e10912e97b8a1478925,643990439a5d3107103bc62f,1920,969,"[{""page_index"":0,""viewing_time"":4851}]",4852,NA,NA,NA,NA,NA,NA,NA,NA,NA,NA,NA,NA,NA
NA,NA,NA,NA,NA,instructions,3,268139,0.0-3.0,SS1681494090912,64398e10912e97b8a1478925,643990439a5d3107103bc62f,1920,969,"[{""page_index"":0,""viewing_time"":24898},{""page_index"":1,""viewing_time"":8640}]",33538,instructions,NA,NA,NA,NA,NA,NA,NA,NA,NA,NA,NA,NA
NA,NA,NA,NA,NA,curtain-display,4,274498,0.0-4.0,SS1681494090912,64398e10912e97b8a1478925,643990439a5d3107103bc62f,1920,969,NA,5303,instructions,5803,NA,NA,NA,NA,NA,NA,NA,NA,NA,NA,NA
NA,NA,NA,NA,NA,curtain-display,5,278697,0.0-5.0,SS1681494090912,64398e10912e97b8a1478925,643990439a5d3107103bc62f,1920,969,NA,3133,instructions,3633,NA,NA,NA,NA,NA,NA,NA,NA,NA,NA,NA
NA,NA,NA,NA,NA,curtain-display,6,281027,0.0-6.0,SS1681494090912,64398e10912e97b8a1478925,643990439a5d3107103bc62f,1920,969,NA,1305,instructions,1805,NA,NA,NA,NA,NA,NA,NA,NA,NA,NA,NA
NA,NA,NA,NA,NA,instructions,7,312459,0.0-7.0,SS1681494090912,64398e10912e97b8a1478925,643990439a5d3107103bc62f,1920,969,"[{""page_index"":0,""viewing_time"":4148},{""page_index"":1,""viewing_time"":16664},{""page_index"":2,""viewing_time"":7376},{""page_index"":3,""viewing_time"":1824},{""page_index"":4,""viewing_time"":1416}]",31428,instructions,NA,NA,NA,NA,NA,NA,NA,NA,NA,NA,NA,NA
NA,NA,NA,NA,NA,curtain-display,8,315552,0.0-8.0,SS1681494090912,64398e10912e97b8a1478925,643990439a5d3107103bc62f,1920,969,NA,2075,NA,2575,deviant_block,media/padded_stims/animate_012_left.png,media/padded_stims/animate_010_right.png,animate_single_left,animate_single_right,pose,4,NA,NA,NA,NA
NA,NA,NA,NA,NA,curtain-display,9,318210,0.0-9.0,SS1681494090912,64398e10912e97b8a1478925,643990439a5d3107103bc62f,1920,969,NA,1647,NA,2147,deviant_block,media/padded_stims/animate_012_left.png,media/padded_stims/animate_010_right.png,animate_single_left,animate_single_right,pose,4,NA,NA,NA,NA
NA,NA,NA,NA,NA,curtain-display,10,320217,0.0-10.0,SS1681494090912,64398e10912e97b8a1478925,643990439a5d3107103bc62f,1920,969,NA,975,NA,1475,deviant_block,media/padded_stims/animate_012_left.png,media/padded_stims/animate_010_right.png,animate_single_left,animate_single_right,pose,4,NA,NA,NA,NA
NA,NA,NA,NA,NA,curtain-display,11,322080,0.0-11.0,SS1681494090912,64398e10912e97b8a1478925,643990439a5d3107103bc62f,1920,969,NA,848,NA,1348,deviant_block,media/padded_stims/animate_012_left.png,media/padded_stims/animate_010_right.png,animate_single_left,animate_single_right,pose,4,NA,NA,NA,NA
NA,NA,NA,NA,NA,survey-likert,12,325356,0.0-12.0,SS1681494090912,64398e10912e97b8a1478925,643990439a5d3107103bc62f,1920,969,NA,3272,NA,NA,NA,NA,NA,NA,NA,NA,NA,"{""Q0"":3}",[0],background,NA
NA,NA,NA,NA,NA,curtain-display,13,327663,0.0-13.0,SS1681494090912,64398e10912e97b8a1478925,643990439a5d3107103bc62f,1920,969,NA,1287,NA,1787,background_block,media/padded_stims/animate_002_left.png,null,animate_single_left,null,null,6,NA,NA,NA,NA
NA,NA,NA,NA,NA,curtain-display,14,329736,0.0-14.0,SS1681494090912,64398e10912e97b8a1478925,643990439a5d3107103bc62f,1920,969,NA,1066,NA,1566,background_block,media/padded_stims/animate_002_left.png,null,animate_single_left,null,null,6,NA,NA,NA,NA
NA,NA,NA,NA,NA,curtain-display,15,331968,0.0-15.0,SS1681494090912,64398e10912e97b8a1478925,643990439a5d3107103bc62f,1920,969,NA,1226,NA,1726,background_block,media/padded_stims/animate_002_left.png,null,animate_single_left,null,null,6,NA,NA,NA,NA
NA,NA,NA,NA,NA,curtain-display,16,334001,0.0-16.0,SS1681494090912,64398e10912e97b8a1478925,643990439a5d3107103bc62f,1920,969,NA,1013,NA,1513,background_block,media/padded_stims/animate_002_left.png,null,animate_single_left,null,null,6,NA,NA,NA,NA
NA,NA,NA,NA,NA,curtain-display,17,335864,0.0-17.0,SS1681494090912,64398e10912e97b8a1478925,643990439a5d3107103bc62f,1920,969,NA,857,NA,1357,background_block,media/padded_stims/animate_002_left.png,null,animate_single_left,null,null,6,NA,NA,NA,NA
NA,NA,NA,NA,NA,curtain-display,18,340535,0.0-18.0,SS1681494090912,64398e10912e97b8a1478925,643990439a5d3107103bc62f,1920,969,NA,3667,NA,4167,background_block,media/padded_stims/animate_002_left.png,null,animate_single_left,null,null,6,NA,NA,NA,NA
NA,NA,NA,NA,NA,survey-likert,19,343267,0.0-19.0,SS1681494090912,64398e10912e97b8a1478925,643990439a5d3107103bc62f,1920,969,NA,2729,NA,NA,NA,NA,NA,NA,NA,NA,NA,"{""Q0"":2}",[0],background,NA
NA,NA,NA,NA,NA,curtain-display,20,346041,0.0-20.0,SS1681494090912,64398e10912e97b8a1478925,643990439a5d3107103bc62f,1920,969,NA,1753,NA,2253,background_block,media/padded_stims/inanimate_008_right.png,null,inanimate_pair_right,null,null,2,NA,NA,NA,NA
NA,NA,NA,NA,NA,curtain-display,21,349215,0.0-21.0,SS1681494090912,64398e10912e97b8a1478925,643990439a5d3107103bc62f,1920,969,NA,2170,NA,2670,background_block,media/padded_stims/inanimate_008_right.png,null,inanimate_pair_right,null,null,2,NA,NA,NA,NA
NA,NA,NA,NA,NA,survey-likert,22,359299,0.0-22.0,SS1681494090912,64398e10912e97b8a1478925,643990439a5d3107103bc62f,1920,969,NA,10082,NA,NA,NA,NA,NA,NA,NA,NA,NA,"{""Q0"":1}",[0],background,NA
NA,NA,NA,NA,NA,curtain-display,23,361272,0.0-23.0,SS1681494090912,64398e10912e97b8a1478925,643990439a5d3107103bc62f,1920,969,NA,953,NA,1453,deviant_block,media/padded_stims/inanimate_009_left.png,media/padded_stims/inanimate_005_left.png,inanimate_single_left,inanimate_pair_left,number,2,NA,NA,NA,NA
NA,NA,NA,NA,NA,curtain-display,24,363607,0.0-24.0,SS1681494090912,64398e10912e97b8a1478925,643990439a5d3107103bc62f,1920,969,NA,1328,NA,1828,deviant_block,media/padded_stims/inanimate_009_left.png,media/padded_stims/inanimate_005_left.png,inanimate_single_left,inanimate_pair_left,number,2,NA,NA,NA,NA
NA,NA,NA,NA,NA,survey-likert,25,367291,0.0-25.0,SS1681494090912,64398e10912e97b8a1478925,643990439a5d3107103bc62f,1920,969,NA,3682,NA,NA,NA,NA,NA,NA,NA,NA,NA,"{""Q0"":2}",[0],background,NA
NA,NA,NA,NA,NA,curtain-display,26,369647,0.0-26.0,SS1681494090912,64398e10912e97b8a1478925,643990439a5d3107103bc62f,1920,969,NA,1336,NA,1836,deviant_block,media/padded_stims/animate_012_right.png,media/padded_stims/animate_003_right.png,animate_pair_right,animate_single_right,number,6,NA,NA,NA,NA
NA,NA,NA,NA,NA,curtain-display,27,371479,0.0-27.0,SS1681494090912,64398e10912e97b8a1478925,643990439a5d3107103bc62f,1920,969,NA,827,NA,1327,deviant_block,media/padded_stims/animate_012_right.png,media/padded_stims/animate_003_right.png,animate_pair_right,animate_single_right,number,6,NA,NA,NA,NA
NA,NA,NA,NA,NA,curtain-display,28,373935,0.0-28.0,SS1681494090912,64398e10912e97b8a1478925,643990439a5d3107103bc62f,1920,969,NA,1450,NA,1950,deviant_block,media/padded_stims/animate_012_right.png,media/padded_stims/animate_003_right.png,animate_pair_right,animate_single_right,number,6,NA,NA,NA,NA
NA,NA,NA,NA,NA,curtain-display,29,376320,0.0-29.0,SS1681494090912,64398e10912e97b8a1478925,643990439a5d3107103bc62f,1920,969,NA,1362,NA,1862,deviant_block,media/padded_stims/animate_012_right.png,media/padded_stims/animate_003_right.png,animate_pair_right,animate_single_right,number,6,NA,NA,NA,NA
NA,NA,NA,NA,NA,curtain-display,30,378232,0.0-30.0,SS1681494090912,64398e10912e97b8a1478925,643990439a5d3107103bc62f,1920,969,NA,906,NA,1406,deviant_block,media/padded_stims/animate_012_right.png,media/padded_stims/animate_003_right.png,animate_pair_right,animate_single_right,number,6,NA,NA,NA,NA
NA,NA,NA,NA,NA,curtain-display,31,380375,0.0-31.0,SS1681494090912,64398e10912e97b8a1478925,643990439a5d3107103bc62f,1920,969,NA,1137,NA,1637,deviant_block,media/padded_stims/animate_012_right.png,media/padded_stims/animate_003_right.png,animate_pair_right,animate_single_right,number,6,NA,NA,NA,NA
NA,NA,NA,NA,NA,survey-likert,32,387323,0.0-32.0,SS1681494090912,64398e10912e97b8a1478925,643990439a5d3107103bc62f,1920,969,NA,6945,NA,NA,NA,NA,NA,NA,NA,NA,NA,"{""Q0"":2}",[0],background,NA
NA,NA,NA,NA,NA,curtain-display,33,389775,0.0-33.0,SS1681494090912,64398e10912e97b8a1478925,643990439a5d3107103bc62f,1920,969,NA,1432,NA,1932,background_block,media/padded_stims/inanimate_011_right.png,null,inanimate_single_right,null,null,4,NA,NA,NA,NA
NA,NA,NA,NA,NA,curtain-display,34,391879,0.0-34.0,SS1681494090912,64398e10912e97b8a1478925,643990439a5d3107103bc62f,1920,969,NA,1099,NA,1599,background_block,media/padded_stims/inanimate_011_right.png,null,inanimate_single_right,null,null,4,NA,NA,NA,NA
NA,NA,NA,NA,NA,curtain-display,35,393615,0.0-35.0,SS1681494090912,64398e10912e97b8a1478925,643990439a5d3107103bc62f,1920,969,NA,731,NA,1231,background_block,media/padded_stims/inanimate_011_right.png,null,inanimate_single_right,null,null,4,NA,NA,NA,NA
NA,NA,NA,NA,NA,curtain-display,36,395326,0.0-36.0,SS1681494090912,64398e10912e97b8a1478925,643990439a5d3107103bc62f,1920,969,NA,689,NA,1189,background_block,media/padded_stims/inanimate_011_right.png,null,inanimate_single_right,null,null,4,NA,NA,NA,NA
NA,NA,NA,NA,NA,survey-likert,37,398252,0.0-37.0,SS1681494090912,64398e10912e97b8a1478925,643990439a5d3107103bc62f,1920,969,NA,2924,NA,NA,NA,NA,NA,NA,NA,NA,NA,"{""Q0"":2}",[0],background,NA
NA,NA,NA,NA,NA,curtain-display,38,400824,0.0-38.0,SS1681494090912,64398e10912e97b8a1478925,643990439a5d3107103bc62f,1920,969,NA,1565,NA,2065,deviant_block,media/padded_stims/animate_008_right.png,media/padded_stims/animate_001_right.png,animate_single_right,animate_pair_right,number,2,NA,NA,NA,NA
NA,NA,NA,NA,NA,curtain-display,39,403032,0.0-39.0,SS1681494090912,64398e10912e97b8a1478925,643990439a5d3107103bc62f,1920,969,NA,1191,NA,1691,deviant_block,media/padded_stims/animate_008_right.png,media/padded_stims/animate_001_right.png,animate_single_right,animate_pair_right,number,2,NA,NA,NA,NA
NA,NA,NA,NA,NA,survey-likert,40,407211,0.0-40.0,SS1681494090912,64398e10912e97b8a1478925,643990439a5d3107103bc62f,1920,969,NA,4177,NA,NA,NA,NA,NA,NA,NA,NA,NA,"{""Q0"":1}",[0],background,NA
NA,NA,NA,NA,NA,curtain-display,41,409615,0.0-41.0,SS1681494090912,64398e10912e97b8a1478925,643990439a5d3107103bc62f,1920,969,NA,1386,NA,1886,deviant_block,media/padded_stims/animate_007_left.png,media/padded_stims/inanimate_001_left.png,animate_pair_left,inanimate_pair_left,animacy,4,NA,NA,NA,NA
NA,NA,NA,NA,NA,curtain-display,42,411609,0.0-42.0,SS1681494090912,64398e10912e97b8a1478925,643990439a5d3107103bc62f,1920,969,NA,985,NA,1485,deviant_block,media/padded_stims/animate_007_left.png,media/padded_stims/inanimate_001_left.png,animate_pair_left,inanimate_pair_left,animacy,4,NA,NA,NA,NA
NA,NA,NA,NA,NA,curtain-display,43,413441,0.0-43.0,SS1681494090912,64398e10912e97b8a1478925,643990439a5d3107103bc62f,1920,969,NA,819,NA,1319,deviant_block,media/padded_stims/animate_007_left.png,media/padded_stims/inanimate_001_left.png,animate_pair_left,inanimate_pair_left,animacy,4,NA,NA,NA,NA
NA,NA,NA,NA,NA,curtain-display,44,415007,0.0-44.0,SS1681494090912,64398e10912e97b8a1478925,643990439a5d3107103bc62f,1920,969,NA,516,NA,1016,deviant_block,media/padded_stims/animate_007_left.png,media/padded_stims/inanimate_001_left.png,animate_pair_left,inanimate_pair_left,animacy,4,NA,NA,NA,NA
NA,NA,NA,NA,NA,survey-likert,45,417779,0.0-45.0,SS1681494090912,64398e10912e97b8a1478925,643990439a5d3107103bc62f,1920,969,NA,2770,NA,NA,NA,NA,NA,NA,NA,NA,NA,"{""Q0"":0}",[0],background,NA
NA,NA,NA,NA,NA,curtain-display,46,419272,0.0-46.0,SS1681494090912,64398e10912e97b8a1478925,643990439a5d3107103bc62f,1920,969,NA,485,NA,985,deviant_block,media/padded_stims/inanimate_007_right.png,media/padded_stims/inanimate_009_right.png,inanimate_single_right,inanimate_pair_right,number,4,NA,NA,NA,NA
NA,NA,NA,NA,NA,curtain-display,47,420617,0.0-47.0,SS1681494090912,64398e10912e97b8a1478925,643990439a5d3107103bc62f,1920,969,NA,327,NA,827,deviant_block,media/padded_stims/inanimate_007_right.png,media/padded_stims/inanimate_009_right.png,inanimate_single_right,inanimate_pair_right,number,4,NA,NA,NA,NA
NA,NA,NA,NA,NA,curtain-display,48,421936,0.0-48.0,SS1681494090912,64398e10912e97b8a1478925,643990439a5d3107103bc62f,1920,969,NA,314,NA,814,deviant_block,media/padded_stims/inanimate_007_right.png,media/padded_stims/inanimate_009_right.png,inanimate_single_right,inanimate_pair_right,number,4,NA,NA,NA,NA
NA,NA,NA,NA,NA,curtain-display,49,423361,0.0-49.0,SS1681494090912,64398e10912e97b8a1478925,643990439a5d3107103bc62f,1920,969,NA,418,NA,918,deviant_block,media/padded_stims/inanimate_007_right.png,media/padded_stims/inanimate_009_right.png,inanimate_single_right,inanimate_pair_right,number,4,NA,NA,NA,NA
NA,NA,NA,NA,NA,survey-likert,50,425371,0.0-50.0,SS1681494090912,64398e10912e97b8a1478925,643990439a5d3107103bc62f,1920,969,NA,2009,NA,NA,NA,NA,NA,NA,NA,NA,NA,"{""Q0"":0}",[0],background,NA
NA,NA,NA,NA,NA,curtain-display,51,426647,0.0-51.0,SS1681494090912,64398e10912e97b8a1478925,643990439a5d3107103bc62f,1920,969,NA,258,NA,758,deviant_block,media/padded_stims/inanimate_002_right.png,media/padded_stims/animate_009_right.png,inanimate_pair_right,animate_pair_right,animacy,4,NA,NA,NA,NA
NA,NA,NA,NA,NA,curtain-display,52,427791,0.0-52.0,SS1681494090912,64398e10912e97b8a1478925,643990439a5d3107103bc62f,1920,969,NA,139,NA,639,deviant_block,media/padded_stims/inanimate_002_right.png,media/padded_stims/animate_009_right.png,inanimate_pair_right,animate_pair_right,animacy,4,NA,NA,NA,NA
NA,NA,NA,NA,NA,curtain-display,53,428847,0.0-53.0,SS1681494090912,64398e10912e97b8a1478925,643990439a5d3107103bc62f,1920,969,NA,52,NA,552,deviant_block,media/padded_stims/inanimate_002_right.png,media/padded_stims/animate_009_right.png,inanimate_pair_right,animate_pair_right,animacy,4,NA,NA,NA,NA
NA,NA,NA,NA,NA,curtain-display,54,430217,0.0-54.0,SS1681494090912,64398e10912e97b8a1478925,643990439a5d3107103bc62f,1920,969,NA,363,NA,863,deviant_block,media/padded_stims/inanimate_002_right.png,media/padded_stims/animate_009_right.png,inanimate_pair_right,animate_pair_right,animacy,4,NA,NA,NA,NA
NA,NA,NA,NA,NA,survey-likert,55,432443,0.0-55.0,SS1681494090912,64398e10912e97b8a1478925,643990439a5d3107103bc62f,1920,969,NA,2224,NA,NA,NA,NA,NA,NA,NA,NA,NA,"{""Q0"":2}",[0],deviant,NA
NA,NA,NA,NA,NA,curtain-display,56,434352,0.0-56.0,SS1681494090912,64398e10912e97b8a1478925,643990439a5d3107103bc62f,1920,969,NA,889,NA,1389,background_block,media/padded_stims/inanimate_012_left.png,null,inanimate_pair_left,null,null,4,NA,NA,NA,NA
NA,NA,NA,NA,NA,curtain-display,57,435672,0.0-57.0,SS1681494090912,64398e10912e97b8a1478925,643990439a5d3107103bc62f,1920,969,NA,315,NA,815,background_block,media/padded_stims/inanimate_012_left.png,null,inanimate_pair_left,null,null,4,NA,NA,NA,NA
NA,NA,NA,NA,NA,curtain-display,58,436903,0.0-58.0,SS1681494090912,64398e10912e97b8a1478925,643990439a5d3107103bc62f,1920,969,NA,224,NA,724,background_block,media/padded_stims/inanimate_012_left.png,null,inanimate_pair_left,null,null,4,NA,NA,NA,NA
NA,NA,NA,NA,NA,curtain-display,59,438175,0.0-59.0,SS1681494090912,64398e10912e97b8a1478925,643990439a5d3107103bc62f,1920,969,NA,266,NA,766,background_block,media/padded_stims/inanimate_012_left.png,null,inanimate_pair_left,null,null,4,NA,NA,NA,NA
NA,NA,NA,NA,NA,survey-likert,60,442771,0.0-60.0,SS1681494090912,64398e10912e97b8a1478925,643990439a5d3107103bc62f,1920,969,NA,4593,NA,NA,NA,NA,NA,NA,NA,NA,NA,"{""Q0"":3}",[0],background,NA
NA,NA,NA,NA,NA,curtain-display,61,444567,0.0-61.0,SS1681494090912,64398e10912e97b8a1478925,643990439a5d3107103bc62f,1920,969,NA,776,NA,1276,background_block,media/padded_stims/inanimate_006_left.png,null,inanimate_single_left,null,null,6,NA,NA,NA,NA
NA,NA,NA,NA,NA,curtain-display,62,446360,0.0-62.0,SS1681494090912,64398e10912e97b8a1478925,643990439a5d3107103bc62f,1920,969,NA,787,NA,1287,background_block,media/padded_stims/inanimate_006_left.png,null,inanimate_single_left,null,null,6,NA,NA,NA,NA
NA,NA,NA,NA,NA,curtain-display,63,448673,0.0-63.0,SS1681494090912,64398e10912e97b8a1478925,643990439a5d3107103bc62f,1920,969,NA,1306,NA,1806,background_block,media/padded_stims/inanimate_006_left.png,null,inanimate_single_left,null,null,6,NA,NA,NA,NA
NA,NA,NA,NA,NA,curtain-display,64,450055,0.0-64.0,SS1681494090912,64398e10912e97b8a1478925,643990439a5d3107103bc62f,1920,969,NA,367,NA,867,background_block,media/padded_stims/inanimate_006_left.png,null,inanimate_single_left,null,null,6,NA,NA,NA,NA
NA,NA,NA,NA,NA,curtain-display,65,451487,0.0-65.0,SS1681494090912,64398e10912e97b8a1478925,643990439a5d3107103bc62f,1920,969,NA,427,NA,927,background_block,media/padded_stims/inanimate_006_left.png,null,inanimate_single_left,null,null,6,NA,NA,NA,NA
NA,NA,NA,NA,NA,curtain-display,66,452767,0.0-66.0,SS1681494090912,64398e10912e97b8a1478925,643990439a5d3107103bc62f,1920,969,NA,274,NA,774,background_block,media/padded_stims/inanimate_006_left.png,null,inanimate_single_left,null,null,6,NA,NA,NA,NA
NA,NA,NA,NA,NA,survey-likert,67,455748,0.0-67.0,SS1681494090912,64398e10912e97b8a1478925,643990439a5d3107103bc62f,1920,969,NA,2979,NA,NA,NA,NA,NA,NA,NA,NA,NA,"{""Q0"":4}",[0],background,NA
NA,NA,NA,NA,NA,curtain-display,68,457768,0.0-68.0,SS1681494090912,64398e10912e97b8a1478925,643990439a5d3107103bc62f,1920,969,NA,999,NA,1499,deviant_block,media/padded_stims/inanimate_003_left.png,media/padded_stims/animate_001_left.png,inanimate_pair_left,animate_pair_left,animacy,6,NA,NA,NA,NA
NA,NA,NA,NA,NA,curtain-display,69,459065,0.0-69.0,SS1681494090912,64398e10912e97b8a1478925,643990439a5d3107103bc62f,1920,969,NA,291,NA,791,deviant_block,media/padded_stims/inanimate_003_left.png,media/padded_stims/animate_001_left.png,inanimate_pair_left,animate_pair_left,animacy,6,NA,NA,NA,NA
NA,NA,NA,NA,NA,curtain-display,70,461511,0.0-70.0,SS1681494090912,64398e10912e97b8a1478925,643990439a5d3107103bc62f,1920,969,NA,1442,NA,1942,deviant_block,media/padded_stims/inanimate_003_left.png,media/padded_stims/animate_001_left.png,inanimate_pair_left,animate_pair_left,animacy,6,NA,NA,NA,NA
NA,NA,NA,NA,NA,curtain-display,71,463481,0.0-71.0,SS1681494090912,64398e10912e97b8a1478925,643990439a5d3107103bc62f,1920,969,NA,951,NA,1451,deviant_block,media/padded_stims/inanimate_003_left.png,media/padded_stims/animate_001_left.png,inanimate_pair_left,animate_pair_left,animacy,6,NA,NA,NA,NA
NA,NA,NA,NA,NA,curtain-display,72,465097,0.0-72.0,SS1681494090912,64398e10912e97b8a1478925,643990439a5d3107103bc62f,1920,969,NA,609,NA,1109,deviant_block,media/padded_stims/inanimate_003_left.png,media/padded_stims/animate_001_left.png,inanimate_pair_left,animate_pair_left,animacy,6,NA,NA,NA,NA
NA,NA,NA,NA,NA,curtain-display,73,466687,0.0-73.0,SS1681494090912,64398e10912e97b8a1478925,643990439a5d3107103bc62f,1920,969,NA,584,NA,1084,deviant_block,media/padded_stims/inanimate_003_left.png,media/padded_stims/animate_001_left.png,inanimate_pair_left,animate_pair_left,animacy,6,NA,NA,NA,NA
NA,NA,NA,NA,NA,survey-likert,74,469139,0.0-74.0,SS1681494090912,64398e10912e97b8a1478925,643990439a5d3107103bc62f,1920,969,NA,2449,NA,NA,NA,NA,NA,NA,NA,NA,NA,"{""Q0"":1}",[0],background,NA
NA,NA,NA,NA,NA,curtain-display,75,471103,0.0-75.0,SS1681494090912,64398e10912e97b8a1478925,643990439a5d3107103bc62f,1920,969,NA,944,NA,1444,background_block,media/padded_stims/animate_004_right.png,null,animate_single_right,null,null,2,NA,NA,NA,NA
NA,NA,NA,NA,NA,curtain-display,76,472504,0.0-76.0,SS1681494090912,64398e10912e97b8a1478925,643990439a5d3107103bc62f,1920,969,NA,396,NA,896,background_block,media/padded_stims/animate_004_right.png,null,animate_single_right,null,null,2,NA,NA,NA,NA
NA,NA,NA,NA,NA,survey-likert,77,476096,0.0-77.0,SS1681494090912,64398e10912e97b8a1478925,643990439a5d3107103bc62f,1920,969,NA,3589,NA,NA,NA,NA,NA,NA,NA,NA,NA,"{""Q0"":2}",[0],background,NA
NA,NA,NA,NA,NA,curtain-display,78,478329,0.0-78.0,SS1681494090912,64398e10912e97b8a1478925,643990439a5d3107103bc62f,1920,969,NA,1211,NA,1711,background_block,media/padded_stims/animate_005_right.png,null,animate_pair_right,null,null,4,NA,NA,NA,NA
NA,NA,NA,NA,NA,curtain-display,79,479560,0.0-79.0,SS1681494090912,64398e10912e97b8a1478925,643990439a5d3107103bc62f,1920,969,NA,224,NA,724,background_block,media/padded_stims/animate_005_right.png,null,animate_pair_right,null,null,4,NA,NA,NA,NA
NA,NA,NA,NA,NA,curtain-display,80,481503,0.0-80.0,SS1681494090912,64398e10912e97b8a1478925,643990439a5d3107103bc62f,1920,969,NA,938,NA,1438,background_block,media/padded_stims/animate_005_right.png,null,animate_pair_right,null,null,4,NA,NA,NA,NA
NA,NA,NA,NA,NA,curtain-display,81,484113,0.0-81.0,SS1681494090912,64398e10912e97b8a1478925,643990439a5d3107103bc62f,1920,969,NA,1592,NA,2092,background_block,media/padded_stims/animate_005_right.png,null,animate_pair_right,null,null,4,NA,NA,NA,NA
NA,NA,NA,NA,NA,survey-likert,82,487696,0.0-82.0,SS1681494090912,64398e10912e97b8a1478925,643990439a5d3107103bc62f,1920,969,NA,3580,NA,NA,NA,NA,NA,NA,NA,NA,NA,"{""Q0"":1}",[0],background,NA
NA,NA,NA,NA,NA,curtain-display,83,489824,0.0-83.0,SS1681494090912,64398e10912e97b8a1478925,643990439a5d3107103bc62f,1920,969,NA,1109,NA,1609,background_block,media/padded_stims/animate_009_left.png,null,animate_pair_left,null,null,4,NA,NA,NA,NA
NA,NA,NA,NA,NA,curtain-display,84,491529,0.0-84.0,SS1681494090912,64398e10912e97b8a1478925,643990439a5d3107103bc62f,1920,969,NA,698,NA,1198,background_block,media/padded_stims/animate_009_left.png,null,animate_pair_left,null,null,4,NA,NA,NA,NA
NA,NA,NA,NA,NA,curtain-display,85,493192,0.0-85.0,SS1681494090912,64398e10912e97b8a1478925,643990439a5d3107103bc62f,1920,969,NA,657,NA,1157,background_block,media/padded_stims/animate_009_left.png,null,animate_pair_left,null,null,4,NA,NA,NA,NA
NA,NA,NA,NA,NA,curtain-display,86,494944,0.0-86.0,SS1681494090912,64398e10912e97b8a1478925,643990439a5d3107103bc62f,1920,969,NA,731,NA,1231,background_block,media/padded_stims/animate_009_left.png,null,animate_pair_left,null,null,4,NA,NA,NA,NA
NA,NA,NA,NA,NA,survey-likert,87,497428,0.0-87.0,SS1681494090912,64398e10912e97b8a1478925,643990439a5d3107103bc62f,1920,969,NA,2480,NA,NA,NA,NA,NA,NA,NA,NA,NA,"{""Q0"":1}",[0],background,NA
NA,NA,NA,NA,NA,html-button-response,88,499316,0.0-88.0,SS1681494090912,64398e10912e97b8a1478925,643990439a5d3107103bc62f,1920,969,NA,1881,NA,NA,NA,NA,NA,NA,NA,NA,NA,0,NA,NA,"<p>Congratulations! You have finished all the tasks tasks!</p><p>Now, we would like to ask a few questions about you.</p>"
NA,NA,NA,NA,NA,survey-text,89,501235,0.0-89.0,SS1681494090912,64398e10912e97b8a1478925,643990439a5d3107103bc62f,1920,969,NA,1915,NA,NA,NA,NA,NA,NA,NA,NA,NA,"{""Q0"":""25""}",NA,NA,NA
NA,NA,NA,NA,NA,survey-multi-select,90,503292,0.0-90.0,SS1681494090912,64398e10912e97b8a1478925,643990439a5d3107103bc62f,1920,969,NA,2051,NA,NA,NA,NA,NA,NA,NA,NA,NA,"{""ethnicity"":[""White""]}",[0],NA,NA
NA,NA,NA,NA,NA,survey-text,91,505635,0.0-91.0,SS1681494090912,64398e10912e97b8a1478925,643990439a5d3107103bc62f,1920,969,NA,2338,NA,NA,NA,NA,NA,NA,NA,NA,NA,"{""Q0"":""Male""}",NA,NA,NA
NA,NA,NA,NA,NA,survey-multi-choice,92,508476,0.0-92.0,SS1681494090912,64398e10912e97b8a1478925,643990439a5d3107103bc62f,1920,969,NA,2836,NA,NA,NA,NA,NA,NA,NA,NA,NA,"{""education"":""High school diploma""}",[0],NA,NA
TRUE,NA,NA,NA,NA,fullscreen,93,508481,0.0-93.0,SS1681494090912,64398e10912e97b8a1478925,643990439a5d3107103bc62f,1920,969,NA,NA,NA,NA,NA,NA,NA,NA,NA,NA,NA,NA,NA,NA,NA
NA,NA,NA,NA,NA,html-button-response,94,521362,0.0-94.0,SS1681494090912,64398e10912e97b8a1478925,643990439a5d3107103bc62f,1920,969,NA,12879,NA,NA,NA,NA,NA,NA,NA,NA,NA,0,NA,NA,<p>Congratulations! You are all done! </p>Your survey code is<p><b>C90GA43K</b></p><p>Please make sure you save this somewhere safe. You will need to enter this code into Prolific to be paid.</p>
TRUE,FALSE,[],[],[],preload,0,10035,0.0-0.0,SS1681494105411,64398e10912e97b8a1478925,64399051a675291939713bf7,1920,927,NA,NA,NA,NA,NA,NA,NA,NA,NA,NA,NA,NA,NA,NA,NA
TRUE,NA,NA,NA,NA,fullscreen,1,13120,0.0-1.0,SS1681494105411,64398e10912e97b8a1478925,64399051a675291939713bf7,1920,927,NA,NA,NA,NA,NA,NA,NA,NA,NA,NA,NA,NA,NA,NA,NA
NA,NA,NA,NA,NA,instructions,2,14877,0.0-2.0,SS1681494105411,64398e10912e97b8a1478925,64399051a675291939713bf7,1920,927,"[{""page_index"":0,""viewing_time"":1754}]",1755,NA,NA,NA,NA,NA,NA,NA,NA,NA,NA,NA,NA,NA
NA,NA,NA,NA,NA,instructions,3,27118,0.0-3.0,SS1681494105411,64398e10912e97b8a1478925,64399051a675291939713bf7,1920,927,"[{""page_index"":0,""viewing_time"":4967},{""page_index"":1,""viewing_time"":5269}]",10237,instructions,NA,NA,NA,NA,NA,NA,NA,NA,NA,NA,NA,NA
NA,NA,NA,NA,NA,curtain-display,4,34672,0.0-4.0,SS1681494105411,64398e10912e97b8a1478925,64399051a675291939713bf7,1920,927,NA,4521,instructions,5021,NA,NA,NA,NA,NA,NA,NA,NA,NA,NA,NA
NA,NA,NA,NA,NA,curtain-display,5,39587,0.0-5.0,SS1681494105411,64398e10912e97b8a1478925,64399051a675291939713bf7,1920,927,NA,3907,instructions,4407,NA,NA,NA,NA,NA,NA,NA,NA,NA,NA,NA
NA,NA,NA,NA,NA,curtain-display,6,43799,0.0-6.0,SS1681494105411,64398e10912e97b8a1478925,64399051a675291939713bf7,1920,927,NA,3201,instructions,3701,NA,NA,NA,NA,NA,NA,NA,NA,NA,NA,NA
NA,NA,NA,NA,NA,instructions,7,53060,0.0-7.0,SS1681494105411,64398e10912e97b8a1478925,64399051a675291939713bf7,1920,927,"[{""page_index"":0,""viewing_time"":2282},{""page_index"":1,""viewing_time"":3008},{""page_index"":2,""viewing_time"":2311},{""page_index"":3,""viewing_time"":718},{""page_index"":4,""viewing_time"":941}]",9260,instructions,NA,NA,NA,NA,NA,NA,NA,NA,NA,NA,NA,NA
NA,NA,NA,NA,NA,curtain-display,8,57519,0.0-8.0,SS1681494105411,64398e10912e97b8a1478925,64399051a675291939713bf7,1920,927,NA,3453,NA,3953,background_block,media/padded_stims/inanimate_011_left.png,null,inanimate_pair_left,null,null,6,NA,NA,NA,NA
NA,NA,NA,NA,NA,curtain-display,9,61526,0.0-9.0,SS1681494105411,64398e10912e97b8a1478925,64399051a675291939713bf7,1920,927,NA,3000,NA,3500,background_block,media/padded_stims/inanimate_011_left.png,null,inanimate_pair_left,null,null,6,NA,NA,NA,NA
NA,NA,NA,NA,NA,curtain-display,10,68142,0.0-10.0,SS1681494105411,64398e10912e97b8a1478925,64399051a675291939713bf7,1920,927,NA,5609,NA,6109,background_block,media/padded_stims/inanimate_011_left.png,null,inanimate_pair_left,null,null,6,NA,NA,NA,NA
NA,NA,NA,NA,NA,curtain-display,11,72781,0.0-11.0,SS1681494105411,64398e10912e97b8a1478925,64399051a675291939713bf7,1920,927,NA,3633,NA,4133,background_block,media/padded_stims/inanimate_011_left.png,null,inanimate_pair_left,null,null,6,NA,NA,NA,NA
NA,NA,NA,NA,NA,curtain-display,12,76764,0.0-12.0,SS1681494105411,64398e10912e97b8a1478925,64399051a675291939713bf7,1920,927,NA,2972,NA,3472,background_block,media/padded_stims/inanimate_011_left.png,null,inanimate_pair_left,null,null,6,NA,NA,NA,NA
NA,NA,NA,NA,NA,curtain-display,13,81406,0.0-13.0,SS1681494105411,64398e10912e97b8a1478925,64399051a675291939713bf7,1920,927,NA,3632,NA,4132,background_block,media/padded_stims/inanimate_011_left.png,null,inanimate_pair_left,null,null,6,NA,NA,NA,NA
NA,NA,NA,NA,NA,survey-likert,14,84392,0.0-14.0,SS1681494105411,64398e10912e97b8a1478925,64399051a675291939713bf7,1920,927,NA,2981,NA,NA,NA,NA,NA,NA,NA,NA,NA,"{""Q0"":1}",[0],background,NA
NA,NA,NA,NA,NA,curtain-display,15,87748,0.0-15.0,SS1681494105411,64398e10912e97b8a1478925,64399051a675291939713bf7,1920,927,NA,2348,NA,2848,background_block,media/padded_stims/inanimate_009_right.png,null,inanimate_single_right,null,null,6,NA,NA,NA,NA
NA,NA,NA,NA,NA,curtain-display,16,91705,0.0-16.0,SS1681494105411,64398e10912e97b8a1478925,64399051a675291939713bf7,1920,927,NA,2945,NA,3445,background_block,media/padded_stims/inanimate_009_right.png,null,inanimate_single_right,null,null,6,NA,NA,NA,NA
NA,NA,NA,NA,NA,curtain-display,17,95561,0.0-17.0,SS1681494105411,64398e10912e97b8a1478925,64399051a675291939713bf7,1920,927,NA,2849,NA,3349,background_block,media/padded_stims/inanimate_009_right.png,null,inanimate_single_right,null,null,6,NA,NA,NA,NA
NA,NA,NA,NA,NA,curtain-display,18,98735,0.0-18.0,SS1681494105411,64398e10912e97b8a1478925,64399051a675291939713bf7,1920,927,NA,2166,NA,2666,background_block,media/padded_stims/inanimate_009_right.png,null,inanimate_single_right,null,null,6,NA,NA,NA,NA
NA,NA,NA,NA,NA,curtain-display,19,102439,0.0-19.0,SS1681494105411,64398e10912e97b8a1478925,64399051a675291939713bf7,1920,927,NA,2698,NA,3198,background_block,media/padded_stims/inanimate_009_right.png,null,inanimate_single_right,null,null,6,NA,NA,NA,NA
NA,NA,NA,NA,NA,curtain-display,20,105968,0.0-20.0,SS1681494105411,64398e10912e97b8a1478925,64399051a675291939713bf7,1920,927,NA,2523,NA,3023,background_block,media/padded_stims/inanimate_009_right.png,null,inanimate_single_right,null,null,6,NA,NA,NA,NA
NA,NA,NA,NA,NA,survey-likert,21,108546,0.0-21.0,SS1681494105411,64398e10912e97b8a1478925,64399051a675291939713bf7,1920,927,NA,2575,NA,NA,NA,NA,NA,NA,NA,NA,NA,"{""Q0"":2}",[0],background,NA
NA,NA,NA,NA,NA,curtain-display,22,111775,0.0-22.0,SS1681494105411,64398e10912e97b8a1478925,64399051a675291939713bf7,1920,927,NA,2224,NA,2724,background_block,media/padded_stims/animate_006_left.png,null,animate_pair_left,null,null,4,NA,NA,NA,NA
NA,NA,NA,NA,NA,curtain-display,23,114921,0.0-23.0,SS1681494105411,64398e10912e97b8a1478925,64399051a675291939713bf7,1920,927,NA,2139,NA,2639,background_block,media/padded_stims/animate_006_left.png,null,animate_pair_left,null,null,4,NA,NA,NA,NA
NA,NA,NA,NA,NA,curtain-display,24,117741,0.0-24.0,SS1681494105411,64398e10912e97b8a1478925,64399051a675291939713bf7,1920,927,NA,1813,NA,2313,background_block,media/padded_stims/animate_006_left.png,null,animate_pair_left,null,null,4,NA,NA,NA,NA
NA,NA,NA,NA,NA,curtain-display,25,122381,0.0-25.0,SS1681494105411,64398e10912e97b8a1478925,64399051a675291939713bf7,1920,927,NA,3635,NA,4135,background_block,media/padded_stims/animate_006_left.png,null,animate_pair_left,null,null,4,NA,NA,NA,NA
NA,NA,NA,NA,NA,survey-likert,26,125714,0.0-26.0,SS1681494105411,64398e10912e97b8a1478925,64399051a675291939713bf7,1920,927,NA,3331,NA,NA,NA,NA,NA,NA,NA,NA,NA,"{""Q0"":3}",[0],background,NA
NA,NA,NA,NA,NA,curtain-display,27,128765,0.0-27.0,SS1681494105411,64398e10912e97b8a1478925,64399051a675291939713bf7,1920,927,NA,2043,NA,2543,deviant_block,media/padded_stims/animate_008_left.png,media/padded_stims/animate_012_left.png,animate_pair_left,animate_pair_left,identity,2,NA,NA,NA,NA
NA,NA,NA,NA,NA,curtain-display,28,131760,0.0-28.0,SS1681494105411,64398e10912e97b8a1478925,64399051a675291939713bf7,1920,927,NA,1985,NA,2485,deviant_block,media/padded_stims/animate_008_left.png,media/padded_stims/animate_012_left.png,animate_pair_left,animate_pair_left,identity,2,NA,NA,NA,NA
NA,NA,NA,NA,NA,survey-likert,29,135127,0.0-29.0,SS1681494105411,64398e10912e97b8a1478925,64399051a675291939713bf7,1920,927,NA,3363,NA,NA,NA,NA,NA,NA,NA,NA,NA,"{""Q0"":4}",[0],deviant,NA
NA,NA,NA,NA,NA,curtain-display,30,138069,0.0-30.0,SS1681494105411,64398e10912e97b8a1478925,64399051a675291939713bf7,1920,927,NA,1930,NA,2430,deviant_block,media/padded_stims/inanimate_004_left.png,media/padded_stims/inanimate_003_left.png,inanimate_single_left,inanimate_pair_left,number,6,NA,NA,NA,NA
NA,NA,NA,NA,NA,curtain-display,31,140833,0.0-31.0,SS1681494105411,64398e10912e97b8a1478925,64399051a675291939713bf7,1920,927,NA,1754,NA,2254,deviant_block,media/padded_stims/inanimate_004_left.png,media/padded_stims/inanimate_003_left.png,inanimate_single_left,inanimate_pair_left,number,6,NA,NA,NA,NA
NA,NA,NA,NA,NA,curtain-display,32,143600,0.0-32.0,SS1681494105411,64398e10912e97b8a1478925,64399051a675291939713bf7,1920,927,NA,1758,NA,2258,deviant_block,media/padded_stims/inanimate_004_left.png,media/padded_stims/inanimate_003_left.png,inanimate_single_left,inanimate_pair_left,number,6,NA,NA,NA,NA
NA,NA,NA,NA,NA,curtain-display,33,146240,0.0-33.0,SS1681494105411,64398e10912e97b8a1478925,64399051a675291939713bf7,1920,927,NA,1630,NA,2130,deviant_block,media/padded_stims/inanimate_004_left.png,media/padded_stims/inanimate_003_left.png,inanimate_single_left,inanimate_pair_left,number,6,NA,NA,NA,NA
NA,NA,NA,NA,NA,curtain-display,34,149108,0.0-34.0,SS1681494105411,64398e10912e97b8a1478925,64399051a675291939713bf7,1920,927,NA,1861,NA,2361,deviant_block,media/padded_stims/inanimate_004_left.png,media/padded_stims/inanimate_003_left.png,inanimate_single_left,inanimate_pair_left,number,6,NA,NA,NA,NA
NA,NA,NA,NA,NA,curtain-display,35,162930,0.0-35.0,SS1681494105411,64398e10912e97b8a1478925,64399051a675291939713bf7,1920,927,NA,12813,NA,13313,deviant_block,media/padded_stims/inanimate_004_left.png,media/padded_stims/inanimate_003_left.png,inanimate_single_left,inanimate_pair_left,number,6,NA,NA,NA,NA
NA,NA,NA,NA,NA,survey-likert,36,166624,0.0-36.0,SS1681494105411,64398e10912e97b8a1478925,64399051a675291939713bf7,1920,927,NA,3691,NA,NA,NA,NA,NA,NA,NA,NA,NA,"{""Q0"":1}",[0],background,NA
NA,NA,NA,NA,NA,curtain-display,37,168706,0.0-37.0,SS1681494105411,64398e10912e97b8a1478925,64399051a675291939713bf7,1920,927,NA,1072,NA,1572,deviant_block,media/padded_stims/animate_002_left.png,media/padded_stims/animate_011_left.png,animate_single_left,animate_single_left,identity,6,NA,NA,NA,NA
NA,NA,NA,NA,NA,curtain-display,38,171523,0.0-38.0,SS1681494105411,64398e10912e97b8a1478925,64399051a675291939713bf7,1920,927,NA,1810,NA,2310,deviant_block,media/padded_stims/animate_002_left.png,media/padded_stims/animate_011_left.png,animate_single_left,animate_single_left,identity,6,NA,NA,NA,NA
NA,NA,NA,NA,NA,curtain-display,39,175174,0.0-39.0,SS1681494105411,64398e10912e97b8a1478925,64399051a675291939713bf7,1920,927,NA,2642,NA,3142,deviant_block,media/padded_stims/animate_002_left.png,media/padded_stims/animate_011_left.png,animate_single_left,animate_single_left,identity,6,NA,NA,NA,NA
NA,NA,NA,NA,NA,curtain-display,40,178900,0.0-40.0,SS1681494105411,64398e10912e97b8a1478925,64399051a675291939713bf7,1920,927,NA,2720,NA,3220,deviant_block,media/padded_stims/animate_002_left.png,media/padded_stims/animate_011_left.png,animate_single_left,animate_single_left,identity,6,NA,NA,NA,NA
NA,NA,NA,NA,NA,curtain-display,41,182451,0.0-41.0,SS1681494105411,64398e10912e97b8a1478925,64399051a675291939713bf7,1920,927,NA,2542,NA,3042,deviant_block,media/padded_stims/animate_002_left.png,media/padded_stims/animate_011_left.png,animate_single_left,animate_single_left,identity,6,NA,NA,NA,NA
NA,NA,NA,NA,NA,curtain-display,42,185978,0.0-42.0,SS1681494105411,64398e10912e97b8a1478925,64399051a675291939713bf7,1920,927,NA,2518,NA,3018,deviant_block,media/padded_stims/animate_002_left.png,media/padded_stims/animate_011_left.png,animate_single_left,animate_single_left,identity,6,NA,NA,NA,NA
NA,NA,NA,NA,NA,survey-likert,43,188257,0.0-43.0,SS1681494105411,64398e10912e97b8a1478925,64399051a675291939713bf7,1920,927,NA,2273,NA,NA,NA,NA,NA,NA,NA,NA,NA,"{""Q0"":2}",[0],background,NA
NA,NA,NA,NA,NA,curtain-display,44,192537,0.0-44.0,SS1681494105411,64398e10912e97b8a1478925,64399051a675291939713bf7,1920,927,NA,3270,NA,3770,background_block,media/padded_stims/inanimate_012_left.png,null,inanimate_single_left,null,null,4,NA,NA,NA,NA
NA,NA,NA,NA,NA,curtain-display,45,195075,0.0-45.0,SS1681494105411,64398e10912e97b8a1478925,64399051a675291939713bf7,1920,927,NA,1527,NA,2027,background_block,media/padded_stims/inanimate_012_left.png,null,inanimate_single_left,null,null,4,NA,NA,NA,NA
NA,NA,NA,NA,NA,curtain-display,46,197740,0.0-46.0,SS1681494105411,64398e10912e97b8a1478925,64399051a675291939713bf7,1920,927,NA,1654,NA,2154,background_block,media/padded_stims/inanimate_012_left.png,null,inanimate_single_left,null,null,4,NA,NA,NA,NA
NA,NA,NA,NA,NA,curtain-display,47,200786,0.0-47.0,SS1681494105411,64398e10912e97b8a1478925,64399051a675291939713bf7,1920,927,NA,2035,NA,2535,background_block,media/padded_stims/inanimate_012_left.png,null,inanimate_single_left,null,null,4,NA,NA,NA,NA
NA,NA,NA,NA,NA,survey-likert,48,203632,0.0-48.0,SS1681494105411,64398e10912e97b8a1478925,64399051a675291939713bf7,1920,927,NA,2841,NA,NA,NA,NA,NA,NA,NA,NA,NA,"{""Q0"":1}",[0],background,NA
NA,NA,NA,NA,NA,curtain-display,49,207422,0.0-49.0,SS1681494105411,64398e10912e97b8a1478925,64399051a675291939713bf7,1920,927,NA,2782,NA,3282,background_block,media/padded_stims/animate_007_left.png,null,animate_single_left,null,null,2,NA,NA,NA,NA
NA,NA,NA,NA,NA,curtain-display,50,209784,0.0-50.0,SS1681494105411,64398e10912e97b8a1478925,64399051a675291939713bf7,1920,927,NA,1352,NA,1852,background_block,media/padded_stims/animate_007_left.png,null,animate_single_left,null,null,2,NA,NA,NA,NA
NA,NA,NA,NA,NA,survey-likert,51,212756,0.0-51.0,SS1681494105411,64398e10912e97b8a1478925,64399051a675291939713bf7,1920,927,NA,2969,NA,NA,NA,NA,NA,NA,NA,NA,NA,"{""Q0"":3}",[0],background,NA
NA,NA,NA,NA,NA,curtain-display,52,217004,0.0-52.0,SS1681494105411,64398e10912e97b8a1478925,64399051a675291939713bf7,1920,927,NA,3239,NA,3739,deviant_block,media/padded_stims/inanimate_006_right.png,media/padded_stims/inanimate_002_right.png,inanimate_single_right,inanimate_pair_right,number,2,NA,NA,NA,NA
NA,NA,NA,NA,NA,curtain-display,53,219797,0.0-53.0,SS1681494105411,64398e10912e97b8a1478925,64399051a675291939713bf7,1920,927,NA,1784,NA,2284,deviant_block,media/padded_stims/inanimate_006_right.png,media/padded_stims/inanimate_002_right.png,inanimate_single_right,inanimate_pair_right,number,2,NA,NA,NA,NA
NA,NA,NA,NA,NA,survey-likert,54,221893,0.0-54.0,SS1681494105411,64398e10912e97b8a1478925,64399051a675291939713bf7,1920,927,NA,2091,NA,NA,NA,NA,NA,NA,NA,NA,NA,"{""Q0"":2}",[0],deviant,NA
NA,NA,NA,NA,NA,curtain-display,55,224865,0.0-55.0,SS1681494105411,64398e10912e97b8a1478925,64399051a675291939713bf7,1920,927,NA,1957,NA,2457,deviant_block,media/padded_stims/animate_006_right.png,media/padded_stims/animate_003_left.png,animate_pair_right,animate_pair_left,pose,6,NA,NA,NA,NA
NA,NA,NA,NA,NA,curtain-display,56,227608,0.0-56.0,SS1681494105411,64398e10912e97b8a1478925,64399051a675291939713bf7,1920,927,NA,1731,NA,2231,deviant_block,media/padded_stims/animate_006_right.png,media/padded_stims/animate_003_left.png,animate_pair_right,animate_pair_left,pose,6,NA,NA,NA,NA
NA,NA,NA,NA,NA,curtain-display,57,230118,0.0-57.0,SS1681494105411,64398e10912e97b8a1478925,64399051a675291939713bf7,1920,927,NA,1498,NA,1998,deviant_block,media/padded_stims/animate_006_right.png,media/padded_stims/animate_003_left.png,animate_pair_right,animate_pair_left,pose,6,NA,NA,NA,NA
NA,NA,NA,NA,NA,curtain-display,58,232556,0.0-58.0,SS1681494105411,64398e10912e97b8a1478925,64399051a675291939713bf7,1920,927,NA,1426,NA,1926,deviant_block,media/padded_stims/animate_006_right.png,media/padded_stims/animate_003_left.png,animate_pair_right,animate_pair_left,pose,6,NA,NA,NA,NA
NA,NA,NA,NA,NA,curtain-display,59,235068,0.0-59.0,SS1681494105411,64398e10912e97b8a1478925,64399051a675291939713bf7,1920,927,NA,1502,NA,2002,deviant_block,media/padded_stims/animate_006_right.png,media/padded_stims/animate_003_left.png,animate_pair_right,animate_pair_left,pose,6,NA,NA,NA,NA
NA,NA,NA,NA,NA,curtain-display,60,237454,0.0-60.0,SS1681494105411,64398e10912e97b8a1478925,64399051a675291939713bf7,1920,927,NA,1376,NA,1876,deviant_block,media/padded_stims/animate_006_right.png,media/padded_stims/animate_003_left.png,animate_pair_right,animate_pair_left,pose,6,NA,NA,NA,NA
NA,NA,NA,NA,NA,survey-likert,61,239880,0.0-61.0,SS1681494105411,64398e10912e97b8a1478925,64399051a675291939713bf7,1920,927,NA,2422,NA,NA,NA,NA,NA,NA,NA,NA,NA,"{""Q0"":3}",[0],background,NA
NA,NA,NA,NA,NA,curtain-display,62,245381,0.0-62.0,SS1681494105411,64398e10912e97b8a1478925,64399051a675291939713bf7,1920,927,NA,4491,NA,4991,background_block,media/padded_stims/animate_009_right.png,null,animate_single_right,null,null,6,NA,NA,NA,NA
NA,NA,NA,NA,NA,curtain-display,63,247944,0.0-63.0,SS1681494105411,64398e10912e97b8a1478925,64399051a675291939713bf7,1920,927,NA,1555,NA,2055,background_block,media/padded_stims/animate_009_right.png,null,animate_single_right,null,null,6,NA,NA,NA,NA
NA,NA,NA,NA,NA,curtain-display,64,250408,0.0-64.0,SS1681494105411,64398e10912e97b8a1478925,64399051a675291939713bf7,1920,927,NA,1453,NA,1953,background_block,media/padded_stims/animate_009_right.png,null,animate_single_right,null,null,6,NA,NA,NA,NA
NA,NA,NA,NA,NA,curtain-display,65,252922,0.0-65.0,SS1681494105411,64398e10912e97b8a1478925,64399051a675291939713bf7,1920,927,NA,1505,NA,2005,background_block,media/padded_stims/animate_009_right.png,null,animate_single_right,null,null,6,NA,NA,NA,NA
NA,NA,NA,NA,NA,curtain-display,66,255410,0.0-66.0,SS1681494105411,64398e10912e97b8a1478925,64399051a675291939713bf7,1920,927,NA,1481,NA,1981,background_block,media/padded_stims/animate_009_right.png,null,animate_single_right,null,null,6,NA,NA,NA,NA
NA,NA,NA,NA,NA,curtain-display,67,257897,0.0-67.0,SS1681494105411,64398e10912e97b8a1478925,64399051a675291939713bf7,1920,927,NA,1479,NA,1979,background_block,media/padded_stims/animate_009_right.png,null,animate_single_right,null,null,6,NA,NA,NA,NA
NA,NA,NA,NA,NA,survey-likert,68,260713,0.0-68.0,SS1681494105411,64398e10912e97b8a1478925,64399051a675291939713bf7,1920,927,NA,2811,NA,NA,NA,NA,NA,NA,NA,NA,NA,"{""Q0"":2}",[0],background,NA
NA,NA,NA,NA,NA,curtain-display,69,263193,0.0-69.0,SS1681494105411,64398e10912e97b8a1478925,64399051a675291939713bf7,1920,927,NA,1468,NA,1968,deviant_block,media/padded_stims/animate_012_right.png,media/padded_stims/animate_005_right.png,animate_single_right,animate_single_right,identity,6,NA,NA,NA,NA
NA,NA,NA,NA,NA,curtain-display,70,265655,0.0-70.0,SS1681494105411,64398e10912e97b8a1478925,64399051a675291939713bf7,1920,927,NA,1450,NA,1950,deviant_block,media/padded_stims/animate_012_right.png,media/padded_stims/animate_005_right.png,animate_single_right,animate_single_right,identity,6,NA,NA,NA,NA
NA,NA,NA,NA,NA,curtain-display,71,268068,0.0-71.0,SS1681494105411,64398e10912e97b8a1478925,64399051a675291939713bf7,1920,927,NA,1401,NA,1901,deviant_block,media/padded_stims/animate_012_right.png,media/padded_stims/animate_005_right.png,animate_single_right,animate_single_right,identity,6,NA,NA,NA,NA
NA,NA,NA,NA,NA,curtain-display,72,270355,0.0-72.0,SS1681494105411,64398e10912e97b8a1478925,64399051a675291939713bf7,1920,927,NA,1277,NA,1777,deviant_block,media/padded_stims/animate_012_right.png,media/padded_stims/animate_005_right.png,animate_single_right,animate_single_right,identity,6,NA,NA,NA,NA
NA,NA,NA,NA,NA,curtain-display,73,272716,0.0-73.0,SS1681494105411,64398e10912e97b8a1478925,64399051a675291939713bf7,1920,927,NA,1350,NA,1850,deviant_block,media/padded_stims/animate_012_right.png,media/padded_stims/animate_005_right.png,animate_single_right,animate_single_right,identity,6,NA,NA,NA,NA
NA,NA,NA,NA,NA,curtain-display,74,275051,0.0-74.0,SS1681494105411,64398e10912e97b8a1478925,64399051a675291939713bf7,1920,927,NA,1326,NA,1826,deviant_block,media/padded_stims/animate_012_right.png,media/padded_stims/animate_005_right.png,animate_single_right,animate_single_right,identity,6,NA,NA,NA,NA
NA,NA,NA,NA,NA,survey-likert,75,277061,0.0-75.0,SS1681494105411,64398e10912e97b8a1478925,64399051a675291939713bf7,1920,927,NA,2005,NA,NA,NA,NA,NA,NA,NA,NA,NA,"{""Q0"":4}",[0],background,NA
NA,NA,NA,NA,NA,curtain-display,76,279261,0.0-76.0,SS1681494105411,64398e10912e97b8a1478925,64399051a675291939713bf7,1920,927,NA,1190,NA,1690,background_block,media/padded_stims/animate_004_right.png,null,animate_pair_right,null,null,4,NA,NA,NA,NA
NA,NA,NA,NA,NA,curtain-display,77,281977,0.0-77.0,SS1681494105411,64398e10912e97b8a1478925,64399051a675291939713bf7,1920,927,NA,1703,NA,2203,background_block,media/padded_stims/animate_004_right.png,null,animate_pair_right,null,null,4,NA,NA,NA,NA
NA,NA,NA,NA,NA,curtain-display,78,285476,0.0-78.0,SS1681494105411,64398e10912e97b8a1478925,64399051a675291939713bf7,1920,927,NA,2486,NA,2986,background_block,media/padded_stims/animate_004_right.png,null,animate_pair_right,null,null,4,NA,NA,NA,NA
NA,NA,NA,NA,NA,curtain-display,79,288750,0.0-79.0,SS1681494105411,64398e10912e97b8a1478925,64399051a675291939713bf7,1920,927,NA,2262,NA,2762,background_block,media/padded_stims/animate_004_right.png,null,animate_pair_right,null,null,4,NA,NA,NA,NA
NA,NA,NA,NA,NA,survey-likert,80,291951,0.0-80.0,SS1681494105411,64398e10912e97b8a1478925,64399051a675291939713bf7,1920,927,NA,3195,NA,NA,NA,NA,NA,NA,NA,NA,NA,"{""Q0"":4}",[0],background,NA
NA,NA,NA,NA,NA,curtain-display,81,294269,0.0-81.0,SS1681494105411,64398e10912e97b8a1478925,64399051a675291939713bf7,1920,927,NA,1305,NA,1805,background_block,media/padded_stims/inanimate_007_right.png,null,inanimate_pair_right,null,null,6,NA,NA,NA,NA
NA,NA,NA,NA,NA,curtain-display,82,296048,0.0-82.0,SS1681494105411,64398e10912e97b8a1478925,64399051a675291939713bf7,1920,927,NA,768,NA,1268,background_block,media/padded_stims/inanimate_007_right.png,null,inanimate_pair_right,null,null,6,NA,NA,NA,NA
NA,NA,NA,NA,NA,curtain-display,83,298306,0.0-83.0,SS1681494105411,64398e10912e97b8a1478925,64399051a675291939713bf7,1920,927,NA,1243,NA,1743,background_block,media/padded_stims/inanimate_007_right.png,null,inanimate_pair_right,null,null,6,NA,NA,NA,NA
NA,NA,NA,NA,NA,curtain-display,84,300945,0.0-84.0,SS1681494105411,64398e10912e97b8a1478925,64399051a675291939713bf7,1920,927,NA,1628,NA,2128,background_block,media/padded_stims/inanimate_007_right.png,null,inanimate_pair_right,null,null,6,NA,NA,NA,NA
NA,NA,NA,NA,NA,curtain-display,85,303408,0.0-85.0,SS1681494105411,64398e10912e97b8a1478925,64399051a675291939713bf7,1920,927,NA,1449,NA,1949,background_block,media/padded_stims/inanimate_007_right.png,null,inanimate_pair_right,null,null,6,NA,NA,NA,NA
NA,NA,NA,NA,NA,curtain-display,86,305643,0.0-86.0,SS1681494105411,64398e10912e97b8a1478925,64399051a675291939713bf7,1920,927,NA,1221,NA,1721,background_block,media/padded_stims/inanimate_007_right.png,null,inanimate_pair_right,null,null,6,NA,NA,NA,NA
NA,NA,NA,NA,NA,survey-likert,87,308606,0.0-87.0,SS1681494105411,64398e10912e97b8a1478925,64399051a675291939713bf7,1920,927,NA,2957,NA,NA,NA,NA,NA,NA,NA,NA,NA,"{""Q0"":1}",[0],background,NA
NA,NA,NA,NA,NA,curtain-display,88,310963,0.0-88.0,SS1681494105411,64398e10912e97b8a1478925,64399051a675291939713bf7,1920,927,NA,1344,NA,1844,deviant_block,media/padded_stims/inanimate_003_right.png,media/padded_stims/inanimate_012_right.png,inanimate_pair_right,inanimate_pair_right,identity,2,NA,NA,NA,NA
NA,NA,NA,NA,NA,curtain-display,89,313150,0.0-89.0,SS1681494105411,64398e10912e97b8a1478925,64399051a675291939713bf7,1920,927,NA,1176,NA,1676,deviant_block,media/padded_stims/inanimate_003_right.png,media/padded_stims/inanimate_012_right.png,inanimate_pair_right,inanimate_pair_right,identity,2,NA,NA,NA,NA
NA,NA,NA,NA,NA,survey-likert,90,315473,0.0-90.0,SS1681494105411,64398e10912e97b8a1478925,64399051a675291939713bf7,1920,927,NA,2318,NA,NA,NA,NA,NA,NA,NA,NA,NA,"{""Q0"":2}",[0],deviant,NA
NA,NA,NA,NA,NA,curtain-display,91,317681,0.0-91.0,SS1681494105411,64398e10912e97b8a1478925,64399051a675291939713bf7,1920,927,NA,1193,NA,1693,deviant_block,media/padded_stims/inanimate_009_left.png,media/padded_stims/inanimate_007_left.png,inanimate_pair_left,inanimate_single_left,number,6,NA,NA,NA,NA
NA,NA,NA,NA,NA,curtain-display,92,319765,0.0-92.0,SS1681494105411,64398e10912e97b8a1478925,64399051a675291939713bf7,1920,927,NA,1071,NA,1571,deviant_block,media/padded_stims/inanimate_009_left.png,media/padded_stims/inanimate_007_left.png,inanimate_pair_left,inanimate_single_left,number,6,NA,NA,NA,NA
NA,NA,NA,NA,NA,curtain-display,93,321394,0.0-93.0,SS1681494105411,64398e10912e97b8a1478925,64399051a675291939713bf7,1920,927,NA,617,NA,1117,deviant_block,media/padded_stims/inanimate_009_left.png,media/padded_stims/inanimate_007_left.png,inanimate_pair_left,inanimate_single_left,number,6,NA,NA,NA,NA
NA,NA,NA,NA,NA,curtain-display,94,322945,0.0-94.0,SS1681494105411,64398e10912e97b8a1478925,64399051a675291939713bf7,1920,927,NA,533,NA,1033,deviant_block,media/padded_stims/inanimate_009_left.png,media/padded_stims/inanimate_007_left.png,inanimate_pair_left,inanimate_single_left,number,6,NA,NA,NA,NA
NA,NA,NA,NA,NA,curtain-display,95,324397,0.0-95.0,SS1681494105411,64398e10912e97b8a1478925,64399051a675291939713bf7,1920,927,NA,440,NA,940,deviant_block,media/padded_stims/inanimate_009_left.png,media/padded_stims/inanimate_007_left.png,inanimate_pair_left,inanimate_single_left,number,6,NA,NA,NA,NA
NA,NA,NA,NA,NA,curtain-display,96,325869,0.0-96.0,SS1681494105411,64398e10912e97b8a1478925,64399051a675291939713bf7,1920,927,NA,456,NA,956,deviant_block,media/padded_stims/inanimate_009_left.png,media/padded_stims/inanimate_007_left.png,inanimate_pair_left,inanimate_single_left,number,6,NA,NA,NA,NA
NA,NA,NA,NA,NA,survey-likert,97,328715,0.0-97.0,SS1681494105411,64398e10912e97b8a1478925,64399051a675291939713bf7,1920,927,NA,2837,NA,NA,NA,NA,NA,NA,NA,NA,NA,"{""Q0"":0}",[0],background,NA
NA,NA,NA,NA,NA,html-button-response,98,330036,0.0-98.0,SS1681494105411,64398e10912e97b8a1478925,64399051a675291939713bf7,1920,927,NA,1316,NA,NA,NA,NA,NA,NA,NA,NA,NA,0,NA,NA,"<p>Congratulations! You have finished all the tasks tasks!</p><p>Now, we would like to ask a few questions about you.</p>"
NA,NA,NA,NA,NA,survey-text,99,332663,0.0-99.0,SS1681494105411,64398e10912e97b8a1478925,64399051a675291939713bf7,1920,927,NA,2622,NA,NA,NA,NA,NA,NA,NA,NA,NA,"{""Q0"":""19""}",NA,NA,NA
NA,NA,NA,NA,NA,survey-multi-select,100,334288,0.0-100.0,SS1681494105411,64398e10912e97b8a1478925,64399051a675291939713bf7,1920,927,NA,1619,NA,NA,NA,NA,NA,NA,NA,NA,NA,"{""ethnicity"":[""White""]}",[0],NA,NA
NA,NA,NA,NA,NA,survey-text,101,336516,0.0-101.0,SS1681494105411,64398e10912e97b8a1478925,64399051a675291939713bf7,1920,927,NA,2221,NA,NA,NA,NA,NA,NA,NA,NA,NA,"{""Q0"":""Male""}",NA,NA,NA
NA,NA,NA,NA,NA,survey-multi-choice,102,338666,0.0-102.0,SS1681494105411,64398e10912e97b8a1478925,64399051a675291939713bf7,1920,927,NA,2147,NA,NA,NA,NA,NA,NA,NA,NA,NA,"{""education"":""High school diploma""}",[0],NA,NA
TRUE,NA,NA,NA,NA,fullscreen,103,338672,0.0-103.0,SS1681494105411,64398e10912e97b8a1478925,64399051a675291939713bf7,1920,927,NA,NA,NA,NA,NA,NA,NA,NA,NA,NA,NA,NA,NA,NA,NA
NA,NA,NA,NA,NA,html-button-response,104,348529,0.0-104.0,SS1681494105411,64398e10912e97b8a1478925,64399051a675291939713bf7,1920,927,NA,9854,NA,NA,NA,NA,NA,NA,NA,NA,NA,0,NA,NA,<p>Congratulations! You are all done! </p>Your survey code is<p><b>C90GA43K</b></p><p>Please make sure you save this somewhere safe. You will need to enter this code into Prolific to be paid.</p>
TRUE,FALSE,[],[],[],preload,0,867,0.0-0.0,SS1681494108242,64398e10912e97b8a1478925,64399054722af02830d9f0c5,1440,691,NA,NA,NA,NA,NA,NA,NA,NA,NA,NA,NA,NA,NA,NA,NA
TRUE,NA,NA,NA,NA,fullscreen,1,5475,0.0-1.0,SS1681494108242,64398e10912e97b8a1478925,64399054722af02830d9f0c5,1440,691,NA,NA,NA,NA,NA,NA,NA,NA,NA,NA,NA,NA,NA,NA,NA
NA,NA,NA,NA,NA,instructions,2,9478,0.0-2.0,SS1681494108242,64398e10912e97b8a1478925,64399054722af02830d9f0c5,1440,691,"[{""page_index"":0,""viewing_time"":3999}]",4000,NA,NA,NA,NA,NA,NA,NA,NA,NA,NA,NA,NA,NA
NA,NA,NA,NA,NA,instructions,3,27948,0.0-3.0,SS1681494108242,64398e10912e97b8a1478925,64399054722af02830d9f0c5,1440,691,"[{""page_index"":0,""viewing_time"":7806},{""page_index"":1,""viewing_time"":8654}]",16460,instructions,NA,NA,NA,NA,NA,NA,NA,NA,NA,NA,NA,NA
NA,NA,NA,NA,NA,curtain-display,4,33190,0.0-4.0,SS1681494108242,64398e10912e97b8a1478925,64399054722af02830d9f0c5,1440,691,NA,4189,instructions,4689,NA,NA,NA,NA,NA,NA,NA,NA,NA,NA,NA
NA,NA,NA,NA,NA,curtain-display,5,37348,0.0-5.0,SS1681494108242,64398e10912e97b8a1478925,64399054722af02830d9f0c5,1440,691,NA,3125,instructions,3625,NA,NA,NA,NA,NA,NA,NA,NA,NA,NA,NA
NA,NA,NA,NA,NA,curtain-display,6,46342,0.0-6.0,SS1681494108242,64398e10912e97b8a1478925,64399054722af02830d9f0c5,1440,691,NA,7980,instructions,8480,NA,NA,NA,NA,NA,NA,NA,NA,NA,NA,NA
NA,NA,NA,NA,NA,instructions,7,59234,0.0-7.0,SS1681494108242,64398e10912e97b8a1478925,64399054722af02830d9f0c5,1440,691,"[{""page_index"":0,""viewing_time"":4173},{""page_index"":1,""viewing_time"":3717},{""page_index"":2,""viewing_time"":2631},{""page_index"":3,""viewing_time"":1251},{""page_index"":4,""viewing_time"":1117}]",12890,instructions,NA,NA,NA,NA,NA,NA,NA,NA,NA,NA,NA,NA
NA,NA,NA,NA,NA,curtain-display,8,63421,0.0-8.0,SS1681494108242,64398e10912e97b8a1478925,64399054722af02830d9f0c5,1440,691,NA,3158,NA,3658,deviant_block,media/padded_stims/animate_005_left.png,media/padded_stims/animate_009_left.png,animate_pair_left,animate_pair_left,identity,2,NA,NA,NA,NA
NA,NA,NA,NA,NA,curtain-display,9,67728,0.0-9.0,SS1681494108242,64398e10912e97b8a1478925,64399054722af02830d9f0c5,1440,691,NA,3289,NA,3789,deviant_block,media/padded_stims/animate_005_left.png,media/padded_stims/animate_009_left.png,animate_pair_left,animate_pair_left,identity,2,NA,NA,NA,NA
NA,NA,NA,NA,NA,survey-likert,10,70350,0.0-10.0,SS1681494108242,64398e10912e97b8a1478925,64399054722af02830d9f0c5,1440,691,NA,2617,NA,NA,NA,NA,NA,NA,NA,NA,NA,"{""Q0"":2}",[0],background,NA
NA,NA,NA,NA,NA,curtain-display,11,73190,0.0-11.0,SS1681494108242,64398e10912e97b8a1478925,64399054722af02830d9f0c5,1440,691,NA,1817,NA,2317,deviant_block,media/padded_stims/animate_012_right.png,media/padded_stims/inanimate_006_right.png,animate_single_right,inanimate_single_right,animacy,2,NA,NA,NA,NA
NA,NA,NA,NA,NA,curtain-display,12,76273,0.0-12.0,SS1681494108242,64398e10912e97b8a1478925,64399054722af02830d9f0c5,1440,691,NA,2064,NA,2564,deviant_block,media/padded_stims/animate_012_right.png,media/padded_stims/inanimate_006_right.png,animate_single_right,inanimate_single_right,animacy,2,NA,NA,NA,NA
NA,NA,NA,NA,NA,survey-likert,13,78755,0.0-13.0,SS1681494108242,64398e10912e97b8a1478925,64399054722af02830d9f0c5,1440,691,NA,2479,NA,NA,NA,NA,NA,NA,NA,NA,NA,"{""Q0"":1}",[0],background,NA
NA,NA,NA,NA,NA,curtain-display,14,83007,0.0-14.0,SS1681494108242,64398e10912e97b8a1478925,64399054722af02830d9f0c5,1440,691,NA,3223,NA,3723,background_block,media/padded_stims/animate_001_right.png,null,animate_pair_right,null,null,2,NA,NA,NA,NA
NA,NA,NA,NA,NA,curtain-display,15,85310,0.0-15.0,SS1681494108242,64398e10912e97b8a1478925,64399054722af02830d9f0c5,1440,691,NA,1284,NA,1784,background_block,media/padded_stims/animate_001_right.png,null,animate_pair_right,null,null,2,NA,NA,NA,NA
NA,NA,NA,NA,NA,survey-likert,16,88023,0.0-16.0,SS1681494108242,64398e10912e97b8a1478925,64399054722af02830d9f0c5,1440,691,NA,2706,NA,NA,NA,NA,NA,NA,NA,NA,NA,"{""Q0"":1}",[0],background,NA
NA,NA,NA,NA,NA,curtain-display,17,92080,0.0-17.0,SS1681494108242,64398e10912e97b8a1478925,64399054722af02830d9f0c5,1440,691,NA,3036,NA,3536,deviant_block,media/padded_stims/inanimate_011_right.png,media/padded_stims/inanimate_002_right.png,inanimate_pair_right,inanimate_pair_right,identity,2,NA,NA,NA,NA
NA,NA,NA,NA,NA,curtain-display,18,96046,0.0-18.0,SS1681494108242,64398e10912e97b8a1478925,64399054722af02830d9f0c5,1440,691,NA,2944,NA,3444,deviant_block,media/padded_stims/inanimate_011_right.png,media/padded_stims/inanimate_002_right.png,inanimate_pair_right,inanimate_pair_right,identity,2,NA,NA,NA,NA
NA,NA,NA,NA,NA,survey-likert,19,98359,0.0-19.0,SS1681494108242,64398e10912e97b8a1478925,64399054722af02830d9f0c5,1440,691,NA,2309,NA,NA,NA,NA,NA,NA,NA,NA,NA,"{""Q0"":4}",[0],background,NA
NA,NA,NA,NA,NA,curtain-display,20,102277,0.0-20.0,SS1681494108242,64398e10912e97b8a1478925,64399054722af02830d9f0c5,1440,691,NA,2891,NA,3391,background_block,media/padded_stims/animate_009_right.png,null,animate_single_right,null,null,2,NA,NA,NA,NA
NA,NA,NA,NA,NA,curtain-display,21,105764,0.0-21.0,SS1681494108242,64398e10912e97b8a1478925,64399054722af02830d9f0c5,1440,691,NA,2470,NA,2970,background_block,media/padded_stims/animate_009_right.png,null,animate_single_right,null,null,2,NA,NA,NA,NA
NA,NA,NA,NA,NA,survey-likert,22,109005,0.0-22.0,SS1681494108242,64398e10912e97b8a1478925,64399054722af02830d9f0c5,1440,691,NA,3237,NA,NA,NA,NA,NA,NA,NA,NA,NA,"{""Q0"":2}",[0],background,NA
NA,NA,NA,NA,NA,curtain-display,23,113526,0.0-23.0,SS1681494108242,64398e10912e97b8a1478925,64399054722af02830d9f0c5,1440,691,NA,3497,NA,3997,deviant_block,media/padded_stims/animate_010_right.png,media/padded_stims/inanimate_005_right.png,animate_pair_right,inanimate_pair_right,animacy,6,NA,NA,NA,NA
NA,NA,NA,NA,NA,curtain-display,24,116252,0.0-24.0,SS1681494108242,64398e10912e97b8a1478925,64399054722af02830d9f0c5,1440,691,NA,1715,NA,2215,deviant_block,media/padded_stims/animate_010_right.png,media/padded_stims/inanimate_005_right.png,animate_pair_right,inanimate_pair_right,animacy,6,NA,NA,NA,NA
NA,NA,NA,NA,NA,curtain-display,25,119452,0.0-25.0,SS1681494108242,64398e10912e97b8a1478925,64399054722af02830d9f0c5,1440,691,NA,2177,NA,2677,deviant_block,media/padded_stims/animate_010_right.png,media/padded_stims/inanimate_005_right.png,animate_pair_right,inanimate_pair_right,animacy,6,NA,NA,NA,NA
NA,NA,NA,NA,NA,curtain-display,26,122381,0.0-26.0,SS1681494108242,64398e10912e97b8a1478925,64399054722af02830d9f0c5,1440,691,NA,1908,NA,2408,deviant_block,media/padded_stims/animate_010_right.png,media/padded_stims/inanimate_005_right.png,animate_pair_right,inanimate_pair_right,animacy,6,NA,NA,NA,NA
NA,NA,NA,NA,NA,curtain-display,27,124909,0.0-27.0,SS1681494108242,64398e10912e97b8a1478925,64399054722af02830d9f0c5,1440,691,NA,1492,NA,1992,deviant_block,media/padded_stims/animate_010_right.png,media/padded_stims/inanimate_005_right.png,animate_pair_right,inanimate_pair_right,animacy,6,NA,NA,NA,NA
NA,NA,NA,NA,NA,curtain-display,28,129064,0.0-28.0,SS1681494108242,64398e10912e97b8a1478925,64399054722af02830d9f0c5,1440,691,NA,3133,NA,3633,deviant_block,media/padded_stims/animate_010_right.png,media/padded_stims/inanimate_005_right.png,animate_pair_right,inanimate_pair_right,animacy,6,NA,NA,NA,NA
NA,NA,NA,NA,NA,survey-likert,29,132671,0.0-29.0,SS1681494108242,64398e10912e97b8a1478925,64399054722af02830d9f0c5,1440,691,NA,3603,NA,NA,NA,NA,NA,NA,NA,NA,NA,"{""Q0"":1}",[0],background,NA
NA,NA,NA,NA,NA,curtain-display,30,135966,0.0-30.0,SS1681494108242,64398e10912e97b8a1478925,64399054722af02830d9f0c5,1440,691,NA,2259,NA,2759,background_block,media/padded_stims/animate_001_left.png,null,animate_single_left,null,null,6,NA,NA,NA,NA
NA,NA,NA,NA,NA,curtain-display,31,138942,0.0-31.0,SS1681494108242,64398e10912e97b8a1478925,64399054722af02830d9f0c5,1440,691,NA,1887,NA,2387,background_block,media/padded_stims/animate_001_left.png,null,animate_single_left,null,null,6,NA,NA,NA,NA
NA,NA,NA,NA,NA,curtain-display,32,141838,0.0-32.0,SS1681494108242,64398e10912e97b8a1478925,64399054722af02830d9f0c5,1440,691,NA,1866,NA,2366,background_block,media/padded_stims/animate_001_left.png,null,animate_single_left,null,null,6,NA,NA,NA,NA
NA,NA,NA,NA,NA,curtain-display,33,144123,0.0-33.0,SS1681494108242,64398e10912e97b8a1478925,64399054722af02830d9f0c5,1440,691,NA,1274,NA,1774,background_block,media/padded_stims/animate_001_left.png,null,animate_single_left,null,null,6,NA,NA,NA,NA
NA,NA,NA,NA,NA,curtain-display,34,146934,0.0-34.0,SS1681494108242,64398e10912e97b8a1478925,64399054722af02830d9f0c5,1440,691,NA,1783,NA,2283,background_block,media/padded_stims/animate_001_left.png,null,animate_single_left,null,null,6,NA,NA,NA,NA
NA,NA,NA,NA,NA,curtain-display,35,148405,0.0-35.0,SS1681494108242,64398e10912e97b8a1478925,64399054722af02830d9f0c5,1440,691,NA,456,NA,956,background_block,media/padded_stims/animate_001_left.png,null,animate_single_left,null,null,6,NA,NA,NA,NA
NA,NA,NA,NA,NA,survey-likert,36,151412,0.0-36.0,SS1681494108242,64398e10912e97b8a1478925,64399054722af02830d9f0c5,1440,691,NA,3002,NA,NA,NA,NA,NA,NA,NA,NA,NA,"{""Q0"":0}",[0],background,NA
NA,NA,NA,NA,NA,curtain-display,37,154989,0.0-37.0,SS1681494108242,64398e10912e97b8a1478925,64399054722af02830d9f0c5,1440,691,NA,2549,NA,3049,deviant_block,media/padded_stims/inanimate_004_right.png,media/padded_stims/inanimate_012_right.png,inanimate_single_right,inanimate_pair_right,number,4,NA,NA,NA,NA
NA,NA,NA,NA,NA,curtain-display,38,157685,0.0-38.0,SS1681494108242,64398e10912e97b8a1478925,64399054722af02830d9f0c5,1440,691,NA,1675,NA,2175,deviant_block,media/padded_stims/inanimate_004_right.png,media/padded_stims/inanimate_012_right.png,inanimate_single_right,inanimate_pair_right,number,4,NA,NA,NA,NA
NA,NA,NA,NA,NA,curtain-display,39,161775,0.0-39.0,SS1681494108242,64398e10912e97b8a1478925,64399054722af02830d9f0c5,1440,691,NA,3059,NA,3559,deviant_block,media/padded_stims/inanimate_004_right.png,media/padded_stims/inanimate_012_right.png,inanimate_single_right,inanimate_pair_right,number,4,NA,NA,NA,NA
NA,NA,NA,NA,NA,curtain-display,40,165273,0.0-40.0,SS1681494108242,64398e10912e97b8a1478925,64399054722af02830d9f0c5,1440,691,NA,2477,NA,2977,deviant_block,media/padded_stims/inanimate_004_right.png,media/padded_stims/inanimate_012_right.png,inanimate_single_right,inanimate_pair_right,number,4,NA,NA,NA,NA
NA,NA,NA,NA,NA,survey-likert,41,168547,0.0-41.0,SS1681494108242,64398e10912e97b8a1478925,64399054722af02830d9f0c5,1440,691,NA,3269,NA,NA,NA,NA,NA,NA,NA,NA,NA,"{""Q0"":1}",[0],deviant,NA
NA,NA,NA,NA,NA,curtain-display,42,172245,0.0-42.0,SS1681494108242,64398e10912e97b8a1478925,64399054722af02830d9f0c5,1440,691,NA,2670,NA,3170,background_block,media/padded_stims/inanimate_010_right.png,null,inanimate_single_right,null,null,6,NA,NA,NA,NA
NA,NA,NA,NA,NA,curtain-display,43,176854,0.0-43.0,SS1681494108242,64398e10912e97b8a1478925,64399054722af02830d9f0c5,1440,691,NA,3593,NA,4093,background_block,media/padded_stims/inanimate_010_right.png,null,inanimate_single_right,null,null,6,NA,NA,NA,NA
NA,NA,NA,NA,NA,curtain-display,44,180559,0.0-44.0,SS1681494108242,64398e10912e97b8a1478925,64399054722af02830d9f0c5,1440,691,NA,2680,NA,3180,background_block,media/padded_stims/inanimate_010_right.png,null,inanimate_single_right,null,null,6,NA,NA,NA,NA
NA,NA,NA,NA,NA,curtain-display,45,184142,0.0-45.0,SS1681494108242,64398e10912e97b8a1478925,64399054722af02830d9f0c5,1440,691,NA,2557,NA,3057,background_block,media/padded_stims/inanimate_010_right.png,null,inanimate_single_right,null,null,6,NA,NA,NA,NA
NA,NA,NA,NA,NA,curtain-display,46,190046,0.0-46.0,SS1681494108242,64398e10912e97b8a1478925,64399054722af02830d9f0c5,1440,691,NA,4885,NA,5385,background_block,media/padded_stims/inanimate_010_right.png,null,inanimate_single_right,null,null,6,NA,NA,NA,NA
NA,NA,NA,NA,NA,curtain-display,47,194911,0.0-47.0,SS1681494108242,64398e10912e97b8a1478925,64399054722af02830d9f0c5,1440,691,NA,3837,NA,4337,background_block,media/padded_stims/inanimate_010_right.png,null,inanimate_single_right,null,null,6,NA,NA,NA,NA
NA,NA,NA,NA,NA,survey-likert,48,200235,0.0-48.0,SS1681494108242,64398e10912e97b8a1478925,64399054722af02830d9f0c5,1440,691,NA,5319,NA,NA,NA,NA,NA,NA,NA,NA,NA,"{""Q0"":2}",[0],background,NA
NA,NA,NA,NA,NA,curtain-display,49,205224,0.0-49.0,SS1681494108242,64398e10912e97b8a1478925,64399054722af02830d9f0c5,1440,691,NA,3955,NA,4455,background_block,media/padded_stims/animate_007_left.png,null,animate_pair_left,null,null,6,NA,NA,NA,NA
NA,NA,NA,NA,NA,curtain-display,50,210079,0.0-50.0,SS1681494108242,64398e10912e97b8a1478925,64399054722af02830d9f0c5,1440,691,NA,3836,NA,4336,background_block,media/padded_stims/animate_007_left.png,null,animate_pair_left,null,null,6,NA,NA,NA,NA
NA,NA,NA,NA,NA,curtain-display,51,214592,0.0-51.0,SS1681494108242,64398e10912e97b8a1478925,64399054722af02830d9f0c5,1440,691,NA,3492,NA,3992,background_block,media/padded_stims/animate_007_left.png,null,animate_pair_left,null,null,6,NA,NA,NA,NA
NA,NA,NA,NA,NA,curtain-display,52,217928,0.0-52.0,SS1681494108242,64398e10912e97b8a1478925,64399054722af02830d9f0c5,1440,691,NA,2319,NA,2819,background_block,media/padded_stims/animate_007_left.png,null,animate_pair_left,null,null,6,NA,NA,NA,NA
NA,NA,NA,NA,NA,curtain-display,53,220443,0.0-53.0,SS1681494108242,64398e10912e97b8a1478925,64399054722af02830d9f0c5,1440,691,NA,1482,NA,1982,background_block,media/padded_stims/animate_007_left.png,null,animate_pair_left,null,null,6,NA,NA,NA,NA
NA,NA,NA,NA,NA,curtain-display,54,223575,0.0-54.0,SS1681494108242,64398e10912e97b8a1478925,64399054722af02830d9f0c5,1440,691,NA,2122,NA,2622,background_block,media/padded_stims/animate_007_left.png,null,animate_pair_left,null,null,6,NA,NA,NA,NA
NA,NA,NA,NA,NA,survey-likert,55,225990,0.0-55.0,SS1681494108242,64398e10912e97b8a1478925,64399054722af02830d9f0c5,1440,691,NA,2410,NA,NA,NA,NA,NA,NA,NA,NA,NA,"{""Q0"":2}",[0],background,NA
NA,NA,NA,NA,NA,curtain-display,56,229336,0.0-56.0,SS1681494108242,64398e10912e97b8a1478925,64399054722af02830d9f0c5,1440,691,NA,2321,NA,2821,deviant_block,media/padded_stims/animate_012_left.png,media/padded_stims/inanimate_002_left.png,animate_single_left,inanimate_single_left,animacy,4,NA,NA,NA,NA
NA,NA,NA,NA,NA,curtain-display,57,233175,0.0-57.0,SS1681494108242,64398e10912e97b8a1478925,64399054722af02830d9f0c5,1440,691,NA,2821,NA,3321,deviant_block,media/padded_stims/animate_012_left.png,media/padded_stims/inanimate_002_left.png,animate_single_left,inanimate_single_left,animacy,4,NA,NA,NA,NA
NA,NA,NA,NA,NA,curtain-display,58,243240,0.0-58.0,SS1681494108242,64398e10912e97b8a1478925,64399054722af02830d9f0c5,1440,691,NA,9038,NA,9538,deviant_block,media/padded_stims/animate_012_left.png,media/padded_stims/inanimate_002_left.png,animate_single_left,inanimate_single_left,animacy,4,NA,NA,NA,NA
NA,NA,NA,NA,NA,curtain-display,59,249768,0.0-59.0,SS1681494108242,64398e10912e97b8a1478925,64399054722af02830d9f0c5,1440,691,NA,5500,NA,6000,deviant_block,media/padded_stims/animate_012_left.png,media/padded_stims/inanimate_002_left.png,animate_single_left,inanimate_single_left,animacy,4,NA,NA,NA,NA
NA,NA,NA,NA,NA,survey-likert,60,252373,0.0-60.0,SS1681494108242,64398e10912e97b8a1478925,64399054722af02830d9f0c5,1440,691,NA,2600,NA,NA,NA,NA,NA,NA,NA,NA,NA,"{""Q0"":1}",[0],background,NA
NA,NA,NA,NA,NA,curtain-display,61,258914,0.0-61.0,SS1681494108242,64398e10912e97b8a1478925,64399054722af02830d9f0c5,1440,691,NA,5510,NA,6010,background_block,media/padded_stims/inanimate_003_left.png,null,inanimate_single_left,null,null,6,NA,NA,NA,NA
NA,NA,NA,NA,NA,curtain-display,62,263937,0.0-62.0,SS1681494108242,64398e10912e97b8a1478925,64399054722af02830d9f0c5,1440,691,NA,3995,NA,4495,background_block,media/padded_stims/inanimate_003_left.png,null,inanimate_single_left,null,null,6,NA,NA,NA,NA
NA,NA,NA,NA,NA,curtain-display,63,267482,0.0-63.0,SS1681494108242,64398e10912e97b8a1478925,64399054722af02830d9f0c5,1440,691,NA,2527,NA,3027,background_block,media/padded_stims/inanimate_003_left.png,null,inanimate_single_left,null,null,6,NA,NA,NA,NA
NA,NA,NA,NA,NA,curtain-display,64,276273,0.0-64.0,SS1681494108242,64398e10912e97b8a1478925,64399054722af02830d9f0c5,1440,691,NA,7761,NA,8261,background_block,media/padded_stims/inanimate_003_left.png,null,inanimate_single_left,null,null,6,NA,NA,NA,NA
NA,NA,NA,NA,NA,curtain-display,65,280937,0.0-65.0,SS1681494108242,64398e10912e97b8a1478925,64399054722af02830d9f0c5,1440,691,NA,3638,NA,4138,background_block,media/padded_stims/inanimate_003_left.png,null,inanimate_single_left,null,null,6,NA,NA,NA,NA
NA,NA,NA,NA,NA,curtain-display,66,285802,0.0-66.0,SS1681494108242,64398e10912e97b8a1478925,64399054722af02830d9f0c5,1440,691,NA,3846,NA,4346,background_block,media/padded_stims/inanimate_003_left.png,null,inanimate_single_left,null,null,6,NA,NA,NA,NA
NA,NA,NA,NA,NA,survey-likert,67,290677,0.0-67.0,SS1681494108242,64398e10912e97b8a1478925,64399054722af02830d9f0c5,1440,691,NA,4870,NA,NA,NA,NA,NA,NA,NA,NA,NA,"{""Q0"":2}",[0],background,NA
NA,NA,NA,NA,NA,curtain-display,68,296985,0.0-68.0,SS1681494108242,64398e10912e97b8a1478925,64399054722af02830d9f0c5,1440,691,NA,5279,NA,5779,deviant_block,media/padded_stims/inanimate_010_left.png,media/padded_stims/inanimate_008_left.png,inanimate_pair_left,inanimate_single_left,number,2,NA,NA,NA,NA
NA,NA,NA,NA,NA,curtain-display,69,300377,0.0-69.0,SS1681494108242,64398e10912e97b8a1478925,64399054722af02830d9f0c5,1440,691,NA,2355,NA,2855,deviant_block,media/padded_stims/inanimate_010_left.png,media/padded_stims/inanimate_008_left.png,inanimate_pair_left,inanimate_single_left,number,2,NA,NA,NA,NA
NA,NA,NA,NA,NA,survey-likert,70,302576,0.0-70.0,SS1681494108242,64398e10912e97b8a1478925,64399054722af02830d9f0c5,1440,691,NA,2196,NA,NA,NA,NA,NA,NA,NA,NA,NA,"{""Q0"":3}",[0],deviant,NA
NA,NA,NA,NA,NA,curtain-display,71,305187,0.0-71.0,SS1681494108242,64398e10912e97b8a1478925,64399054722af02830d9f0c5,1440,691,NA,1582,NA,2082,background_block,media/padded_stims/inanimate_003_right.png,null,inanimate_pair_right,null,null,2,NA,NA,NA,NA
NA,NA,NA,NA,NA,curtain-display,72,307420,0.0-72.0,SS1681494108242,64398e10912e97b8a1478925,64399054722af02830d9f0c5,1440,691,NA,1205,NA,1705,background_block,media/padded_stims/inanimate_003_right.png,null,inanimate_pair_right,null,null,2,NA,NA,NA,NA
NA,NA,NA,NA,NA,survey-likert,73,311335,0.0-73.0,SS1681494108242,64398e10912e97b8a1478925,64399054722af02830d9f0c5,1440,691,NA,3908,NA,NA,NA,NA,NA,NA,NA,NA,NA,"{""Q0"":2}",[0],background,NA
NA,NA,NA,NA,NA,curtain-display,74,327797,0.0-74.0,SS1681494108242,64398e10912e97b8a1478925,64399054722af02830d9f0c5,1440,691,NA,15421,NA,15921,deviant_block,media/padded_stims/inanimate_011_left.png,media/padded_stims/animate_004_left.png,inanimate_single_left,animate_single_left,animacy,6,NA,NA,NA,NA
NA,NA,NA,NA,NA,curtain-display,75,330267,0.0-75.0,SS1681494108242,64398e10912e97b8a1478925,64399054722af02830d9f0c5,1440,691,NA,1411,NA,1911,deviant_block,media/padded_stims/inanimate_011_left.png,media/padded_stims/animate_004_left.png,inanimate_single_left,animate_single_left,animacy,6,NA,NA,NA,NA
NA,NA,NA,NA,NA,curtain-display,76,334965,0.0-76.0,SS1681494108242,64398e10912e97b8a1478925,64399054722af02830d9f0c5,1440,691,NA,3640,NA,4140,deviant_block,media/padded_stims/inanimate_011_left.png,media/padded_stims/animate_004_left.png,inanimate_single_left,animate_single_left,animacy,6,NA,NA,NA,NA
NA,NA,NA,NA,NA,curtain-display,77,338953,0.0-77.0,SS1681494108242,64398e10912e97b8a1478925,64399054722af02830d9f0c5,1440,691,NA,2932,NA,3432,deviant_block,media/padded_stims/inanimate_011_left.png,media/padded_stims/animate_004_left.png,inanimate_single_left,animate_single_left,animacy,6,NA,NA,NA,NA
NA,NA,NA,NA,NA,curtain-display,78,340947,0.0-78.0,SS1681494108242,64398e10912e97b8a1478925,64399054722af02830d9f0c5,1440,691,NA,940,NA,1440,deviant_block,media/padded_stims/inanimate_011_left.png,media/padded_stims/animate_004_left.png,inanimate_single_left,animate_single_left,animacy,6,NA,NA,NA,NA
NA,NA,NA,NA,NA,curtain-display,79,343855,0.0-79.0,SS1681494108242,64398e10912e97b8a1478925,64399054722af02830d9f0c5,1440,691,NA,1863,NA,2363,deviant_block,media/padded_stims/inanimate_011_left.png,media/padded_stims/animate_004_left.png,inanimate_single_left,animate_single_left,animacy,6,NA,NA,NA,NA
NA,NA,NA,NA,NA,survey-likert,80,346780,0.0-80.0,SS1681494108242,64398e10912e97b8a1478925,64399054722af02830d9f0c5,1440,691,NA,2915,NA,NA,NA,NA,NA,NA,NA,NA,NA,"{""Q0"":3}",[0],background,NA
NA,NA,NA,NA,NA,curtain-display,81,353347,0.0-81.0,SS1681494108242,64398e10912e97b8a1478925,64399054722af02830d9f0c5,1440,691,NA,5392,NA,5892,background_block,media/padded_stims/inanimate_005_left.png,null,inanimate_pair_left,null,null,6,NA,NA,NA,NA
NA,NA,NA,NA,NA,curtain-display,82,357355,0.0-82.0,SS1681494108242,64398e10912e97b8a1478925,64399054722af02830d9f0c5,1440,691,NA,2944,NA,3444,background_block,media/padded_stims/inanimate_005_left.png,null,inanimate_pair_left,null,null,6,NA,NA,NA,NA
NA,NA,NA,NA,NA,curtain-display,83,359779,0.0-83.0,SS1681494108242,64398e10912e97b8a1478925,64399054722af02830d9f0c5,1440,691,NA,1367,NA,1867,background_block,media/padded_stims/inanimate_005_left.png,null,inanimate_pair_left,null,null,6,NA,NA,NA,NA
NA,NA,NA,NA,NA,curtain-display,84,363534,0.0-84.0,SS1681494108242,64398e10912e97b8a1478925,64399054722af02830d9f0c5,1440,691,NA,2700,NA,3200,background_block,media/padded_stims/inanimate_005_left.png,null,inanimate_pair_left,null,null,6,NA,NA,NA,NA
NA,NA,NA,NA,NA,curtain-display,85,366356,0.0-85.0,SS1681494108242,64398e10912e97b8a1478925,64399054722af02830d9f0c5,1440,691,NA,1777,NA,2277,background_block,media/padded_stims/inanimate_005_left.png,null,inanimate_pair_left,null,null,6,NA,NA,NA,NA
NA,NA,NA,NA,NA,curtain-display,86,370708,0.0-86.0,SS1681494108242,64398e10912e97b8a1478925,64399054722af02830d9f0c5,1440,691,NA,3300,NA,3800,background_block,media/padded_stims/inanimate_005_left.png,null,inanimate_pair_left,null,null,6,NA,NA,NA,NA
NA,NA,NA,NA,NA,survey-likert,87,376117,0.0-87.0,SS1681494108242,64398e10912e97b8a1478925,64399054722af02830d9f0c5,1440,691,NA,5398,NA,NA,NA,NA,NA,NA,NA,NA,NA,"{""Q0"":4}",[0],background,NA
NA,NA,NA,NA,NA,html-button-response,88,381657,0.0-88.0,SS1681494108242,64398e10912e97b8a1478925,64399054722af02830d9f0c5,1440,691,NA,5497,NA,NA,NA,NA,NA,NA,NA,NA,NA,0,NA,NA,"<p>Congratulations! You have finished all the tasks tasks!</p><p>Now, we would like to ask a few questions about you.</p>"
NA,NA,NA,NA,NA,survey-text,89,384676,0.0-89.0,SS1681494108242,64398e10912e97b8a1478925,64399054722af02830d9f0c5,1440,691,NA,2968,NA,NA,NA,NA,NA,NA,NA,NA,NA,"{""Q0"":""30""}",NA,NA,NA
NA,NA,NA,NA,NA,survey-multi-select,90,387966,0.0-90.0,SS1681494108242,64398e10912e97b8a1478925,64399054722af02830d9f0c5,1440,691,NA,3165,NA,NA,NA,NA,NA,NA,NA,NA,NA,"{""ethnicity"":[""White""]}",[0],NA,NA
NA,NA,NA,NA,NA,survey-text,91,395312,0.0-91.0,SS1681494108242,64398e10912e97b8a1478925,64399054722af02830d9f0c5,1440,691,NA,7269,NA,NA,NA,NA,NA,NA,NA,NA,NA,"{""Q0"":""female""}",NA,NA,NA
NA,NA,NA,NA,NA,survey-multi-choice,92,398158,0.0-92.0,SS1681494108242,64398e10912e97b8a1478925,64399054722af02830d9f0c5,1440,691,NA,2810,NA,NA,NA,NA,NA,NA,NA,NA,NA,"{""education"":""Master's Degree""}",[0],NA,NA
TRUE,NA,NA,NA,NA,fullscreen,93,398224,0.0-93.0,SS1681494108242,64398e10912e97b8a1478925,64399054722af02830d9f0c5,1440,691,NA,NA,NA,NA,NA,NA,NA,NA,NA,NA,NA,NA,NA,NA,NA
NA,NA,NA,NA,NA,html-button-response,94,403085,0.0-94.0,SS1681494108242,64398e10912e97b8a1478925,64399054722af02830d9f0c5,1440,691,NA,4855,NA,NA,NA,NA,NA,NA,NA,NA,NA,0,NA,NA,<p>Congratulations! You are all done! </p>Your survey code is<p><b>C90GA43K</b></p><p>Please make sure you save this somewhere safe. You will need to enter this code into Prolific to be paid.</p>
TRUE,FALSE,[],[],[],preload,0,5043,0.0-0.0,SS1681494115536,64398e10912e97b8a1478925,6439905d830a4ab8e1577963,1512,752,NA,NA,NA,NA,NA,NA,NA,NA,NA,NA,NA,NA,NA,NA,NA
TRUE,NA,NA,NA,NA,fullscreen,1,7283,0.0-1.0,SS1681494115536,64398e10912e97b8a1478925,6439905d830a4ab8e1577963,1512,752,NA,NA,NA,NA,NA,NA,NA,NA,NA,NA,NA,NA,NA,NA,NA
NA,NA,NA,NA,NA,instructions,2,9329,0.0-2.0,SS1681494115536,64398e10912e97b8a1478925,6439905d830a4ab8e1577963,1512,752,"[{""page_index"":0,""viewing_time"":2043}]",2043,NA,NA,NA,NA,NA,NA,NA,NA,NA,NA,NA,NA,NA
NA,NA,NA,NA,NA,instructions,3,24565,0.0-3.0,SS1681494115536,64398e10912e97b8a1478925,6439905d830a4ab8e1577963,1512,752,"[{""page_index"":0,""viewing_time"":7412},{""page_index"":1,""viewing_time"":5814}]",13226,instructions,NA,NA,NA,NA,NA,NA,NA,NA,NA,NA,NA,NA
NA,NA,NA,NA,NA,curtain-display,4,28491,0.0-4.0,SS1681494115536,64398e10912e97b8a1478925,6439905d830a4ab8e1577963,1512,752,NA,2905,instructions,3405,NA,NA,NA,NA,NA,NA,NA,NA,NA,NA,NA
NA,NA,NA,NA,NA,curtain-display,5,31012,0.0-5.0,SS1681494115536,64398e10912e97b8a1478925,6439905d830a4ab8e1577963,1512,752,NA,1515,instructions,2015,NA,NA,NA,NA,NA,NA,NA,NA,NA,NA,NA
NA,NA,NA,NA,NA,curtain-display,6,33600,0.0-6.0,SS1681494115536,64398e10912e97b8a1478925,6439905d830a4ab8e1577963,1512,752,NA,1571,instructions,2071,NA,NA,NA,NA,NA,NA,NA,NA,NA,NA,NA
NA,NA,NA,NA,NA,instructions,7,43469,0.0-7.0,SS1681494115536,64398e10912e97b8a1478925,6439905d830a4ab8e1577963,1512,752,"[{""page_index"":0,""viewing_time"":2402},{""page_index"":1,""viewing_time"":2827},{""page_index"":2,""viewing_time"":2391},{""page_index"":3,""viewing_time"":1150},{""page_index"":4,""viewing_time"":1097}]",9867,instructions,NA,NA,NA,NA,NA,NA,NA,NA,NA,NA,NA,NA
NA,NA,NA,NA,NA,curtain-display,8,46207,0.0-8.0,SS1681494115536,64398e10912e97b8a1478925,6439905d830a4ab8e1577963,1512,752,NA,1726,NA,2226,background_block,media/padded_stims/inanimate_005_right.png,null,inanimate_single_right,null,null,4,NA,NA,NA,NA
NA,NA,NA,NA,NA,curtain-display,9,50122,0.0-9.0,SS1681494115536,64398e10912e97b8a1478925,6439905d830a4ab8e1577963,1512,752,NA,2904,NA,3404,background_block,media/padded_stims/inanimate_005_right.png,null,inanimate_single_right,null,null,4,NA,NA,NA,NA
NA,NA,NA,NA,NA,curtain-display,10,52948,0.0-10.0,SS1681494115536,64398e10912e97b8a1478925,6439905d830a4ab8e1577963,1512,752,NA,1810,NA,2310,background_block,media/padded_stims/inanimate_005_right.png,null,inanimate_single_right,null,null,4,NA,NA,NA,NA
NA,NA,NA,NA,NA,curtain-display,11,55882,0.0-11.0,SS1681494115536,64398e10912e97b8a1478925,6439905d830a4ab8e1577963,1512,752,NA,1926,NA,2426,background_block,media/padded_stims/inanimate_005_right.png,null,inanimate_single_right,null,null,4,NA,NA,NA,NA
NA,NA,NA,NA,NA,survey-likert,12,60999,0.0-12.0,SS1681494115536,64398e10912e97b8a1478925,6439905d830a4ab8e1577963,1512,752,NA,5113,NA,NA,NA,NA,NA,NA,NA,NA,NA,"{""Q0"":0}",[0],background,NA
NA,NA,NA,NA,NA,curtain-display,13,64580,0.0-13.0,SS1681494115536,64398e10912e97b8a1478925,6439905d830a4ab8e1577963,1512,752,NA,2567,NA,3067,deviant_block,media/padded_stims/animate_009_right.png,media/padded_stims/animate_003_right.png,animate_pair_right,animate_single_right,number,4,NA,NA,NA,NA
NA,NA,NA,NA,NA,curtain-display,14,67587,0.0-14.0,SS1681494115536,64398e10912e97b8a1478925,6439905d830a4ab8e1577963,1512,752,NA,1995,NA,2495,deviant_block,media/padded_stims/animate_009_right.png,media/padded_stims/animate_003_right.png,animate_pair_right,animate_single_right,number,4,NA,NA,NA,NA
NA,NA,NA,NA,NA,curtain-display,15,70888,0.0-15.0,SS1681494115536,64398e10912e97b8a1478925,6439905d830a4ab8e1577963,1512,752,NA,2290,NA,2790,deviant_block,media/padded_stims/animate_009_right.png,media/padded_stims/animate_003_right.png,animate_pair_right,animate_single_right,number,4,NA,NA,NA,NA
NA,NA,NA,NA,NA,curtain-display,16,73622,0.0-16.0,SS1681494115536,64398e10912e97b8a1478925,6439905d830a4ab8e1577963,1512,752,NA,1722,NA,2222,deviant_block,media/padded_stims/animate_009_right.png,media/padded_stims/animate_003_right.png,animate_pair_right,animate_single_right,number,4,NA,NA,NA,NA
NA,NA,NA,NA,NA,survey-likert,17,75751,0.0-17.0,SS1681494115536,64398e10912e97b8a1478925,6439905d830a4ab8e1577963,1512,752,NA,2127,NA,NA,NA,NA,NA,NA,NA,NA,NA,"{""Q0"":2}",[0],deviant,NA
NA,NA,NA,NA,NA,curtain-display,18,79178,0.0-18.0,SS1681494115536,64398e10912e97b8a1478925,6439905d830a4ab8e1577963,1512,752,NA,2411,NA,2911,background_block,media/padded_stims/inanimate_011_left.png,null,inanimate_pair_left,null,null,6,NA,NA,NA,NA
NA,NA,NA,NA,NA,curtain-display,19,82231,0.0-19.0,SS1681494115536,64398e10912e97b8a1478925,6439905d830a4ab8e1577963,1512,752,NA,2043,NA,2543,background_block,media/padded_stims/inanimate_011_left.png,null,inanimate_pair_left,null,null,6,NA,NA,NA,NA
NA,NA,NA,NA,NA,curtain-display,20,84964,0.0-20.0,SS1681494115536,64398e10912e97b8a1478925,6439905d830a4ab8e1577963,1512,752,NA,1716,NA,2216,background_block,media/padded_stims/inanimate_011_left.png,null,inanimate_pair_left,null,null,6,NA,NA,NA,NA
NA,NA,NA,NA,NA,curtain-display,21,87429,0.0-21.0,SS1681494115536,64398e10912e97b8a1478925,6439905d830a4ab8e1577963,1512,752,NA,1450,NA,1950,background_block,media/padded_stims/inanimate_011_left.png,null,inanimate_pair_left,null,null,6,NA,NA,NA,NA
NA,NA,NA,NA,NA,curtain-display,22,89838,0.0-22.0,SS1681494115536,64398e10912e97b8a1478925,6439905d830a4ab8e1577963,1512,752,NA,1398,NA,1898,background_block,media/padded_stims/inanimate_011_left.png,null,inanimate_pair_left,null,null,6,NA,NA,NA,NA
NA,NA,NA,NA,NA,curtain-display,23,92297,0.0-23.0,SS1681494115536,64398e10912e97b8a1478925,6439905d830a4ab8e1577963,1512,752,NA,1450,NA,1950,background_block,media/padded_stims/inanimate_011_left.png,null,inanimate_pair_left,null,null,6,NA,NA,NA,NA
NA,NA,NA,NA,NA,survey-likert,24,94727,0.0-24.0,SS1681494115536,64398e10912e97b8a1478925,6439905d830a4ab8e1577963,1512,752,NA,2426,NA,NA,NA,NA,NA,NA,NA,NA,NA,"{""Q0"":1}",[0],background,NA
NA,NA,NA,NA,NA,curtain-display,25,97239,0.0-25.0,SS1681494115536,64398e10912e97b8a1478925,6439905d830a4ab8e1577963,1512,752,NA,1499,NA,1999,deviant_block,media/padded_stims/animate_001_left.png,media/padded_stims/animate_012_right.png,animate_single_left,animate_single_right,pose,2,NA,NA,NA,NA
NA,NA,NA,NA,NA,curtain-display,26,99951,0.0-26.0,SS1681494115536,64398e10912e97b8a1478925,6439905d830a4ab8e1577963,1512,752,NA,1701,NA,2201,deviant_block,media/padded_stims/animate_001_left.png,media/padded_stims/animate_012_right.png,animate_single_left,animate_single_right,pose,2,NA,NA,NA,NA
NA,NA,NA,NA,NA,survey-likert,27,104473,0.0-27.0,SS1681494115536,64398e10912e97b8a1478925,6439905d830a4ab8e1577963,1512,752,NA,4520,NA,NA,NA,NA,NA,NA,NA,NA,NA,"{""Q0"":2}",[0],deviant,NA
NA,NA,NA,NA,NA,curtain-display,28,108343,0.0-28.0,SS1681494115536,64398e10912e97b8a1478925,6439905d830a4ab8e1577963,1512,752,NA,2854,NA,3354,background_block,media/padded_stims/inanimate_003_left.png,null,inanimate_single_left,null,null,4,NA,NA,NA,NA
NA,NA,NA,NA,NA,curtain-display,29,111134,0.0-29.0,SS1681494115536,64398e10912e97b8a1478925,6439905d830a4ab8e1577963,1512,752,NA,1778,NA,2278,background_block,media/padded_stims/inanimate_003_left.png,null,inanimate_single_left,null,null,4,NA,NA,NA,NA
NA,NA,NA,NA,NA,curtain-display,30,113585,0.0-30.0,SS1681494115536,64398e10912e97b8a1478925,6439905d830a4ab8e1577963,1512,752,NA,1441,NA,1941,background_block,media/padded_stims/inanimate_003_left.png,null,inanimate_single_left,null,null,4,NA,NA,NA,NA
NA,NA,NA,NA,NA,curtain-display,31,116075,0.0-31.0,SS1681494115536,64398e10912e97b8a1478925,6439905d830a4ab8e1577963,1512,752,NA,1478,NA,1978,background_block,media/padded_stims/inanimate_003_left.png,null,inanimate_single_left,null,null,4,NA,NA,NA,NA
NA,NA,NA,NA,NA,survey-likert,32,117878,0.0-32.0,SS1681494115536,64398e10912e97b8a1478925,6439905d830a4ab8e1577963,1512,752,NA,1802,NA,NA,NA,NA,NA,NA,NA,NA,NA,"{""Q0"":1}",[0],background,NA
NA,NA,NA,NA,NA,curtain-display,33,119518,0.0-33.0,SS1681494115536,64398e10912e97b8a1478925,6439905d830a4ab8e1577963,1512,752,NA,621,NA,1121,deviant_block,media/padded_stims/inanimate_011_right.png,media/padded_stims/inanimate_007_right.png,inanimate_single_right,inanimate_pair_right,number,6,NA,NA,NA,NA
NA,NA,NA,NA,NA,curtain-display,34,121900,0.0-34.0,SS1681494115536,64398e10912e97b8a1478925,6439905d830a4ab8e1577963,1512,752,NA,1367,NA,1867,deviant_block,media/padded_stims/inanimate_011_right.png,media/padded_stims/inanimate_007_right.png,inanimate_single_right,inanimate_pair_right,number,6,NA,NA,NA,NA
NA,NA,NA,NA,NA,curtain-display,35,124152,0.0-35.0,SS1681494115536,64398e10912e97b8a1478925,6439905d830a4ab8e1577963,1512,752,NA,1241,NA,1741,deviant_block,media/padded_stims/inanimate_011_right.png,media/padded_stims/inanimate_007_right.png,inanimate_single_right,inanimate_pair_right,number,6,NA,NA,NA,NA
NA,NA,NA,NA,NA,curtain-display,36,126343,0.0-36.0,SS1681494115536,64398e10912e97b8a1478925,6439905d830a4ab8e1577963,1512,752,NA,1180,NA,1680,deviant_block,media/padded_stims/inanimate_011_right.png,media/padded_stims/inanimate_007_right.png,inanimate_single_right,inanimate_pair_right,number,6,NA,NA,NA,NA
NA,NA,NA,NA,NA,curtain-display,37,128676,0.0-37.0,SS1681494115536,64398e10912e97b8a1478925,6439905d830a4ab8e1577963,1512,752,NA,1321,NA,1821,deviant_block,media/padded_stims/inanimate_011_right.png,media/padded_stims/inanimate_007_right.png,inanimate_single_right,inanimate_pair_right,number,6,NA,NA,NA,NA
NA,NA,NA,NA,NA,curtain-display,38,131202,0.0-38.0,SS1681494115536,64398e10912e97b8a1478925,6439905d830a4ab8e1577963,1512,752,NA,1513,NA,2013,deviant_block,media/padded_stims/inanimate_011_right.png,media/padded_stims/inanimate_007_right.png,inanimate_single_right,inanimate_pair_right,number,6,NA,NA,NA,NA
NA,NA,NA,NA,NA,survey-likert,39,133640,0.0-39.0,SS1681494115536,64398e10912e97b8a1478925,6439905d830a4ab8e1577963,1512,752,NA,2436,NA,NA,NA,NA,NA,NA,NA,NA,NA,"{""Q0"":0}",[0],background,NA
NA,NA,NA,NA,NA,curtain-display,40,136018,0.0-40.0,SS1681494115536,64398e10912e97b8a1478925,6439905d830a4ab8e1577963,1512,752,NA,1364,NA,1864,background_block,media/padded_stims/animate_002_right.png,null,animate_single_right,null,null,6,NA,NA,NA,NA
NA,NA,NA,NA,NA,curtain-display,41,138458,0.0-41.0,SS1681494115536,64398e10912e97b8a1478925,6439905d830a4ab8e1577963,1512,752,NA,1429,NA,1929,background_block,media/padded_stims/animate_002_right.png,null,animate_single_right,null,null,6,NA,NA,NA,NA
NA,NA,NA,NA,NA,curtain-display,42,140918,0.0-42.0,SS1681494115536,64398e10912e97b8a1478925,6439905d830a4ab8e1577963,1512,752,NA,1444,NA,1944,background_block,media/padded_stims/animate_002_right.png,null,animate_single_right,null,null,6,NA,NA,NA,NA
NA,NA,NA,NA,NA,curtain-display,43,143224,0.0-43.0,SS1681494115536,64398e10912e97b8a1478925,6439905d830a4ab8e1577963,1512,752,NA,1292,NA,1792,background_block,media/padded_stims/animate_002_right.png,null,animate_single_right,null,null,6,NA,NA,NA,NA
NA,NA,NA,NA,NA,curtain-display,44,145719,0.0-44.0,SS1681494115536,64398e10912e97b8a1478925,6439905d830a4ab8e1577963,1512,752,NA,1490,NA,1990,background_block,media/padded_stims/animate_002_right.png,null,animate_single_right,null,null,6,NA,NA,NA,NA
NA,NA,NA,NA,NA,curtain-display,45,147743,0.0-45.0,SS1681494115536,64398e10912e97b8a1478925,6439905d830a4ab8e1577963,1512,752,NA,1015,NA,1515,background_block,media/padded_stims/animate_002_right.png,null,animate_single_right,null,null,6,NA,NA,NA,NA
NA,NA,NA,NA,NA,survey-likert,46,150132,0.0-46.0,SS1681494115536,64398e10912e97b8a1478925,6439905d830a4ab8e1577963,1512,752,NA,2386,NA,NA,NA,NA,NA,NA,NA,NA,NA,"{""Q0"":1}",[0],background,NA
NA,NA,NA,NA,NA,curtain-display,47,152668,0.0-47.0,SS1681494115536,64398e10912e97b8a1478925,6439905d830a4ab8e1577963,1512,752,NA,1524,NA,2024,background_block,media/padded_stims/inanimate_009_right.png,null,inanimate_pair_right,null,null,2,NA,NA,NA,NA
NA,NA,NA,NA,NA,curtain-display,48,155426,0.0-48.0,SS1681494115536,64398e10912e97b8a1478925,6439905d830a4ab8e1577963,1512,752,NA,1741,NA,2241,background_block,media/padded_stims/inanimate_009_right.png,null,inanimate_pair_right,null,null,2,NA,NA,NA,NA
NA,NA,NA,NA,NA,survey-likert,49,157507,0.0-49.0,SS1681494115536,64398e10912e97b8a1478925,6439905d830a4ab8e1577963,1512,752,NA,2077,NA,NA,NA,NA,NA,NA,NA,NA,NA,"{""Q0"":0}",[0],background,NA
NA,NA,NA,NA,NA,curtain-display,50,159985,0.0-50.0,SS1681494115536,64398e10912e97b8a1478925,6439905d830a4ab8e1577963,1512,752,NA,1467,NA,1967,deviant_block,media/padded_stims/animate_007_left.png,media/padded_stims/animate_006_left.png,animate_pair_left,animate_pair_left,identity,6,NA,NA,NA,NA
NA,NA,NA,NA,NA,curtain-display,51,162367,0.0-51.0,SS1681494115536,64398e10912e97b8a1478925,6439905d830a4ab8e1577963,1512,752,NA,1373,NA,1873,deviant_block,media/padded_stims/animate_007_left.png,media/padded_stims/animate_006_left.png,animate_pair_left,animate_pair_left,identity,6,NA,NA,NA,NA
NA,NA,NA,NA,NA,curtain-display,52,164845,0.0-52.0,SS1681494115536,64398e10912e97b8a1478925,6439905d830a4ab8e1577963,1512,752,NA,1469,NA,1969,deviant_block,media/padded_stims/animate_007_left.png,media/padded_stims/animate_006_left.png,animate_pair_left,animate_pair_left,identity,6,NA,NA,NA,NA
NA,NA,NA,NA,NA,curtain-display,53,167452,0.0-53.0,SS1681494115536,64398e10912e97b8a1478925,6439905d830a4ab8e1577963,1512,752,NA,1600,NA,2100,deviant_block,media/padded_stims/animate_007_left.png,media/padded_stims/animate_006_left.png,animate_pair_left,animate_pair_left,identity,6,NA,NA,NA,NA
NA,NA,NA,NA,NA,curtain-display,54,169960,0.0-54.0,SS1681494115536,64398e10912e97b8a1478925,6439905d830a4ab8e1577963,1512,752,NA,1501,NA,2001,deviant_block,media/padded_stims/animate_007_left.png,media/padded_stims/animate_006_left.png,animate_pair_left,animate_pair_left,identity,6,NA,NA,NA,NA
NA,NA,NA,NA,NA,curtain-display,55,172377,0.0-55.0,SS1681494115536,64398e10912e97b8a1478925,6439905d830a4ab8e1577963,1512,752,NA,1400,NA,1900,deviant_block,media/padded_stims/animate_007_left.png,media/padded_stims/animate_006_left.png,animate_pair_left,animate_pair_left,identity,6,NA,NA,NA,NA
NA,NA,NA,NA,NA,survey-likert,56,174250,0.0-56.0,SS1681494115536,64398e10912e97b8a1478925,6439905d830a4ab8e1577963,1512,752,NA,1871,NA,NA,NA,NA,NA,NA,NA,NA,NA,"{""Q0"":2}",[0],deviant,NA
NA,NA,NA,NA,NA,curtain-display,57,176667,0.0-57.0,SS1681494115536,64398e10912e97b8a1478925,6439905d830a4ab8e1577963,1512,752,NA,1403,NA,1903,background_block,media/padded_stims/animate_010_left.png,null,animate_pair_left,null,null,6,NA,NA,NA,NA
NA,NA,NA,NA,NA,curtain-display,58,179094,0.0-58.0,SS1681494115536,64398e10912e97b8a1478925,6439905d830a4ab8e1577963,1512,752,NA,1414,NA,1914,background_block,media/padded_stims/animate_010_left.png,null,animate_pair_left,null,null,6,NA,NA,NA,NA
NA,NA,NA,NA,NA,curtain-display,59,181570,0.0-59.0,SS1681494115536,64398e10912e97b8a1478925,6439905d830a4ab8e1577963,1512,752,NA,1463,NA,1963,background_block,media/padded_stims/animate_010_left.png,null,animate_pair_left,null,null,6,NA,NA,NA,NA
NA,NA,NA,NA,NA,curtain-display,60,184003,0.0-60.0,SS1681494115536,64398e10912e97b8a1478925,6439905d830a4ab8e1577963,1512,752,NA,1420,NA,1920,background_block,media/padded_stims/animate_010_left.png,null,animate_pair_left,null,null,6,NA,NA,NA,NA
NA,NA,NA,NA,NA,curtain-display,61,186393,0.0-61.0,SS1681494115536,64398e10912e97b8a1478925,6439905d830a4ab8e1577963,1512,752,NA,1378,NA,1878,background_block,media/padded_stims/animate_010_left.png,null,animate_pair_left,null,null,6,NA,NA,NA,NA
NA,NA,NA,NA,NA,curtain-display,62,188734,0.0-62.0,SS1681494115536,64398e10912e97b8a1478925,6439905d830a4ab8e1577963,1512,752,NA,1327,NA,1827,background_block,media/padded_stims/animate_010_left.png,null,animate_pair_left,null,null,6,NA,NA,NA,NA
NA,NA,NA,NA,NA,survey-likert,63,191649,0.0-63.0,SS1681494115536,64398e10912e97b8a1478925,6439905d830a4ab8e1577963,1512,752,NA,2912,NA,NA,NA,NA,NA,NA,NA,NA,NA,"{""Q0"":2}",[0],background,NA
NA,NA,NA,NA,NA,curtain-display,64,194027,0.0-64.0,SS1681494115536,64398e10912e97b8a1478925,6439905d830a4ab8e1577963,1512,752,NA,1365,NA,1865,background_block,media/padded_stims/animate_006_right.png,null,animate_pair_right,null,null,6,NA,NA,NA,NA
NA,NA,NA,NA,NA,curtain-display,65,196385,0.0-65.0,SS1681494115536,64398e10912e97b8a1478925,6439905d830a4ab8e1577963,1512,752,NA,1345,NA,1845,background_block,media/padded_stims/animate_006_right.png,null,animate_pair_right,null,null,6,NA,NA,NA,NA
NA,NA,NA,NA,NA,curtain-display,66,198426,0.0-66.0,SS1681494115536,64398e10912e97b8a1478925,6439905d830a4ab8e1577963,1512,752,NA,1026,NA,1526,background_block,media/padded_stims/animate_006_right.png,null,animate_pair_right,null,null,6,NA,NA,NA,NA
NA,NA,NA,NA,NA,curtain-display,67,200779,0.0-67.0,SS1681494115536,64398e10912e97b8a1478925,6439905d830a4ab8e1577963,1512,752,NA,1340,NA,1840,background_block,media/padded_stims/animate_006_right.png,null,animate_pair_right,null,null,6,NA,NA,NA,NA
NA,NA,NA,NA,NA,curtain-display,68,202770,0.0-68.0,SS1681494115536,64398e10912e97b8a1478925,6439905d830a4ab8e1577963,1512,752,NA,981,NA,1481,background_block,media/padded_stims/animate_006_right.png,null,animate_pair_right,null,null,6,NA,NA,NA,NA
NA,NA,NA,NA,NA,curtain-display,69,204936,0.0-69.0,SS1681494115536,64398e10912e97b8a1478925,6439905d830a4ab8e1577963,1512,752,NA,1155,NA,1655,background_block,media/padded_stims/animate_006_right.png,null,animate_pair_right,null,null,6,NA,NA,NA,NA
NA,NA,NA,NA,NA,survey-likert,70,206865,0.0-70.0,SS1681494115536,64398e10912e97b8a1478925,6439905d830a4ab8e1577963,1512,752,NA,1926,NA,NA,NA,NA,NA,NA,NA,NA,NA,"{""Q0"":2}",[0],background,NA
NA,NA,NA,NA,NA,curtain-display,71,208993,0.0-71.0,SS1681494115536,64398e10912e97b8a1478925,6439905d830a4ab8e1577963,1512,752,NA,1113,NA,1613,deviant_block,media/padded_stims/animate_001_right.png,media/padded_stims/animate_011_right.png,animate_single_right,animate_single_right,identity,2,NA,NA,NA,NA
NA,NA,NA,NA,NA,curtain-display,72,211119,0.0-72.0,SS1681494115536,64398e10912e97b8a1478925,6439905d830a4ab8e1577963,1512,752,NA,1114,NA,1614,deviant_block,media/padded_stims/animate_001_right.png,media/padded_stims/animate_011_right.png,animate_single_right,animate_single_right,identity,2,NA,NA,NA,NA
NA,NA,NA,NA,NA,survey-likert,73,212537,0.0-73.0,SS1681494115536,64398e10912e97b8a1478925,6439905d830a4ab8e1577963,1512,752,NA,1415,NA,NA,NA,NA,NA,NA,NA,NA,NA,"{""Q0"":2}",[0],deviant,NA
NA,NA,NA,NA,NA,curtain-display,74,214826,0.0-74.0,SS1681494115536,64398e10912e97b8a1478925,6439905d830a4ab8e1577963,1512,752,NA,1278,NA,1778,deviant_block,media/padded_stims/inanimate_008_left.png,media/padded_stims/animate_009_left.png,inanimate_pair_left,animate_pair_left,animacy,2,NA,NA,NA,NA
NA,NA,NA,NA,NA,curtain-display,75,217044,0.0-75.0,SS1681494115536,64398e10912e97b8a1478925,6439905d830a4ab8e1577963,1512,752,NA,1206,NA,1706,deviant_block,media/padded_stims/inanimate_008_left.png,media/padded_stims/animate_009_left.png,inanimate_pair_left,animate_pair_left,animacy,2,NA,NA,NA,NA
NA,NA,NA,NA,NA,survey-likert,76,219057,0.0-76.0,SS1681494115536,64398e10912e97b8a1478925,6439905d830a4ab8e1577963,1512,752,NA,2011,NA,NA,NA,NA,NA,NA,NA,NA,NA,"{""Q0"":2}",[0],deviant,NA
NA,NA,NA,NA,NA,curtain-display,77,221336,0.0-77.0,SS1681494115536,64398e10912e97b8a1478925,6439905d830a4ab8e1577963,1512,752,NA,1261,NA,1761,deviant_block,media/padded_stims/inanimate_004_right.png,media/padded_stims/inanimate_001_right.png,inanimate_pair_right,inanimate_pair_right,identity,4,NA,NA,NA,NA
NA,NA,NA,NA,NA,curtain-display,78,223501,0.0-78.0,SS1681494115536,64398e10912e97b8a1478925,6439905d830a4ab8e1577963,1512,752,NA,1151,NA,1651,deviant_block,media/padded_stims/inanimate_004_right.png,media/padded_stims/inanimate_001_right.png,inanimate_pair_right,inanimate_pair_right,identity,4,NA,NA,NA,NA
NA,NA,NA,NA,NA,curtain-display,79,225659,0.0-79.0,SS1681494115536,64398e10912e97b8a1478925,6439905d830a4ab8e1577963,1512,752,NA,1146,NA,1646,deviant_block,media/padded_stims/inanimate_004_right.png,media/padded_stims/inanimate_001_right.png,inanimate_pair_right,inanimate_pair_right,identity,4,NA,NA,NA,NA
NA,NA,NA,NA,NA,curtain-display,80,227901,0.0-80.0,SS1681494115536,64398e10912e97b8a1478925,6439905d830a4ab8e1577963,1512,752,NA,1228,NA,1728,deviant_block,media/padded_stims/inanimate_004_right.png,media/padded_stims/inanimate_001_right.png,inanimate_pair_right,inanimate_pair_right,identity,4,NA,NA,NA,NA
NA,NA,NA,NA,NA,survey-likert,81,229916,0.0-81.0,SS1681494115536,64398e10912e97b8a1478925,6439905d830a4ab8e1577963,1512,752,NA,2012,NA,NA,NA,NA,NA,NA,NA,NA,NA,"{""Q0"":0}",[0],background,NA
NA,NA,NA,NA,NA,curtain-display,82,232092,0.0-82.0,SS1681494115536,64398e10912e97b8a1478925,6439905d830a4ab8e1577963,1512,752,NA,1161,NA,1661,deviant_block,media/padded_stims/inanimate_006_left.png,media/padded_stims/inanimate_002_right.png,inanimate_single_left,inanimate_single_right,pose,6,NA,NA,NA,NA
NA,NA,NA,NA,NA,curtain-display,83,234111,0.0-83.0,SS1681494115536,64398e10912e97b8a1478925,6439905d830a4ab8e1577963,1512,752,NA,1006,NA,1506,deviant_block,media/padded_stims/inanimate_006_left.png,media/padded_stims/inanimate_002_right.png,inanimate_single_left,inanimate_single_right,pose,6,NA,NA,NA,NA
NA,NA,NA,NA,NA,curtain-display,84,236294,0.0-84.0,SS1681494115536,64398e10912e97b8a1478925,6439905d830a4ab8e1577963,1512,752,NA,1174,NA,1674,deviant_block,media/padded_stims/inanimate_006_left.png,media/padded_stims/inanimate_002_right.png,inanimate_single_left,inanimate_single_right,pose,6,NA,NA,NA,NA
NA,NA,NA,NA,NA,curtain-display,85,238627,0.0-85.0,SS1681494115536,64398e10912e97b8a1478925,6439905d830a4ab8e1577963,1512,752,NA,1324,NA,1824,deviant_block,media/padded_stims/inanimate_006_left.png,media/padded_stims/inanimate_002_right.png,inanimate_single_left,inanimate_single_right,pose,6,NA,NA,NA,NA
NA,NA,NA,NA,NA,curtain-display,86,240960,0.0-86.0,SS1681494115536,64398e10912e97b8a1478925,6439905d830a4ab8e1577963,1512,752,NA,1320,NA,1820,deviant_block,media/padded_stims/inanimate_006_left.png,media/padded_stims/inanimate_002_right.png,inanimate_single_left,inanimate_single_right,pose,6,NA,NA,NA,NA
NA,NA,NA,NA,NA,curtain-display,87,243219,0.0-87.0,SS1681494115536,64398e10912e97b8a1478925,6439905d830a4ab8e1577963,1512,752,NA,1249,NA,1749,deviant_block,media/padded_stims/inanimate_006_left.png,media/padded_stims/inanimate_002_right.png,inanimate_single_left,inanimate_single_right,pose,6,NA,NA,NA,NA
NA,NA,NA,NA,NA,survey-likert,88,246049,0.0-88.0,SS1681494115536,64398e10912e97b8a1478925,6439905d830a4ab8e1577963,1512,752,NA,2828,NA,NA,NA,NA,NA,NA,NA,NA,NA,"{""Q0"":1}",[0],deviant,NA
NA,NA,NA,NA,NA,curtain-display,89,248334,0.0-89.0,SS1681494115536,64398e10912e97b8a1478925,6439905d830a4ab8e1577963,1512,752,NA,1274,NA,1774,background_block,media/padded_stims/animate_011_left.png,null,animate_single_left,null,null,6,NA,NA,NA,NA
NA,NA,NA,NA,NA,curtain-display,90,250794,0.0-90.0,SS1681494115536,64398e10912e97b8a1478925,6439905d830a4ab8e1577963,1512,752,NA,1450,NA,1950,background_block,media/padded_stims/animate_011_left.png,null,animate_single_left,null,null,6,NA,NA,NA,NA
NA,NA,NA,NA,NA,curtain-display,91,253019,0.0-91.0,SS1681494115536,64398e10912e97b8a1478925,6439905d830a4ab8e1577963,1512,752,NA,1210,NA,1710,background_block,media/padded_stims/animate_011_left.png,null,animate_single_left,null,null,6,NA,NA,NA,NA
NA,NA,NA,NA,NA,curtain-display,92,254526,0.0-92.0,SS1681494115536,64398e10912e97b8a1478925,6439905d830a4ab8e1577963,1512,752,NA,493,NA,993,background_block,media/padded_stims/animate_011_left.png,null,animate_single_left,null,null,6,NA,NA,NA,NA
NA,NA,NA,NA,NA,curtain-display,93,256810,0.0-93.0,SS1681494115536,64398e10912e97b8a1478925,6439905d830a4ab8e1577963,1512,752,NA,1268,NA,1768,background_block,media/padded_stims/animate_011_left.png,null,animate_single_left,null,null,6,NA,NA,NA,NA
NA,NA,NA,NA,NA,curtain-display,94,259054,0.0-94.0,SS1681494115536,64398e10912e97b8a1478925,6439905d830a4ab8e1577963,1512,752,NA,1234,NA,1734,background_block,media/padded_stims/animate_011_left.png,null,animate_single_left,null,null,6,NA,NA,NA,NA
NA,NA,NA,NA,NA,survey-likert,95,261658,0.0-95.0,SS1681494115536,64398e10912e97b8a1478925,6439905d830a4ab8e1577963,1512,752,NA,2601,NA,NA,NA,NA,NA,NA,NA,NA,NA,"{""Q0"":1}",[0],background,NA
NA,NA,NA,NA,NA,html-button-response,96,262992,0.0-96.0,SS1681494115536,64398e10912e97b8a1478925,6439905d830a4ab8e1577963,1512,752,NA,1329,NA,NA,NA,NA,NA,NA,NA,NA,NA,0,NA,NA,"<p>Congratulations! You have finished all the tasks tasks!</p><p>Now, we would like to ask a few questions about you.</p>"
NA,NA,NA,NA,NA,survey-text,97,264454,0.0-97.0,SS1681494115536,64398e10912e97b8a1478925,6439905d830a4ab8e1577963,1512,752,NA,1458,NA,NA,NA,NA,NA,NA,NA,NA,NA,"{""Q0"":""32""}",NA,NA,NA
NA,NA,NA,NA,NA,survey-multi-select,98,266070,0.0-98.0,SS1681494115536,64398e10912e97b8a1478925,6439905d830a4ab8e1577963,1512,752,NA,1614,NA,NA,NA,NA,NA,NA,NA,NA,NA,"{""ethnicity"":[""Asian""]}",[0],NA,NA
NA,NA,NA,NA,NA,survey-text,99,268487,0.0-99.0,SS1681494115536,64398e10912e97b8a1478925,6439905d830a4ab8e1577963,1512,752,NA,2412,NA,NA,NA,NA,NA,NA,NA,NA,NA,"{""Q0"":""Male""}",NA,NA,NA
NA,NA,NA,NA,NA,survey-multi-choice,100,271674,0.0-100.0,SS1681494115536,64398e10912e97b8a1478925,6439905d830a4ab8e1577963,1512,752,NA,3184,NA,NA,NA,NA,NA,NA,NA,NA,NA,"{""education"":""Bachelor's Degree""}",[0],NA,NA
