"success","trial_type","trial_index","time_elapsed","internal_node_id","subject","rt","responses","stimulus","key_press","view_history","stimulus_type","trial_stimulus","minimum_viewing_duration","trial_looking_time","subject_num","block_number","block_type","stimulus_displayed","fam_duration","response","question_order"
"true","fullscreen","0","190403","0.0-0.0","SS1631627995593","","","","","","","","","","","","","","","",""
"","survey-text","1","197930","0.0-1.0","SS1631627995593","7523.399999976158","{""Age"":""303"",""Gender"":""M"",""Session"":""2""}","","","","","","","","","","","","","",""
"","audio-keyboard-response","2","213326","0.0-2.0","SS1631627995593","15395.299999952316","","stimuli/audio/music_intro.wav","40","","","","","","","","","","","",""
"","html-keyboard-response","3","217491","0.0-3.0","SS1631627995593","4163.200000047684","","<p><img src=stimuli/intro/intro2.jpeg width ='1200' height = '667'></p>","40","","","","","","","","","","","",""
"","html-keyboard-response","4","248312","0.0-4.0","SS1631627995593","30820.900000095367","","<p><img src=stimuli/intro/intro3.jpeg width ='1200' height = '667'></p>","40","","","","","","","","","","","",""
"","html-keyboard-response","5","273195","0.0-5.0","SS1631627995593","24882.599999904633","","<p><img src=stimuli/intro/intro4.jpeg width ='1200' height = '667'></p>","40","","","","","","","","","","","",""
"","html-keyboard-response","6","274208","0.0-6.0","SS1631627995593","1012.1000000238419","","<p><img src=stimuli/intro/intro5.jpeg width ='1200' height = '667'></p>","40","","","","","","","","","","","",""
"","html-keyboard-response","7","274657","0.0-7.0","SS1631627995593","448.5","","<p><img src=stimuli/intro/intro6.jpeg width ='1200' height = '667'></p>","40","","","","","","","","","","","",""
"","html-keyboard-response","8","275527","0.0-8.0","SS1631627995593","869.1999999284744","","<p><img src=stimuli/intro/intro7.jpeg width ='1200' height = '667'></p>","40","","","","","","","","","","","",""
"","html-keyboard-response","9","281115","0.0-9.0","SS1631627995593","5587.899999976158","","<p><img src=stimuli/intro/intro8.jpeg width ='1200' height = '667'></p>","40","","","","","","","","","","","",""
"","instructions","10","316725","0.0-10.0","SS1631627995593","35610.300000071526","","","","[{""page_index"":0,""viewing_time"":35609.89999997616}]","","","","","","","","","","",""
"","video-keyboard-response","11","321464","0.0-11.0","SS1631627995593","null","","[""stimuli/images/attngetter_quiet.mp4""]","null","","attention_getter","","","","","","","","","",""
"","html-keyboard-response","12","323883","0.0-12.0-0.0","SS1631627995593","null","","<p><img src=stimuli/images/blank_fam.png width =""200"" height = ""200"" style=""position:absolute;left:85%""></p><p><img src= stimuli/images/blank.png width =""1100"" height = ""1100"" style=""border:5px solid black""></p>","null","","","","","","","","","","","",""
"","sequential-stimulus-presentation","13","329890","0.0-12.0-1.0","SS1631627995593","null","","","null","","trial","","1000","1000","10","0","Std","stimuli/images/spore_stims/complex_12_A.gif","7","",""
"","html-keyboard-response","14","330906","0.0-12.0-0.1","SS1631627995593","null","","<p><img src=stimuli/images/blank_fam.png width =""200"" height = ""200"" style=""position:absolute;left:85%""></p><p><img src= stimuli/images/blank.png width =""1100"" height = ""1100"" style=""border:5px solid black""></p>","null","","","","","","","","","","","",""
"","sequential-stimulus-presentation","15","336912","0.0-12.0-1.1","SS1631627995593","null","","","null","","trial","","1000","1000","10","0","Std","stimuli/images/spore_stims/complex_12_A.gif","7","",""
"","html-keyboard-response","16","338913","0.0-12.0-0.2","SS1631627995593","null","","<p><img src=stimuli/images/blank_fam.png width =""200"" height = ""200"" style=""position:absolute;left:85%""></p><p><img src= stimuli/images/blank.png width =""1100"" height = ""1100"" style=""border:5px solid black""></p>","null","","","","","","","","","","","",""
"","sequential-stimulus-presentation","17","344917","0.0-12.0-1.2","SS1631627995593","null","","","null","","trial","","1000","1000","10","0","Std","stimuli/images/spore_stims/complex_12_A.gif","7","",""
"","html-keyboard-response","18","346770","0.0-12.0-0.3","SS1631627995593","null","","<p><img src=stimuli/images/blank_fam.png width =""200"" height = ""200"" style=""position:absolute;left:85%""></p><p><img src= stimuli/images/blank.png width =""1100"" height = ""1100"" style=""border:5px solid black""></p>","null","","","","","","","","","","","",""
"","sequential-stimulus-presentation","19","352778","0.0-12.0-1.3","SS1631627995593","null","","","null","","trial","","1000","1000","10","0","Std","stimuli/images/spore_stims/complex_12_A.gif","7","",""
"","html-keyboard-response","20","353289","0.0-12.0-0.4","SS1631627995593","null","","<p><img src=stimuli/images/blank_fam.png width =""200"" height = ""200"" style=""position:absolute;left:85%""></p><p><img src= stimuli/images/blank.png width =""1100"" height = ""1100"" style=""border:5px solid black""></p>","null","","","","","","","","","","","",""
"","sequential-stimulus-presentation","21","359297","0.0-12.0-1.4","SS1631627995593","null","","","null","","trial","","1000","1000","10","0","Std","stimuli/images/spore_stims/complex_12_A.gif","7","",""
"","html-keyboard-response","22","361524","0.0-12.0-0.5","SS1631627995593","null","","<p><img src=stimuli/images/blank_fam.png width =""200"" height = ""200"" style=""position:absolute;left:85%""></p><p><img src= stimuli/images/blank.png width =""1100"" height = ""1100"" style=""border:5px solid black""></p>","null","","","","","","","","","","","",""
"","sequential-stimulus-presentation","23","367533","0.0-12.0-1.5","SS1631627995593","null","","","null","","trial","","1000","1000","10","0","Std","stimuli/images/spore_stims/complex_12_A.gif","7","",""
"","html-keyboard-response","24","369921","0.0-12.0-0.6","SS1631627995593","null","","<p><img src=stimuli/images/blank_fam.png width =""200"" height = ""200"" style=""position:absolute;left:85%""></p><p><img src= stimuli/images/blank.png width =""1100"" height = ""1100"" style=""border:5px solid black""></p>","null","","","","","","","","","","","",""
"","sequential-stimulus-presentation","25","375927","0.0-12.0-1.6","SS1631627995593","null","","","null","","trial","","1000","1000","10","0","Std","stimuli/images/spore_stims/complex_12_A.gif","7","",""
"","html-keyboard-response","26","377683","0.0-12.0-0.7","SS1631627995593","null","","<p><img src=stimuli/images/blank_test.png width =""200"" height = ""200"" style=""position:absolute;left:85%""></p><p><img src= stimuli/images/blank.png width =""1100"" height = ""1100"" style=""border:5px solid black""></p>","null","","","","","","","","","","","",""
"","sequential-stimulus-presentation","27","420430","0.0-12.0-1.7","SS1631627995593","95543.70000004768","","","40","","trial","","1000","96543.70000004768","10","0","Std","stimuli/images/spore_stims/complex_12_A.gif","7","",""
"","html-keyboard-response","28","422726","0.0-13.0","SS1631627995593","2295.0999999046326","","<p><img src=""stimuli/images/attngetter_blank.png"" width =""1200"" height = ""918"" ></p>","40","","between_block","","","","","","","","","",""
"","video-keyboard-response","29","427373","0.0-14.0","SS1631627995593","null","","[""stimuli/images/attngetter_quiet.mp4""]","null","","attention_getter","","","","","","","","","",""
"","html-keyboard-response","30","428916","0.0-15.0-0.0","SS1631627995593","null","","<p><img src=stimuli/images/blank_fam.png width =""200"" height = ""200"" style=""position:absolute;left:85%""></p><p><img src= stimuli/images/blank.png width =""1100"" height = ""1100"" style=""border:5px solid black""></p>","null","","","","","","","","","","","",""
"","sequential-stimulus-presentation","31","434925","0.0-15.0-1.0","SS1631627995593","null","","","null","","trial","","1000","1000","10","1","Dev","stimuli/images/spore_stims/complex_02_A.gif","7","",""
"","html-keyboard-response","32","436407","0.0-15.0-0.1","SS1631627995593","null","","<p><img src=stimuli/images/blank_fam.png width =""200"" height = ""200"" style=""position:absolute;left:85%""></p><p><img src= stimuli/images/blank.png width =""1100"" height = ""1100"" style=""border:5px solid black""></p>","null","","","","","","","","","","","",""
"","sequential-stimulus-presentation","33","442415","0.0-15.0-1.1","SS1631627995593","null","","","null","","trial","","1000","1000","10","1","Dev","stimuli/images/spore_stims/complex_02_A.gif","7","",""
"","html-keyboard-response","34","443232","0.0-15.0-0.2","SS1631627995593","null","","<p><img src=stimuli/images/blank_fam.png width =""200"" height = ""200"" style=""position:absolute;left:85%""></p><p><img src= stimuli/images/blank.png width =""1100"" height = ""1100"" style=""border:5px solid black""></p>","null","","","","","","","","","","","",""
"","sequential-stimulus-presentation","35","449240","0.0-15.0-1.2","SS1631627995593","null","","","null","","trial","","1000","1000","10","1","Dev","stimuli/images/spore_stims/complex_02_A.gif","7","",""
"","html-keyboard-response","36","451453","0.0-15.0-0.3","SS1631627995593","null","","<p><img src=stimuli/images/blank_fam.png width =""200"" height = ""200"" style=""position:absolute;left:85%""></p><p><img src= stimuli/images/blank.png width =""1100"" height = ""1100"" style=""border:5px solid black""></p>","null","","","","","","","","","","","",""
"","sequential-stimulus-presentation","37","457459","0.0-15.0-1.3","SS1631627995593","null","","","null","","trial","","1000","1000","10","1","Dev","stimuli/images/spore_stims/complex_02_A.gif","7","",""
"","html-keyboard-response","38","459359","0.0-15.0-0.4","SS1631627995593","null","","<p><img src=stimuli/images/blank_fam.png width =""200"" height = ""200"" style=""position:absolute;left:85%""></p><p><img src= stimuli/images/blank.png width =""1100"" height = ""1100"" style=""border:5px solid black""></p>","null","","","","","","","","","","","",""
"","sequential-stimulus-presentation","39","465368","0.0-15.0-1.4","SS1631627995593","null","","","null","","trial","","1000","1000","10","1","Dev","stimuli/images/spore_stims/complex_02_A.gif","7","",""
"","html-keyboard-response","40","467743","0.0-15.0-0.5","SS1631627995593","null","","<p><img src=stimuli/images/blank_fam.png width =""200"" height = ""200"" style=""position:absolute;left:85%""></p><p><img src= stimuli/images/blank.png width =""1100"" height = ""1100"" style=""border:5px solid black""></p>","null","","","","","","","","","","","",""
"","sequential-stimulus-presentation","41","473753","0.0-15.0-1.5","SS1631627995593","null","","","null","","trial","","1000","1000","10","1","Dev","stimuli/images/spore_stims/complex_02_A.gif","7","",""
"","html-keyboard-response","42","475819","0.0-15.0-0.6","SS1631627995593","null","","<p><img src=stimuli/images/blank_fam.png width =""200"" height = ""200"" style=""position:absolute;left:85%""></p><p><img src= stimuli/images/blank.png width =""1100"" height = ""1100"" style=""border:5px solid black""></p>","null","","","","","","","","","","","",""
"","sequential-stimulus-presentation","43","481829","0.0-15.0-1.6","SS1631627995593","null","","","null","","trial","","1000","1000","10","1","Dev","stimuli/images/spore_stims/complex_02_A.gif","7","",""
"","html-keyboard-response","44","483842","0.0-15.0-0.7","SS1631627995593","null","","<p><img src=stimuli/images/blank_test.png width =""200"" height = ""200"" style=""position:absolute;left:85%""></p><p><img src= stimuli/images/blank.png width =""1100"" height = ""1100"" style=""border:5px solid black""></p>","null","","","","","","","","","","","",""
"","sequential-stimulus-presentation","45","511438","0.0-15.0-1.7","SS1631627995593","81517","","","40","","trial","","1000","82517","10","1","Dev","stimuli/images/spore_stims/complex_01_A.gif","7","",""
"","html-keyboard-response","46","513803","0.0-16.0","SS1631627995593","2364.1999999284744","","<p><img src=""stimuli/images/attngetter_blank.png"" width =""1200"" height = ""918"" ></p>","40","","between_block","","","","","","","","","",""
"","video-keyboard-response","47","518453","0.0-17.0","SS1631627995593","null","","[""stimuli/images/attngetter_quiet.mp4""]","null","","attention_getter","","","","","","","","","",""
"","html-keyboard-response","48","519588","0.0-18.0-0.0","SS1631627995593","null","","<p><img src=stimuli/images/blank_fam.png width =""200"" height = ""200"" style=""position:absolute;left:85%""></p><p><img src= stimuli/images/blank.png width =""1100"" height = ""1100"" style=""border:5px solid black""></p>","null","","","","","","","","","","","",""
"","sequential-stimulus-presentation","49","525594","0.0-18.0-1.0","SS1631627995593","null","","","null","","trial","","1000","1000","10","2","Dev","stimuli/images/spore_stims/complex_08_A.gif","5","",""
"","html-keyboard-response","50","526897","0.0-18.0-0.1","SS1631627995593","null","","<p><img src=stimuli/images/blank_fam.png width =""200"" height = ""200"" style=""position:absolute;left:85%""></p><p><img src= stimuli/images/blank.png width =""1100"" height = ""1100"" style=""border:5px solid black""></p>","null","","","","","","","","","","","",""
"","sequential-stimulus-presentation","51","532905","0.0-18.0-1.1","SS1631627995593","null","","","null","","trial","","1000","1000","10","2","Dev","stimuli/images/spore_stims/complex_08_A.gif","5","",""
"","html-keyboard-response","52","534945","0.0-18.0-0.2","SS1631627995593","null","","<p><img src=stimuli/images/blank_fam.png width =""200"" height = ""200"" style=""position:absolute;left:85%""></p><p><img src= stimuli/images/blank.png width =""1100"" height = ""1100"" style=""border:5px solid black""></p>","null","","","","","","","","","","","",""
"","sequential-stimulus-presentation","53","540952","0.0-18.0-1.2","SS1631627995593","null","","","null","","trial","","1000","1000","10","2","Dev","stimuli/images/spore_stims/complex_08_A.gif","5","",""
"","html-keyboard-response","54","543119","0.0-18.0-0.3","SS1631627995593","null","","<p><img src=stimuli/images/blank_fam.png width =""200"" height = ""200"" style=""position:absolute;left:85%""></p><p><img src= stimuli/images/blank.png width =""1100"" height = ""1100"" style=""border:5px solid black""></p>","null","","","","","","","","","","","",""
"","sequential-stimulus-presentation","55","549127","0.0-18.0-1.3","SS1631627995593","null","","","null","","trial","","1000","1000","10","2","Dev","stimuli/images/spore_stims/complex_08_A.gif","5","",""
"","html-keyboard-response","56","550257","0.0-18.0-0.4","SS1631627995593","null","","<p><img src=stimuli/images/blank_fam.png width =""200"" height = ""200"" style=""position:absolute;left:85%""></p><p><img src= stimuli/images/blank.png width =""1100"" height = ""1100"" style=""border:5px solid black""></p>","null","","","","","","","","","","","",""
"","sequential-stimulus-presentation","57","556261","0.0-18.0-1.4","SS1631627995593","null","","","null","","trial","","1000","1000","10","2","Dev","stimuli/images/spore_stims/complex_08_A.gif","5","",""
"","html-keyboard-response","58","558406","0.0-18.0-0.5","SS1631627995593","null","","<p><img src=stimuli/images/blank_test.png width =""200"" height = ""200"" style=""position:absolute;left:85%""></p><p><img src= stimuli/images/blank.png width =""1100"" height = ""1100"" style=""border:5px solid black""></p>","null","","","","","","","","","","","",""
"","sequential-stimulus-presentation","59","619300","0.0-18.0-1.5","SS1631627995593","98708.30000007153","","","40","","trial","","1000","99708.30000007153","10","2","Dev","stimuli/images/spore_stims/complex_07_A.gif","5","",""
"","html-keyboard-response","60","623868","0.0-19.0","SS1631627995593","4566.599999904633","","<p><img src=""stimuli/images/attngetter_blank.png"" width =""1200"" height = ""918"" ></p>","40","","between_block","","","","","","","","","",""
"","video-keyboard-response","61","628514","0.0-20.0","SS1631627995593","null","","[""stimuli/images/attngetter_quiet.mp4""]","null","","attention_getter","","","","","","","","","",""
"","html-keyboard-response","62","630327","0.0-21.0-0.0","SS1631627995593","null","","<p><img src=stimuli/images/blank_fam.png width =""200"" height = ""200"" style=""position:absolute;left:85%""></p><p><img src= stimuli/images/blank.png width =""1100"" height = ""1100"" style=""border:5px solid black""></p>","null","","","","","","","","","","","",""
"","sequential-stimulus-presentation","63","636330","0.0-21.0-1.0","SS1631627995593","null","","","null","","trial","","1000","1000","10","3","Std","stimuli/images/spore_stims/complex_06_A.gif","3","",""
"","html-keyboard-response","64","638581","0.0-21.0-0.1","SS1631627995593","null","","<p><img src=stimuli/images/blank_fam.png width =""200"" height = ""200"" style=""position:absolute;left:85%""></p><p><img src= stimuli/images/blank.png width =""1100"" height = ""1100"" style=""border:5px solid black""></p>","null","","","","","","","","","","","",""
"","sequential-stimulus-presentation","65","644588","0.0-21.0-1.1","SS1631627995593","null","","","null","","trial","","1000","1000","10","3","Std","stimuli/images/spore_stims/complex_06_A.gif","3","",""
"","html-keyboard-response","66","645804","0.0-21.0-0.2","SS1631627995593","null","","<p><img src=stimuli/images/blank_fam.png width =""200"" height = ""200"" style=""position:absolute;left:85%""></p><p><img src= stimuli/images/blank.png width =""1100"" height = ""1100"" style=""border:5px solid black""></p>","null","","","","","","","","","","","",""
"","sequential-stimulus-presentation","67","651809","0.0-21.0-1.2","SS1631627995593","null","","","null","","trial","","1000","1000","10","3","Std","stimuli/images/spore_stims/complex_06_A.gif","3","",""
"","html-keyboard-response","68","653415","0.0-21.0-0.3","SS1631627995593","null","","<p><img src=stimuli/images/blank_test.png width =""200"" height = ""200"" style=""position:absolute;left:85%""></p><p><img src= stimuli/images/blank.png width =""1100"" height = ""1100"" style=""border:5px solid black""></p>","null","","","","","","","","","","","",""
"","sequential-stimulus-presentation","69","669050","0.0-21.0-1.3","SS1631627995593","37719.39999997616","","","40","","trial","","1000","38719.39999997616","10","3","Std","stimuli/images/spore_stims/complex_06_A.gif","3","",""
"","html-keyboard-response","70","670489","0.0-22.0","SS1631627995593","1438.6999999284744","","<p><img src=""stimuli/images/attngetter_blank.png"" width =""1200"" height = ""918"" ></p>","40","","between_block","","","","","","","","","",""
"","video-keyboard-response","71","675130","0.0-23.0","SS1631627995593","null","","[""stimuli/images/attngetter_quiet.mp4""]","null","","attention_getter","","","","","","","","","",""
"","html-keyboard-response","72","677630","0.0-24.0-0.0","SS1631627995593","null","","<p><img src=stimuli/images/blank_fam.png width =""200"" height = ""200"" style=""position:absolute;left:85%""></p><p><img src= stimuli/images/blank.png width =""1100"" height = ""1100"" style=""border:5px solid black""></p>","null","","","","","","","","","","","",""
"","sequential-stimulus-presentation","73","683637","0.0-24.0-1.0","SS1631627995593","null","","","null","","trial","","1000","1000","10","4","Std","stimuli/images/spore_stims/complex_03_A.gif","5","",""
"","html-keyboard-response","74","685951","0.0-24.0-0.1","SS1631627995593","null","","<p><img src=stimuli/images/blank_fam.png width =""200"" height = ""200"" style=""position:absolute;left:85%""></p><p><img src= stimuli/images/blank.png width =""1100"" height = ""1100"" style=""border:5px solid black""></p>","null","","","","","","","","","","","",""
"","sequential-stimulus-presentation","75","691957","0.0-24.0-1.1","SS1631627995593","null","","","null","","trial","","1000","1000","10","4","Std","stimuli/images/spore_stims/complex_03_A.gif","5","",""
"","html-keyboard-response","76","693781","0.0-24.0-0.2","SS1631627995593","null","","<p><img src=stimuli/images/blank_fam.png width =""200"" height = ""200"" style=""position:absolute;left:85%""></p><p><img src= stimuli/images/blank.png width =""1100"" height = ""1100"" style=""border:5px solid black""></p>","null","","","","","","","","","","","",""
"","sequential-stimulus-presentation","77","699785","0.0-24.0-1.2","SS1631627995593","null","","","null","","trial","","1000","1000","10","4","Std","stimuli/images/spore_stims/complex_03_A.gif","5","",""
"","html-keyboard-response","78","701425","0.0-24.0-0.3","SS1631627995593","null","","<p><img src=stimuli/images/blank_fam.png width =""200"" height = ""200"" style=""position:absolute;left:85%""></p><p><img src= stimuli/images/blank.png width =""1100"" height = ""1100"" style=""border:5px solid black""></p>","null","","","","","","","","","","","",""
"","sequential-stimulus-presentation","79","707427","0.0-24.0-1.3","SS1631627995593","null","","","null","","trial","","1000","1000","10","4","Std","stimuli/images/spore_stims/complex_03_A.gif","5","",""
"","html-keyboard-response","80","708205","0.0-24.0-0.4","SS1631627995593","null","","<p><img src=stimuli/images/blank_fam.png width =""200"" height = ""200"" style=""position:absolute;left:85%""></p><p><img src= stimuli/images/blank.png width =""1100"" height = ""1100"" style=""border:5px solid black""></p>","null","","","","","","","","","","","",""
"","sequential-stimulus-presentation","81","709252","0.0-24.0-1.4","SS1631627995593","30619.5","","","40","","trial","","1000","31619.5","10","4","Std","stimuli/images/spore_stims/complex_03_A.gif","5","",""
"","html-keyboard-response","82","711728","0.0-24.0-0.5","SS1631627995593","null","","<p><img src=stimuli/images/blank_test.png width =""200"" height = ""200"" style=""position:absolute;left:85%""></p><p><img src= stimuli/images/blank.png width =""1100"" height = ""1100"" style=""border:5px solid black""></p>","null","","","","","","","","","","","",""
"","sequential-stimulus-presentation","83","714406","0.0-24.0-1.5","SS1631627995593","1676.6000000238419","","","40","","trial","","1000","2676.600000023842","10","4","Std","stimuli/images/spore_stims/complex_03_A.gif","5","",""
"","html-keyboard-response","84","725659","0.0-25.0","SS1631627995593","11252.200000047684","","<p><img src=""stimuli/images/attngetter_blank.png"" width =""1200"" height = ""918"" ></p>","40","","between_block","","","","","","","","","",""
"","video-keyboard-response","85","730303","0.0-26.0","SS1631627995593","null","","[""stimuli/images/attngetter_quiet.mp4""]","null","","attention_getter","","","","","","","","","",""
"","html-keyboard-response","86","730823","0.0-27.0-0.0","SS1631627995593","null","","<p><img src=stimuli/images/blank_fam.png width =""200"" height = ""200"" style=""position:absolute;left:85%""></p><p><img src= stimuli/images/blank.png width =""1100"" height = ""1100"" style=""border:5px solid black""></p>","null","","","","","","","","","","","",""
"","sequential-stimulus-presentation","87","736830","0.0-27.0-1.0","SS1631627995593","null","","","null","","trial","","1000","1000","10","5","Dev","stimuli/images/spore_stims/complex_10_A.gif","3","",""
"","html-keyboard-response","88","739295","0.0-27.0-0.1","SS1631627995593","null","","<p><img src=stimuli/images/blank_fam.png width =""200"" height = ""200"" style=""position:absolute;left:85%""></p><p><img src= stimuli/images/blank.png width =""1100"" height = ""1100"" style=""border:5px solid black""></p>","null","","","","","","","","","","","",""
"","sequential-stimulus-presentation","89","745303","0.0-27.0-1.1","SS1631627995593","null","","","null","","trial","","1000","1000","10","5","Dev","stimuli/images/spore_stims/complex_10_A.gif","3","",""
"","html-keyboard-response","90","746392","0.0-27.0-0.2","SS1631627995593","null","","<p><img src=stimuli/images/blank_fam.png width =""200"" height = ""200"" style=""position:absolute;left:85%""></p><p><img src= stimuli/images/blank.png width =""1100"" height = ""1100"" style=""border:5px solid black""></p>","null","","","","","","","","","","","",""
"","sequential-stimulus-presentation","91","752401","0.0-27.0-1.2","SS1631627995593","null","","","null","","trial","","1000","1000","10","5","Dev","stimuli/images/spore_stims/complex_10_A.gif","3","",""
"","html-keyboard-response","92","754844","0.0-27.0-0.3","SS1631627995593","null","","<p><img src=stimuli/images/blank_test.png width =""200"" height = ""200"" style=""position:absolute;left:85%""></p><p><img src= stimuli/images/blank.png width =""1100"" height = ""1100"" style=""border:5px solid black""></p>","null","","","","","","","","","","","",""
"","sequential-stimulus-presentation","93","767255","0.0-27.0-1.3","SS1631627995593","35427.60000002384","","","40","","trial","","1000","36427.60000002384","10","5","Dev","stimuli/images/spore_stims/complex_09_A.gif","3","",""
"","html-keyboard-response","94","900877","0.0-28.0","SS1631627995593","133623.5","","<p><span style=""font-family: arial, helvetica, sans-serif; font-size: 48px; color: #993300;""> That's it! Thank you so much for your participation! </span></p>","40","","","","","","","","","","","",""
"","survey-multi-choice","95","904624","0.0-29.0","SS1631627995593","3745.5","","","","","","","","","","","","","","[object Object]","0"
