"success","trial_type","trial_index","time_elapsed","internal_node_id","subject","rt","responses","stimulus","key_press","view_history","stimulus_type","trial_stimulus","minimum_viewing_duration","trial_looking_time","subject_num","block_number","block_type","stimulus_displayed","fam_duration","response","question_order"
"true","fullscreen","0","120950","0.0-0.0","SS1632779851734","","","","","","","","","","","","","","","",""
"","survey-text","1","152508","0.0-1.0","SS1632779851734","31555.100000023842","{""Age"":""295"",""Gender"":""F"",""Session"":""2""}","","","","","","","","","","","","","",""
"","audio-keyboard-response","2","161833","0.0-2.0","SS1632779851734","9323.399999976158","","stimuli/audio/music_intro.wav","40","","","","","","","","","","","",""
"","html-keyboard-response","3","163932","0.0-3.0","SS1632779851734","2097.5","","<p><img src=stimuli/intro/intro2.jpeg width ='1200' height = '667'></p>","40","","","","","","","","","","","",""
"","html-keyboard-response","4","200394","0.0-4.0","SS1632779851734","36462.09999990463","","<p><img src=stimuli/intro/intro3.jpeg width ='1200' height = '667'></p>","39","","","","","","","","","","","",""
"","html-keyboard-response","5","212914","0.0-5.0","SS1632779851734","12519.300000071526","","<p><img src=stimuli/intro/intro4.jpeg width ='1200' height = '667'></p>","40","","","","","","","","","","","",""
"","html-keyboard-response","6","217651","0.0-6.0","SS1632779851734","4737.399999976158","","<p><img src=stimuli/intro/intro5.jpeg width ='1200' height = '667'></p>","40","","","","","","","","","","","",""
"","html-keyboard-response","7","222274","0.0-7.0","SS1632779851734","4622.199999928474","","<p><img src=stimuli/intro/intro6.jpeg width ='1200' height = '667'></p>","40","","","","","","","","","","","",""
"","html-keyboard-response","8","222752","0.0-8.0","SS1632779851734","476.89999997615814","","<p><img src=stimuli/intro/intro7.jpeg width ='1200' height = '667'></p>","40","","","","","","","","","","","",""
"","html-keyboard-response","9","229574","0.0-9.0","SS1632779851734","6820.799999952316","","<p><img src=stimuli/intro/intro8.jpeg width ='1200' height = '667'></p>","40","","","","","","","","","","","",""
"","instructions","10","252174","0.0-10.0","SS1632779851734","22600.5","","","","[{""page_index"":0,""viewing_time"":22600.100000023842}]","","","","","","","","","","",""
"","video-keyboard-response","11","256855","0.0-11.0","SS1632779851734","null","","[""stimuli/images/attngetter_quiet.mp4""]","null","","attention_getter","","","","","","","","","",""
"","html-keyboard-response","12","257819","0.0-12.0-0.0","SS1632779851734","null","","<p><img src=stimuli/images/blank_fam.png width =""200"" height = ""200"" style=""position:absolute;left:85%""></p><p><img src= stimuli/images/blank.png width =""1100"" height = ""1100"" style=""border:5px solid black""></p>","null","","","","","","","","","","","",""
"","sequential-stimulus-presentation","13","263825","0.0-12.0-1.0","SS1632779851734","null","","","null","","trial","","1000","1000","18","0","Std","stimuli/images/spore_stims/complex_10_A.gif","3","",""
"","html-keyboard-response","14","266218","0.0-12.0-0.1","SS1632779851734","null","","<p><img src=stimuli/images/blank_fam.png width =""200"" height = ""200"" style=""position:absolute;left:85%""></p><p><img src= stimuli/images/blank.png width =""1100"" height = ""1100"" style=""border:5px solid black""></p>","null","","","","","","","","","","","",""
"","sequential-stimulus-presentation","15","272224","0.0-12.0-1.1","SS1632779851734","null","","","null","","trial","","1000","1000","18","0","Std","stimuli/images/spore_stims/complex_10_A.gif","3","",""
"","html-keyboard-response","16","273761","0.0-12.0-0.2","SS1632779851734","null","","<p><img src=stimuli/images/blank_fam.png width =""200"" height = ""200"" style=""position:absolute;left:85%""></p><p><img src= stimuli/images/blank.png width =""1100"" height = ""1100"" style=""border:5px solid black""></p>","null","","","","","","","","","","","",""
"","sequential-stimulus-presentation","17","279766","0.0-12.0-1.2","SS1632779851734","null","","","null","","trial","","1000","1000","18","0","Std","stimuli/images/spore_stims/complex_10_A.gif","3","",""
"","html-keyboard-response","18","281299","0.0-12.0-0.3","SS1632779851734","null","","<p><img src=stimuli/images/blank_test.png width =""200"" height = ""200"" style=""position:absolute;left:85%""></p><p><img src= stimuli/images/blank.png width =""1100"" height = ""1100"" style=""border:5px solid black""></p>","null","","","","","","","","","","","",""
"","sequential-stimulus-presentation","19","295860","0.0-12.0-1.3","SS1632779851734","37036.5","","","40","","trial","","1000","38036.5","18","0","Std","stimuli/images/spore_stims/complex_10_A.gif","3","",""
"","html-keyboard-response","20","296827","0.0-13.0","SS1632779851734","966.3999999761581","","<p><img src=""stimuli/images/attngetter_blank.png""></p>","40","","between_block","","","","","","","","","",""
"","video-keyboard-response","21","301487","0.0-14.0","SS1632779851734","null","","[""stimuli/images/attngetter_quiet.mp4""]","null","","attention_getter","","","","","","","","","",""
"","html-keyboard-response","22","302544","0.0-15.0-0.0","SS1632779851734","null","","<p><img src=stimuli/images/blank_fam.png width =""200"" height = ""200"" style=""position:absolute;left:85%""></p><p><img src= stimuli/images/blank.png width =""1100"" height = ""1100"" style=""border:5px solid black""></p>","null","","","","","","","","","","","",""
"","sequential-stimulus-presentation","23","308552","0.0-15.0-1.0","SS1632779851734","null","","","null","","trial","","1000","1000","18","1","Dev","stimuli/images/spore_stims/complex_01_A.gif","3","",""
"","html-keyboard-response","24","309437","0.0-15.0-0.1","SS1632779851734","null","","<p><img src=stimuli/images/blank_fam.png width =""200"" height = ""200"" style=""position:absolute;left:85%""></p><p><img src= stimuli/images/blank.png width =""1100"" height = ""1100"" style=""border:5px solid black""></p>","null","","","","","","","","","","","",""
"","sequential-stimulus-presentation","25","315444","0.0-15.0-1.1","SS1632779851734","null","","","null","","trial","","1000","1000","18","1","Dev","stimuli/images/spore_stims/complex_01_A.gif","3","",""
"","html-keyboard-response","26","315995","0.0-15.0-0.2","SS1632779851734","null","","<p><img src=stimuli/images/blank_fam.png width =""200"" height = ""200"" style=""position:absolute;left:85%""></p><p><img src= stimuli/images/blank.png width =""1100"" height = ""1100"" style=""border:5px solid black""></p>","null","","","","","","","","","","","",""
"","sequential-stimulus-presentation","27","322003","0.0-15.0-1.2","SS1632779851734","null","","","null","","trial","","1000","1000","18","1","Dev","stimuli/images/spore_stims/complex_01_A.gif","3","",""
"","html-keyboard-response","28","324384","0.0-15.0-0.3","SS1632779851734","null","","<p><img src=stimuli/images/blank_test.png width =""200"" height = ""200"" style=""position:absolute;left:85%""></p><p><img src= stimuli/images/blank.png width =""1100"" height = ""1100"" style=""border:5px solid black""></p>","null","","","","","","","","","","","",""
"","sequential-stimulus-presentation","29","346170","0.0-15.0-1.3","SS1632779851734","42620.59999990463","","","40","","trial","","1000","43620.59999990463","18","1","Dev","stimuli/images/spore_stims/complex_02_A.gif","3","",""
"","html-keyboard-response","30","347747","0.0-16.0","SS1632779851734","1576.3000000715256","","<p><img src=""stimuli/images/attngetter_blank.png""></p>","40","","between_block","","","","","","","","","",""
"","video-keyboard-response","31","352391","0.0-17.0","SS1632779851734","null","","[""stimuli/images/attngetter_quiet.mp4""]","null","","attention_getter","","","","","","","","","",""
"","html-keyboard-response","32","353596","0.0-18.0-0.0","SS1632779851734","null","","<p><img src=stimuli/images/blank_fam.png width =""200"" height = ""200"" style=""position:absolute;left:85%""></p><p><img src= stimuli/images/blank.png width =""1100"" height = ""1100"" style=""border:5px solid black""></p>","null","","","","","","","","","","","",""
"","sequential-stimulus-presentation","33","359606","0.0-18.0-1.0","SS1632779851734","null","","","null","","trial","","1000","1000","18","2","Dev","stimuli/images/spore_stims/complex_11_A.gif","7","",""
"","html-keyboard-response","34","361296","0.0-18.0-0.1","SS1632779851734","null","","<p><img src=stimuli/images/blank_fam.png width =""200"" height = ""200"" style=""position:absolute;left:85%""></p><p><img src= stimuli/images/blank.png width =""1100"" height = ""1100"" style=""border:5px solid black""></p>","null","","","","","","","","","","","",""
"","sequential-stimulus-presentation","35","367306","0.0-18.0-1.1","SS1632779851734","null","","","null","","trial","","1000","1000","18","2","Dev","stimuli/images/spore_stims/complex_11_A.gif","7","",""
"","html-keyboard-response","36","367809","0.0-18.0-0.2","SS1632779851734","null","","<p><img src=stimuli/images/blank_fam.png width =""200"" height = ""200"" style=""position:absolute;left:85%""></p><p><img src= stimuli/images/blank.png width =""1100"" height = ""1100"" style=""border:5px solid black""></p>","null","","","","","","","","","","","",""
"","sequential-stimulus-presentation","37","373818","0.0-18.0-1.2","SS1632779851734","null","","","null","","trial","","1000","1000","18","2","Dev","stimuli/images/spore_stims/complex_11_A.gif","7","",""
"","html-keyboard-response","38","375492","0.0-18.0-0.3","SS1632779851734","null","","<p><img src=stimuli/images/blank_fam.png width =""200"" height = ""200"" style=""position:absolute;left:85%""></p><p><img src= stimuli/images/blank.png width =""1100"" height = ""1100"" style=""border:5px solid black""></p>","null","","","","","","","","","","","",""
"","sequential-stimulus-presentation","39","381498","0.0-18.0-1.3","SS1632779851734","null","","","null","","trial","","1000","1000","18","2","Dev","stimuli/images/spore_stims/complex_11_A.gif","7","",""
"","html-keyboard-response","40","382183","0.0-18.0-0.4","SS1632779851734","null","","<p><img src=stimuli/images/blank_fam.png width =""200"" height = ""200"" style=""position:absolute;left:85%""></p><p><img src= stimuli/images/blank.png width =""1100"" height = ""1100"" style=""border:5px solid black""></p>","null","","","","","","","","","","","",""
"","sequential-stimulus-presentation","41","388190","0.0-18.0-1.4","SS1632779851734","null","","","null","","trial","","1000","1000","18","2","Dev","stimuli/images/spore_stims/complex_11_A.gif","7","",""
"","html-keyboard-response","42","390639","0.0-18.0-0.5","SS1632779851734","null","","<p><img src=stimuli/images/blank_fam.png width =""200"" height = ""200"" style=""position:absolute;left:85%""></p><p><img src= stimuli/images/blank.png width =""1100"" height = ""1100"" style=""border:5px solid black""></p>","null","","","","","","","","","","","",""
"","sequential-stimulus-presentation","43","396644","0.0-18.0-1.5","SS1632779851734","null","","","null","","trial","","1000","1000","18","2","Dev","stimuli/images/spore_stims/complex_11_A.gif","7","",""
"","html-keyboard-response","44","398772","0.0-18.0-0.6","SS1632779851734","null","","<p><img src=stimuli/images/blank_fam.png width =""200"" height = ""200"" style=""position:absolute;left:85%""></p><p><img src= stimuli/images/blank.png width =""1100"" height = ""1100"" style=""border:5px solid black""></p>","null","","","","","","","","","","","",""
"","sequential-stimulus-presentation","45","404777","0.0-18.0-1.6","SS1632779851734","null","","","null","","trial","","1000","1000","18","2","Dev","stimuli/images/spore_stims/complex_11_A.gif","7","",""
"","html-keyboard-response","46","406630","0.0-18.0-0.7","SS1632779851734","null","","<p><img src=stimuli/images/blank_test.png width =""200"" height = ""200"" style=""position:absolute;left:85%""></p><p><img src= stimuli/images/blank.png width =""1100"" height = ""1100"" style=""border:5px solid black""></p>","null","","","","","","","","","","","",""
"","sequential-stimulus-presentation","47","422973","0.0-18.0-1.7","SS1632779851734","68372.29999995232","","","40","","trial","","1000","69372.29999995232","18","2","Dev","stimuli/images/spore_stims/complex_12_A.gif","7","",""
"","html-keyboard-response","48","424047","0.0-19.0","SS1632779851734","1073.2000000476837","","<p><img src=""stimuli/images/attngetter_blank.png""></p>","40","","between_block","","","","","","","","","",""
"","video-keyboard-response","49","428709","0.0-20.0","SS1632779851734","null","","[""stimuli/images/attngetter_quiet.mp4""]","null","","attention_getter","","","","","","","","","",""
"","html-keyboard-response","50","429798","0.0-21.0-0.0","SS1632779851734","null","","<p><img src=stimuli/images/blank_fam.png width =""200"" height = ""200"" style=""position:absolute;left:85%""></p><p><img src= stimuli/images/blank.png width =""1100"" height = ""1100"" style=""border:5px solid black""></p>","null","","","","","","","","","","","",""
"","sequential-stimulus-presentation","51","435803","0.0-21.0-1.0","SS1632779851734","null","","","null","","trial","","1000","1000","18","3","Std","stimuli/images/spore_stims/complex_06_A.gif","5","",""
"","html-keyboard-response","52","436918","0.0-21.0-0.1","SS1632779851734","null","","<p><img src=stimuli/images/blank_fam.png width =""200"" height = ""200"" style=""position:absolute;left:85%""></p><p><img src= stimuli/images/blank.png width =""1100"" height = ""1100"" style=""border:5px solid black""></p>","null","","","","","","","","","","","",""
"","sequential-stimulus-presentation","53","442929","0.0-21.0-1.1","SS1632779851734","null","","","null","","trial","","1000","1000","18","3","Std","stimuli/images/spore_stims/complex_06_A.gif","5","",""
"","html-keyboard-response","54","444406","0.0-21.0-0.2","SS1632779851734","null","","<p><img src=stimuli/images/blank_fam.png width =""200"" height = ""200"" style=""position:absolute;left:85%""></p><p><img src= stimuli/images/blank.png width =""1100"" height = ""1100"" style=""border:5px solid black""></p>","null","","","","","","","","","","","",""
"","sequential-stimulus-presentation","55","450410","0.0-21.0-1.2","SS1632779851734","null","","","null","","trial","","1000","1000","18","3","Std","stimuli/images/spore_stims/complex_06_A.gif","5","",""
"","html-keyboard-response","56","452159","0.0-21.0-0.3","SS1632779851734","null","","<p><img src=stimuli/images/blank_fam.png width =""200"" height = ""200"" style=""position:absolute;left:85%""></p><p><img src= stimuli/images/blank.png width =""1100"" height = ""1100"" style=""border:5px solid black""></p>","null","","","","","","","","","","","",""
"","sequential-stimulus-presentation","57","458163","0.0-21.0-1.3","SS1632779851734","null","","","null","","trial","","1000","1000","18","3","Std","stimuli/images/spore_stims/complex_06_A.gif","5","",""
"","html-keyboard-response","58","459898","0.0-21.0-0.4","SS1632779851734","null","","<p><img src=stimuli/images/blank_fam.png width =""200"" height = ""200"" style=""position:absolute;left:85%""></p><p><img src= stimuli/images/blank.png width =""1100"" height = ""1100"" style=""border:5px solid black""></p>","null","","","","","","","","","","","",""
"","sequential-stimulus-presentation","59","465904","0.0-21.0-1.4","SS1632779851734","null","","","null","","trial","","1000","1000","18","3","Std","stimuli/images/spore_stims/complex_06_A.gif","5","",""
"","html-keyboard-response","60","467639","0.0-21.0-0.5","SS1632779851734","null","","<p><img src=stimuli/images/blank_test.png width =""200"" height = ""200"" style=""position:absolute;left:85%""></p><p><img src= stimuli/images/blank.png width =""1100"" height = ""1100"" style=""border:5px solid black""></p>","null","","","","","","","","","","","",""
"","sequential-stimulus-presentation","61","478523","0.0-21.0-1.5","SS1632779851734","47719.799999952316","","","40","","trial","","1000","48719.799999952316","18","3","Std","stimuli/images/spore_stims/complex_06_A.gif","5","",""
"","html-keyboard-response","62","479628","0.0-22.0","SS1632779851734","1104.3000000715256","","<p><img src=""stimuli/images/attngetter_blank.png""></p>","40","","between_block","","","","","","","","","",""
"","video-keyboard-response","63","484265","0.0-23.0","SS1632779851734","null","","[""stimuli/images/attngetter_quiet.mp4""]","null","","attention_getter","","","","","","","","","",""
"","html-keyboard-response","64","484881","0.0-24.0-0.0","SS1632779851734","null","","<p><img src=stimuli/images/blank_fam.png width =""200"" height = ""200"" style=""position:absolute;left:85%""></p><p><img src= stimuli/images/blank.png width =""1100"" height = ""1100"" style=""border:5px solid black""></p>","null","","","","","","","","","","","",""
"","sequential-stimulus-presentation","65","490888","0.0-24.0-1.0","SS1632779851734","null","","","null","","trial","","1000","1000","18","4","Std","stimuli/images/spore_stims/complex_03_A.gif","7","",""
"","html-keyboard-response","66","491778","0.0-24.0-0.1","SS1632779851734","null","","<p><img src=stimuli/images/blank_fam.png width =""200"" height = ""200"" style=""position:absolute;left:85%""></p><p><img src= stimuli/images/blank.png width =""1100"" height = ""1100"" style=""border:5px solid black""></p>","null","","","","","","","","","","","",""
"","sequential-stimulus-presentation","67","497789","0.0-24.0-1.1","SS1632779851734","null","","","null","","trial","","1000","1000","18","4","Std","stimuli/images/spore_stims/complex_03_A.gif","7","",""
"","html-keyboard-response","68","498911","0.0-24.0-0.2","SS1632779851734","null","","<p><img src=stimuli/images/blank_fam.png width =""200"" height = ""200"" style=""position:absolute;left:85%""></p><p><img src= stimuli/images/blank.png width =""1100"" height = ""1100"" style=""border:5px solid black""></p>","null","","","","","","","","","","","",""
"","sequential-stimulus-presentation","69","504918","0.0-24.0-1.2","SS1632779851734","null","","","null","","trial","","1000","1000","18","4","Std","stimuli/images/spore_stims/complex_03_A.gif","7","",""
"","html-keyboard-response","70","505837","0.0-24.0-0.3","SS1632779851734","null","","<p><img src=stimuli/images/blank_fam.png width =""200"" height = ""200"" style=""position:absolute;left:85%""></p><p><img src= stimuli/images/blank.png width =""1100"" height = ""1100"" style=""border:5px solid black""></p>","null","","","","","","","","","","","",""
"","sequential-stimulus-presentation","71","511843","0.0-24.0-1.3","SS1632779851734","null","","","null","","trial","","1000","1000","18","4","Std","stimuli/images/spore_stims/complex_03_A.gif","7","",""
"","html-keyboard-response","72","512929","0.0-24.0-0.4","SS1632779851734","null","","<p><img src=stimuli/images/blank_fam.png width =""200"" height = ""200"" style=""position:absolute;left:85%""></p><p><img src= stimuli/images/blank.png width =""1100"" height = ""1100"" style=""border:5px solid black""></p>","null","","","","","","","","","","","",""
"","sequential-stimulus-presentation","73","518933","0.0-24.0-1.4","SS1632779851734","null","","","null","","trial","","1000","1000","18","4","Std","stimuli/images/spore_stims/complex_03_A.gif","7","",""
"","html-keyboard-response","74","521251","0.0-24.0-0.5","SS1632779851734","null","","<p><img src=stimuli/images/blank_fam.png width =""200"" height = ""200"" style=""position:absolute;left:85%""></p><p><img src= stimuli/images/blank.png width =""1100"" height = ""1100"" style=""border:5px solid black""></p>","null","","","","","","","","","","","",""
"","sequential-stimulus-presentation","75","527258","0.0-24.0-1.5","SS1632779851734","null","","","null","","trial","","1000","1000","18","4","Std","stimuli/images/spore_stims/complex_03_A.gif","7","",""
"","html-keyboard-response","76","528566","0.0-24.0-0.6","SS1632779851734","null","","<p><img src=stimuli/images/blank_fam.png width =""200"" height = ""200"" style=""position:absolute;left:85%""></p><p><img src= stimuli/images/blank.png width =""1100"" height = ""1100"" style=""border:5px solid black""></p>","null","","","","","","","","","","","",""
"","sequential-stimulus-presentation","77","534572","0.0-24.0-1.6","SS1632779851734","null","","","null","","trial","","1000","1000","18","4","Std","stimuli/images/spore_stims/complex_03_A.gif","7","",""
"","html-keyboard-response","78","536384","0.0-24.0-0.7","SS1632779851734","null","","<p><img src=stimuli/images/blank_test.png width =""200"" height = ""200"" style=""position:absolute;left:85%""></p><p><img src= stimuli/images/blank.png width =""1100"" height = ""1100"" style=""border:5px solid black""></p>","null","","","","","","","","","","","",""
"","sequential-stimulus-presentation","79","546381","0.0-24.0-1.7","SS1632779851734","60496.200000047684","","","40","","trial","","1000","61496.200000047684","18","4","Std","stimuli/images/spore_stims/complex_03_A.gif","7","",""
"","html-keyboard-response","80","552341","0.0-25.0","SS1632779851734","5959.5","","<p><img src=""stimuli/images/attngetter_blank.png""></p>","40","","between_block","","","","","","","","","",""
"","video-keyboard-response","81","557034","0.0-26.0","SS1632779851734","null","","[""stimuli/images/attngetter_quiet.mp4""]","null","","attention_getter","","","","","","","","","",""
"","html-keyboard-response","82","557572","0.0-27.0-0.0","SS1632779851734","null","","<p><img src=stimuli/images/blank_fam.png width =""200"" height = ""200"" style=""position:absolute;left:85%""></p><p><img src= stimuli/images/blank.png width =""1100"" height = ""1100"" style=""border:5px solid black""></p>","null","","","","","","","","","","","",""
"","sequential-stimulus-presentation","83","563578","0.0-27.0-1.0","SS1632779851734","null","","","null","","trial","","1000","1000","18","5","Dev","stimuli/images/spore_stims/complex_08_A.gif","5","",""
"","html-keyboard-response","84","565120","0.0-27.0-0.1","SS1632779851734","null","","<p><img src=stimuli/images/blank_fam.png width =""200"" height = ""200"" style=""position:absolute;left:85%""></p><p><img src= stimuli/images/blank.png width =""1100"" height = ""1100"" style=""border:5px solid black""></p>","null","","","","","","","","","","","",""
"","sequential-stimulus-presentation","85","571127","0.0-27.0-1.1","SS1632779851734","null","","","null","","trial","","1000","1000","18","5","Dev","stimuli/images/spore_stims/complex_08_A.gif","5","",""
"","html-keyboard-response","86","573068","0.0-27.0-0.2","SS1632779851734","null","","<p><img src=stimuli/images/blank_fam.png width =""200"" height = ""200"" style=""position:absolute;left:85%""></p><p><img src= stimuli/images/blank.png width =""1100"" height = ""1100"" style=""border:5px solid black""></p>","null","","","","","","","","","","","",""
"","sequential-stimulus-presentation","87","579074","0.0-27.0-1.2","SS1632779851734","null","","","null","","trial","","1000","1000","18","5","Dev","stimuli/images/spore_stims/complex_08_A.gif","5","",""
"","html-keyboard-response","88","580506","0.0-27.0-0.3","SS1632779851734","null","","<p><img src=stimuli/images/blank_fam.png width =""200"" height = ""200"" style=""position:absolute;left:85%""></p><p><img src= stimuli/images/blank.png width =""1100"" height = ""1100"" style=""border:5px solid black""></p>","null","","","","","","","","","","","",""
"","sequential-stimulus-presentation","89","586508","0.0-27.0-1.3","SS1632779851734","null","","","null","","trial","","1000","1000","18","5","Dev","stimuli/images/spore_stims/complex_08_A.gif","5","",""
"","html-keyboard-response","90","587577","0.0-27.0-0.4","SS1632779851734","null","","<p><img src=stimuli/images/blank_fam.png width =""200"" height = ""200"" style=""position:absolute;left:85%""></p><p><img src= stimuli/images/blank.png width =""1100"" height = ""1100"" style=""border:5px solid black""></p>","null","","","","","","","","","","","",""
"","sequential-stimulus-presentation","91","593579","0.0-27.0-1.4","SS1632779851734","null","","","null","","trial","","1000","1000","18","5","Dev","stimuli/images/spore_stims/complex_08_A.gif","5","",""
"","html-keyboard-response","92","594423","0.0-27.0-0.5","SS1632779851734","null","","<p><img src=stimuli/images/blank_test.png width =""200"" height = ""200"" style=""position:absolute;left:85%""></p><p><img src= stimuli/images/blank.png width =""1100"" height = ""1100"" style=""border:5px solid black""></p>","null","","","","","","","","","","","",""
"","sequential-stimulus-presentation","93","604161","0.0-27.0-1.5","SS1632779851734","45587.89999997616","","","40","","trial","","1000","46587.89999997616","18","5","Dev","stimuli/images/spore_stims/complex_07_A.gif","5","",""
"","html-keyboard-response","94","630715","0.0-28.0","SS1632779851734","26553.099999904633","","<p><span style=""font-family: arial, helvetica, sans-serif; font-size: 48px; color: #993300;""> That's it! Thank you so much for your participation! </span></p>","40","","","","","","","","","","","",""
"","survey-multi-choice","95","632152","0.0-29.0","SS1632779851734","1434.3999999761581","","","","","","","","","","","","","","[object Object]","0"
