"success","trial_type","trial_index","time_elapsed","internal_node_id","subject","rt","responses","stimulus","key_press","view_history","stimulus_type","trial_stimulus","minimum_viewing_duration","trial_looking_time","subject_num","block_number","block_type","stimulus_displayed","fam_duration","response","question_order"
"true","fullscreen","0","86267","0.0-0.0","SS1632936837955","","","","","","","","","","","","","","","",""
"","survey-text","1","99527","0.0-1.0","SS1632936837955","13257.10000000149","{""Age"":""336"",""Gender"":""M"",""Session"":""2""}","","","","","","","","","","","","","",""
"","audio-keyboard-response","2","106981","0.0-2.0","SS1632936837955","7452.5","","stimuli/audio/music_intro.wav","40","","","","","","","","","","","",""
"","html-keyboard-response","3","110873","0.0-3.0","SS1632936837955","3891.6999999955297","","<p><img src=stimuli/intro/intro2.jpeg width ='1200' height = '667'></p>","40","","","","","","","","","","","",""
"","html-keyboard-response","4","131729","0.0-4.0","SS1632936837955","20854.90000000596","","<p><img src=stimuli/intro/intro3.jpeg width ='1200' height = '667'></p>","40","","","","","","","","","","","",""
"","html-keyboard-response","5","154366","0.0-5.0","SS1632936837955","22636.69999999553","","<p><img src=stimuli/intro/intro4.jpeg width ='1200' height = '667'></p>","40","","","","","","","","","","","",""
"","html-keyboard-response","6","165211","0.0-6.0","SS1632936837955","10844.39999999851","","<p><img src=stimuli/intro/intro5.jpeg width ='1200' height = '667'></p>","40","","","","","","","","","","","",""
"","html-keyboard-response","7","173131","0.0-7.0","SS1632936837955","7918.4000000059605","","<p><img src=stimuli/intro/intro6.jpeg width ='1200' height = '667'></p>","40","","","","","","","","","","","",""
"","html-keyboard-response","8","173460","0.0-8.0","SS1632936837955","328.8999999985099","","<p><img src=stimuli/intro/intro7.jpeg width ='1200' height = '667'></p>","40","","","","","","","","","","","",""
"","html-keyboard-response","9","251586","0.0-9.0","SS1632936837955","78124.39999999851","","<p><img src=stimuli/intro/intro8.jpeg width ='1200' height = '667'></p>","40","","","","","","","","","","","",""
"","instructions","10","274207","0.0-10.0","SS1632936837955","22620.29999999702","","","","[{""page_index"":0,""viewing_time"":22619.89999999851}]","","","","","","","","","","",""
"","video-keyboard-response","11","278869","0.0-11.0","SS1632936837955","null","","[""stimuli/images/attngetter_quiet.mp4""]","null","","attention_getter","","","","","","","","","",""
"","html-keyboard-response","12","280133","0.0-12.0-0.0","SS1632936837955","null","","<p><img src=stimuli/images/blank_fam.png width =""200"" height = ""200"" style=""position:absolute;left:85%""></p><p><img src= stimuli/images/blank.png width =""1100"" height = ""1100"" style=""border:5px solid black""></p>","null","","","","","","","","","","","",""
"","sequential-stimulus-presentation","13","286138","0.0-12.0-1.0","SS1632936837955","null","","","null","","trial","","1000","1000","29","0","Dev","stimuli/images/spore_stims/simple_04_A.gif","7","",""
"","html-keyboard-response","14","287989","0.0-12.0-0.1","SS1632936837955","null","","<p><img src=stimuli/images/blank_fam.png width =""200"" height = ""200"" style=""position:absolute;left:85%""></p><p><img src= stimuli/images/blank.png width =""1100"" height = ""1100"" style=""border:5px solid black""></p>","null","","","","","","","","","","","",""
"","sequential-stimulus-presentation","15","293995","0.0-12.0-1.1","SS1632936837955","null","","","null","","trial","","1000","1000","29","0","Dev","stimuli/images/spore_stims/simple_04_A.gif","7","",""
"","html-keyboard-response","16","294502","0.0-12.0-0.2","SS1632936837955","null","","<p><img src=stimuli/images/blank_fam.png width =""200"" height = ""200"" style=""position:absolute;left:85%""></p><p><img src= stimuli/images/blank.png width =""1100"" height = ""1100"" style=""border:5px solid black""></p>","null","","","","","","","","","","","",""
"","sequential-stimulus-presentation","17","300510","0.0-12.0-1.2","SS1632936837955","null","","","null","","trial","","1000","1000","29","0","Dev","stimuli/images/spore_stims/simple_04_A.gif","7","",""
"","html-keyboard-response","18","302583","0.0-12.0-0.3","SS1632936837955","null","","<p><img src=stimuli/images/blank_fam.png width =""200"" height = ""200"" style=""position:absolute;left:85%""></p><p><img src= stimuli/images/blank.png width =""1100"" height = ""1100"" style=""border:5px solid black""></p>","null","","","","","","","","","","","",""
"","sequential-stimulus-presentation","19","308588","0.0-12.0-1.3","SS1632936837955","null","","","null","","trial","","1000","1000","29","0","Dev","stimuli/images/spore_stims/simple_04_A.gif","7","",""
"","html-keyboard-response","20","310244","0.0-12.0-0.4","SS1632936837955","null","","<p><img src=stimuli/images/blank_fam.png width =""200"" height = ""200"" style=""position:absolute;left:85%""></p><p><img src= stimuli/images/blank.png width =""1100"" height = ""1100"" style=""border:5px solid black""></p>","null","","","","","","","","","","","",""
"","sequential-stimulus-presentation","21","316250","0.0-12.0-1.4","SS1632936837955","null","","","null","","trial","","1000","1000","29","0","Dev","stimuli/images/spore_stims/simple_04_A.gif","7","",""
"","html-keyboard-response","22","318733","0.0-12.0-0.5","SS1632936837955","null","","<p><img src=stimuli/images/blank_fam.png width =""200"" height = ""200"" style=""position:absolute;left:85%""></p><p><img src= stimuli/images/blank.png width =""1100"" height = ""1100"" style=""border:5px solid black""></p>","null","","","","","","","","","","","",""
"","sequential-stimulus-presentation","23","324743","0.0-12.0-1.5","SS1632936837955","null","","","null","","trial","","1000","1000","29","0","Dev","stimuli/images/spore_stims/simple_04_A.gif","7","",""
"","html-keyboard-response","24","326571","0.0-12.0-0.6","SS1632936837955","null","","<p><img src=stimuli/images/blank_fam.png width =""200"" height = ""200"" style=""position:absolute;left:85%""></p><p><img src= stimuli/images/blank.png width =""1100"" height = ""1100"" style=""border:5px solid black""></p>","null","","","","","","","","","","","",""
"","sequential-stimulus-presentation","25","332578","0.0-12.0-1.6","SS1632936837955","null","","","null","","trial","","1000","1000","29","0","Dev","stimuli/images/spore_stims/simple_04_A.gif","7","",""
"","html-keyboard-response","26","334947","0.0-12.0-0.7","SS1632936837955","null","","<p><img src=stimuli/images/blank_test.png width =""200"" height = ""200"" style=""position:absolute;left:85%""></p><p><img src= stimuli/images/blank.png width =""1100"" height = ""1100"" style=""border:5px solid black""></p>","null","","","","","","","","","","","",""
"","sequential-stimulus-presentation","27","344015","0.0-12.0-1.7","SS1632936837955","62876","","","40","","trial","","1000","63876","29","0","Dev","stimuli/images/spore_stims/simple_03_A.gif","7","",""
"","html-keyboard-response","28","344307","0.0-13.0","SS1632936837955","291","","<p><img src=""stimuli/images/attngetter_blank.png""></p>","40","","between_block","","","","","","","","","",""
"","video-keyboard-response","29","348935","0.0-14.0","SS1632936837955","null","","[""stimuli/images/attngetter_quiet.mp4""]","null","","attention_getter","","","","","","","","","",""
"","html-keyboard-response","30","349660","0.0-15.0-0.0","SS1632936837955","null","","<p><img src=stimuli/images/blank_fam.png width =""200"" height = ""200"" style=""position:absolute;left:85%""></p><p><img src= stimuli/images/blank.png width =""1100"" height = ""1100"" style=""border:5px solid black""></p>","null","","","","","","","","","","","",""
"","sequential-stimulus-presentation","31","355666","0.0-15.0-1.0","SS1632936837955","null","","","null","","trial","","1000","1000","29","1","Std","stimuli/images/spore_stims/simple_07_A.gif","3","",""
"","html-keyboard-response","32","357909","0.0-15.0-0.1","SS1632936837955","null","","<p><img src=stimuli/images/blank_fam.png width =""200"" height = ""200"" style=""position:absolute;left:85%""></p><p><img src= stimuli/images/blank.png width =""1100"" height = ""1100"" style=""border:5px solid black""></p>","null","","","","","","","","","","","",""
"","sequential-stimulus-presentation","33","363917","0.0-15.0-1.1","SS1632936837955","null","","","null","","trial","","1000","1000","29","1","Std","stimuli/images/spore_stims/simple_07_A.gif","3","",""
"","html-keyboard-response","34","365184","0.0-15.0-0.2","SS1632936837955","null","","<p><img src=stimuli/images/blank_fam.png width =""200"" height = ""200"" style=""position:absolute;left:85%""></p><p><img src= stimuli/images/blank.png width =""1100"" height = ""1100"" style=""border:5px solid black""></p>","null","","","","","","","","","","","",""
"","sequential-stimulus-presentation","35","371193","0.0-15.0-1.2","SS1632936837955","null","","","null","","trial","","1000","1000","29","1","Std","stimuli/images/spore_stims/simple_07_A.gif","3","",""
"","html-keyboard-response","36","372757","0.0-15.0-0.3","SS1632936837955","null","","<p><img src=stimuli/images/blank_test.png width =""200"" height = ""200"" style=""position:absolute;left:85%""></p><p><img src= stimuli/images/blank.png width =""1100"" height = ""1100"" style=""border:5px solid black""></p>","null","","","","","","","","","","","",""
"","sequential-stimulus-presentation","37","400221","0.0-15.0-1.3","SS1632936837955","49555.80000000447","","","40","","trial","","1000","50555.80000000447","29","1","Std","stimuli/images/spore_stims/simple_07_A.gif","3","",""
"","html-keyboard-response","38","402472","0.0-16.0","SS1632936837955","2249.1999999955297","","<p><img src=""stimuli/images/attngetter_blank.png""></p>","40","","between_block","","","","","","","","","",""
"","video-keyboard-response","39","407096","0.0-17.0","SS1632936837955","null","","[""stimuli/images/attngetter_quiet.mp4""]","null","","attention_getter","","","","","","","","","",""
"","html-keyboard-response","40","407780","0.0-18.0-0.0","SS1632936837955","null","","<p><img src=stimuli/images/blank_fam.png width =""200"" height = ""200"" style=""position:absolute;left:85%""></p><p><img src= stimuli/images/blank.png width =""1100"" height = ""1100"" style=""border:5px solid black""></p>","null","","","","","","","","","","","",""
"","sequential-stimulus-presentation","41","413787","0.0-18.0-1.0","SS1632936837955","null","","","null","","trial","","1000","1000","29","2","Std","stimuli/images/spore_stims/simple_11_A.gif","7","",""
"","html-keyboard-response","42","415149","0.0-18.0-0.1","SS1632936837955","null","","<p><img src=stimuli/images/blank_fam.png width =""200"" height = ""200"" style=""position:absolute;left:85%""></p><p><img src= stimuli/images/blank.png width =""1100"" height = ""1100"" style=""border:5px solid black""></p>","null","","","","","","","","","","","",""
"","sequential-stimulus-presentation","43","421154","0.0-18.0-1.1","SS1632936837955","null","","","null","","trial","","1000","1000","29","2","Std","stimuli/images/spore_stims/simple_11_A.gif","7","",""
"","html-keyboard-response","44","422120","0.0-18.0-0.2","SS1632936837955","null","","<p><img src=stimuli/images/blank_fam.png width =""200"" height = ""200"" style=""position:absolute;left:85%""></p><p><img src= stimuli/images/blank.png width =""1100"" height = ""1100"" style=""border:5px solid black""></p>","null","","","","","","","","","","","",""
"","sequential-stimulus-presentation","45","428124","0.0-18.0-1.2","SS1632936837955","null","","","null","","trial","","1000","1000","29","2","Std","stimuli/images/spore_stims/simple_11_A.gif","7","",""
"","html-keyboard-response","46","429748","0.0-18.0-0.3","SS1632936837955","null","","<p><img src=stimuli/images/blank_fam.png width =""200"" height = ""200"" style=""position:absolute;left:85%""></p><p><img src= stimuli/images/blank.png width =""1100"" height = ""1100"" style=""border:5px solid black""></p>","null","","","","","","","","","","","",""
"","sequential-stimulus-presentation","47","435755","0.0-18.0-1.3","SS1632936837955","null","","","null","","trial","","1000","1000","29","2","Std","stimuli/images/spore_stims/simple_11_A.gif","7","",""
"","html-keyboard-response","48","436523","0.0-18.0-0.4","SS1632936837955","null","","<p><img src=stimuli/images/blank_fam.png width =""200"" height = ""200"" style=""position:absolute;left:85%""></p><p><img src= stimuli/images/blank.png width =""1100"" height = ""1100"" style=""border:5px solid black""></p>","null","","","","","","","","","","","",""
"","sequential-stimulus-presentation","49","442529","0.0-18.0-1.4","SS1632936837955","null","","","null","","trial","","1000","1000","29","2","Std","stimuli/images/spore_stims/simple_11_A.gif","7","",""
"","html-keyboard-response","50","444596","0.0-18.0-0.5","SS1632936837955","null","","<p><img src=stimuli/images/blank_fam.png width =""200"" height = ""200"" style=""position:absolute;left:85%""></p><p><img src= stimuli/images/blank.png width =""1100"" height = ""1100"" style=""border:5px solid black""></p>","null","","","","","","","","","","","",""
"","sequential-stimulus-presentation","51","450605","0.0-18.0-1.5","SS1632936837955","null","","","null","","trial","","1000","1000","29","2","Std","stimuli/images/spore_stims/simple_11_A.gif","7","",""
"","html-keyboard-response","52","451734","0.0-18.0-0.6","SS1632936837955","null","","<p><img src=stimuli/images/blank_fam.png width =""200"" height = ""200"" style=""position:absolute;left:85%""></p><p><img src= stimuli/images/blank.png width =""1100"" height = ""1100"" style=""border:5px solid black""></p>","null","","","","","","","","","","","",""
"","sequential-stimulus-presentation","53","457740","0.0-18.0-1.6","SS1632936837955","null","","","null","","trial","","1000","1000","29","2","Std","stimuli/images/spore_stims/simple_11_A.gif","7","",""
"","html-keyboard-response","54","459070","0.0-18.0-0.7","SS1632936837955","null","","<p><img src=stimuli/images/blank_test.png width =""200"" height = ""200"" style=""position:absolute;left:85%""></p><p><img src= stimuli/images/blank.png width =""1100"" height = ""1100"" style=""border:5px solid black""></p>","null","","","","","","","","","","","",""
"","sequential-stimulus-presentation","55","469451","0.0-18.0-1.7","SS1632936837955","60664.70000000298","","","40","","trial","","1000","61664.70000000298","29","2","Std","stimuli/images/spore_stims/simple_11_A.gif","7","",""
"","html-keyboard-response","56","471723","0.0-19.0","SS1632936837955","2272","","<p><img src=""stimuli/images/attngetter_blank.png""></p>","40","","between_block","","","","","","","","","",""
"","video-keyboard-response","57","476361","0.0-20.0","SS1632936837955","null","","[""stimuli/images/attngetter_quiet.mp4""]","null","","attention_getter","","","","","","","","","",""
"","html-keyboard-response","58","477388","0.0-21.0-0.0","SS1632936837955","null","","<p><img src=stimuli/images/blank_fam.png width =""200"" height = ""200"" style=""position:absolute;left:85%""></p><p><img src= stimuli/images/blank.png width =""1100"" height = ""1100"" style=""border:5px solid black""></p>","null","","","","","","","","","","","",""
"","sequential-stimulus-presentation","59","483394","0.0-21.0-1.0","SS1632936837955","null","","","null","","trial","","1000","1000","29","3","Dev","stimuli/images/spore_stims/simple_01_A.gif","3","",""
"","html-keyboard-response","60","485577","0.0-21.0-0.1","SS1632936837955","null","","<p><img src=stimuli/images/blank_fam.png width =""200"" height = ""200"" style=""position:absolute;left:85%""></p><p><img src= stimuli/images/blank.png width =""1100"" height = ""1100"" style=""border:5px solid black""></p>","null","","","","","","","","","","","",""
"","sequential-stimulus-presentation","61","491584","0.0-21.0-1.1","SS1632936837955","null","","","null","","trial","","1000","1000","29","3","Dev","stimuli/images/spore_stims/simple_01_A.gif","3","",""
"","html-keyboard-response","62","494073","0.0-21.0-0.2","SS1632936837955","null","","<p><img src=stimuli/images/blank_fam.png width =""200"" height = ""200"" style=""position:absolute;left:85%""></p><p><img src= stimuli/images/blank.png width =""1100"" height = ""1100"" style=""border:5px solid black""></p>","null","","","","","","","","","","","",""
"","sequential-stimulus-presentation","63","500080","0.0-21.0-1.2","SS1632936837955","null","","","null","","trial","","1000","1000","29","3","Dev","stimuli/images/spore_stims/simple_01_A.gif","3","",""
"","html-keyboard-response","64","502243","0.0-21.0-0.3","SS1632936837955","null","","<p><img src=stimuli/images/blank_test.png width =""200"" height = ""200"" style=""position:absolute;left:85%""></p><p><img src= stimuli/images/blank.png width =""1100"" height = ""1100"" style=""border:5px solid black""></p>","null","","","","","","","","","","","",""
"","sequential-stimulus-presentation","65","509975","0.0-21.0-1.3","SS1632936837955","31579.80000000447","","","40","","trial","","1000","32579.80000000447","29","3","Dev","stimuli/images/spore_stims/simple_02_A.gif","3","",""
"","html-keyboard-response","66","521493","0.0-22.0","SS1632936837955","11517.5","","<p><img src=""stimuli/images/attngetter_blank.png""></p>","40","","between_block","","","","","","","","","",""
"","video-keyboard-response","67","526163","0.0-23.0","SS1632936837955","null","","[""stimuli/images/attngetter_quiet.mp4""]","null","","attention_getter","","","","","","","","","",""
"","html-keyboard-response","68","528638","0.0-24.0-0.0","SS1632936837955","null","","<p><img src=stimuli/images/blank_fam.png width =""200"" height = ""200"" style=""position:absolute;left:85%""></p><p><img src= stimuli/images/blank.png width =""1100"" height = ""1100"" style=""border:5px solid black""></p>","null","","","","","","","","","","","",""
"","sequential-stimulus-presentation","69","534641","0.0-24.0-1.0","SS1632936837955","null","","","null","","trial","","1000","1000","29","4","Dev","stimuli/images/spore_stims/simple_10_A.gif","5","",""
"","html-keyboard-response","70","536649","0.0-24.0-0.1","SS1632936837955","null","","<p><img src=stimuli/images/blank_fam.png width =""200"" height = ""200"" style=""position:absolute;left:85%""></p><p><img src= stimuli/images/blank.png width =""1100"" height = ""1100"" style=""border:5px solid black""></p>","null","","","","","","","","","","","",""
"","sequential-stimulus-presentation","71","542657","0.0-24.0-1.1","SS1632936837955","null","","","null","","trial","","1000","1000","29","4","Dev","stimuli/images/spore_stims/simple_10_A.gif","5","",""
"","html-keyboard-response","72","544381","0.0-24.0-0.2","SS1632936837955","null","","<p><img src=stimuli/images/blank_fam.png width =""200"" height = ""200"" style=""position:absolute;left:85%""></p><p><img src= stimuli/images/blank.png width =""1100"" height = ""1100"" style=""border:5px solid black""></p>","null","","","","","","","","","","","",""
"","sequential-stimulus-presentation","73","550387","0.0-24.0-1.2","SS1632936837955","null","","","null","","trial","","1000","1000","29","4","Dev","stimuli/images/spore_stims/simple_10_A.gif","5","",""
"","html-keyboard-response","74","552359","0.0-24.0-0.3","SS1632936837955","null","","<p><img src=stimuli/images/blank_fam.png width =""200"" height = ""200"" style=""position:absolute;left:85%""></p><p><img src= stimuli/images/blank.png width =""1100"" height = ""1100"" style=""border:5px solid black""></p>","null","","","","","","","","","","","",""
"","sequential-stimulus-presentation","75","558365","0.0-24.0-1.3","SS1632936837955","null","","","null","","trial","","1000","1000","29","4","Dev","stimuli/images/spore_stims/simple_10_A.gif","5","",""
"","html-keyboard-response","76","559320","0.0-24.0-0.4","SS1632936837955","null","","<p><img src=stimuli/images/blank_fam.png width =""200"" height = ""200"" style=""position:absolute;left:85%""></p><p><img src= stimuli/images/blank.png width =""1100"" height = ""1100"" style=""border:5px solid black""></p>","null","","","","","","","","","","","",""
"","sequential-stimulus-presentation","77","565325","0.0-24.0-1.4","SS1632936837955","null","","","null","","trial","","1000","1000","29","4","Dev","stimuli/images/spore_stims/simple_10_A.gif","5","",""
"","html-keyboard-response","78","566875","0.0-24.0-0.5","SS1632936837955","null","","<p><img src=stimuli/images/blank_test.png width =""200"" height = ""200"" style=""position:absolute;left:85%""></p><p><img src= stimuli/images/blank.png width =""1100"" height = ""1100"" style=""border:5px solid black""></p>","null","","","","","","","","","","","",""
"","sequential-stimulus-presentation","79","575698","0.0-24.0-1.5","SS1632936837955","46056.70000000298","","","40","","trial","","1000","47056.70000000298","29","4","Dev","stimuli/images/spore_stims/simple_09_A.gif","5","",""
"","html-keyboard-response","80","578531","0.0-25.0","SS1632936837955","2832","","<p><img src=""stimuli/images/attngetter_blank.png""></p>","40","","between_block","","","","","","","","","",""
"","video-keyboard-response","81","583140","0.0-26.0","SS1632936837955","null","","[""stimuli/images/attngetter_quiet.mp4""]","null","","attention_getter","","","","","","","","","",""
"","html-keyboard-response","82","584564","0.0-27.0-0.0","SS1632936837955","null","","<p><img src=stimuli/images/blank_fam.png width =""200"" height = ""200"" style=""position:absolute;left:85%""></p><p><img src= stimuli/images/blank.png width =""1100"" height = ""1100"" style=""border:5px solid black""></p>","null","","","","","","","","","","","",""
"","sequential-stimulus-presentation","83","590568","0.0-27.0-1.0","SS1632936837955","null","","","null","","trial","","1000","1000","29","5","Std","stimuli/images/spore_stims/simple_05_A.gif","5","",""
"","html-keyboard-response","84","591882","0.0-27.0-0.1","SS1632936837955","null","","<p><img src=stimuli/images/blank_fam.png width =""200"" height = ""200"" style=""position:absolute;left:85%""></p><p><img src= stimuli/images/blank.png width =""1100"" height = ""1100"" style=""border:5px solid black""></p>","null","","","","","","","","","","","",""
"","sequential-stimulus-presentation","85","597884","0.0-27.0-1.1","SS1632936837955","null","","","null","","trial","","1000","1000","29","5","Std","stimuli/images/spore_stims/simple_05_A.gif","5","",""
"","html-keyboard-response","86","599359","0.0-27.0-0.2","SS1632936837955","null","","<p><img src=stimuli/images/blank_fam.png width =""200"" height = ""200"" style=""position:absolute;left:85%""></p><p><img src= stimuli/images/blank.png width =""1100"" height = ""1100"" style=""border:5px solid black""></p>","null","","","","","","","","","","","",""
"","sequential-stimulus-presentation","87","605364","0.0-27.0-1.2","SS1632936837955","null","","","null","","trial","","1000","1000","29","5","Std","stimuli/images/spore_stims/simple_05_A.gif","5","",""
"","html-keyboard-response","88","606980","0.0-27.0-0.3","SS1632936837955","null","","<p><img src=stimuli/images/blank_fam.png width =""200"" height = ""200"" style=""position:absolute;left:85%""></p><p><img src= stimuli/images/blank.png width =""1100"" height = ""1100"" style=""border:5px solid black""></p>","null","","","","","","","","","","","",""
"","sequential-stimulus-presentation","89","612985","0.0-27.0-1.3","SS1632936837955","null","","","null","","trial","","1000","1000","29","5","Std","stimuli/images/spore_stims/simple_05_A.gif","5","",""
"","html-keyboard-response","90","614560","0.0-27.0-0.4","SS1632936837955","null","","<p><img src=stimuli/images/blank_fam.png width =""200"" height = ""200"" style=""position:absolute;left:85%""></p><p><img src= stimuli/images/blank.png width =""1100"" height = ""1100"" style=""border:5px solid black""></p>","null","","","","","","","","","","","",""
"","sequential-stimulus-presentation","91","620564","0.0-27.0-1.4","SS1632936837955","null","","","null","","trial","","1000","1000","29","5","Std","stimuli/images/spore_stims/simple_05_A.gif","5","",""
"","html-keyboard-response","92","622021","0.0-27.0-0.5","SS1632936837955","null","","<p><img src=stimuli/images/blank_test.png width =""200"" height = ""200"" style=""position:absolute;left:85%""></p><p><img src= stimuli/images/blank.png width =""1100"" height = ""1100"" style=""border:5px solid black""></p>","null","","","","","","","","","","","",""
"","sequential-stimulus-presentation","93","630076","0.0-27.0-1.5","SS1632936837955","44509.30000000447","","","40","","trial","","1000","45509.30000000447","29","5","Std","stimuli/images/spore_stims/simple_05_A.gif","5","",""
"","html-keyboard-response","94","641911","0.0-28.0","SS1632936837955","11833.60000000149","","<p><span style=""font-family: arial, helvetica, sans-serif; font-size: 48px; color: #993300;""> That's it! Thank you so much for your participation! </span></p>","40","","","","","","","","","","","",""
"","survey-multi-choice","95","644207","0.0-29.0","SS1632936837955","2295.7000000029802","","","","","","","","","","","","","","[object Object]","0"
