"success","trial_type","trial_index","time_elapsed","internal_node_id","subject","rt","responses","stimulus","key_press","view_history","stimulus_type","trial_stimulus","minimum_viewing_duration","trial_looking_time","subject_num","block_number","block_type","stimulus_displayed","fam_duration","response","question_order"
"true","fullscreen","0","18471","0.0-0.0","SS1630515644529","","","","","","","","","","","","","","","",""
"","survey-text","1","21402","0.0-1.0","SS1630515644529","2928.4000000059605","{""Age"":""304"",""Gender"":""F"",""Session"":""1""}","","","","","","","","","","","","","",""
"","audio-keyboard-response","2","35126","0.0-2.0","SS1630515644529","13722","","stimuli/audio/music_intro.wav","40","","","","","","","","","","","",""
"","html-keyboard-response","3","40448","0.0-3.0","SS1630515644529","5321.399999976158","","<p><img src=stimuli/intro/intro2.jpeg width ='1200' height = '667'></p>","40","","","","","","","","","","","",""
"","html-keyboard-response","4","90833","0.0-4.0","SS1630515644529","50384","","<p><img src=stimuli/intro/intro3.jpeg width ='1200' height = '667'></p>","40","","","","","","","","","","","",""
"","html-keyboard-response","5","119432","0.0-5.0","SS1630515644529","28598.20000001788","","<p><img src=stimuli/intro/intro4.jpeg width ='1200' height = '667'></p>","40","","","","","","","","","","","",""
"","html-keyboard-response","6","127079","0.0-6.0","SS1630515644529","7647.0999999940395","","<p><img src=stimuli/intro/intro5.jpeg width ='1200' height = '667'></p>","40","","","","","","","","","","","",""
"","html-keyboard-response","7","139072","0.0-7.0","SS1630515644529","11992.199999988079","","<p><img src=stimuli/intro/intro6.jpeg width ='1200' height = '667'></p>","39","","","","","","","","","","","",""
"","html-keyboard-response","8","139679","0.0-8.0","SS1630515644529","606.6000000238419","","<p><img src=stimuli/intro/intro7.jpeg width ='1200' height = '667'></p>","39","","","","","","","","","","","",""
"","html-keyboard-response","9","176196","0.0-9.0","SS1630515644529","36516","","<p><img src=stimuli/intro/intro8.jpeg width ='1200' height = '667'></p>","39","","","","","","","","","","","",""
"","instructions","10","206187","0.0-10.0","SS1630515644529","29990.69999998808","","","","[{""page_index"":0,""viewing_time"":29990}]","","","","","","","","","","",""
"","video-keyboard-response","11","210837","0.0-11.0","SS1630515644529","null","","[""stimuli/images/attngetter_quiet.mp4""]","null","","attention_getter","","","","","","","","","",""
"","html-keyboard-response","12","212512","0.0-12.0-0.0","SS1630515644529","null","","<p><img src=stimuli/images/blank_fam.png width =""200"" height = ""200"" style=""position:absolute;left:85%""></p><p><img src= stimuli/images/blank.png width =""1100"" height = ""1100"" style=""border:5px solid black""></p>","null","","","","","","","","","","","",""
"","sequential-stimulus-presentation","13","218520","0.0-12.0-1.0","SS1630515644529","null","","","null","","trial","","1000","1000","3","0","Dev","stimuli/images/spore_stims/complex_03_A.gif","5","",""
"","html-keyboard-response","14","220691","0.0-12.0-0.1","SS1630515644529","null","","<p><img src=stimuli/images/blank_fam.png width =""200"" height = ""200"" style=""position:absolute;left:85%""></p><p><img src= stimuli/images/blank.png width =""1100"" height = ""1100"" style=""border:5px solid black""></p>","null","","","","","","","","","","","",""
"","sequential-stimulus-presentation","15","226695","0.0-12.0-1.1","SS1630515644529","null","","","null","","trial","","1000","1000","3","0","Dev","stimuli/images/spore_stims/complex_03_A.gif","5","",""
"","html-keyboard-response","16","228863","0.0-12.0-0.2","SS1630515644529","null","","<p><img src=stimuli/images/blank_fam.png width =""200"" height = ""200"" style=""position:absolute;left:85%""></p><p><img src= stimuli/images/blank.png width =""1100"" height = ""1100"" style=""border:5px solid black""></p>","null","","","","","","","","","","","",""
"","sequential-stimulus-presentation","17","234868","0.0-12.0-1.2","SS1630515644529","null","","","null","","trial","","1000","1000","3","0","Dev","stimuli/images/spore_stims/complex_03_A.gif","5","",""
"","html-keyboard-response","18","236052","0.0-12.0-0.3","SS1630515644529","null","","<p><img src=stimuli/images/blank_fam.png width =""200"" height = ""200"" style=""position:absolute;left:85%""></p><p><img src= stimuli/images/blank.png width =""1100"" height = ""1100"" style=""border:5px solid black""></p>","null","","","","","","","","","","","",""
"","sequential-stimulus-presentation","19","242058","0.0-12.0-1.3","SS1630515644529","null","","","null","","trial","","1000","1000","3","0","Dev","stimuli/images/spore_stims/complex_03_A.gif","5","",""
"","html-keyboard-response","20","243509","0.0-12.0-0.4","SS1630515644529","null","","<p><img src=stimuli/images/blank_fam.png width =""200"" height = ""200"" style=""position:absolute;left:85%""></p><p><img src= stimuli/images/blank.png width =""1100"" height = ""1100"" style=""border:5px solid black""></p>","null","","","","","","","","","","","",""
"","sequential-stimulus-presentation","21","249516","0.0-12.0-1.4","SS1630515644529","null","","","null","","trial","","1000","1000","3","0","Dev","stimuli/images/spore_stims/complex_03_A.gif","5","",""
"","html-keyboard-response","22","251703","0.0-12.0-0.5","SS1630515644529","null","","<p><img src=stimuli/images/blank_test.png width =""200"" height = ""200"" style=""position:absolute;left:85%""></p><p><img src= stimuli/images/blank.png width =""1100"" height = ""1100"" style=""border:5px solid black""></p>","null","","","","","","","","","","","",""
"","sequential-stimulus-presentation","23","312545","0.0-12.0-1.5","SS1630515644529","99028.60000002384","","","40","","trial","","1000","100028.60000002384","3","0","Dev","stimuli/images/spore_stims/complex_04_A.gif","5","",""
"","html-keyboard-response","24","339476","0.0-13.0","SS1630515644529","26929.69999998808","","<p><img src=""stimuli/images/attngetter_blank.png"" width =""1200"" height = ""918"" ></p>","17","","between_block","","","","","","","","","",""
"","video-keyboard-response","25","344131","0.0-14.0","SS1630515644529","null","","[""stimuli/images/attngetter_quiet.mp4""]","null","","attention_getter","","","","","","","","","",""
"","html-keyboard-response","26","345806","0.0-15.0-0.0","SS1630515644529","null","","<p><img src=stimuli/images/blank_fam.png width =""200"" height = ""200"" style=""position:absolute;left:85%""></p><p><img src= stimuli/images/blank.png width =""1100"" height = ""1100"" style=""border:5px solid black""></p>","null","","","","","","","","","","","",""
"","sequential-stimulus-presentation","27","351812","0.0-15.0-1.0","SS1630515644529","null","","","null","","trial","","1000","1000","3","1","Std","stimuli/images/spore_stims/complex_12_A.gif","7","",""
"","html-keyboard-response","28","352493","0.0-15.0-0.1","SS1630515644529","null","","<p><img src=stimuli/images/blank_fam.png width =""200"" height = ""200"" style=""position:absolute;left:85%""></p><p><img src= stimuli/images/blank.png width =""1100"" height = ""1100"" style=""border:5px solid black""></p>","null","","","","","","","","","","","",""
"","sequential-stimulus-presentation","29","358498","0.0-15.0-1.1","SS1630515644529","null","","","null","","trial","","1000","1000","3","1","Std","stimuli/images/spore_stims/complex_12_A.gif","7","",""
"","html-keyboard-response","30","360772","0.0-15.0-0.2","SS1630515644529","null","","<p><img src=stimuli/images/blank_fam.png width =""200"" height = ""200"" style=""position:absolute;left:85%""></p><p><img src= stimuli/images/blank.png width =""1100"" height = ""1100"" style=""border:5px solid black""></p>","null","","","","","","","","","","","",""
"","sequential-stimulus-presentation","31","366776","0.0-15.0-1.2","SS1630515644529","null","","","null","","trial","","1000","1000","3","1","Std","stimuli/images/spore_stims/complex_12_A.gif","7","",""
"","html-keyboard-response","32","368489","0.0-15.0-0.3","SS1630515644529","null","","<p><img src=stimuli/images/blank_fam.png width =""200"" height = ""200"" style=""position:absolute;left:85%""></p><p><img src= stimuli/images/blank.png width =""1100"" height = ""1100"" style=""border:5px solid black""></p>","null","","","","","","","","","","","",""
"","sequential-stimulus-presentation","33","374493","0.0-15.0-1.3","SS1630515644529","null","","","null","","trial","","1000","1000","3","1","Std","stimuli/images/spore_stims/complex_12_A.gif","7","",""
"","html-keyboard-response","34","376040","0.0-15.0-0.4","SS1630515644529","null","","<p><img src=stimuli/images/blank_fam.png width =""200"" height = ""200"" style=""position:absolute;left:85%""></p><p><img src= stimuli/images/blank.png width =""1100"" height = ""1100"" style=""border:5px solid black""></p>","null","","","","","","","","","","","",""
"","sequential-stimulus-presentation","35","382045","0.0-15.0-1.4","SS1630515644529","null","","","null","","trial","","1000","1000","3","1","Std","stimuli/images/spore_stims/complex_12_A.gif","7","",""
"","html-keyboard-response","36","383551","0.0-15.0-0.5","SS1630515644529","null","","<p><img src=stimuli/images/blank_fam.png width =""200"" height = ""200"" style=""position:absolute;left:85%""></p><p><img src= stimuli/images/blank.png width =""1100"" height = ""1100"" style=""border:5px solid black""></p>","null","","","","","","","","","","","",""
"","sequential-stimulus-presentation","37","389557","0.0-15.0-1.5","SS1630515644529","null","","","null","","trial","","1000","1000","3","1","Std","stimuli/images/spore_stims/complex_12_A.gif","7","",""
"","html-keyboard-response","38","390464","0.0-15.0-0.6","SS1630515644529","null","","<p><img src=stimuli/images/blank_fam.png width =""200"" height = ""200"" style=""position:absolute;left:85%""></p><p><img src= stimuli/images/blank.png width =""1100"" height = ""1100"" style=""border:5px solid black""></p>","null","","","","","","","","","","","",""
"","sequential-stimulus-presentation","39","396470","0.0-15.0-1.6","SS1630515644529","null","","","null","","trial","","1000","1000","3","1","Std","stimuli/images/spore_stims/complex_12_A.gif","7","",""
"","html-keyboard-response","40","397282","0.0-15.0-0.7","SS1630515644529","null","","<p><img src=stimuli/images/blank_test.png width =""200"" height = ""200"" style=""position:absolute;left:85%""></p><p><img src= stimuli/images/blank.png width =""1100"" height = ""1100"" style=""border:5px solid black""></p>","null","","","","","","","","","","","",""
"","sequential-stimulus-presentation","41","411407","0.0-15.0-1.7","SS1630515644529","64596.30000001192","","","40","","trial","","1000","65596.30000001192","3","1","Std","stimuli/images/spore_stims/complex_12_A.gif","7","",""
"","html-keyboard-response","42","416606","0.0-16.0","SS1630515644529","5197.799999982119","","<p><img src=""stimuli/images/attngetter_blank.png"" width =""1200"" height = ""918"" ></p>","40","","between_block","","","","","","","","","",""
"","video-keyboard-response","43","421254","0.0-17.0","SS1630515644529","null","","[""stimuli/images/attngetter_quiet.mp4""]","null","","attention_getter","","","","","","","","","",""
"","html-keyboard-response","44","421865","0.0-18.0-0.0","SS1630515644529","null","","<p><img src=stimuli/images/blank_fam.png width =""200"" height = ""200"" style=""position:absolute;left:85%""></p><p><img src= stimuli/images/blank.png width =""1100"" height = ""1100"" style=""border:5px solid black""></p>","null","","","","","","","","","","","",""
"","sequential-stimulus-presentation","45","427871","0.0-18.0-1.0","SS1630515644529","null","","","null","","trial","","1000","1000","3","2","Std","stimuli/images/spore_stims/complex_10_A.gif","5","",""
"","html-keyboard-response","46","428596","0.0-18.0-0.1","SS1630515644529","null","","<p><img src=stimuli/images/blank_fam.png width =""200"" height = ""200"" style=""position:absolute;left:85%""></p><p><img src= stimuli/images/blank.png width =""1100"" height = ""1100"" style=""border:5px solid black""></p>","null","","","","","","","","","","","",""
"","sequential-stimulus-presentation","47","434603","0.0-18.0-1.1","SS1630515644529","null","","","null","","trial","","1000","1000","3","2","Std","stimuli/images/spore_stims/complex_10_A.gif","5","",""
"","html-keyboard-response","48","436529","0.0-18.0-0.2","SS1630515644529","null","","<p><img src=stimuli/images/blank_fam.png width =""200"" height = ""200"" style=""position:absolute;left:85%""></p><p><img src= stimuli/images/blank.png width =""1100"" height = ""1100"" style=""border:5px solid black""></p>","null","","","","","","","","","","","",""
"","sequential-stimulus-presentation","49","442534","0.0-18.0-1.2","SS1630515644529","null","","","null","","trial","","1000","1000","3","2","Std","stimuli/images/spore_stims/complex_10_A.gif","5","",""
"","html-keyboard-response","50","444890","0.0-18.0-0.3","SS1630515644529","null","","<p><img src=stimuli/images/blank_fam.png width =""200"" height = ""200"" style=""position:absolute;left:85%""></p><p><img src= stimuli/images/blank.png width =""1100"" height = ""1100"" style=""border:5px solid black""></p>","null","","","","","","","","","","","",""
"","sequential-stimulus-presentation","51","450896","0.0-18.0-1.3","SS1630515644529","null","","","null","","trial","","1000","1000","3","2","Std","stimuli/images/spore_stims/complex_10_A.gif","5","",""
"","html-keyboard-response","52","452739","0.0-18.0-0.4","SS1630515644529","null","","<p><img src=stimuli/images/blank_fam.png width =""200"" height = ""200"" style=""position:absolute;left:85%""></p><p><img src= stimuli/images/blank.png width =""1100"" height = ""1100"" style=""border:5px solid black""></p>","null","","","","","","","","","","","",""
"","sequential-stimulus-presentation","53","458748","0.0-18.0-1.4","SS1630515644529","null","","","null","","trial","","1000","1000","3","2","Std","stimuli/images/spore_stims/complex_10_A.gif","5","",""
"","html-keyboard-response","54","461204","0.0-18.0-0.5","SS1630515644529","null","","<p><img src=stimuli/images/blank_test.png width =""200"" height = ""200"" style=""position:absolute;left:85%""></p><p><img src= stimuli/images/blank.png width =""1100"" height = ""1100"" style=""border:5px solid black""></p>","null","","","","","","","","","","","",""
"","sequential-stimulus-presentation","55","473689","0.0-18.0-1.5","SS1630515644529","50816.69999998808","","","40","","trial","","1000","51816.69999998808","3","2","Std","stimuli/images/spore_stims/complex_10_A.gif","5","",""
"","html-keyboard-response","56","477355","0.0-19.0","SS1630515644529","3665.800000011921","","<p><img src=""stimuli/images/attngetter_blank.png"" width =""1200"" height = ""918"" ></p>","40","","between_block","","","","","","","","","",""
"","video-keyboard-response","57","481999","0.0-20.0","SS1630515644529","null","","[""stimuli/images/attngetter_quiet.mp4""]","null","","attention_getter","","","","","","","","","",""
"","html-keyboard-response","58","482710","0.0-21.0-0.0","SS1630515644529","null","","<p><img src=stimuli/images/blank_fam.png width =""200"" height = ""200"" style=""position:absolute;left:85%""></p><p><img src= stimuli/images/blank.png width =""1100"" height = ""1100"" style=""border:5px solid black""></p>","null","","","","","","","","","","","",""
"","sequential-stimulus-presentation","59","488717","0.0-21.0-1.0","SS1630515644529","null","","","null","","trial","","1000","1000","3","3","Dev","stimuli/images/spore_stims/complex_07_A.gif","7","",""
"","html-keyboard-response","60","489983","0.0-21.0-0.1","SS1630515644529","null","","<p><img src=stimuli/images/blank_fam.png width =""200"" height = ""200"" style=""position:absolute;left:85%""></p><p><img src= stimuli/images/blank.png width =""1100"" height = ""1100"" style=""border:5px solid black""></p>","null","","","","","","","","","","","",""
"","sequential-stimulus-presentation","61","495990","0.0-21.0-1.1","SS1630515644529","null","","","null","","trial","","1000","1000","3","3","Dev","stimuli/images/spore_stims/complex_07_A.gif","7","",""
"","html-keyboard-response","62","497033","0.0-21.0-0.2","SS1630515644529","null","","<p><img src=stimuli/images/blank_fam.png width =""200"" height = ""200"" style=""position:absolute;left:85%""></p><p><img src= stimuli/images/blank.png width =""1100"" height = ""1100"" style=""border:5px solid black""></p>","null","","","","","","","","","","","",""
"","sequential-stimulus-presentation","63","503040","0.0-21.0-1.2","SS1630515644529","null","","","null","","trial","","1000","1000","3","3","Dev","stimuli/images/spore_stims/complex_07_A.gif","7","",""
"","html-keyboard-response","64","503945","0.0-21.0-0.3","SS1630515644529","null","","<p><img src=stimuli/images/blank_fam.png width =""200"" height = ""200"" style=""position:absolute;left:85%""></p><p><img src= stimuli/images/blank.png width =""1100"" height = ""1100"" style=""border:5px solid black""></p>","null","","","","","","","","","","","",""
"","sequential-stimulus-presentation","65","509955","0.0-21.0-1.3","SS1630515644529","null","","","null","","trial","","1000","1000","3","3","Dev","stimuli/images/spore_stims/complex_07_A.gif","7","",""
"","html-keyboard-response","66","511749","0.0-21.0-0.4","SS1630515644529","null","","<p><img src=stimuli/images/blank_fam.png width =""200"" height = ""200"" style=""position:absolute;left:85%""></p><p><img src= stimuli/images/blank.png width =""1100"" height = ""1100"" style=""border:5px solid black""></p>","null","","","","","","","","","","","",""
"","sequential-stimulus-presentation","67","517755","0.0-21.0-1.4","SS1630515644529","null","","","null","","trial","","1000","1000","3","3","Dev","stimuli/images/spore_stims/complex_07_A.gif","7","",""
"","html-keyboard-response","68","518769","0.0-21.0-0.5","SS1630515644529","null","","<p><img src=stimuli/images/blank_fam.png width =""200"" height = ""200"" style=""position:absolute;left:85%""></p><p><img src= stimuli/images/blank.png width =""1100"" height = ""1100"" style=""border:5px solid black""></p>","null","","","","","","","","","","","",""
"","sequential-stimulus-presentation","69","524776","0.0-21.0-1.5","SS1630515644529","null","","","null","","trial","","1000","1000","3","3","Dev","stimuli/images/spore_stims/complex_07_A.gif","7","",""
"","html-keyboard-response","70","525988","0.0-21.0-0.6","SS1630515644529","null","","<p><img src=stimuli/images/blank_fam.png width =""200"" height = ""200"" style=""position:absolute;left:85%""></p><p><img src= stimuli/images/blank.png width =""1100"" height = ""1100"" style=""border:5px solid black""></p>","null","","","","","","","","","","","",""
"","sequential-stimulus-presentation","71","531995","0.0-21.0-1.6","SS1630515644529","null","","","null","","trial","","1000","1000","3","3","Dev","stimuli/images/spore_stims/complex_07_A.gif","7","",""
"","html-keyboard-response","72","534062","0.0-21.0-0.7","SS1630515644529","null","","<p><img src=stimuli/images/blank_test.png width =""200"" height = ""200"" style=""position:absolute;left:85%""></p><p><img src= stimuli/images/blank.png width =""1100"" height = ""1100"" style=""border:5px solid black""></p>","null","","","","","","","","","","","",""
"","sequential-stimulus-presentation","73","548723","0.0-21.0-1.7","SS1630515644529","65006.59999999404","","","40","","trial","","1000","66006.59999999404","3","3","Dev","stimuli/images/spore_stims/complex_08_A.gif","7","",""
"","html-keyboard-response","74","554009","0.0-22.0","SS1630515644529","5285","","<p><img src=""stimuli/images/attngetter_blank.png"" width =""1200"" height = ""918"" ></p>","40","","between_block","","","","","","","","","",""
"","video-keyboard-response","75","558620","0.0-23.0","SS1630515644529","null","","[""stimuli/images/attngetter_quiet.mp4""]","null","","attention_getter","","","","","","","","","",""
"","html-keyboard-response","76","560243","0.0-24.0-0.0","SS1630515644529","null","","<p><img src=stimuli/images/blank_fam.png width =""200"" height = ""200"" style=""position:absolute;left:85%""></p><p><img src= stimuli/images/blank.png width =""1100"" height = ""1100"" style=""border:5px solid black""></p>","null","","","","","","","","","","","",""
"","sequential-stimulus-presentation","77","566254","0.0-24.0-1.0","SS1630515644529","null","","","null","","trial","","1000","1000","3","4","Dev","stimuli/images/spore_stims/complex_06_A.gif","3","",""
"","html-keyboard-response","78","567132","0.0-24.0-0.1","SS1630515644529","null","","<p><img src=stimuli/images/blank_fam.png width =""200"" height = ""200"" style=""position:absolute;left:85%""></p><p><img src= stimuli/images/blank.png width =""1100"" height = ""1100"" style=""border:5px solid black""></p>","null","","","","","","","","","","","",""
"","sequential-stimulus-presentation","79","573138","0.0-24.0-1.1","SS1630515644529","null","","","null","","trial","","1000","1000","3","4","Dev","stimuli/images/spore_stims/complex_06_A.gif","3","",""
"","html-keyboard-response","80","575595","0.0-24.0-0.2","SS1630515644529","null","","<p><img src=stimuli/images/blank_fam.png width =""200"" height = ""200"" style=""position:absolute;left:85%""></p><p><img src= stimuli/images/blank.png width =""1100"" height = ""1100"" style=""border:5px solid black""></p>","null","","","","","","","","","","","",""
"","sequential-stimulus-presentation","81","581598","0.0-24.0-1.2","SS1630515644529","null","","","null","","trial","","1000","1000","3","4","Dev","stimuli/images/spore_stims/complex_06_A.gif","3","",""
"","html-keyboard-response","82","583375","0.0-24.0-0.3","SS1630515644529","null","","<p><img src=stimuli/images/blank_test.png width =""200"" height = ""200"" style=""position:absolute;left:85%""></p><p><img src= stimuli/images/blank.png width =""1100"" height = ""1100"" style=""border:5px solid black""></p>","null","","","","","","","","","","","",""
"","sequential-stimulus-presentation","83","596060","0.0-24.0-1.3","SS1630515644529","34806.30000001192","","","40","","trial","","1000","35806.30000001192","3","4","Dev","stimuli/images/spore_stims/complex_05_A.gif","3","",""
"","html-keyboard-response","84","599210","0.0-25.0","SS1630515644529","3149.5999999940395","","<p><img src=""stimuli/images/attngetter_blank.png"" width =""1200"" height = ""918"" ></p>","40","","between_block","","","","","","","","","",""
"","video-keyboard-response","85","603852","0.0-26.0","SS1630515644529","null","","[""stimuli/images/attngetter_quiet.mp4""]","null","","attention_getter","","","","","","","","","",""
"","html-keyboard-response","86","605098","0.0-27.0-0.0","SS1630515644529","null","","<p><img src=stimuli/images/blank_fam.png width =""200"" height = ""200"" style=""position:absolute;left:85%""></p><p><img src= stimuli/images/blank.png width =""1100"" height = ""1100"" style=""border:5px solid black""></p>","null","","","","","","","","","","","",""
"","sequential-stimulus-presentation","87","611105","0.0-27.0-1.0","SS1630515644529","null","","","null","","trial","","1000","1000","3","5","Std","stimuli/images/spore_stims/complex_01_A.gif","3","",""
"","html-keyboard-response","88","613105","0.0-27.0-0.1","SS1630515644529","null","","<p><img src=stimuli/images/blank_fam.png width =""200"" height = ""200"" style=""position:absolute;left:85%""></p><p><img src= stimuli/images/blank.png width =""1100"" height = ""1100"" style=""border:5px solid black""></p>","null","","","","","","","","","","","",""
"","sequential-stimulus-presentation","89","619112","0.0-27.0-1.1","SS1630515644529","null","","","null","","trial","","1000","1000","3","5","Std","stimuli/images/spore_stims/complex_01_A.gif","3","",""
"","html-keyboard-response","90","620696","0.0-27.0-0.2","SS1630515644529","null","","<p><img src=stimuli/images/blank_fam.png width =""200"" height = ""200"" style=""position:absolute;left:85%""></p><p><img src= stimuli/images/blank.png width =""1100"" height = ""1100"" style=""border:5px solid black""></p>","null","","","","","","","","","","","",""
"","sequential-stimulus-presentation","91","626702","0.0-27.0-1.2","SS1630515644529","null","","","null","","trial","","1000","1000","3","5","Std","stimuli/images/spore_stims/complex_01_A.gif","3","",""
"","html-keyboard-response","92","627468","0.0-27.0-0.3","SS1630515644529","null","","<p><img src=stimuli/images/blank_test.png width =""200"" height = ""200"" style=""position:absolute;left:85%""></p><p><img src= stimuli/images/blank.png width =""1100"" height = ""1100"" style=""border:5px solid black""></p>","null","","","","","","","","","","","",""
"","sequential-stimulus-presentation","93","642365","0.0-27.0-1.3","SS1630515644529","36263.70000001788","","","40","","trial","","1000","37263.70000001788","3","5","Std","stimuli/images/spore_stims/complex_01_A.gif","3","",""
"","html-keyboard-response","94","859490","0.0-28.0","SS1630515644529","217123.90000000596","","<p><span style=""font-family: arial, helvetica, sans-serif; font-size: 48px; color: #993300;""> That's it! Thank you so much for your participation! </span></p>","40","","","","","","","","","","","",""
"","survey-multi-choice","95","861409","0.0-29.0","SS1630515644529","1917","","","","","","","","","","","","","","[object Object]","0"
