rt,responses,trial_type,trial_index,time_elapsed,internal_node_id,subject,success,view_history,stimulus_type,stimulus,key_press,trial_stimulus,minimum_viewing_duration,trial_looking_time,block_deviant,block_background,exposure_type,forced_exposure_time,block_number,block_type,block_exposure_length,stimulus_displayed,question_order,question_stimuli,block_index
9477,"{""p_id"":""5f1fc5b5f0adf01ed9d74ba1""}",survey-text,0,9492,0.0-0.0,SS1646459694618,NA,NA,NA,NA,NA,NA,NA,NA,NA,NA,NA,NA,NA,NA,NA,NA,NA,NA,NA
NA,NA,fullscreen,1,13267,0.0-1.0,SS1646459694618,TRUE,NA,NA,NA,NA,NA,NA,NA,NA,NA,NA,NA,NA,NA,NA,NA,NA,NA,NA
2440.300000011921,NA,instructions,2,15708,0.0-2.0,SS1646459694618,NA,"[{""page_index"":0,""viewing_time"":2439.800000011921}]",NA,NA,NA,NA,NA,NA,NA,NA,NA,NA,NA,NA,NA,NA,NA,NA,NA
12934.699999988079,NA,instructions,3,30652,0.0-3.0,SS1646459694618,NA,"[{""page_index"":0,""viewing_time"":6790.899999976158},{""page_index"":1,""viewing_time"":2807.600000023842},{""page_index"":2,""viewing_time"":3336}]",instructions,NA,NA,NA,NA,NA,NA,NA,NA,NA,NA,NA,NA,NA,NA,NA,NA
null,NA,html-keyboard-response,4,31657,0.0-4.0,SS1646459694618,NA,NA,NA,Watch carefully!,null,NA,NA,NA,NA,NA,NA,NA,NA,NA,NA,NA,NA,NA,NA
null,NA,stimuli-presentation,5,31968,0.0-5.0,SS1646459694618,NA,NA,NA,NA,null,NA,500,500,null,null,forced,300,NA,NA,NA,NA,NA,NA,NA
null,NA,html-keyboard-response,6,32980,0.0-6.0,SS1646459694618,NA,NA,NA,Now you can keep studying the creature.,null,NA,NA,NA,NA,NA,NA,NA,NA,NA,NA,NA,NA,NA,NA
4908.299999982119,NA,stimuli-presentation,7,36876,0.0-7.0,SS1646459694618,NA,NA,NA,NA,40,NA,500,5408.299999982119,null,null,forced,300,NA,NA,NA,NA,NA,NA,NA
6616.4000000059605,NA,stimuli-presentation,8,44004,0.0-8.0,SS1646459694618,NA,NA,NA,NA,40,NA,500,7116.4000000059605,null,null,self_paced,0,NA,NA,NA,NA,NA,NA,NA
1124.5999999940395,NA,stimuli-presentation,9,45644,0.0-9.0,SS1646459694618,NA,NA,NA,NA,40,NA,500,1624.5999999940395,null,null,self_paced,0,NA,NA,NA,NA,NA,NA,NA
3567,NA,instructions,10,49211,0.0-10.0,SS1646459694618,NA,"[{""page_index"":0,""viewing_time"":3566.899999976158}]",instructions,NA,NA,NA,NA,NA,NA,NA,NA,NA,NA,NA,NA,NA,NA,NA,NA
12296.199999988079,NA,instructions,11,61507,0.0-11.0,SS1646459694618,NA,"[{""page_index"":0,""viewing_time"":8023.0999999940395},{""page_index"":1,""viewing_time"":2400.2000000178814},{""page_index"":2,""viewing_time"":975.7999999821186},{""page_index"":3,""viewing_time"":896.8000000119209}]",instructions,NA,NA,NA,NA,NA,NA,NA,NA,NA,NA,NA,NA,NA,NA,NA,NA
null,NA,html-keyboard-response,12,62520,0.0-12.0,SS1646459694618,NA,NA,NA,Watch carefully!,null,NA,NA,NA,NA,NA,NA,NA,NA,NA,NA,NA,NA,NA,NA
null,NA,stimuli-presentation,13,63022,0.0-13.0,SS1646459694618,NA,NA,NA,NA,null,NA,500,500,null,null,forced,500,NA,NA,NA,NA,NA,NA,NA
null,NA,html-keyboard-response,14,64038,0.0-14.0,SS1646459694618,NA,NA,NA,Now you can keep studying the creature.,null,NA,NA,NA,NA,NA,NA,NA,NA,NA,NA,NA,NA,NA,NA
null,NA,html-keyboard-response,15,64878,0.0-15.0-0.0,SS1646459694618,NA,NA,NA,"<p><img src= images/blank.png width =""600"" height = ""600"" style=""position:fixed;top:50%; left:50%; transform: translate(-50%, -50%); border:5px solid black"">",null,NA,NA,NA,NA,NA,NA,NA,NA,NA,NA,NA,NA,NA,NA
8836.59999999404,NA,stimuli-presentation,16,71859,0.0-15.0-1.0,SS1646459694618,NA,NA,trial,NA,40,NA,500,9336.59999999404,null,null,forced,500,0,complex,500,images/stimuli/complex_17_A_a.gif,NA,NA,NA
null,NA,html-keyboard-response,17,73050,0.0-15.0-0.1,SS1646459694618,NA,NA,NA,"<p><img src= images/blank.png width =""600"" height = ""600"" style=""position:fixed;top:50%; left:50%; transform: translate(-50%, -50%); border:5px solid black"">",null,NA,NA,NA,NA,NA,NA,NA,NA,NA,NA,NA,NA,NA,NA
834.1999999880791,NA,stimuli-presentation,18,74387,0.0-15.0-1.1,SS1646459694618,NA,NA,trial,NA,40,NA,500,1334.199999988079,images/stimuli/complex_04_A_a.gif,images/stimuli/complex_17_A_a.gif,self-paced,500,0,complex,500,images/stimuli/complex_17_A_a.gif,NA,NA,NA
null,NA,html-keyboard-response,19,75266,0.0-15.0-0.2,SS1646459694618,NA,NA,NA,"<p><img src= images/blank.png width =""600"" height = ""600"" style=""position:fixed;top:50%; left:50%; transform: translate(-50%, -50%); border:5px solid black"">",null,NA,NA,NA,NA,NA,NA,NA,NA,NA,NA,NA,NA,NA,NA
3177.5999999940395,NA,stimuli-presentation,20,78947,0.0-15.0-1.2,SS1646459694618,NA,NA,trial,NA,40,NA,500,3677.5999999940395,images/stimuli/complex_04_A_a.gif,images/stimuli/complex_17_A_a.gif,self-paced,500,0,complex,500,images/stimuli/complex_17_A_a.gif,NA,NA,NA
null,NA,html-keyboard-response,21,80128,0.0-15.0-0.3,SS1646459694618,NA,NA,NA,"<p><img src= images/blank.png width =""600"" height = ""600"" style=""position:fixed;top:50%; left:50%; transform: translate(-50%, -50%); border:5px solid black"">",null,NA,NA,NA,NA,NA,NA,NA,NA,NA,NA,NA,NA,NA,NA
4027.699999988079,NA,stimuli-presentation,22,84667,0.0-15.0-1.3,SS1646459694618,NA,NA,trial,NA,40,NA,500,4527.699999988079,images/stimuli/complex_04_A_a.gif,images/stimuli/complex_17_A_a.gif,self-paced,500,0,complex,500,images/stimuli/complex_17_A_a.gif,NA,NA,NA
null,NA,html-keyboard-response,23,85816,0.0-15.0-0.4,SS1646459694618,NA,NA,NA,"<p><img src= images/blank.png width =""600"" height = ""600"" style=""position:fixed;top:50%; left:50%; transform: translate(-50%, -50%); border:5px solid black"">",null,NA,NA,NA,NA,NA,NA,NA,NA,NA,NA,NA,NA,NA,NA
2349.699999988079,NA,stimuli-presentation,24,88667,0.0-15.0-1.4,SS1646459694618,NA,NA,trial,NA,40,NA,500,2849.699999988079,images/stimuli/complex_04_A_a.gif,images/stimuli/complex_17_A_a.gif,self-paced,500,0,complex,500,images/stimuli/complex_04_A_a.gif,NA,NA,NA
4654.199999988079,"{""Q0"":""No""}",survey-multi-choice,25,93323,0.0-16.0,SS1646459694618,NA,NA,memory_test,NA,NA,NA,NA,NA,NA,NA,NA,NA,NA,NA,NA,NA,[0],images/stimuli/complex_17_A_a.gif,0
null,NA,html-keyboard-response,26,94327,0.0-17.0,SS1646459694618,NA,NA,NA,Watch carefully!,null,NA,NA,NA,NA,NA,NA,NA,NA,NA,NA,NA,NA,NA,NA
null,NA,stimuli-presentation,27,104329,0.0-18.0,SS1646459694618,NA,NA,NA,NA,null,NA,500,500,null,null,forced,10000,NA,NA,NA,NA,NA,NA,NA
null,NA,html-keyboard-response,28,105347,0.0-19.0,SS1646459694618,NA,NA,NA,Now you can keep studying the creature.,null,NA,NA,NA,NA,NA,NA,NA,NA,NA,NA,NA,NA,NA,NA
null,NA,html-keyboard-response,29,106307,0.0-20.0-0.0,SS1646459694618,NA,NA,NA,"<p><img src= images/blank.png width =""600"" height = ""600"" style=""position:fixed;top:50%; left:50%; transform: translate(-50%, -50%); border:5px solid black"">",null,NA,NA,NA,NA,NA,NA,NA,NA,NA,NA,NA,NA,NA,NA
2930.4000000059605,NA,stimuli-presentation,30,107259,0.0-20.0-1.0,SS1646459694618,NA,NA,trial,NA,40,NA,500,3430.4000000059605,null,null,forced,10000,1,complex,10000,images/stimuli/complex_13_A_a.gif,NA,NA,NA
null,NA,html-keyboard-response,31,108427,0.0-20.0-0.1,SS1646459694618,NA,NA,NA,"<p><img src= images/blank.png width =""600"" height = ""600"" style=""position:fixed;top:50%; left:50%; transform: translate(-50%, -50%); border:5px solid black"">",null,NA,NA,NA,NA,NA,NA,NA,NA,NA,NA,NA,NA,NA,NA
169.69999998807907,NA,stimuli-presentation,32,109098,0.0-20.0-1.1,SS1646459694618,NA,NA,trial,NA,40,NA,500,669.6999999880791,images/stimuli/complex_18_A_a.gif,images/stimuli/complex_13_A_a.gif,self-paced,10000,1,complex,10000,images/stimuli/complex_13_A_a.gif,NA,NA,NA
null,NA,html-keyboard-response,33,110268,0.0-20.0-0.2,SS1646459694618,NA,NA,NA,"<p><img src= images/blank.png width =""600"" height = ""600"" style=""position:fixed;top:50%; left:50%; transform: translate(-50%, -50%); border:5px solid black"">",null,NA,NA,NA,NA,NA,NA,NA,NA,NA,NA,NA,NA,NA,NA
876.3999999761581,NA,stimuli-presentation,34,111659,0.0-20.0-1.2,SS1646459694618,NA,NA,trial,NA,40,NA,500,1376.3999999761581,images/stimuli/complex_18_A_a.gif,images/stimuli/complex_13_A_a.gif,self-paced,10000,1,complex,10000,images/stimuli/complex_13_A_a.gif,NA,NA,NA
null,NA,html-keyboard-response,35,112653,0.0-20.0-0.3,SS1646459694618,NA,NA,NA,"<p><img src= images/blank.png width =""600"" height = ""600"" style=""position:fixed;top:50%; left:50%; transform: translate(-50%, -50%); border:5px solid black"">",null,NA,NA,NA,NA,NA,NA,NA,NA,NA,NA,NA,NA,NA,NA
2127.699999988079,NA,stimuli-presentation,36,115283,0.0-20.0-1.3,SS1646459694618,NA,NA,trial,NA,40,NA,500,2627.699999988079,images/stimuli/complex_18_A_a.gif,images/stimuli/complex_13_A_a.gif,self-paced,10000,1,complex,10000,images/stimuli/complex_13_A_a.gif,NA,NA,NA
null,NA,html-keyboard-response,37,116195,0.0-20.0-0.4,SS1646459694618,NA,NA,NA,"<p><img src= images/blank.png width =""600"" height = ""600"" style=""position:fixed;top:50%; left:50%; transform: translate(-50%, -50%); border:5px solid black"">",null,NA,NA,NA,NA,NA,NA,NA,NA,NA,NA,NA,NA,NA,NA
1424.3999999761581,NA,stimuli-presentation,38,118131,0.0-20.0-1.4,SS1646459694618,NA,NA,trial,NA,40,NA,500,1924.3999999761581,images/stimuli/complex_18_A_a.gif,images/stimuli/complex_13_A_a.gif,self-paced,10000,1,complex,10000,images/stimuli/complex_18_A_a.gif,NA,NA,NA
3726,"{""Q0"":""No""}",survey-multi-choice,39,121858,0.0-21.0,SS1646459694618,NA,NA,memory_test,NA,NA,NA,NA,NA,NA,NA,NA,NA,NA,NA,NA,NA,[0],images/stimuli/complex_03_A_a.gif,1
null,NA,html-keyboard-response,40,122864,0.0-22.0,SS1646459694618,NA,NA,NA,Watch carefully!,null,NA,NA,NA,NA,NA,NA,NA,NA,NA,NA,NA,NA,NA,NA
null,NA,stimuli-presentation,41,132871,0.0-23.0,SS1646459694618,NA,NA,NA,NA,null,NA,500,500,null,null,forced,10000,NA,NA,NA,NA,NA,NA,NA
null,NA,html-keyboard-response,42,133874,0.0-24.0,SS1646459694618,NA,NA,NA,Now you can keep studying the creature.,null,NA,NA,NA,NA,NA,NA,NA,NA,NA,NA,NA,NA,NA,NA
null,NA,html-keyboard-response,43,135132,0.0-25.0-0.0,SS1646459694618,NA,NA,NA,"<p><img src= images/blank.png width =""600"" height = ""600"" style=""position:fixed;top:50%; left:50%; transform: translate(-50%, -50%); border:5px solid black"">",null,NA,NA,NA,NA,NA,NA,NA,NA,NA,NA,NA,NA,NA,NA
5612.4000000059605,NA,stimuli-presentation,44,138483,0.0-25.0-1.0,SS1646459694618,NA,NA,trial,NA,40,NA,500,6112.4000000059605,null,null,forced,10000,2,simple,10000,images/stimuli/simple_19_A_a.gif,NA,NA,NA
null,NA,html-keyboard-response,45,139311,0.0-25.0-0.1,SS1646459694618,NA,NA,NA,"<p><img src= images/blank.png width =""600"" height = ""600"" style=""position:fixed;top:50%; left:50%; transform: translate(-50%, -50%); border:5px solid black"">",null,NA,NA,NA,NA,NA,NA,NA,NA,NA,NA,NA,NA,NA,NA
70.80000001192093,NA,stimuli-presentation,46,139883,0.0-25.0-1.1,SS1646459694618,NA,NA,trial,NA,40,NA,500,570.8000000119209,images/stimuli/simple_19_A_a.gif,images/stimuli/simple_07_A_a.gif,self-paced,10000,2,simple,10000,images/stimuli/simple_07_A_a.gif,NA,NA,NA
null,NA,html-keyboard-response,47,140717,0.0-25.0-0.2,SS1646459694618,NA,NA,NA,"<p><img src= images/blank.png width =""600"" height = ""600"" style=""position:fixed;top:50%; left:50%; transform: translate(-50%, -50%); border:5px solid black"">",null,NA,NA,NA,NA,NA,NA,NA,NA,NA,NA,NA,NA,NA,NA
477.30000001192093,NA,stimuli-presentation,48,141707,0.0-25.0-1.2,SS1646459694618,NA,NA,trial,NA,40,NA,500,977.3000000119209,images/stimuli/simple_19_A_a.gif,images/stimuli/simple_07_A_a.gif,self-paced,10000,2,simple,10000,images/stimuli/simple_07_A_a.gif,NA,NA,NA
null,NA,html-keyboard-response,49,142928,0.0-25.0-0.3,SS1646459694618,NA,NA,NA,"<p><img src= images/blank.png width =""600"" height = ""600"" style=""position:fixed;top:50%; left:50%; transform: translate(-50%, -50%); border:5px solid black"">",null,NA,NA,NA,NA,NA,NA,NA,NA,NA,NA,NA,NA,NA,NA
471,NA,stimuli-presentation,50,143907,0.0-25.0-1.3,SS1646459694618,NA,NA,trial,NA,40,NA,500,971,images/stimuli/simple_19_A_a.gif,images/stimuli/simple_07_A_a.gif,self-paced,10000,2,simple,10000,images/stimuli/simple_07_A_a.gif,NA,NA,NA
null,NA,html-keyboard-response,51,145200,0.0-25.0-0.4,SS1646459694618,NA,NA,NA,"<p><img src= images/blank.png width =""600"" height = ""600"" style=""position:fixed;top:50%; left:50%; transform: translate(-50%, -50%); border:5px solid black"">",null,NA,NA,NA,NA,NA,NA,NA,NA,NA,NA,NA,NA,NA,NA
349,NA,stimuli-presentation,52,146059,0.0-25.0-1.4,SS1646459694618,NA,NA,trial,NA,40,NA,500,849,images/stimuli/simple_19_A_a.gif,images/stimuli/simple_07_A_a.gif,self-paced,10000,2,simple,10000,images/stimuli/simple_07_A_a.gif,NA,NA,NA
2590.9000000059605,"{""Q0"":""Yes""}",survey-multi-choice,53,148651,0.0-26.0,SS1646459694618,NA,NA,memory_test,NA,NA,NA,NA,NA,NA,NA,NA,NA,NA,NA,NA,NA,[0],images/stimuli/simple_07_A_a.gif,2
null,NA,html-keyboard-response,54,149661,0.0-27.0,SS1646459694618,NA,NA,NA,Watch carefully!,null,NA,NA,NA,NA,NA,NA,NA,NA,NA,NA,NA,NA,NA,NA
null,NA,stimuli-presentation,55,159679,0.0-28.0,SS1646459694618,NA,NA,NA,NA,null,NA,500,500,null,null,forced,10000,NA,NA,NA,NA,NA,NA,NA
null,NA,html-keyboard-response,56,160688,0.0-29.0,SS1646459694618,NA,NA,NA,Now you can keep studying the creature.,null,NA,NA,NA,NA,NA,NA,NA,NA,NA,NA,NA,NA,NA,NA
null,NA,html-keyboard-response,57,161947,0.0-30.0-0.0,SS1646459694618,NA,NA,NA,"<p><img src= images/blank.png width =""600"" height = ""600"" style=""position:fixed;top:50%; left:50%; transform: translate(-50%, -50%); border:5px solid black"">",null,NA,NA,NA,NA,NA,NA,NA,NA,NA,NA,NA,NA,NA,NA
8508.100000023842,NA,stimuli-presentation,58,168187,0.0-30.0-1.0,SS1646459694618,NA,NA,trial,NA,40,NA,500,9008.100000023842,null,null,forced,10000,3,complex,10000,images/stimuli/complex_16_A_a.gif,NA,NA,NA
null,NA,html-keyboard-response,59,169150,0.0-30.0-0.1,SS1646459694618,NA,NA,NA,"<p><img src= images/blank.png width =""600"" height = ""600"" style=""position:fixed;top:50%; left:50%; transform: translate(-50%, -50%); border:5px solid black"">",null,NA,NA,NA,NA,NA,NA,NA,NA,NA,NA,NA,NA,NA,NA
965.0999999940395,NA,stimuli-presentation,60,170627,0.0-30.0-1.1,SS1646459694618,NA,NA,trial,NA,40,NA,500,1465.0999999940395,images/stimuli/complex_01_A_a.gif,images/stimuli/complex_16_A_a.gif,self-paced,10000,3,complex,10000,images/stimuli/complex_16_A_a.gif,NA,NA,NA
null,NA,html-keyboard-response,61,171884,0.0-30.0-0.2,SS1646459694618,NA,NA,NA,"<p><img src= images/blank.png width =""600"" height = ""600"" style=""position:fixed;top:50%; left:50%; transform: translate(-50%, -50%); border:5px solid black"">",null,NA,NA,NA,NA,NA,NA,NA,NA,NA,NA,NA,NA,NA,NA
528.1999999880791,NA,stimuli-presentation,62,172916,0.0-30.0-1.2,SS1646459694618,NA,NA,trial,NA,40,NA,500,1028.199999988079,images/stimuli/complex_01_A_a.gif,images/stimuli/complex_16_A_a.gif,self-paced,10000,3,complex,10000,images/stimuli/complex_01_A_a.gif,NA,NA,NA
null,NA,html-keyboard-response,63,173986,0.0-30.0-0.3,SS1646459694618,NA,NA,NA,"<p><img src= images/blank.png width =""600"" height = ""600"" style=""position:fixed;top:50%; left:50%; transform: translate(-50%, -50%); border:5px solid black"">",null,NA,NA,NA,NA,NA,NA,NA,NA,NA,NA,NA,NA,NA,NA
650.6999999880791,NA,stimuli-presentation,64,175139,0.0-30.0-1.3,SS1646459694618,NA,NA,trial,NA,40,NA,500,1150.699999988079,images/stimuli/complex_01_A_a.gif,images/stimuli/complex_16_A_a.gif,self-paced,10000,3,complex,10000,images/stimuli/complex_16_A_a.gif,NA,NA,NA
null,NA,html-keyboard-response,65,176128,0.0-30.0-0.4,SS1646459694618,NA,NA,NA,"<p><img src= images/blank.png width =""600"" height = ""600"" style=""position:fixed;top:50%; left:50%; transform: translate(-50%, -50%); border:5px solid black"">",null,NA,NA,NA,NA,NA,NA,NA,NA,NA,NA,NA,NA,NA,NA
356.69999998807907,NA,stimuli-presentation,66,176987,0.0-30.0-1.4,SS1646459694618,NA,NA,trial,NA,40,NA,500,856.6999999880791,images/stimuli/complex_01_A_a.gif,images/stimuli/complex_16_A_a.gif,self-paced,10000,3,complex,10000,images/stimuli/complex_16_A_a.gif,NA,NA,NA
2838.2999999821186,"{""Q0"":""Yes""}",survey-multi-choice,67,179827,0.0-31.0,SS1646459694618,NA,NA,memory_test,NA,NA,NA,NA,NA,NA,NA,NA,NA,NA,NA,NA,NA,[0],images/stimuli/complex_16_A_a.gif,3
null,NA,html-keyboard-response,68,180831,0.0-32.0,SS1646459694618,NA,NA,NA,Watch carefully!,null,NA,NA,NA,NA,NA,NA,NA,NA,NA,NA,NA,NA,NA,NA
null,NA,stimuli-presentation,69,181334,0.0-33.0,SS1646459694618,NA,NA,NA,NA,null,NA,500,500,null,null,forced,500,NA,NA,NA,NA,NA,NA,NA
null,NA,html-keyboard-response,70,182341,0.0-34.0,SS1646459694618,NA,NA,NA,Now you can keep studying the creature.,null,NA,NA,NA,NA,NA,NA,NA,NA,NA,NA,NA,NA,NA,NA
null,NA,html-keyboard-response,71,183504,0.0-35.0-0.0,SS1646459694618,NA,NA,NA,"<p><img src= images/blank.png width =""600"" height = ""600"" style=""position:fixed;top:50%; left:50%; transform: translate(-50%, -50%); border:5px solid black"">",null,NA,NA,NA,NA,NA,NA,NA,NA,NA,NA,NA,NA,NA,NA
3253.699999988079,NA,stimuli-presentation,72,184588,0.0-35.0-1.0,SS1646459694618,NA,NA,trial,NA,40,NA,500,3753.699999988079,null,null,forced,500,4,complex,500,images/stimuli/complex_20_A_a.gif,NA,NA,NA
null,NA,html-keyboard-response,73,185511,0.0-35.0-0.1,SS1646459694618,NA,NA,NA,"<p><img src= images/blank.png width =""600"" height = ""600"" style=""position:fixed;top:50%; left:50%; transform: translate(-50%, -50%); border:5px solid black"">",null,NA,NA,NA,NA,NA,NA,NA,NA,NA,NA,NA,NA,NA,NA
756.5,NA,stimuli-presentation,74,186779,0.0-35.0-1.1,SS1646459694618,NA,NA,trial,NA,40,NA,500,1256.5,images/stimuli/complex_10_A_a.gif,images/stimuli/complex_20_A_a.gif,self-paced,500,4,complex,500,images/stimuli/complex_20_A_a.gif,NA,NA,NA
null,NA,html-keyboard-response,75,187829,0.0-35.0-0.2,SS1646459694618,NA,NA,NA,"<p><img src= images/blank.png width =""600"" height = ""600"" style=""position:fixed;top:50%; left:50%; transform: translate(-50%, -50%); border:5px solid black"">",null,NA,NA,NA,NA,NA,NA,NA,NA,NA,NA,NA,NA,NA,NA
495.69999998807907,NA,stimuli-presentation,76,188827,0.0-35.0-1.2,SS1646459694618,NA,NA,trial,NA,40,NA,500,995.6999999880791,images/stimuli/complex_10_A_a.gif,images/stimuli/complex_20_A_a.gif,self-paced,500,4,complex,500,images/stimuli/complex_10_A_a.gif,NA,NA,NA
null,NA,html-keyboard-response,77,189737,0.0-35.0-0.3,SS1646459694618,NA,NA,NA,"<p><img src= images/blank.png width =""600"" height = ""600"" style=""position:fixed;top:50%; left:50%; transform: translate(-50%, -50%); border:5px solid black"">",null,NA,NA,NA,NA,NA,NA,NA,NA,NA,NA,NA,NA,NA,NA
531.6999999880791,NA,stimuli-presentation,78,190771,0.0-35.0-1.3,SS1646459694618,NA,NA,trial,NA,40,NA,500,1031.699999988079,images/stimuli/complex_10_A_a.gif,images/stimuli/complex_20_A_a.gif,self-paced,500,4,complex,500,images/stimuli/complex_20_A_a.gif,NA,NA,NA
null,NA,html-keyboard-response,79,191719,0.0-35.0-0.4,SS1646459694618,NA,NA,NA,"<p><img src= images/blank.png width =""600"" height = ""600"" style=""position:fixed;top:50%; left:50%; transform: translate(-50%, -50%); border:5px solid black"">",null,NA,NA,NA,NA,NA,NA,NA,NA,NA,NA,NA,NA,NA,NA
54.69999998807907,NA,stimuli-presentation,80,192276,0.0-35.0-1.4,SS1646459694618,NA,NA,trial,NA,40,NA,500,554.6999999880791,images/stimuli/complex_10_A_a.gif,images/stimuli/complex_20_A_a.gif,self-paced,500,4,complex,500,images/stimuli/complex_20_A_a.gif,NA,NA,NA
2325.899999976158,"{""Q0"":""No""}",survey-multi-choice,81,194603,0.0-36.0,SS1646459694618,NA,NA,memory_test,NA,NA,NA,NA,NA,NA,NA,NA,NA,NA,NA,NA,NA,[0],images/stimuli/complex_19_A_a.gif,4
null,NA,html-keyboard-response,82,195622,0.0-37.0,SS1646459694618,NA,NA,NA,Watch carefully!,null,NA,NA,NA,NA,NA,NA,NA,NA,NA,NA,NA,NA,NA,NA
null,NA,stimuli-presentation,83,205632,0.0-38.0,SS1646459694618,NA,NA,NA,NA,null,NA,500,500,null,null,forced,10000,NA,NA,NA,NA,NA,NA,NA
null,NA,html-keyboard-response,84,206634,0.0-39.0,SS1646459694618,NA,NA,NA,Now you can keep studying the creature.,null,NA,NA,NA,NA,NA,NA,NA,NA,NA,NA,NA,NA,NA,NA
null,NA,html-keyboard-response,85,207809,0.0-40.0-0.0,SS1646459694618,NA,NA,NA,"<p><img src= images/blank.png width =""600"" height = ""600"" style=""position:fixed;top:50%; left:50%; transform: translate(-50%, -50%); border:5px solid black"">",null,NA,NA,NA,NA,NA,NA,NA,NA,NA,NA,NA,NA,NA,NA
2555.0999999940395,NA,stimuli-presentation,86,208187,0.0-40.0-1.0,SS1646459694618,NA,NA,trial,NA,40,NA,500,3055.0999999940395,null,null,forced,10000,5,complex,10000,images/stimuli/complex_05_A_a.gif,NA,NA,NA
null,NA,html-keyboard-response,87,209278,0.0-40.0-0.1,SS1646459694618,NA,NA,NA,"<p><img src= images/blank.png width =""600"" height = ""600"" style=""position:fixed;top:50%; left:50%; transform: translate(-50%, -50%); border:5px solid black"">",null,NA,NA,NA,NA,NA,NA,NA,NA,NA,NA,NA,NA,NA,NA
741.7000000178814,NA,stimuli-presentation,88,210522,0.0-40.0-1.1,SS1646459694618,NA,NA,trial,NA,40,NA,500,1241.7000000178814,images/stimuli/complex_15_A_a.gif,images/stimuli/complex_05_A_a.gif,self-paced,10000,5,complex,10000,images/stimuli/complex_05_A_a.gif,NA,NA,NA
null,NA,html-keyboard-response,89,211700,0.0-40.0-0.2,SS1646459694618,NA,NA,NA,"<p><img src= images/blank.png width =""600"" height = ""600"" style=""position:fixed;top:50%; left:50%; transform: translate(-50%, -50%); border:5px solid black"">",null,NA,NA,NA,NA,NA,NA,NA,NA,NA,NA,NA,NA,NA,NA
521.5999999940395,NA,stimuli-presentation,90,212723,0.0-40.0-1.2,SS1646459694618,NA,NA,trial,NA,40,NA,500,1021.5999999940395,images/stimuli/complex_15_A_a.gif,images/stimuli/complex_05_A_a.gif,self-paced,10000,5,complex,10000,images/stimuli/complex_05_A_a.gif,NA,NA,NA
null,NA,html-keyboard-response,91,213884,0.0-40.0-0.3,SS1646459694618,NA,NA,NA,"<p><img src= images/blank.png width =""600"" height = ""600"" style=""position:fixed;top:50%; left:50%; transform: translate(-50%, -50%); border:5px solid black"">",null,NA,NA,NA,NA,NA,NA,NA,NA,NA,NA,NA,NA,NA,NA
783.5999999940395,NA,stimuli-presentation,92,215171,0.0-40.0-1.3,SS1646459694618,NA,NA,trial,NA,40,NA,500,1283.5999999940395,images/stimuli/complex_15_A_a.gif,images/stimuli/complex_05_A_a.gif,self-paced,10000,5,complex,10000,images/stimuli/complex_05_A_a.gif,NA,NA,NA
null,NA,html-keyboard-response,93,216014,0.0-40.0-0.4,SS1646459694618,NA,NA,NA,"<p><img src= images/blank.png width =""600"" height = ""600"" style=""position:fixed;top:50%; left:50%; transform: translate(-50%, -50%); border:5px solid black"">",null,NA,NA,NA,NA,NA,NA,NA,NA,NA,NA,NA,NA,NA,NA
1938.5999999940395,NA,stimuli-presentation,94,218460,0.0-40.0-1.4,SS1646459694618,NA,NA,trial,NA,40,NA,500,2438.5999999940395,images/stimuli/complex_15_A_a.gif,images/stimuli/complex_05_A_a.gif,self-paced,10000,5,complex,10000,images/stimuli/complex_05_A_a.gif,NA,NA,NA
2342.0999999940395,"{""Q0"":""Yes""}",survey-multi-choice,95,220803,0.0-41.0,SS1646459694618,NA,NA,memory_test,NA,NA,NA,NA,NA,NA,NA,NA,NA,NA,NA,NA,NA,[0],images/stimuli/complex_05_A_a.gif,5
null,NA,html-keyboard-response,96,221818,0.0-42.0,SS1646459694618,NA,NA,NA,Watch carefully!,null,NA,NA,NA,NA,NA,NA,NA,NA,NA,NA,NA,NA,NA,NA
null,NA,stimuli-presentation,97,222328,0.0-43.0,SS1646459694618,NA,NA,NA,NA,null,NA,500,500,null,null,forced,500,NA,NA,NA,NA,NA,NA,NA
null,NA,html-keyboard-response,98,223333,0.0-44.0,SS1646459694618,NA,NA,NA,Now you can keep studying the creature.,null,NA,NA,NA,NA,NA,NA,NA,NA,NA,NA,NA,NA,NA,NA
null,NA,html-keyboard-response,99,224235,0.0-45.0-0.0,SS1646459694618,NA,NA,NA,"<p><img src= images/blank.png width =""600"" height = ""600"" style=""position:fixed;top:50%; left:50%; transform: translate(-50%, -50%); border:5px solid black"">",null,NA,NA,NA,NA,NA,NA,NA,NA,NA,NA,NA,NA,NA,NA
4971.5,NA,stimuli-presentation,100,227299,0.0-45.0-1.0,SS1646459694618,NA,NA,trial,NA,40,NA,500,5471.5,null,null,forced,500,6,complex,500,images/stimuli/complex_09_A_a.gif,NA,NA,NA
null,NA,html-keyboard-response,101,228147,0.0-45.0-0.1,SS1646459694618,NA,NA,NA,"<p><img src= images/blank.png width =""600"" height = ""600"" style=""position:fixed;top:50%; left:50%; transform: translate(-50%, -50%); border:5px solid black"">",null,NA,NA,NA,NA,NA,NA,NA,NA,NA,NA,NA,NA,NA,NA
856.5,NA,stimuli-presentation,102,229515,0.0-45.0-1.1,SS1646459694618,NA,NA,trial,NA,40,NA,500,1356.5,images/stimuli/complex_08_A_a.gif,images/stimuli/complex_09_A_a.gif,self-paced,500,6,complex,500,images/stimuli/complex_09_A_a.gif,NA,NA,NA
null,NA,html-keyboard-response,103,230590,0.0-45.0-0.2,SS1646459694618,NA,NA,NA,"<p><img src= images/blank.png width =""600"" height = ""600"" style=""position:fixed;top:50%; left:50%; transform: translate(-50%, -50%); border:5px solid black"">",null,NA,NA,NA,NA,NA,NA,NA,NA,NA,NA,NA,NA,NA,NA
247.69999998807907,NA,stimuli-presentation,104,231347,0.0-45.0-1.2,SS1646459694618,NA,NA,trial,NA,40,NA,500,747.6999999880791,images/stimuli/complex_08_A_a.gif,images/stimuli/complex_09_A_a.gif,self-paced,500,6,complex,500,images/stimuli/complex_09_A_a.gif,NA,NA,NA
null,NA,html-keyboard-response,105,232383,0.0-45.0-0.3,SS1646459694618,NA,NA,NA,"<p><img src= images/blank.png width =""600"" height = ""600"" style=""position:fixed;top:50%; left:50%; transform: translate(-50%, -50%); border:5px solid black"">",null,NA,NA,NA,NA,NA,NA,NA,NA,NA,NA,NA,NA,NA,NA
1244.9000000059605,NA,stimuli-presentation,106,234131,0.0-45.0-1.3,SS1646459694618,NA,NA,trial,NA,40,NA,500,1744.9000000059605,images/stimuli/complex_08_A_a.gif,images/stimuli/complex_09_A_a.gif,self-paced,500,6,complex,500,images/stimuli/complex_09_A_a.gif,NA,NA,NA
null,NA,html-keyboard-response,107,235364,0.0-45.0-0.4,SS1646459694618,NA,NA,NA,"<p><img src= images/blank.png width =""600"" height = ""600"" style=""position:fixed;top:50%; left:50%; transform: translate(-50%, -50%); border:5px solid black"">",null,NA,NA,NA,NA,NA,NA,NA,NA,NA,NA,NA,NA,NA,NA
976.4000000059605,NA,stimuli-presentation,108,236843,0.0-45.0-1.4,SS1646459694618,NA,NA,trial,NA,40,NA,500,1476.4000000059605,images/stimuli/complex_08_A_a.gif,images/stimuli/complex_09_A_a.gif,self-paced,500,6,complex,500,images/stimuli/complex_09_A_a.gif,NA,NA,NA
2405.699999988079,"{""Q0"":""Yes""}",survey-multi-choice,109,239251,0.0-46.0,SS1646459694618,NA,NA,memory_test,NA,NA,NA,NA,NA,NA,NA,NA,NA,NA,NA,NA,NA,[0],images/stimuli/complex_09_A_a.gif,6
null,NA,html-keyboard-response,110,240262,0.0-47.0,SS1646459694618,NA,NA,NA,Watch carefully!,null,NA,NA,NA,NA,NA,NA,NA,NA,NA,NA,NA,NA,NA,NA
null,NA,stimuli-presentation,111,240765,0.0-48.0,SS1646459694618,NA,NA,NA,NA,null,NA,500,500,null,null,forced,500,NA,NA,NA,NA,NA,NA,NA
null,NA,html-keyboard-response,112,241781,0.0-49.0,SS1646459694618,NA,NA,NA,Now you can keep studying the creature.,null,NA,NA,NA,NA,NA,NA,NA,NA,NA,NA,NA,NA,NA,NA
null,NA,html-keyboard-response,113,242769,0.0-50.0-0.0,SS1646459694618,NA,NA,NA,"<p><img src= images/blank.png width =""600"" height = ""600"" style=""position:fixed;top:50%; left:50%; transform: translate(-50%, -50%); border:5px solid black"">",null,NA,NA,NA,NA,NA,NA,NA,NA,NA,NA,NA,NA,NA,NA
3422.4000000059605,NA,stimuli-presentation,114,244187,0.0-50.0-1.0,SS1646459694618,NA,NA,trial,NA,40,NA,500,3922.4000000059605,null,null,forced,500,7,simple,500,images/stimuli/simple_03_A_a.gif,NA,NA,NA
null,NA,html-keyboard-response,115,245424,0.0-50.0-0.1,SS1646459694618,NA,NA,NA,"<p><img src= images/blank.png width =""600"" height = ""600"" style=""position:fixed;top:50%; left:50%; transform: translate(-50%, -50%); border:5px solid black"">",null,NA,NA,NA,NA,NA,NA,NA,NA,NA,NA,NA,NA,NA,NA
1436.2000000178814,NA,stimuli-presentation,116,247364,0.0-50.0-1.1,SS1646459694618,NA,NA,trial,NA,40,NA,500,1936.2000000178814,images/stimuli/simple_03_A_a.gif,images/stimuli/simple_12_A_a.gif,self-paced,500,7,simple,500,images/stimuli/simple_12_A_a.gif,NA,NA,NA
null,NA,html-keyboard-response,117,248418,0.0-50.0-0.2,SS1646459694618,NA,NA,NA,"<p><img src= images/blank.png width =""600"" height = ""600"" style=""position:fixed;top:50%; left:50%; transform: translate(-50%, -50%); border:5px solid black"">",null,NA,NA,NA,NA,NA,NA,NA,NA,NA,NA,NA,NA,NA,NA
506.40000000596046,NA,stimuli-presentation,118,249427,0.0-50.0-1.2,SS1646459694618,NA,NA,trial,NA,40,NA,500,1006.4000000059605,images/stimuli/simple_03_A_a.gif,images/stimuli/simple_12_A_a.gif,self-paced,500,7,simple,500,images/stimuli/simple_12_A_a.gif,NA,NA,NA
null,NA,html-keyboard-response,119,250656,0.0-50.0-0.3,SS1646459694618,NA,NA,NA,"<p><img src= images/blank.png width =""600"" height = ""600"" style=""position:fixed;top:50%; left:50%; transform: translate(-50%, -50%); border:5px solid black"">",null,NA,NA,NA,NA,NA,NA,NA,NA,NA,NA,NA,NA,NA,NA
877.2999999821186,NA,stimuli-presentation,120,252036,0.0-50.0-1.3,SS1646459694618,NA,NA,trial,NA,40,NA,500,1377.2999999821186,images/stimuli/simple_03_A_a.gif,images/stimuli/simple_12_A_a.gif,self-paced,500,7,simple,500,images/stimuli/simple_12_A_a.gif,NA,NA,NA
null,NA,html-keyboard-response,121,253069,0.0-50.0-0.4,SS1646459694618,NA,NA,NA,"<p><img src= images/blank.png width =""600"" height = ""600"" style=""position:fixed;top:50%; left:50%; transform: translate(-50%, -50%); border:5px solid black"">",null,NA,NA,NA,NA,NA,NA,NA,NA,NA,NA,NA,NA,NA,NA
727.5,NA,stimuli-presentation,122,254299,0.0-50.0-1.4,SS1646459694618,NA,NA,trial,NA,40,NA,500,1227.5,images/stimuli/simple_03_A_a.gif,images/stimuli/simple_12_A_a.gif,self-paced,500,7,simple,500,images/stimuli/simple_12_A_a.gif,NA,NA,NA
2278.5,"{""Q0"":""Yes""}",survey-multi-choice,123,256579,0.0-51.0,SS1646459694618,NA,NA,memory_test,NA,NA,NA,NA,NA,NA,NA,NA,NA,NA,NA,NA,NA,[0],images/stimuli/simple_12_A_a.gif,7
NA,NA,fullscreen,124,257589,0.0-52.0,SS1646459694618,TRUE,NA,NA,NA,NA,NA,NA,NA,NA,NA,NA,NA,NA,NA,NA,NA,NA,NA,NA
2540.2000000178814,NA,instructions,125,260131,0.0-53.0,SS1646459694618,NA,"[{""page_index"":0,""viewing_time"":2540}]",instructions,NA,NA,NA,NA,NA,NA,NA,NA,NA,NA,NA,NA,NA,NA,NA,NA
1925.5,"{""age"":""30""}",demog-age,126,262059,0.0-54.0,SS1646459694618,NA,NA,NA,NA,NA,NA,NA,NA,NA,NA,NA,NA,NA,NA,NA,NA,NA,NA,NA
6492.5999999940395,"{""ethnicity"":[""White"",""Other""]}",demog-ethnic-US,127,268555,0.0-55.0,SS1646459694618,NA,NA,NA,NA,NA,NA,NA,NA,NA,NA,NA,NA,NA,NA,NA,NA,[0],NA,NA
6564.0999999940395,"{""gender"":""Male"",""education"":""Associate Degree/Technical certification""}",demog-gender-and-education,128,275123,0.0-56.0,SS1646459694618,NA,NA,NA,NA,NA,NA,NA,NA,NA,NA,NA,NA,NA,NA,NA,NA,"[0,1]",NA,NA
14243,"{""Q0"":""No it was alright.""}",survey-text,129,289371,0.0-57.0,SS1646459694618,NA,NA,feedback,NA,NA,NA,NA,NA,NA,NA,NA,NA,NA,NA,NA,NA,NA,NA,NA
1838.4000000059605,NA,instructions,130,291211,0.0-58.0,SS1646459694618,NA,"[{""page_index"":0,""viewing_time"":1838.1000000238419}]",instructions,NA,NA,NA,NA,NA,NA,NA,NA,NA,NA,NA,NA,NA,NA,NA,NA
6495.199999999255,"{""p_id"":""613aa61e15f46c009b1de936""}",survey-text,0,6513,0.0-0.0,SS1646459697010,NA,NA,NA,NA,NA,NA,NA,NA,NA,NA,NA,NA,NA,NA,NA,NA,NA,NA,NA
NA,NA,fullscreen,1,12940,0.0-1.0,SS1646459697010,TRUE,NA,NA,NA,NA,NA,NA,NA,NA,NA,NA,NA,NA,NA,NA,NA,NA,NA,NA
19474.89999999851,NA,instructions,2,32417,0.0-2.0,SS1646459697010,NA,"[{""page_index"":0,""viewing_time"":19474.300000000745}]",NA,NA,NA,NA,NA,NA,NA,NA,NA,NA,NA,NA,NA,NA,NA,NA,NA
140823,NA,instructions,3,175250,0.0-3.0,SS1646459697010,NA,"[{""page_index"":0,""viewing_time"":120143.10000000149},{""page_index"":1,""viewing_time"":6676.39999999851},{""page_index"":2,""viewing_time"":14003.300000000745}]",instructions,NA,NA,NA,NA,NA,NA,NA,NA,NA,NA,NA,NA,NA,NA,NA,NA
null,NA,html-keyboard-response,4,176259,0.0-4.0,SS1646459697010,NA,NA,NA,Watch carefully!,null,NA,NA,NA,NA,NA,NA,NA,NA,NA,NA,NA,NA,NA,NA
null,NA,stimuli-presentation,5,176772,0.0-5.0,SS1646459697010,NA,NA,NA,NA,null,NA,500,500,null,null,forced,510,NA,NA,NA,NA,NA,NA,NA
null,NA,html-keyboard-response,6,177785,0.0-6.0,SS1646459697010,NA,NA,NA,Now you can keep studying the creature.,null,NA,NA,NA,NA,NA,NA,NA,NA,NA,NA,NA,NA,NA,NA
12100.199999999255,NA,stimuli-presentation,7,188873,0.0-7.0,SS1646459697010,NA,NA,NA,NA,40,NA,500,12600.199999999255,null,null,forced,510,NA,NA,NA,NA,NA,NA,NA
7483.300000000745,NA,stimuli-presentation,8,196864,0.0-8.0,SS1646459697010,NA,NA,NA,NA,40,NA,500,7983.300000000745,null,null,self_paced,0,NA,NA,NA,NA,NA,NA,NA
2413.699999999255,NA,stimuli-presentation,9,199785,0.0-9.0,SS1646459697010,NA,NA,NA,NA,40,NA,500,2913.699999999255,null,null,self_paced,0,NA,NA,NA,NA,NA,NA,NA
3247.39999999851,NA,instructions,10,203032,0.0-10.0,SS1646459697010,NA,"[{""page_index"":0,""viewing_time"":3247.300000000745}]",instructions,NA,NA,NA,NA,NA,NA,NA,NA,NA,NA,NA,NA,NA,NA,NA,NA
54396.699999999255,NA,instructions,11,257430,0.0-11.0,SS1646459697010,NA,"[{""page_index"":0,""viewing_time"":48160.89999999851},{""page_index"":1,""viewing_time"":2505.5},{""page_index"":2,""viewing_time"":2177.89999999851},{""page_index"":3,""viewing_time"":1552.1000000014901}]",instructions,NA,NA,NA,NA,NA,NA,NA,NA,NA,NA,NA,NA,NA,NA,NA,NA
null,NA,html-keyboard-response,12,258432,0.0-12.0,SS1646459697010,NA,NA,NA,Watch carefully!,null,NA,NA,NA,NA,NA,NA,NA,NA,NA,NA,NA,NA,NA,NA
null,NA,stimuli-presentation,13,268435,0.0-13.0,SS1646459697010,NA,NA,NA,NA,null,NA,500,500,null,null,forced,10000,NA,NA,NA,NA,NA,NA,NA
null,NA,html-keyboard-response,14,269446,0.0-14.0,SS1646459697010,NA,NA,NA,Now you can keep studying the creature.,null,NA,NA,NA,NA,NA,NA,NA,NA,NA,NA,NA,NA,NA,NA
null,NA,html-keyboard-response,15,270287,0.0-15.0-0.0,SS1646459697010,NA,NA,NA,"<p><img src= images/blank.png width =""600"" height = ""600"" style=""position:fixed;top:50%; left:50%; transform: translate(-50%, -50%); border:5px solid black"">",null,NA,NA,NA,NA,NA,NA,NA,NA,NA,NA,NA,NA,NA,NA
12173.400000002235,NA,stimuli-presentation,16,280608,0.0-15.0-1.0,SS1646459697010,NA,NA,trial,NA,40,NA,500,12673.400000002235,null,null,forced,10000,0,simple,10000,images/stimuli/simple_05_A_a.gif,NA,NA,NA
null,NA,html-keyboard-response,17,281480,0.0-15.0-0.1,SS1646459697010,NA,NA,NA,"<p><img src= images/blank.png width =""600"" height = ""600"" style=""position:fixed;top:50%; left:50%; transform: translate(-50%, -50%); border:5px solid black"">",null,NA,NA,NA,NA,NA,NA,NA,NA,NA,NA,NA,NA,NA,NA
4810.300000000745,NA,stimuli-presentation,18,286793,0.0-15.0-1.1,SS1646459697010,NA,NA,trial,NA,40,NA,500,5310.300000000745,images/stimuli/simple_05_A_a.gif,images/stimuli/simple_15_A_a.gif,self-paced,10000,0,simple,10000,images/stimuli/simple_15_A_a.gif,NA,NA,NA
null,NA,html-keyboard-response,19,288081,0.0-15.0-0.2,SS1646459697010,NA,NA,NA,"<p><img src= images/blank.png width =""600"" height = ""600"" style=""position:fixed;top:50%; left:50%; transform: translate(-50%, -50%); border:5px solid black"">",null,NA,NA,NA,NA,NA,NA,NA,NA,NA,NA,NA,NA,NA,NA
4123.5,NA,stimuli-presentation,20,292712,0.0-15.0-1.2,SS1646459697010,NA,NA,trial,NA,40,NA,500,4623.5,images/stimuli/simple_05_A_a.gif,images/stimuli/simple_15_A_a.gif,self-paced,10000,0,simple,10000,images/stimuli/simple_15_A_a.gif,NA,NA,NA
null,NA,html-keyboard-response,21,293616,0.0-15.0-0.3,SS1646459697010,NA,NA,NA,"<p><img src= images/blank.png width =""600"" height = ""600"" style=""position:fixed;top:50%; left:50%; transform: translate(-50%, -50%); border:5px solid black"">",null,NA,NA,NA,NA,NA,NA,NA,NA,NA,NA,NA,NA,NA,NA
4177.599999997765,NA,stimuli-presentation,22,298297,0.0-15.0-1.3,SS1646459697010,NA,NA,trial,NA,40,NA,500,4677.599999997765,images/stimuli/simple_05_A_a.gif,images/stimuli/simple_15_A_a.gif,self-paced,10000,0,simple,10000,images/stimuli/simple_15_A_a.gif,NA,NA,NA
null,NA,html-keyboard-response,23,299153,0.0-15.0-0.4,SS1646459697010,NA,NA,NA,"<p><img src= images/blank.png width =""600"" height = ""600"" style=""position:fixed;top:50%; left:50%; transform: translate(-50%, -50%); border:5px solid black"">",null,NA,NA,NA,NA,NA,NA,NA,NA,NA,NA,NA,NA,NA,NA
4289.5,NA,stimuli-presentation,24,303954,0.0-15.0-1.4,SS1646459697010,NA,NA,trial,NA,40,NA,500,4789.5,images/stimuli/simple_05_A_a.gif,images/stimuli/simple_15_A_a.gif,self-paced,10000,0,simple,10000,images/stimuli/simple_15_A_a.gif,NA,NA,NA
11024.5,"{""Q0"":""No""}",survey-multi-choice,25,314980,0.0-16.0,SS1646459697010,NA,NA,memory_test,NA,NA,NA,NA,NA,NA,NA,NA,NA,NA,NA,NA,NA,[0],images/stimuli/simple_10_A_a.gif,0
null,NA,html-keyboard-response,26,315992,0.0-17.0,SS1646459697010,NA,NA,NA,Watch carefully!,null,NA,NA,NA,NA,NA,NA,NA,NA,NA,NA,NA,NA,NA,NA
null,NA,stimuli-presentation,27,316493,0.0-18.0,SS1646459697010,NA,NA,NA,NA,null,NA,500,500,null,null,forced,500,NA,NA,NA,NA,NA,NA,NA
null,NA,html-keyboard-response,28,317511,0.0-19.0,SS1646459697010,NA,NA,NA,Now you can keep studying the creature.,null,NA,NA,NA,NA,NA,NA,NA,NA,NA,NA,NA,NA,NA,NA
null,NA,html-keyboard-response,29,318809,0.0-20.0-0.0,SS1646459697010,NA,NA,NA,"<p><img src= images/blank.png width =""600"" height = ""600"" style=""position:fixed;top:50%; left:50%; transform: translate(-50%, -50%); border:5px solid black"">",null,NA,NA,NA,NA,NA,NA,NA,NA,NA,NA,NA,NA,NA,NA
6322.599999997765,NA,stimuli-presentation,30,322816,0.0-20.0-1.0,SS1646459697010,NA,NA,trial,NA,40,NA,500,6822.599999997765,null,null,forced,500,1,simple,500,images/stimuli/simple_04_A_a.gif,NA,NA,NA
null,NA,html-keyboard-response,31,323714,0.0-20.0-0.1,SS1646459697010,NA,NA,NA,"<p><img src= images/blank.png width =""600"" height = ""600"" style=""position:fixed;top:50%; left:50%; transform: translate(-50%, -50%); border:5px solid black"">",null,NA,NA,NA,NA,NA,NA,NA,NA,NA,NA,NA,NA,NA,NA
3655.699999999255,NA,stimuli-presentation,32,327872,0.0-20.0-1.1,SS1646459697010,NA,NA,trial,NA,40,NA,500,4155.699999999255,images/stimuli/simple_04_A_a.gif,images/stimuli/simple_20_A_a.gif,self-paced,500,1,simple,500,images/stimuli/simple_20_A_a.gif,NA,NA,NA
null,NA,html-keyboard-response,33,328933,0.0-20.0-0.2,SS1646459697010,NA,NA,NA,"<p><img src= images/blank.png width =""600"" height = ""600"" style=""position:fixed;top:50%; left:50%; transform: translate(-50%, -50%); border:5px solid black"">",null,NA,NA,NA,NA,NA,NA,NA,NA,NA,NA,NA,NA,NA,NA
2027.699999999255,NA,stimuli-presentation,34,331464,0.0-20.0-1.2,SS1646459697010,NA,NA,trial,NA,40,NA,500,2527.699999999255,images/stimuli/simple_04_A_a.gif,images/stimuli/simple_20_A_a.gif,self-paced,500,1,simple,500,images/stimuli/simple_20_A_a.gif,NA,NA,NA
null,NA,html-keyboard-response,35,332517,0.0-20.0-0.3,SS1646459697010,NA,NA,NA,"<p><img src= images/blank.png width =""600"" height = ""600"" style=""position:fixed;top:50%; left:50%; transform: translate(-50%, -50%); border:5px solid black"">",null,NA,NA,NA,NA,NA,NA,NA,NA,NA,NA,NA,NA,NA,NA
244.30000000074506,NA,stimuli-presentation,36,333264,0.0-20.0-1.3,SS1646459697010,NA,NA,trial,NA,40,NA,500,744.3000000007451,images/stimuli/simple_04_A_a.gif,images/stimuli/simple_20_A_a.gif,self-paced,500,1,simple,500,images/stimuli/simple_20_A_a.gif,NA,NA,NA
null,NA,html-keyboard-response,37,334524,0.0-20.0-0.4,SS1646459697010,NA,NA,NA,"<p><img src= images/blank.png width =""600"" height = ""600"" style=""position:fixed;top:50%; left:50%; transform: translate(-50%, -50%); border:5px solid black"">",null,NA,NA,NA,NA,NA,NA,NA,NA,NA,NA,NA,NA,NA,NA
1452.8999999985099,NA,stimuli-presentation,38,336480,0.0-20.0-1.4,SS1646459697010,NA,NA,trial,NA,40,NA,500,1952.8999999985099,images/stimuli/simple_04_A_a.gif,images/stimuli/simple_20_A_a.gif,self-paced,500,1,simple,500,images/stimuli/simple_20_A_a.gif,NA,NA,NA
3108.2000000029802,"{""Q0"":""Yes""}",survey-multi-choice,39,339590,0.0-21.0,SS1646459697010,NA,NA,memory_test,NA,NA,NA,NA,NA,NA,NA,NA,NA,NA,NA,NA,NA,[0],images/stimuli/simple_20_A_a.gif,1
null,NA,html-keyboard-response,40,340593,0.0-22.0,SS1646459697010,NA,NA,NA,Watch carefully!,null,NA,NA,NA,NA,NA,NA,NA,NA,NA,NA,NA,NA,NA,NA
null,NA,stimuli-presentation,41,341096,0.0-23.0,SS1646459697010,NA,NA,NA,NA,null,NA,500,500,null,null,forced,500,NA,NA,NA,NA,NA,NA,NA
null,NA,html-keyboard-response,42,342098,0.0-24.0,SS1646459697010,NA,NA,NA,Now you can keep studying the creature.,null,NA,NA,NA,NA,NA,NA,NA,NA,NA,NA,NA,NA,NA,NA
null,NA,html-keyboard-response,43,343233,0.0-25.0-0.0,SS1646459697010,NA,NA,NA,"<p><img src= images/blank.png width =""600"" height = ""600"" style=""position:fixed;top:50%; left:50%; transform: translate(-50%, -50%); border:5px solid black"">",null,NA,NA,NA,NA,NA,NA,NA,NA,NA,NA,NA,NA,NA,NA
4087.60000000149,NA,stimuli-presentation,44,345183,0.0-25.0-1.0,SS1646459697010,NA,NA,trial,NA,40,NA,500,4587.60000000149,null,null,forced,500,2,simple,500,images/stimuli/simple_13_A_a.gif,NA,NA,NA
null,NA,html-keyboard-response,45,346257,0.0-25.0-0.1,SS1646459697010,NA,NA,NA,"<p><img src= images/blank.png width =""600"" height = ""600"" style=""position:fixed;top:50%; left:50%; transform: translate(-50%, -50%); border:5px solid black"">",null,NA,NA,NA,NA,NA,NA,NA,NA,NA,NA,NA,NA,NA,NA
1111.800000000745,NA,stimuli-presentation,46,347872,0.0-25.0-1.1,SS1646459697010,NA,NA,trial,NA,40,NA,500,1611.800000000745,images/stimuli/simple_16_A_a.gif,images/stimuli/simple_13_A_a.gif,self-paced,500,2,simple,500,images/stimuli/simple_13_A_a.gif,NA,NA,NA
null,NA,html-keyboard-response,47,349036,0.0-25.0-0.2,SS1646459697010,NA,NA,NA,"<p><img src= images/blank.png width =""600"" height = ""600"" style=""position:fixed;top:50%; left:50%; transform: translate(-50%, -50%); border:5px solid black"">",null,NA,NA,NA,NA,NA,NA,NA,NA,NA,NA,NA,NA,NA,NA
686.0999999977648,NA,stimuli-presentation,48,350224,0.0-25.0-1.2,SS1646459697010,NA,NA,trial,NA,40,NA,500,1186.0999999977648,images/stimuli/simple_16_A_a.gif,images/stimuli/simple_13_A_a.gif,self-paced,500,2,simple,500,images/stimuli/simple_13_A_a.gif,NA,NA,NA
null,NA,html-keyboard-response,49,351245,0.0-25.0-0.3,SS1646459697010,NA,NA,NA,"<p><img src= images/blank.png width =""600"" height = ""600"" style=""position:fixed;top:50%; left:50%; transform: translate(-50%, -50%); border:5px solid black"">",null,NA,NA,NA,NA,NA,NA,NA,NA,NA,NA,NA,NA,NA,NA
1316,NA,stimuli-presentation,50,353064,0.0-25.0-1.3,SS1646459697010,NA,NA,trial,NA,40,NA,500,1816,images/stimuli/simple_16_A_a.gif,images/stimuli/simple_13_A_a.gif,self-paced,500,2,simple,500,images/stimuli/simple_13_A_a.gif,NA,NA,NA
null,NA,html-keyboard-response,51,353932,0.0-25.0-0.4,SS1646459697010,NA,NA,NA,"<p><img src= images/blank.png width =""600"" height = ""600"" style=""position:fixed;top:50%; left:50%; transform: translate(-50%, -50%); border:5px solid black"">",null,NA,NA,NA,NA,NA,NA,NA,NA,NA,NA,NA,NA,NA,NA
1861.0999999977648,NA,stimuli-presentation,52,356304,0.0-25.0-1.4,SS1646459697010,NA,NA,trial,NA,40,NA,500,2361.099999997765,images/stimuli/simple_16_A_a.gif,images/stimuli/simple_13_A_a.gif,self-paced,500,2,simple,500,images/stimuli/simple_16_A_a.gif,NA,NA,NA
2885.900000002235,"{""Q0"":""Yes""}",survey-multi-choice,53,359192,0.0-26.0,SS1646459697010,NA,NA,memory_test,NA,NA,NA,NA,NA,NA,NA,NA,NA,NA,NA,NA,NA,[0],images/stimuli/simple_13_A_a.gif,2
null,NA,html-keyboard-response,54,360195,0.0-27.0,SS1646459697010,NA,NA,NA,Watch carefully!,null,NA,NA,NA,NA,NA,NA,NA,NA,NA,NA,NA,NA,NA,NA
null,NA,stimuli-presentation,55,370199,0.0-28.0,SS1646459697010,NA,NA,NA,NA,null,NA,500,500,null,null,forced,10000,NA,NA,NA,NA,NA,NA,NA
null,NA,html-keyboard-response,56,371211,0.0-29.0,SS1646459697010,NA,NA,NA,Now you can keep studying the creature.,null,NA,NA,NA,NA,NA,NA,NA,NA,NA,NA,NA,NA,NA,NA
null,NA,html-keyboard-response,57,372242,0.0-30.0-0.0,SS1646459697010,NA,NA,NA,"<p><img src= images/blank.png width =""600"" height = ""600"" style=""position:fixed;top:50%; left:50%; transform: translate(-50%, -50%); border:5px solid black"">",null,NA,NA,NA,NA,NA,NA,NA,NA,NA,NA,NA,NA,NA,NA
6146.099999997765,NA,stimuli-presentation,58,376344,0.0-30.0-1.0,SS1646459697010,NA,NA,trial,NA,40,NA,500,6646.099999997765,null,null,forced,10000,3,complex,10000,images/stimuli/complex_03_A_a.gif,NA,NA,NA
null,NA,html-keyboard-response,59,377393,0.0-30.0-0.1,SS1646459697010,NA,NA,NA,"<p><img src= images/blank.png width =""600"" height = ""600"" style=""position:fixed;top:50%; left:50%; transform: translate(-50%, -50%); border:5px solid black"">",null,NA,NA,NA,NA,NA,NA,NA,NA,NA,NA,NA,NA,NA,NA
3606.800000000745,NA,stimuli-presentation,60,381504,0.0-30.0-1.1,SS1646459697010,NA,NA,trial,NA,40,NA,500,4106.800000000745,images/stimuli/complex_01_A_a.gif,images/stimuli/complex_03_A_a.gif,self-paced,10000,3,complex,10000,images/stimuli/complex_03_A_a.gif,NA,NA,NA
null,NA,html-keyboard-response,61,382743,0.0-30.0-0.2,SS1646459697010,NA,NA,NA,"<p><img src= images/blank.png width =""600"" height = ""600"" style=""position:fixed;top:50%; left:50%; transform: translate(-50%, -50%); border:5px solid black"">",null,NA,NA,NA,NA,NA,NA,NA,NA,NA,NA,NA,NA,NA,NA
4553.199999999255,NA,stimuli-presentation,62,387800,0.0-30.0-1.2,SS1646459697010,NA,NA,trial,NA,40,NA,500,5053.199999999255,images/stimuli/complex_01_A_a.gif,images/stimuli/complex_03_A_a.gif,self-paced,10000,3,complex,10000,images/stimuli/complex_01_A_a.gif,NA,NA,NA
null,NA,html-keyboard-response,63,388795,0.0-30.0-0.3,SS1646459697010,NA,NA,NA,"<p><img src= images/blank.png width =""600"" height = ""600"" style=""position:fixed;top:50%; left:50%; transform: translate(-50%, -50%); border:5px solid black"">",null,NA,NA,NA,NA,NA,NA,NA,NA,NA,NA,NA,NA,NA,NA
3317.199999999255,NA,stimuli-presentation,64,392616,0.0-30.0-1.3,SS1646459697010,NA,NA,trial,NA,40,NA,500,3817.199999999255,images/stimuli/complex_01_A_a.gif,images/stimuli/complex_03_A_a.gif,self-paced,10000,3,complex,10000,images/stimuli/complex_03_A_a.gif,NA,NA,NA
null,NA,html-keyboard-response,65,393633,0.0-30.0-0.4,SS1646459697010,NA,NA,NA,"<p><img src= images/blank.png width =""600"" height = ""600"" style=""position:fixed;top:50%; left:50%; transform: translate(-50%, -50%); border:5px solid black"">",null,NA,NA,NA,NA,NA,NA,NA,NA,NA,NA,NA,NA,NA,NA
865.6999999992549,NA,stimuli-presentation,66,395008,0.0-30.0-1.4,SS1646459697010,NA,NA,trial,NA,40,NA,500,1365.699999999255,images/stimuli/complex_01_A_a.gif,images/stimuli/complex_03_A_a.gif,self-paced,10000,3,complex,10000,images/stimuli/complex_03_A_a.gif,NA,NA,NA
3089.7000000029802,"{""Q0"":""Yes""}",survey-multi-choice,67,398100,0.0-31.0,SS1646459697010,NA,NA,memory_test,NA,NA,NA,NA,NA,NA,NA,NA,NA,NA,NA,NA,NA,[0],images/stimuli/complex_03_A_a.gif,3
null,NA,html-keyboard-response,68,399103,0.0-32.0,SS1646459697010,NA,NA,NA,Watch carefully!,null,NA,NA,NA,NA,NA,NA,NA,NA,NA,NA,NA,NA,NA,NA
null,NA,stimuli-presentation,69,409106,0.0-33.0,SS1646459697010,NA,NA,NA,NA,null,NA,500,500,null,null,forced,10000,NA,NA,NA,NA,NA,NA,NA
null,NA,html-keyboard-response,70,410123,0.0-34.0,SS1646459697010,NA,NA,NA,Now you can keep studying the creature.,null,NA,NA,NA,NA,NA,NA,NA,NA,NA,NA,NA,NA,NA,NA
null,NA,html-keyboard-response,71,411351,0.0-35.0-0.0,SS1646459697010,NA,NA,NA,"<p><img src= images/blank.png width =""600"" height = ""600"" style=""position:fixed;top:50%; left:50%; transform: translate(-50%, -50%); border:5px solid black"">",null,NA,NA,NA,NA,NA,NA,NA,NA,NA,NA,NA,NA,NA,NA
12006.20000000298,NA,stimuli-presentation,72,421112,0.0-35.0-1.0,SS1646459697010,NA,NA,trial,NA,40,NA,500,12506.20000000298,null,null,forced,10000,4,complex,10000,images/stimuli/complex_20_A_a.gif,NA,NA,NA
null,NA,html-keyboard-response,73,422032,0.0-35.0-0.1,SS1646459697010,NA,NA,NA,"<p><img src= images/blank.png width =""600"" height = ""600"" style=""position:fixed;top:50%; left:50%; transform: translate(-50%, -50%); border:5px solid black"">",null,NA,NA,NA,NA,NA,NA,NA,NA,NA,NA,NA,NA,NA,NA
1357.5,NA,stimuli-presentation,74,423903,0.0-35.0-1.1,SS1646459697010,NA,NA,trial,NA,40,NA,500,1857.5,images/stimuli/complex_15_A_a.gif,images/stimuli/complex_20_A_a.gif,self-paced,10000,4,complex,10000,images/stimuli/complex_20_A_a.gif,NA,NA,NA
null,NA,html-keyboard-response,75,424808,0.0-35.0-0.2,SS1646459697010,NA,NA,NA,"<p><img src= images/blank.png width =""600"" height = ""600"" style=""position:fixed;top:50%; left:50%; transform: translate(-50%, -50%); border:5px solid black"">",null,NA,NA,NA,NA,NA,NA,NA,NA,NA,NA,NA,NA,NA,NA
139.90000000223517,NA,stimuli-presentation,76,425463,0.0-35.0-1.2,SS1646459697010,NA,NA,trial,NA,40,NA,500,639.9000000022352,images/stimuli/complex_15_A_a.gif,images/stimuli/complex_20_A_a.gif,self-paced,10000,4,complex,10000,images/stimuli/complex_20_A_a.gif,NA,NA,NA
null,NA,html-keyboard-response,77,426334,0.0-35.0-0.3,SS1646459697010,NA,NA,NA,"<p><img src= images/blank.png width =""600"" height = ""600"" style=""position:fixed;top:50%; left:50%; transform: translate(-50%, -50%); border:5px solid black"">",null,NA,NA,NA,NA,NA,NA,NA,NA,NA,NA,NA,NA,NA,NA
994.9000000022352,NA,stimuli-presentation,78,427832,0.0-35.0-1.3,SS1646459697010,NA,NA,trial,NA,40,NA,500,1494.9000000022352,images/stimuli/complex_15_A_a.gif,images/stimuli/complex_20_A_a.gif,self-paced,10000,4,complex,10000,images/stimuli/complex_20_A_a.gif,NA,NA,NA
null,NA,html-keyboard-response,79,428839,0.0-35.0-0.4,SS1646459697010,NA,NA,NA,"<p><img src= images/blank.png width =""600"" height = ""600"" style=""position:fixed;top:50%; left:50%; transform: translate(-50%, -50%); border:5px solid black"">",null,NA,NA,NA,NA,NA,NA,NA,NA,NA,NA,NA,NA,NA,NA
1025.4000000022352,NA,stimuli-presentation,80,430367,0.0-35.0-1.4,SS1646459697010,NA,NA,trial,NA,40,NA,500,1525.4000000022352,images/stimuli/complex_15_A_a.gif,images/stimuli/complex_20_A_a.gif,self-paced,10000,4,complex,10000,images/stimuli/complex_20_A_a.gif,NA,NA,NA
2967.10000000149,"{""Q0"":""Yes""}",survey-multi-choice,81,433337,0.0-36.0,SS1646459697010,NA,NA,memory_test,NA,NA,NA,NA,NA,NA,NA,NA,NA,NA,NA,NA,NA,[0],images/stimuli/complex_20_A_a.gif,4
null,NA,html-keyboard-response,82,434347,0.0-37.0,SS1646459697010,NA,NA,NA,Watch carefully!,null,NA,NA,NA,NA,NA,NA,NA,NA,NA,NA,NA,NA,NA,NA
null,NA,stimuli-presentation,83,434851,0.0-38.0,SS1646459697010,NA,NA,NA,NA,null,NA,500,500,null,null,forced,500,NA,NA,NA,NA,NA,NA,NA
null,NA,html-keyboard-response,84,435854,0.0-39.0,SS1646459697010,NA,NA,NA,Now you can keep studying the creature.,null,NA,NA,NA,NA,NA,NA,NA,NA,NA,NA,NA,NA,NA,NA
null,NA,html-keyboard-response,85,437082,0.0-40.0-0.0,SS1646459697010,NA,NA,NA,"<p><img src= images/blank.png width =""600"" height = ""600"" style=""position:fixed;top:50%; left:50%; transform: translate(-50%, -50%); border:5px solid black"">",null,NA,NA,NA,NA,NA,NA,NA,NA,NA,NA,NA,NA,NA,NA
4701.89999999851,NA,stimuli-presentation,86,439552,0.0-40.0-1.0,SS1646459697010,NA,NA,trial,NA,40,NA,500,5201.89999999851,null,null,forced,500,5,complex,500,images/stimuli/complex_19_A_a.gif,NA,NA,NA
null,NA,html-keyboard-response,87,440504,0.0-40.0-0.1,SS1646459697010,NA,NA,NA,"<p><img src= images/blank.png width =""600"" height = ""600"" style=""position:fixed;top:50%; left:50%; transform: translate(-50%, -50%); border:5px solid black"">",null,NA,NA,NA,NA,NA,NA,NA,NA,NA,NA,NA,NA,NA,NA
4121.099999997765,NA,stimuli-presentation,88,445128,0.0-40.0-1.1,SS1646459697010,NA,NA,trial,NA,40,NA,500,4621.099999997765,images/stimuli/complex_10_A_a.gif,images/stimuli/complex_19_A_a.gif,self-paced,500,5,complex,500,images/stimuli/complex_19_A_a.gif,NA,NA,NA
null,NA,html-keyboard-response,89,445989,0.0-40.0-0.2,SS1646459697010,NA,NA,NA,"<p><img src= images/blank.png width =""600"" height = ""600"" style=""position:fixed;top:50%; left:50%; transform: translate(-50%, -50%); border:5px solid black"">",null,NA,NA,NA,NA,NA,NA,NA,NA,NA,NA,NA,NA,NA,NA
2507.199999999255,NA,stimuli-presentation,90,449000,0.0-40.0-1.2,SS1646459697010,NA,NA,trial,NA,40,NA,500,3007.199999999255,images/stimuli/complex_10_A_a.gif,images/stimuli/complex_19_A_a.gif,self-paced,500,5,complex,500,images/stimuli/complex_19_A_a.gif,NA,NA,NA
null,NA,html-keyboard-response,91,449894,0.0-40.0-0.3,SS1646459697010,NA,NA,NA,"<p><img src= images/blank.png width =""600"" height = ""600"" style=""position:fixed;top:50%; left:50%; transform: translate(-50%, -50%); border:5px solid black"">",null,NA,NA,NA,NA,NA,NA,NA,NA,NA,NA,NA,NA,NA,NA
2009.8999999985099,NA,stimuli-presentation,92,452408,0.0-40.0-1.3,SS1646459697010,NA,NA,trial,NA,40,NA,500,2509.89999999851,images/stimuli/complex_10_A_a.gif,images/stimuli/complex_19_A_a.gif,self-paced,500,5,complex,500,images/stimuli/complex_19_A_a.gif,NA,NA,NA
null,NA,html-keyboard-response,93,453256,0.0-40.0-0.4,SS1646459697010,NA,NA,NA,"<p><img src= images/blank.png width =""600"" height = ""600"" style=""position:fixed;top:50%; left:50%; transform: translate(-50%, -50%); border:5px solid black"">",null,NA,NA,NA,NA,NA,NA,NA,NA,NA,NA,NA,NA,NA,NA
1263.4000000022352,NA,stimuli-presentation,94,455024,0.0-40.0-1.4,SS1646459697010,NA,NA,trial,NA,40,NA,500,1763.4000000022352,images/stimuli/complex_10_A_a.gif,images/stimuli/complex_19_A_a.gif,self-paced,500,5,complex,500,images/stimuli/complex_19_A_a.gif,NA,NA,NA
4208.10000000149,"{""Q0"":""Yes""}",survey-multi-choice,95,459234,0.0-41.0,SS1646459697010,NA,NA,memory_test,NA,NA,NA,NA,NA,NA,NA,NA,NA,NA,NA,NA,NA,[0],images/stimuli/complex_19_A_a.gif,5
null,NA,html-keyboard-response,96,460249,0.0-42.0,SS1646459697010,NA,NA,NA,Watch carefully!,null,NA,NA,NA,NA,NA,NA,NA,NA,NA,NA,NA,NA,NA,NA
null,NA,stimuli-presentation,97,470252,0.0-43.0,SS1646459697010,NA,NA,NA,NA,null,NA,500,500,null,null,forced,10000,NA,NA,NA,NA,NA,NA,NA
null,NA,html-keyboard-response,98,471259,0.0-44.0,SS1646459697010,NA,NA,NA,Now you can keep studying the creature.,null,NA,NA,NA,NA,NA,NA,NA,NA,NA,NA,NA,NA,NA,NA
null,NA,html-keyboard-response,99,472569,0.0-45.0-0.0,SS1646459697010,NA,NA,NA,"<p><img src= images/blank.png width =""600"" height = ""600"" style=""position:fixed;top:50%; left:50%; transform: translate(-50%, -50%); border:5px solid black"">",null,NA,NA,NA,NA,NA,NA,NA,NA,NA,NA,NA,NA,NA,NA
3642.699999999255,NA,stimuli-presentation,100,473895,0.0-45.0-1.0,SS1646459697010,NA,NA,trial,NA,40,NA,500,4142.699999999255,null,null,forced,10000,6,simple,10000,images/stimuli/simple_07_A_a.gif,NA,NA,NA
null,NA,html-keyboard-response,101,474920,0.0-45.0-0.1,SS1646459697010,NA,NA,NA,"<p><img src= images/blank.png width =""600"" height = ""600"" style=""position:fixed;top:50%; left:50%; transform: translate(-50%, -50%); border:5px solid black"">",null,NA,NA,NA,NA,NA,NA,NA,NA,NA,NA,NA,NA,NA,NA
3344,NA,stimuli-presentation,102,478767,0.0-45.0-1.1,SS1646459697010,NA,NA,trial,NA,40,NA,500,3844,images/stimuli/simple_02_A_a.gif,images/stimuli/simple_07_A_a.gif,self-paced,10000,6,simple,10000,images/stimuli/simple_07_A_a.gif,NA,NA,NA
null,NA,html-keyboard-response,103,479625,0.0-45.0-0.2,SS1646459697010,NA,NA,NA,"<p><img src= images/blank.png width =""600"" height = ""600"" style=""position:fixed;top:50%; left:50%; transform: translate(-50%, -50%); border:5px solid black"">",null,NA,NA,NA,NA,NA,NA,NA,NA,NA,NA,NA,NA,NA,NA
4039.300000000745,NA,stimuli-presentation,104,484168,0.0-45.0-1.2,SS1646459697010,NA,NA,trial,NA,40,NA,500,4539.300000000745,images/stimuli/simple_02_A_a.gif,images/stimuli/simple_07_A_a.gif,self-paced,10000,6,simple,10000,images/stimuli/simple_07_A_a.gif,NA,NA,NA
null,NA,html-keyboard-response,105,485201,0.0-45.0-0.3,SS1646459697010,NA,NA,NA,"<p><img src= images/blank.png width =""600"" height = ""600"" style=""position:fixed;top:50%; left:50%; transform: translate(-50%, -50%); border:5px solid black"">",null,NA,NA,NA,NA,NA,NA,NA,NA,NA,NA,NA,NA,NA,NA
895.6999999992549,NA,stimuli-presentation,106,486599,0.0-45.0-1.3,SS1646459697010,NA,NA,trial,NA,40,NA,500,1395.699999999255,images/stimuli/simple_02_A_a.gif,images/stimuli/simple_07_A_a.gif,self-paced,10000,6,simple,10000,images/stimuli/simple_07_A_a.gif,NA,NA,NA
null,NA,html-keyboard-response,107,487423,0.0-45.0-0.4,SS1646459697010,NA,NA,NA,"<p><img src= images/blank.png width =""600"" height = ""600"" style=""position:fixed;top:50%; left:50%; transform: translate(-50%, -50%); border:5px solid black"">",null,NA,NA,NA,NA,NA,NA,NA,NA,NA,NA,NA,NA,NA,NA
5169,NA,stimuli-presentation,108,493096,0.0-45.0-1.4,SS1646459697010,NA,NA,trial,NA,40,NA,500,5669,images/stimuli/simple_02_A_a.gif,images/stimuli/simple_07_A_a.gif,self-paced,10000,6,simple,10000,images/stimuli/simple_02_A_a.gif,NA,NA,NA
3112.10000000149,"{""Q0"":""Yes""}",survey-multi-choice,109,496210,0.0-46.0,SS1646459697010,NA,NA,memory_test,NA,NA,NA,NA,NA,NA,NA,NA,NA,NA,NA,NA,NA,[0],images/stimuli/simple_07_A_a.gif,6
null,NA,html-keyboard-response,110,497213,0.0-47.0,SS1646459697010,NA,NA,NA,Watch carefully!,null,NA,NA,NA,NA,NA,NA,NA,NA,NA,NA,NA,NA,NA,NA
null,NA,stimuli-presentation,111,497717,0.0-48.0,SS1646459697010,NA,NA,NA,NA,null,NA,500,500,null,null,forced,500,NA,NA,NA,NA,NA,NA,NA
null,NA,html-keyboard-response,112,498729,0.0-49.0,SS1646459697010,NA,NA,NA,Now you can keep studying the creature.,null,NA,NA,NA,NA,NA,NA,NA,NA,NA,NA,NA,NA,NA,NA
null,NA,html-keyboard-response,113,500005,0.0-50.0-0.0,SS1646459697010,NA,NA,NA,"<p><img src= images/blank.png width =""600"" height = ""600"" style=""position:fixed;top:50%; left:50%; transform: translate(-50%, -50%); border:5px solid black"">",null,NA,NA,NA,NA,NA,NA,NA,NA,NA,NA,NA,NA,NA,NA
5771.5,NA,stimuli-presentation,114,503488,0.0-50.0-1.0,SS1646459697010,NA,NA,trial,NA,40,NA,500,6271.5,null,null,forced,500,7,complex,500,images/stimuli/complex_12_A_a.gif,NA,NA,NA
null,NA,html-keyboard-response,115,504349,0.0-50.0-0.1,SS1646459697010,NA,NA,NA,"<p><img src= images/blank.png width =""600"" height = ""600"" style=""position:fixed;top:50%; left:50%; transform: translate(-50%, -50%); border:5px solid black"">",null,NA,NA,NA,NA,NA,NA,NA,NA,NA,NA,NA,NA,NA,NA
378.80000000074506,NA,stimuli-presentation,116,505232,0.0-50.0-1.1,SS1646459697010,NA,NA,trial,NA,40,NA,500,878.8000000007451,images/stimuli/complex_13_A_a.gif,images/stimuli/complex_12_A_a.gif,self-paced,500,7,complex,500,images/stimuli/complex_12_A_a.gif,NA,NA,NA
null,NA,html-keyboard-response,117,506244,0.0-50.0-0.2,SS1646459697010,NA,NA,NA,"<p><img src= images/blank.png width =""600"" height = ""600"" style=""position:fixed;top:50%; left:50%; transform: translate(-50%, -50%); border:5px solid black"">",null,NA,NA,NA,NA,NA,NA,NA,NA,NA,NA,NA,NA,NA,NA
3572.300000000745,NA,stimuli-presentation,118,510319,0.0-50.0-1.2,SS1646459697010,NA,NA,trial,NA,40,NA,500,4072.300000000745,images/stimuli/complex_13_A_a.gif,images/stimuli/complex_12_A_a.gif,self-paced,500,7,complex,500,images/stimuli/complex_13_A_a.gif,NA,NA,NA
null,NA,html-keyboard-response,119,511174,0.0-50.0-0.3,SS1646459697010,NA,NA,NA,"<p><img src= images/blank.png width =""600"" height = ""600"" style=""position:fixed;top:50%; left:50%; transform: translate(-50%, -50%); border:5px solid black"">",null,NA,NA,NA,NA,NA,NA,NA,NA,NA,NA,NA,NA,NA,NA
2007.800000000745,NA,stimuli-presentation,120,513695,0.0-50.0-1.3,SS1646459697010,NA,NA,trial,NA,40,NA,500,2507.800000000745,images/stimuli/complex_13_A_a.gif,images/stimuli/complex_12_A_a.gif,self-paced,500,7,complex,500,images/stimuli/complex_12_A_a.gif,NA,NA,NA
null,NA,html-keyboard-response,121,514874,0.0-50.0-0.4,SS1646459697010,NA,NA,NA,"<p><img src= images/blank.png width =""600"" height = ""600"" style=""position:fixed;top:50%; left:50%; transform: translate(-50%, -50%); border:5px solid black"">",null,NA,NA,NA,NA,NA,NA,NA,NA,NA,NA,NA,NA,NA,NA
204.09999999776483,NA,stimuli-presentation,122,515592,0.0-50.0-1.4,SS1646459697010,NA,NA,trial,NA,40,NA,500,704.0999999977648,images/stimuli/complex_13_A_a.gif,images/stimuli/complex_12_A_a.gif,self-paced,500,7,complex,500,images/stimuli/complex_12_A_a.gif,NA,NA,NA
5997.60000000149,"{""Q0"":""No""}",survey-multi-choice,123,521592,0.0-51.0,SS1646459697010,NA,NA,memory_test,NA,NA,NA,NA,NA,NA,NA,NA,NA,NA,NA,NA,NA,[0],images/stimuli/complex_02_A_a.gif,7
NA,NA,fullscreen,124,522598,0.0-52.0,SS1646459697010,TRUE,NA,NA,NA,NA,NA,NA,NA,NA,NA,NA,NA,NA,NA,NA,NA,NA,NA,NA
2701.199999999255,NA,instructions,125,525302,0.0-53.0,SS1646459697010,NA,"[{""page_index"":0,""viewing_time"":2701}]",instructions,NA,NA,NA,NA,NA,NA,NA,NA,NA,NA,NA,NA,NA,NA,NA,NA
2882.89999999851,"{""age"":""21""}",demog-age,126,528188,0.0-54.0,SS1646459697010,NA,NA,NA,NA,NA,NA,NA,NA,NA,NA,NA,NA,NA,NA,NA,NA,NA,NA,NA
3733.60000000149,"{""ethnicity"":[""Hispanic or Latino""]}",demog-ethnic-US,127,531925,0.0-55.0,SS1646459697010,NA,NA,NA,NA,NA,NA,NA,NA,NA,NA,NA,NA,NA,NA,NA,NA,[0],NA,NA
13978.5,"{""gender"":""Female"",""education"":""Associate Degree/Technical certification""}",demog-gender-and-education,128,545908,0.0-56.0,SS1646459697010,NA,NA,NA,NA,NA,NA,NA,NA,NA,NA,NA,NA,NA,NA,NA,NA,"[0,1]",NA,NA
44097.199999999255,"{""Q0"":""the animation wasnt laggy, i got confused by the animations sometimes but i think it was a me problem""}",survey-text,129,590008,0.0-57.0,SS1646459697010,NA,NA,feedback,NA,NA,NA,NA,NA,NA,NA,NA,NA,NA,NA,NA,NA,NA,NA,NA
2031.5,NA,instructions,130,592042,0.0-58.0,SS1646459697010,NA,"[{""page_index"":0,""viewing_time"":2031.199999999255}]",instructions,NA,NA,NA,NA,NA,NA,NA,NA,NA,NA,NA,NA,NA,NA,NA,NA
8496,"{""p_id"":""6170c5f324920093389dd767""}",survey-text,0,8503,0.0-0.0,SS1646459697109,NA,NA,NA,NA,NA,NA,NA,NA,NA,NA,NA,NA,NA,NA,NA,NA,NA,NA,NA
NA,NA,fullscreen,1,12550,0.0-1.0,SS1646459697109,TRUE,NA,NA,NA,NA,NA,NA,NA,NA,NA,NA,NA,NA,NA,NA,NA,NA,NA,NA
4655,NA,instructions,2,17206,0.0-2.0,SS1646459697109,NA,"[{""page_index"":0,""viewing_time"":4654.5}]",NA,NA,NA,NA,NA,NA,NA,NA,NA,NA,NA,NA,NA,NA,NA,NA,NA
47486.199999999255,NA,instructions,3,66694,0.0-3.0,SS1646459697109,NA,"[{""page_index"":0,""viewing_time"":34589.800000000745},{""page_index"":1,""viewing_time"":3392.10000000149},{""page_index"":2,""viewing_time"":9503.79999999702}]",instructions,NA,NA,NA,NA,NA,NA,NA,NA,NA,NA,NA,NA,NA,NA,NA,NA
null,NA,html-keyboard-response,4,67706,0.0-4.0,SS1646459697109,NA,NA,NA,Watch carefully!,null,NA,NA,NA,NA,NA,NA,NA,NA,NA,NA,NA,NA,NA,NA
null,NA,stimuli-presentation,5,68245,0.0-5.0,SS1646459697109,NA,NA,NA,NA,null,NA,500,500,null,null,forced,530,NA,NA,NA,NA,NA,NA,NA
null,NA,html-keyboard-response,6,69248,0.0-6.0,SS1646459697109,NA,NA,NA,Now you can keep studying the creature.,null,NA,NA,NA,NA,NA,NA,NA,NA,NA,NA,NA,NA,NA,NA
4417.099999997765,NA,stimuli-presentation,7,72662,0.0-7.0,SS1646459697109,NA,NA,NA,NA,40,NA,500,4917.099999997765,null,null,forced,530,NA,NA,NA,NA,NA,NA,NA
10692.89999999851,NA,stimuli-presentation,8,83870,0.0-8.0,SS1646459697109,NA,NA,NA,NA,40,NA,500,11192.89999999851,null,null,self_paced,0,NA,NA,NA,NA,NA,NA,NA
801.6000000014901,NA,stimuli-presentation,9,85174,0.0-9.0,SS1646459697109,NA,NA,NA,NA,40,NA,500,1301.6000000014901,null,null,self_paced,0,NA,NA,NA,NA,NA,NA,NA
2207.39999999851,NA,instructions,10,87383,0.0-10.0,SS1646459697109,NA,"[{""page_index"":0,""viewing_time"":2207.099999997765}]",instructions,NA,NA,NA,NA,NA,NA,NA,NA,NA,NA,NA,NA,NA,NA,NA,NA
10918.60000000149,NA,instructions,11,98302,0.0-11.0,SS1646459697109,NA,"[{""page_index"":0,""viewing_time"":5846.300000000745},{""page_index"":1,""viewing_time"":1463.8999999985099},{""page_index"":2,""viewing_time"":1976.1000000014901},{""page_index"":3,""viewing_time"":1631.8999999985099}]",instructions,NA,NA,NA,NA,NA,NA,NA,NA,NA,NA,NA,NA,NA,NA,NA,NA
null,NA,html-keyboard-response,12,99307,0.0-12.0,SS1646459697109,NA,NA,NA,Watch carefully!,null,NA,NA,NA,NA,NA,NA,NA,NA,NA,NA,NA,NA,NA,NA
null,NA,stimuli-presentation,13,109318,0.0-13.0,SS1646459697109,NA,NA,NA,NA,null,NA,500,500,null,null,forced,10000,NA,NA,NA,NA,NA,NA,NA
null,NA,html-keyboard-response,14,110334,0.0-14.0,SS1646459697109,NA,NA,NA,Now you can keep studying the creature.,null,NA,NA,NA,NA,NA,NA,NA,NA,NA,NA,NA,NA,NA,NA
null,NA,html-keyboard-response,15,111352,0.0-15.0-0.0,SS1646459697109,NA,NA,NA,"<p><img src= images/blank.png width =""600"" height = ""600"" style=""position:fixed;top:50%; left:50%; transform: translate(-50%, -50%); border:5px solid black"">",null,NA,NA,NA,NA,NA,NA,NA,NA,NA,NA,NA,NA,NA,NA
10584.400000002235,NA,stimuli-presentation,16,119902,0.0-15.0-1.0,SS1646459697109,NA,NA,trial,NA,40,NA,500,11084.400000002235,null,null,forced,10000,0,complex,10000,images/stimuli/complex_10_A_a.gif,NA,NA,NA
null,NA,html-keyboard-response,17,120848,0.0-15.0-0.1,SS1646459697109,NA,NA,NA,"<p><img src= images/blank.png width =""600"" height = ""600"" style=""position:fixed;top:50%; left:50%; transform: translate(-50%, -50%); border:5px solid black"">",null,NA,NA,NA,NA,NA,NA,NA,NA,NA,NA,NA,NA,NA,NA
9007.300000000745,NA,stimuli-presentation,18,130358,0.0-15.0-1.1,SS1646459697109,NA,NA,trial,NA,40,NA,500,9507.300000000745,images/stimuli/complex_20_A_a.gif,images/stimuli/complex_10_A_a.gif,self-paced,10000,0,complex,10000,images/stimuli/complex_10_A_a.gif,NA,NA,NA
null,NA,html-keyboard-response,19,131507,0.0-15.0-0.2,SS1646459697109,NA,NA,NA,"<p><img src= images/blank.png width =""600"" height = ""600"" style=""position:fixed;top:50%; left:50%; transform: translate(-50%, -50%); border:5px solid black"">",null,NA,NA,NA,NA,NA,NA,NA,NA,NA,NA,NA,NA,NA,NA
8165,NA,stimuli-presentation,20,140174,0.0-15.0-1.2,SS1646459697109,NA,NA,trial,NA,40,NA,500,8665,images/stimuli/complex_20_A_a.gif,images/stimuli/complex_10_A_a.gif,self-paced,10000,0,complex,10000,images/stimuli/complex_10_A_a.gif,NA,NA,NA
null,NA,html-keyboard-response,21,141309,0.0-15.0-0.3,SS1646459697109,NA,NA,NA,"<p><img src= images/blank.png width =""600"" height = ""600"" style=""position:fixed;top:50%; left:50%; transform: translate(-50%, -50%); border:5px solid black"">",null,NA,NA,NA,NA,NA,NA,NA,NA,NA,NA,NA,NA,NA,NA
7032.79999999702,NA,stimuli-presentation,22,148846,0.0-15.0-1.3,SS1646459697109,NA,NA,trial,NA,40,NA,500,7532.79999999702,images/stimuli/complex_20_A_a.gif,images/stimuli/complex_10_A_a.gif,self-paced,10000,0,complex,10000,images/stimuli/complex_10_A_a.gif,NA,NA,NA
null,NA,html-keyboard-response,23,149732,0.0-15.0-0.4,SS1646459697109,NA,NA,NA,"<p><img src= images/blank.png width =""600"" height = ""600"" style=""position:fixed;top:50%; left:50%; transform: translate(-50%, -50%); border:5px solid black"">",null,NA,NA,NA,NA,NA,NA,NA,NA,NA,NA,NA,NA,NA,NA
8410.199999999255,NA,stimuli-presentation,24,158646,0.0-15.0-1.4,SS1646459697109,NA,NA,trial,NA,40,NA,500,8910.199999999255,images/stimuli/complex_20_A_a.gif,images/stimuli/complex_10_A_a.gif,self-paced,10000,0,complex,10000,images/stimuli/complex_20_A_a.gif,NA,NA,NA
3038,"{""Q0"":""No""}",survey-multi-choice,25,161686,0.0-16.0,SS1646459697109,NA,NA,memory_test,NA,NA,NA,NA,NA,NA,NA,NA,NA,NA,NA,NA,NA,[0],images/stimuli/complex_13_A_a.gif,0
null,NA,html-keyboard-response,26,162694,0.0-17.0,SS1646459697109,NA,NA,NA,Watch carefully!,null,NA,NA,NA,NA,NA,NA,NA,NA,NA,NA,NA,NA,NA,NA
null,NA,stimuli-presentation,27,163203,0.0-18.0,SS1646459697109,NA,NA,NA,NA,null,NA,500,500,null,null,forced,500,NA,NA,NA,NA,NA,NA,NA
null,NA,html-keyboard-response,28,164217,0.0-19.0,SS1646459697109,NA,NA,NA,Now you can keep studying the creature.,null,NA,NA,NA,NA,NA,NA,NA,NA,NA,NA,NA,NA,NA,NA
null,NA,html-keyboard-response,29,165167,0.0-20.0-0.0,SS1646459697109,NA,NA,NA,"<p><img src= images/blank.png width =""600"" height = ""600"" style=""position:fixed;top:50%; left:50%; transform: translate(-50%, -50%); border:5px solid black"">",null,NA,NA,NA,NA,NA,NA,NA,NA,NA,NA,NA,NA,NA,NA
3467.199999999255,NA,stimuli-presentation,30,166670,0.0-20.0-1.0,SS1646459697109,NA,NA,trial,NA,40,NA,500,3967.199999999255,null,null,forced,500,1,simple,500,images/stimuli/simple_07_A_a.gif,NA,NA,NA
null,NA,html-keyboard-response,31,167887,0.0-20.0-0.1,SS1646459697109,NA,NA,NA,"<p><img src= images/blank.png width =""600"" height = ""600"" style=""position:fixed;top:50%; left:50%; transform: translate(-50%, -50%); border:5px solid black"">",null,NA,NA,NA,NA,NA,NA,NA,NA,NA,NA,NA,NA,NA,NA
1183.1000000014901,NA,stimuli-presentation,32,169574,0.0-20.0-1.1,SS1646459697109,NA,NA,trial,NA,40,NA,500,1683.1000000014901,images/stimuli/simple_13_A_a.gif,images/stimuli/simple_07_A_a.gif,self-paced,500,1,simple,500,images/stimuli/simple_07_A_a.gif,NA,NA,NA
null,NA,html-keyboard-response,33,170813,0.0-20.0-0.2,SS1646459697109,NA,NA,NA,"<p><img src= images/blank.png width =""600"" height = ""600"" style=""position:fixed;top:50%; left:50%; transform: translate(-50%, -50%); border:5px solid black"">",null,NA,NA,NA,NA,NA,NA,NA,NA,NA,NA,NA,NA,NA,NA
2258.89999999851,NA,stimuli-presentation,34,173574,0.0-20.0-1.2,SS1646459697109,NA,NA,trial,NA,40,NA,500,2758.89999999851,images/stimuli/simple_13_A_a.gif,images/stimuli/simple_07_A_a.gif,self-paced,500,1,simple,500,images/stimuli/simple_07_A_a.gif,NA,NA,NA
null,NA,html-keyboard-response,35,174717,0.0-20.0-0.3,SS1646459697109,NA,NA,NA,"<p><img src= images/blank.png width =""600"" height = ""600"" style=""position:fixed;top:50%; left:50%; transform: translate(-50%, -50%); border:5px solid black"">",null,NA,NA,NA,NA,NA,NA,NA,NA,NA,NA,NA,NA,NA,NA
769.9000000022352,NA,stimuli-presentation,36,175990,0.0-20.0-1.3,SS1646459697109,NA,NA,trial,NA,40,NA,500,1269.9000000022352,images/stimuli/simple_13_A_a.gif,images/stimuli/simple_07_A_a.gif,self-paced,500,1,simple,500,images/stimuli/simple_07_A_a.gif,NA,NA,NA
null,NA,html-keyboard-response,37,177014,0.0-20.0-0.4,SS1646459697109,NA,NA,NA,"<p><img src= images/blank.png width =""600"" height = ""600"" style=""position:fixed;top:50%; left:50%; transform: translate(-50%, -50%); border:5px solid black"">",null,NA,NA,NA,NA,NA,NA,NA,NA,NA,NA,NA,NA,NA,NA
904.1000000014901,NA,stimuli-presentation,38,178422,0.0-20.0-1.4,SS1646459697109,NA,NA,trial,NA,40,NA,500,1404.1000000014901,images/stimuli/simple_13_A_a.gif,images/stimuli/simple_07_A_a.gif,self-paced,500,1,simple,500,images/stimuli/simple_07_A_a.gif,NA,NA,NA
2038.5,"{""Q0"":""Yes""}",survey-multi-choice,39,180462,0.0-21.0,SS1646459697109,NA,NA,memory_test,NA,NA,NA,NA,NA,NA,NA,NA,NA,NA,NA,NA,NA,[0],images/stimuli/simple_07_A_a.gif,1
null,NA,html-keyboard-response,40,181469,0.0-22.0,SS1646459697109,NA,NA,NA,Watch carefully!,null,NA,NA,NA,NA,NA,NA,NA,NA,NA,NA,NA,NA,NA,NA
null,NA,stimuli-presentation,41,181972,0.0-23.0,SS1646459697109,NA,NA,NA,NA,null,NA,500,500,null,null,forced,500,NA,NA,NA,NA,NA,NA,NA
null,NA,html-keyboard-response,42,182974,0.0-24.0,SS1646459697109,NA,NA,NA,Now you can keep studying the creature.,null,NA,NA,NA,NA,NA,NA,NA,NA,NA,NA,NA,NA,NA,NA
null,NA,html-keyboard-response,43,184131,0.0-25.0-0.0,SS1646459697109,NA,NA,NA,"<p><img src= images/blank.png width =""600"" height = ""600"" style=""position:fixed;top:50%; left:50%; transform: translate(-50%, -50%); border:5px solid black"">",null,NA,NA,NA,NA,NA,NA,NA,NA,NA,NA,NA,NA,NA,NA
4754.599999997765,NA,stimuli-presentation,44,186726,0.0-25.0-1.0,SS1646459697109,NA,NA,trial,NA,40,NA,500,5254.599999997765,null,null,forced,500,2,simple,500,images/stimuli/simple_20_A_a.gif,NA,NA,NA
null,NA,html-keyboard-response,45,187627,0.0-25.0-0.1,SS1646459697109,NA,NA,NA,"<p><img src= images/blank.png width =""600"" height = ""600"" style=""position:fixed;top:50%; left:50%; transform: translate(-50%, -50%); border:5px solid black"">",null,NA,NA,NA,NA,NA,NA,NA,NA,NA,NA,NA,NA,NA,NA
1812.5,NA,stimuli-presentation,46,189942,0.0-25.0-1.1,SS1646459697109,NA,NA,trial,NA,40,NA,500,2312.5,images/stimuli/simple_20_A_a.gif,images/stimuli/simple_15_A_a.gif,self-paced,500,2,simple,500,images/stimuli/simple_15_A_a.gif,NA,NA,NA
null,NA,html-keyboard-response,47,191031,0.0-25.0-0.2,SS1646459697109,NA,NA,NA,"<p><img src= images/blank.png width =""600"" height = ""600"" style=""position:fixed;top:50%; left:50%; transform: translate(-50%, -50%); border:5px solid black"">",null,NA,NA,NA,NA,NA,NA,NA,NA,NA,NA,NA,NA,NA,NA
1472,NA,stimuli-presentation,48,193005,0.0-25.0-1.2,SS1646459697109,NA,NA,trial,NA,40,NA,500,1972,images/stimuli/simple_20_A_a.gif,images/stimuli/simple_15_A_a.gif,self-paced,500,2,simple,500,images/stimuli/simple_15_A_a.gif,NA,NA,NA
null,NA,html-keyboard-response,49,193854,0.0-25.0-0.3,SS1646459697109,NA,NA,NA,"<p><img src= images/blank.png width =""600"" height = ""600"" style=""position:fixed;top:50%; left:50%; transform: translate(-50%, -50%); border:5px solid black"">",null,NA,NA,NA,NA,NA,NA,NA,NA,NA,NA,NA,NA,NA,NA
2304.7000000029802,NA,stimuli-presentation,50,196662,0.0-25.0-1.3,SS1646459697109,NA,NA,trial,NA,40,NA,500,2804.7000000029802,images/stimuli/simple_20_A_a.gif,images/stimuli/simple_15_A_a.gif,self-paced,500,2,simple,500,images/stimuli/simple_15_A_a.gif,NA,NA,NA
null,NA,html-keyboard-response,51,197797,0.0-25.0-0.4,SS1646459697109,NA,NA,NA,"<p><img src= images/blank.png width =""600"" height = ""600"" style=""position:fixed;top:50%; left:50%; transform: translate(-50%, -50%); border:5px solid black"">",null,NA,NA,NA,NA,NA,NA,NA,NA,NA,NA,NA,NA,NA,NA
3251,NA,stimuli-presentation,52,201550,0.0-25.0-1.4,SS1646459697109,NA,NA,trial,NA,40,NA,500,3751,images/stimuli/simple_20_A_a.gif,images/stimuli/simple_15_A_a.gif,self-paced,500,2,simple,500,images/stimuli/simple_15_A_a.gif,NA,NA,NA
2734.60000000149,"{""Q0"":""Yes""}",survey-multi-choice,53,204286,0.0-26.0,SS1646459697109,NA,NA,memory_test,NA,NA,NA,NA,NA,NA,NA,NA,NA,NA,NA,NA,NA,[0],images/stimuli/simple_15_A_a.gif,2
null,NA,html-keyboard-response,54,205297,0.0-27.0,SS1646459697109,NA,NA,NA,Watch carefully!,null,NA,NA,NA,NA,NA,NA,NA,NA,NA,NA,NA,NA,NA,NA
null,NA,stimuli-presentation,55,215299,0.0-28.0,SS1646459697109,NA,NA,NA,NA,null,NA,500,500,null,null,forced,10000,NA,NA,NA,NA,NA,NA,NA
null,NA,html-keyboard-response,56,216302,0.0-29.0,SS1646459697109,NA,NA,NA,Now you can keep studying the creature.,null,NA,NA,NA,NA,NA,NA,NA,NA,NA,NA,NA,NA,NA,NA
null,NA,html-keyboard-response,57,217172,0.0-30.0-0.0,SS1646459697109,NA,NA,NA,"<p><img src= images/blank.png width =""600"" height = ""600"" style=""position:fixed;top:50%; left:50%; transform: translate(-50%, -50%); border:5px solid black"">",null,NA,NA,NA,NA,NA,NA,NA,NA,NA,NA,NA,NA,NA,NA
2186.900000002235,NA,stimuli-presentation,58,217485,0.0-30.0-1.0,SS1646459697109,NA,NA,trial,NA,40,NA,500,2686.900000002235,null,null,forced,10000,3,simple,10000,images/stimuli/simple_04_A_a.gif,NA,NA,NA
null,NA,html-keyboard-response,59,218354,0.0-30.0-0.1,SS1646459697109,NA,NA,NA,"<p><img src= images/blank.png width =""600"" height = ""600"" style=""position:fixed;top:50%; left:50%; transform: translate(-50%, -50%); border:5px solid black"">",null,NA,NA,NA,NA,NA,NA,NA,NA,NA,NA,NA,NA,NA,NA
1807.1000000014901,NA,stimuli-presentation,60,220670,0.0-30.0-1.1,SS1646459697109,NA,NA,trial,NA,40,NA,500,2307.10000000149,images/stimuli/simple_17_A_a.gif,images/stimuli/simple_04_A_a.gif,self-paced,10000,3,simple,10000,images/stimuli/simple_04_A_a.gif,NA,NA,NA
null,NA,html-keyboard-response,61,221629,0.0-30.0-0.2,SS1646459697109,NA,NA,NA,"<p><img src= images/blank.png width =""600"" height = ""600"" style=""position:fixed;top:50%; left:50%; transform: translate(-50%, -50%); border:5px solid black"">",null,NA,NA,NA,NA,NA,NA,NA,NA,NA,NA,NA,NA,NA,NA
2934.800000000745,NA,stimuli-presentation,62,225070,0.0-30.0-1.2,SS1646459697109,NA,NA,trial,NA,40,NA,500,3434.800000000745,images/stimuli/simple_17_A_a.gif,images/stimuli/simple_04_A_a.gif,self-paced,10000,3,simple,10000,images/stimuli/simple_04_A_a.gif,NA,NA,NA
null,NA,html-keyboard-response,63,225968,0.0-30.0-0.3,SS1646459697109,NA,NA,NA,"<p><img src= images/blank.png width =""600"" height = ""600"" style=""position:fixed;top:50%; left:50%; transform: translate(-50%, -50%); border:5px solid black"">",null,NA,NA,NA,NA,NA,NA,NA,NA,NA,NA,NA,NA,NA,NA
150.30000000074506,NA,stimuli-presentation,64,226622,0.0-30.0-1.3,SS1646459697109,NA,NA,trial,NA,40,NA,500,650.3000000007451,images/stimuli/simple_17_A_a.gif,images/stimuli/simple_04_A_a.gif,self-paced,10000,3,simple,10000,images/stimuli/simple_04_A_a.gif,NA,NA,NA
null,NA,html-keyboard-response,65,227615,0.0-30.0-0.4,SS1646459697109,NA,NA,NA,"<p><img src= images/blank.png width =""600"" height = ""600"" style=""position:fixed;top:50%; left:50%; transform: translate(-50%, -50%); border:5px solid black"">",null,NA,NA,NA,NA,NA,NA,NA,NA,NA,NA,NA,NA,NA,NA
419.4000000022352,NA,stimuli-presentation,66,228542,0.0-30.0-1.4,SS1646459697109,NA,NA,trial,NA,40,NA,500,919.4000000022352,images/stimuli/simple_17_A_a.gif,images/stimuli/simple_04_A_a.gif,self-paced,10000,3,simple,10000,images/stimuli/simple_04_A_a.gif,NA,NA,NA
2398.300000000745,"{""Q0"":""Yes""}",survey-multi-choice,67,230942,0.0-31.0,SS1646459697109,NA,NA,memory_test,NA,NA,NA,NA,NA,NA,NA,NA,NA,NA,NA,NA,NA,[0],images/stimuli/simple_04_A_a.gif,3
null,NA,html-keyboard-response,68,231946,0.0-32.0,SS1646459697109,NA,NA,NA,Watch carefully!,null,NA,NA,NA,NA,NA,NA,NA,NA,NA,NA,NA,NA,NA,NA
null,NA,stimuli-presentation,69,241948,0.0-33.0,SS1646459697109,NA,NA,NA,NA,null,NA,500,500,null,null,forced,10000,NA,NA,NA,NA,NA,NA,NA
null,NA,html-keyboard-response,70,242955,0.0-34.0,SS1646459697109,NA,NA,NA,Now you can keep studying the creature.,null,NA,NA,NA,NA,NA,NA,NA,NA,NA,NA,NA,NA,NA,NA
null,NA,html-keyboard-response,71,243840,0.0-35.0-0.0,SS1646459697109,NA,NA,NA,"<p><img src= images/blank.png width =""600"" height = ""600"" style=""position:fixed;top:50%; left:50%; transform: translate(-50%, -50%); border:5px solid black"">",null,NA,NA,NA,NA,NA,NA,NA,NA,NA,NA,NA,NA,NA,NA
3769.300000000745,NA,stimuli-presentation,72,245718,0.0-35.0-1.0,SS1646459697109,NA,NA,trial,NA,40,NA,500,4269.300000000745,null,null,forced,10000,4,simple,10000,images/stimuli/simple_16_A_a.gif,NA,NA,NA
null,NA,html-keyboard-response,73,246704,0.0-35.0-0.1,SS1646459697109,NA,NA,NA,"<p><img src= images/blank.png width =""600"" height = ""600"" style=""position:fixed;top:50%; left:50%; transform: translate(-50%, -50%); border:5px solid black"">",null,NA,NA,NA,NA,NA,NA,NA,NA,NA,NA,NA,NA,NA,NA
1479,NA,stimuli-presentation,74,248686,0.0-35.0-1.1,SS1646459697109,NA,NA,trial,NA,40,NA,500,1979,images/stimuli/simple_05_A_a.gif,images/stimuli/simple_16_A_a.gif,self-paced,10000,4,simple,10000,images/stimuli/simple_16_A_a.gif,NA,NA,NA
null,NA,html-keyboard-response,75,249780,0.0-35.0-0.2,SS1646459697109,NA,NA,NA,"<p><img src= images/blank.png width =""600"" height = ""600"" style=""position:fixed;top:50%; left:50%; transform: translate(-50%, -50%); border:5px solid black"">",null,NA,NA,NA,NA,NA,NA,NA,NA,NA,NA,NA,NA,NA,NA
970.8000000007451,NA,stimuli-presentation,76,251254,0.0-35.0-1.2,SS1646459697109,NA,NA,trial,NA,40,NA,500,1470.800000000745,images/stimuli/simple_05_A_a.gif,images/stimuli/simple_16_A_a.gif,self-paced,10000,4,simple,10000,images/stimuli/simple_05_A_a.gif,NA,NA,NA
null,NA,html-keyboard-response,77,252271,0.0-35.0-0.3,SS1646459697109,NA,NA,NA,"<p><img src= images/blank.png width =""600"" height = ""600"" style=""position:fixed;top:50%; left:50%; transform: translate(-50%, -50%); border:5px solid black"">",null,NA,NA,NA,NA,NA,NA,NA,NA,NA,NA,NA,NA,NA,NA
401,NA,stimuli-presentation,78,253174,0.0-35.0-1.3,SS1646459697109,NA,NA,trial,NA,40,NA,500,901,images/stimuli/simple_05_A_a.gif,images/stimuli/simple_16_A_a.gif,self-paced,10000,4,simple,10000,images/stimuli/simple_16_A_a.gif,NA,NA,NA
null,NA,html-keyboard-response,79,254092,0.0-35.0-0.4,SS1646459697109,NA,NA,NA,"<p><img src= images/blank.png width =""600"" height = ""600"" style=""position:fixed;top:50%; left:50%; transform: translate(-50%, -50%); border:5px solid black"">",null,NA,NA,NA,NA,NA,NA,NA,NA,NA,NA,NA,NA,NA,NA
323,NA,stimuli-presentation,80,254918,0.0-35.0-1.4,SS1646459697109,NA,NA,trial,NA,40,NA,500,823,images/stimuli/simple_05_A_a.gif,images/stimuli/simple_16_A_a.gif,self-paced,10000,4,simple,10000,images/stimuli/simple_16_A_a.gif,NA,NA,NA
1790.699999999255,"{""Q0"":""Yes""}",survey-multi-choice,81,256710,0.0-36.0,SS1646459697109,NA,NA,memory_test,NA,NA,NA,NA,NA,NA,NA,NA,NA,NA,NA,NA,NA,[0],images/stimuli/simple_16_A_a.gif,4
null,NA,html-keyboard-response,82,257724,0.0-37.0,SS1646459697109,NA,NA,NA,Watch carefully!,null,NA,NA,NA,NA,NA,NA,NA,NA,NA,NA,NA,NA,NA,NA
null,NA,stimuli-presentation,83,267737,0.0-38.0,SS1646459697109,NA,NA,NA,NA,null,NA,500,500,null,null,forced,10000,NA,NA,NA,NA,NA,NA,NA
null,NA,html-keyboard-response,84,268753,0.0-39.0,SS1646459697109,NA,NA,NA,Now you can keep studying the creature.,null,NA,NA,NA,NA,NA,NA,NA,NA,NA,NA,NA,NA,NA,NA
null,NA,html-keyboard-response,85,269988,0.0-40.0-0.0,SS1646459697109,NA,NA,NA,"<p><img src= images/blank.png width =""600"" height = ""600"" style=""position:fixed;top:50%; left:50%; transform: translate(-50%, -50%); border:5px solid black"">",null,NA,NA,NA,NA,NA,NA,NA,NA,NA,NA,NA,NA,NA,NA
3301.10000000149,NA,stimuli-presentation,86,271038,0.0-40.0-1.0,SS1646459697109,NA,NA,trial,NA,40,NA,500,3801.10000000149,null,null,forced,10000,5,simple,10000,images/stimuli/simple_11_A_a.gif,NA,NA,NA
null,NA,html-keyboard-response,87,272212,0.0-40.0-0.1,SS1646459697109,NA,NA,NA,"<p><img src= images/blank.png width =""600"" height = ""600"" style=""position:fixed;top:50%; left:50%; transform: translate(-50%, -50%); border:5px solid black"">",null,NA,NA,NA,NA,NA,NA,NA,NA,NA,NA,NA,NA,NA,NA
1194.199999999255,NA,stimuli-presentation,88,273910,0.0-40.0-1.1,SS1646459697109,NA,NA,trial,NA,40,NA,500,1694.199999999255,images/stimuli/simple_11_A_a.gif,images/stimuli/simple_08_A_a.gif,self-paced,10000,5,simple,10000,images/stimuli/simple_08_A_a.gif,NA,NA,NA
null,NA,html-keyboard-response,89,274807,0.0-40.0-0.2,SS1646459697109,NA,NA,NA,"<p><img src= images/blank.png width =""600"" height = ""600"" style=""position:fixed;top:50%; left:50%; transform: translate(-50%, -50%); border:5px solid black"">",null,NA,NA,NA,NA,NA,NA,NA,NA,NA,NA,NA,NA,NA,NA
968.1000000014901,NA,stimuli-presentation,90,276278,0.0-40.0-1.2,SS1646459697109,NA,NA,trial,NA,40,NA,500,1468.1000000014901,images/stimuli/simple_11_A_a.gif,images/stimuli/simple_08_A_a.gif,self-paced,10000,5,simple,10000,images/stimuli/simple_08_A_a.gif,NA,NA,NA
null,NA,html-keyboard-response,91,277481,0.0-40.0-0.3,SS1646459697109,NA,NA,NA,"<p><img src= images/blank.png width =""600"" height = ""600"" style=""position:fixed;top:50%; left:50%; transform: translate(-50%, -50%); border:5px solid black"">",null,NA,NA,NA,NA,NA,NA,NA,NA,NA,NA,NA,NA,NA,NA
997.8999999985099,NA,stimuli-presentation,92,278982,0.0-40.0-1.3,SS1646459697109,NA,NA,trial,NA,40,NA,500,1497.8999999985099,images/stimuli/simple_11_A_a.gif,images/stimuli/simple_08_A_a.gif,self-paced,10000,5,simple,10000,images/stimuli/simple_08_A_a.gif,NA,NA,NA
null,NA,html-keyboard-response,93,279956,0.0-40.0-0.4,SS1646459697109,NA,NA,NA,"<p><img src= images/blank.png width =""600"" height = ""600"" style=""position:fixed;top:50%; left:50%; transform: translate(-50%, -50%); border:5px solid black"">",null,NA,NA,NA,NA,NA,NA,NA,NA,NA,NA,NA,NA,NA,NA
443.1000000014901,NA,stimuli-presentation,94,280902,0.0-40.0-1.4,SS1646459697109,NA,NA,trial,NA,40,NA,500,943.1000000014901,images/stimuli/simple_11_A_a.gif,images/stimuli/simple_08_A_a.gif,self-paced,10000,5,simple,10000,images/stimuli/simple_08_A_a.gif,NA,NA,NA
2294.800000000745,"{""Q0"":""Yes""}",survey-multi-choice,95,283198,0.0-41.0,SS1646459697109,NA,NA,memory_test,NA,NA,NA,NA,NA,NA,NA,NA,NA,NA,NA,NA,NA,[0],images/stimuli/simple_08_A_a.gif,5
null,NA,html-keyboard-response,96,284210,0.0-42.0,SS1646459697109,NA,NA,NA,Watch carefully!,null,NA,NA,NA,NA,NA,NA,NA,NA,NA,NA,NA,NA,NA,NA
null,NA,stimuli-presentation,97,284713,0.0-43.0,SS1646459697109,NA,NA,NA,NA,null,NA,500,500,null,null,forced,500,NA,NA,NA,NA,NA,NA,NA
null,NA,html-keyboard-response,98,285717,0.0-44.0,SS1646459697109,NA,NA,NA,Now you can keep studying the creature.,null,NA,NA,NA,NA,NA,NA,NA,NA,NA,NA,NA,NA,NA,NA
null,NA,html-keyboard-response,99,286845,0.0-45.0-0.0,SS1646459697109,NA,NA,NA,"<p><img src= images/blank.png width =""600"" height = ""600"" style=""position:fixed;top:50%; left:50%; transform: translate(-50%, -50%); border:5px solid black"">",null,NA,NA,NA,NA,NA,NA,NA,NA,NA,NA,NA,NA,NA,NA
4493.29999999702,NA,stimuli-presentation,100,289206,0.0-45.0-1.0,SS1646459697109,NA,NA,trial,NA,40,NA,500,4993.29999999702,null,null,forced,500,6,complex,500,images/stimuli/complex_11_A_a.gif,NA,NA,NA
null,NA,html-keyboard-response,101,290390,0.0-45.0-0.1,SS1646459697109,NA,NA,NA,"<p><img src= images/blank.png width =""600"" height = ""600"" style=""position:fixed;top:50%; left:50%; transform: translate(-50%, -50%); border:5px solid black"">",null,NA,NA,NA,NA,NA,NA,NA,NA,NA,NA,NA,NA,NA,NA
2664.300000000745,NA,stimuli-presentation,102,293558,0.0-45.0-1.1,SS1646459697109,NA,NA,trial,NA,40,NA,500,3164.300000000745,images/stimuli/complex_01_A_a.gif,images/stimuli/complex_11_A_a.gif,self-paced,500,6,complex,500,images/stimuli/complex_11_A_a.gif,NA,NA,NA
null,NA,html-keyboard-response,103,294444,0.0-45.0-0.2,SS1646459697109,NA,NA,NA,"<p><img src= images/blank.png width =""600"" height = ""600"" style=""position:fixed;top:50%; left:50%; transform: translate(-50%, -50%); border:5px solid black"">",null,NA,NA,NA,NA,NA,NA,NA,NA,NA,NA,NA,NA,NA,NA
825.9000000022352,NA,stimuli-presentation,104,295774,0.0-45.0-1.2,SS1646459697109,NA,NA,trial,NA,40,NA,500,1325.9000000022352,images/stimuli/complex_01_A_a.gif,images/stimuli/complex_11_A_a.gif,self-paced,500,6,complex,500,images/stimuli/complex_11_A_a.gif,NA,NA,NA
null,NA,html-keyboard-response,105,296742,0.0-45.0-0.3,SS1646459697109,NA,NA,NA,"<p><img src= images/blank.png width =""600"" height = ""600"" style=""position:fixed;top:50%; left:50%; transform: translate(-50%, -50%); border:5px solid black"">",null,NA,NA,NA,NA,NA,NA,NA,NA,NA,NA,NA,NA,NA,NA
9581.5,NA,stimuli-presentation,106,306830,0.0-45.0-1.3,SS1646459697109,NA,NA,trial,NA,40,NA,500,10081.5,images/stimuli/complex_01_A_a.gif,images/stimuli/complex_11_A_a.gif,self-paced,500,6,complex,500,images/stimuli/complex_11_A_a.gif,NA,NA,NA
null,NA,html-keyboard-response,107,307869,0.0-45.0-0.4,SS1646459697109,NA,NA,NA,"<p><img src= images/blank.png width =""600"" height = ""600"" style=""position:fixed;top:50%; left:50%; transform: translate(-50%, -50%); border:5px solid black"">",null,NA,NA,NA,NA,NA,NA,NA,NA,NA,NA,NA,NA,NA,NA
3040.10000000149,NA,stimuli-presentation,108,311414,0.0-45.0-1.4,SS1646459697109,NA,NA,trial,NA,40,NA,500,3540.10000000149,images/stimuli/complex_01_A_a.gif,images/stimuli/complex_11_A_a.gif,self-paced,500,6,complex,500,images/stimuli/complex_01_A_a.gif,NA,NA,NA
2277.2999999970198,"{""Q0"":""Yes""}",survey-multi-choice,109,313694,0.0-46.0,SS1646459697109,NA,NA,memory_test,NA,NA,NA,NA,NA,NA,NA,NA,NA,NA,NA,NA,NA,[0],images/stimuli/complex_11_A_a.gif,6
null,NA,html-keyboard-response,110,314697,0.0-47.0,SS1646459697109,NA,NA,NA,Watch carefully!,null,NA,NA,NA,NA,NA,NA,NA,NA,NA,NA,NA,NA,NA,NA
null,NA,stimuli-presentation,111,315201,0.0-48.0,SS1646459697109,NA,NA,NA,NA,null,NA,500,500,null,null,forced,500,NA,NA,NA,NA,NA,NA,NA
null,NA,html-keyboard-response,112,316204,0.0-49.0,SS1646459697109,NA,NA,NA,Now you can keep studying the creature.,null,NA,NA,NA,NA,NA,NA,NA,NA,NA,NA,NA,NA,NA,NA
null,NA,html-keyboard-response,113,317348,0.0-50.0-0.0,SS1646459697109,NA,NA,NA,"<p><img src= images/blank.png width =""600"" height = ""600"" style=""position:fixed;top:50%; left:50%; transform: translate(-50%, -50%); border:5px solid black"">",null,NA,NA,NA,NA,NA,NA,NA,NA,NA,NA,NA,NA,NA,NA
3764.10000000149,NA,stimuli-presentation,114,318966,0.0-50.0-1.0,SS1646459697109,NA,NA,trial,NA,40,NA,500,4264.10000000149,null,null,forced,500,7,simple,500,images/stimuli/simple_12_A_a.gif,NA,NA,NA
null,NA,html-keyboard-response,115,320021,0.0-50.0-0.1,SS1646459697109,NA,NA,NA,"<p><img src= images/blank.png width =""600"" height = ""600"" style=""position:fixed;top:50%; left:50%; transform: translate(-50%, -50%); border:5px solid black"">",null,NA,NA,NA,NA,NA,NA,NA,NA,NA,NA,NA,NA,NA,NA
2001.199999999255,NA,stimuli-presentation,116,322526,0.0-50.0-1.1,SS1646459697109,NA,NA,trial,NA,40,NA,500,2501.199999999255,images/stimuli/simple_14_A_a.gif,images/stimuli/simple_12_A_a.gif,self-paced,500,7,simple,500,images/stimuli/simple_12_A_a.gif,NA,NA,NA
null,NA,html-keyboard-response,117,323414,0.0-50.0-0.2,SS1646459697109,NA,NA,NA,"<p><img src= images/blank.png width =""600"" height = ""600"" style=""position:fixed;top:50%; left:50%; transform: translate(-50%, -50%); border:5px solid black"">",null,NA,NA,NA,NA,NA,NA,NA,NA,NA,NA,NA,NA,NA,NA
1189.6000000014901,NA,stimuli-presentation,118,325110,0.0-50.0-1.2,SS1646459697109,NA,NA,trial,NA,40,NA,500,1689.6000000014901,images/stimuli/simple_14_A_a.gif,images/stimuli/simple_12_A_a.gif,self-paced,500,7,simple,500,images/stimuli/simple_14_A_a.gif,NA,NA,NA
null,NA,html-keyboard-response,119,326200,0.0-50.0-0.3,SS1646459697109,NA,NA,NA,"<p><img src= images/blank.png width =""600"" height = ""600"" style=""position:fixed;top:50%; left:50%; transform: translate(-50%, -50%); border:5px solid black"">",null,NA,NA,NA,NA,NA,NA,NA,NA,NA,NA,NA,NA,NA,NA
198,NA,stimuli-presentation,120,326902,0.0-50.0-1.3,SS1646459697109,NA,NA,trial,NA,40,NA,500,698,images/stimuli/simple_14_A_a.gif,images/stimuli/simple_12_A_a.gif,self-paced,500,7,simple,500,images/stimuli/simple_12_A_a.gif,NA,NA,NA
null,NA,html-keyboard-response,121,327944,0.0-50.0-0.4,SS1646459697109,NA,NA,NA,"<p><img src= images/blank.png width =""600"" height = ""600"" style=""position:fixed;top:50%; left:50%; transform: translate(-50%, -50%); border:5px solid black"">",null,NA,NA,NA,NA,NA,NA,NA,NA,NA,NA,NA,NA,NA,NA
402.8999999985099,NA,stimuli-presentation,122,328854,0.0-50.0-1.4,SS1646459697109,NA,NA,trial,NA,40,NA,500,902.8999999985099,images/stimuli/simple_14_A_a.gif,images/stimuli/simple_12_A_a.gif,self-paced,500,7,simple,500,images/stimuli/simple_12_A_a.gif,NA,NA,NA
2414,"{""Q0"":""No""}",survey-multi-choice,123,331270,0.0-51.0,SS1646459697109,NA,NA,memory_test,NA,NA,NA,NA,NA,NA,NA,NA,NA,NA,NA,NA,NA,[0],images/stimuli/simple_06_A_a.gif,7
NA,NA,fullscreen,124,332281,0.0-52.0,SS1646459697109,TRUE,NA,NA,NA,NA,NA,NA,NA,NA,NA,NA,NA,NA,NA,NA,NA,NA,NA,NA
1651.6000000014901,NA,instructions,125,333934,0.0-53.0,SS1646459697109,NA,"[{""page_index"":0,""viewing_time"":1651.300000000745}]",instructions,NA,NA,NA,NA,NA,NA,NA,NA,NA,NA,NA,NA,NA,NA,NA,NA
3308.699999999255,"{""age"":""22""}",demog-age,126,337246,0.0-54.0,SS1646459697109,NA,NA,NA,NA,NA,NA,NA,NA,NA,NA,NA,NA,NA,NA,NA,NA,NA,NA,NA
10859.099999997765,"{""ethnicity"":[""Hispanic or Latino""]}",demog-ethnic-US,127,348110,0.0-55.0,SS1646459697109,NA,NA,NA,NA,NA,NA,NA,NA,NA,NA,NA,NA,NA,NA,NA,NA,[0],NA,NA
19028.800000000745,"{""gender"":""Male"",""education"":""High school diploma""}",demog-gender-and-education,128,367142,0.0-56.0,SS1646459697109,NA,NA,NA,NA,NA,NA,NA,NA,NA,NA,NA,NA,NA,NA,NA,NA,"[0,1]",NA,NA
10459.10000000149,"{""Q0"":""there was no problem""}",survey-text,129,377606,0.0-57.0,SS1646459697109,NA,NA,feedback,NA,NA,NA,NA,NA,NA,NA,NA,NA,NA,NA,NA,NA,NA,NA,NA
1270.0999999977648,NA,instructions,130,378878,0.0-58.0,SS1646459697109,NA,"[{""page_index"":0,""viewing_time"":1269.7999999970198}]",instructions,NA,NA,NA,NA,NA,NA,NA,NA,NA,NA,NA,NA,NA,NA,NA,NA
5719.29999999702,"{""p_id"":""60e2595bdc9a5e6ee00f02d8""}",survey-text,0,5738,0.0-0.0,SS1646459697680,NA,NA,NA,NA,NA,NA,NA,NA,NA,NA,NA,NA,NA,NA,NA,NA,NA,NA,NA
NA,NA,fullscreen,1,8785,0.0-1.0,SS1646459697680,TRUE,NA,NA,NA,NA,NA,NA,NA,NA,NA,NA,NA,NA,NA,NA,NA,NA,NA,NA
7074.099999997765,NA,instructions,2,15860,0.0-2.0,SS1646459697680,NA,"[{""page_index"":0,""viewing_time"":7073.29999999702}]",NA,NA,NA,NA,NA,NA,NA,NA,NA,NA,NA,NA,NA,NA,NA,NA,NA
35057.10000000149,NA,instructions,3,52920,0.0-3.0,SS1646459697680,NA,"[{""page_index"":0,""viewing_time"":16081.800000000745},{""page_index"":1,""viewing_time"":4773.89999999851},{""page_index"":2,""viewing_time"":14200.900000002235}]",instructions,NA,NA,NA,NA,NA,NA,NA,NA,NA,NA,NA,NA,NA,NA,NA,NA
null,NA,html-keyboard-response,4,53923,0.0-4.0,SS1646459697680,NA,NA,NA,Watch carefully!,null,NA,NA,NA,NA,NA,NA,NA,NA,NA,NA,NA,NA,NA,NA
null,NA,stimuli-presentation,5,54200,0.0-5.0,SS1646459697680,NA,NA,NA,NA,null,NA,500,500,null,null,forced,270,NA,NA,NA,NA,NA,NA,NA
null,NA,html-keyboard-response,6,55211,0.0-6.0,SS1646459697680,NA,NA,NA,Now you can keep studying the creature.,null,NA,NA,NA,NA,NA,NA,NA,NA,NA,NA,NA,NA,NA,NA
6643.699999999255,NA,stimuli-presentation,7,60844,0.0-7.0,SS1646459697680,NA,NA,NA,NA,40,NA,500,7143.699999999255,null,null,forced,270,NA,NA,NA,NA,NA,NA,NA
4759.60000000149,NA,stimuli-presentation,8,66118,0.0-8.0,SS1646459697680,NA,NA,NA,NA,40,NA,500,5259.60000000149,null,null,self_paced,0,NA,NA,NA,NA,NA,NA,NA
1246.300000000745,NA,stimuli-presentation,9,67870,0.0-9.0,SS1646459697680,NA,NA,NA,NA,40,NA,500,1746.300000000745,null,null,self_paced,0,NA,NA,NA,NA,NA,NA,NA
2634.89999999851,NA,instructions,10,70506,0.0-10.0,SS1646459697680,NA,"[{""page_index"":0,""viewing_time"":2634.5}]",instructions,NA,NA,NA,NA,NA,NA,NA,NA,NA,NA,NA,NA,NA,NA,NA,NA
15988.60000000149,NA,instructions,11,86497,0.0-11.0,SS1646459697680,NA,"[{""page_index"":0,""viewing_time"":11599},{""page_index"":1,""viewing_time"":2550.5},{""page_index"":2,""viewing_time"":957.8999999985099},{""page_index"":3,""viewing_time"":880.8000000007451}]",instructions,NA,NA,NA,NA,NA,NA,NA,NA,NA,NA,NA,NA,NA,NA,NA,NA
null,NA,html-keyboard-response,12,87500,0.0-12.0,SS1646459697680,NA,NA,NA,Watch carefully!,null,NA,NA,NA,NA,NA,NA,NA,NA,NA,NA,NA,NA,NA,NA
null,NA,stimuli-presentation,13,88004,0.0-13.0,SS1646459697680,NA,NA,NA,NA,null,NA,500,500,null,null,forced,500,NA,NA,NA,NA,NA,NA,NA
null,NA,html-keyboard-response,14,89017,0.0-14.0,SS1646459697680,NA,NA,NA,Now you can keep studying the creature.,null,NA,NA,NA,NA,NA,NA,NA,NA,NA,NA,NA,NA,NA,NA
null,NA,html-keyboard-response,15,90275,0.0-15.0-0.0,SS1646459697680,NA,NA,NA,"<p><img src= images/blank.png width =""600"" height = ""600"" style=""position:fixed;top:50%; left:50%; transform: translate(-50%, -50%); border:5px solid black"">",null,NA,NA,NA,NA,NA,NA,NA,NA,NA,NA,NA,NA,NA,NA
5911.5,NA,stimuli-presentation,16,93916,0.0-15.0-1.0,SS1646459697680,NA,NA,trial,NA,40,NA,500,6411.5,null,null,forced,500,0,simple,500,images/stimuli/simple_12_A_a.gif,NA,NA,NA
null,NA,html-keyboard-response,17,95107,0.0-15.0-0.1,SS1646459697680,NA,NA,NA,"<p><img src= images/blank.png width =""600"" height = ""600"" style=""position:fixed;top:50%; left:50%; transform: translate(-50%, -50%); border:5px solid black"">",null,NA,NA,NA,NA,NA,NA,NA,NA,NA,NA,NA,NA,NA,NA
2589.199999999255,NA,stimuli-presentation,18,98202,0.0-15.0-1.1,SS1646459697680,NA,NA,trial,NA,40,NA,500,3089.199999999255,images/stimuli/simple_20_A_a.gif,images/stimuli/simple_12_A_a.gif,self-paced,500,0,simple,500,images/stimuli/simple_12_A_a.gif,NA,NA,NA
null,NA,html-keyboard-response,19,99160,0.0-15.0-0.2,SS1646459697680,NA,NA,NA,"<p><img src= images/blank.png width =""600"" height = ""600"" style=""position:fixed;top:50%; left:50%; transform: translate(-50%, -50%); border:5px solid black"">",null,NA,NA,NA,NA,NA,NA,NA,NA,NA,NA,NA,NA,NA,NA
2702.60000000149,NA,stimuli-presentation,20,102369,0.0-15.0-1.2,SS1646459697680,NA,NA,trial,NA,40,NA,500,3202.60000000149,images/stimuli/simple_20_A_a.gif,images/stimuli/simple_12_A_a.gif,self-paced,500,0,simple,500,images/stimuli/simple_20_A_a.gif,NA,NA,NA
null,NA,html-keyboard-response,21,103238,0.0-15.0-0.3,SS1646459697680,NA,NA,NA,"<p><img src= images/blank.png width =""600"" height = ""600"" style=""position:fixed;top:50%; left:50%; transform: translate(-50%, -50%); border:5px solid black"">",null,NA,NA,NA,NA,NA,NA,NA,NA,NA,NA,NA,NA,NA,NA
1471.8999999985099,NA,stimuli-presentation,22,105217,0.0-15.0-1.3,SS1646459697680,NA,NA,trial,NA,40,NA,500,1971.8999999985099,images/stimuli/simple_20_A_a.gif,images/stimuli/simple_12_A_a.gif,self-paced,500,0,simple,500,images/stimuli/simple_12_A_a.gif,NA,NA,NA
null,NA,html-keyboard-response,23,106049,0.0-15.0-0.4,SS1646459697680,NA,NA,NA,"<p><img src= images/blank.png width =""600"" height = ""600"" style=""position:fixed;top:50%; left:50%; transform: translate(-50%, -50%); border:5px solid black"">",null,NA,NA,NA,NA,NA,NA,NA,NA,NA,NA,NA,NA,NA,NA
708.1999999992549,NA,stimuli-presentation,24,107262,0.0-15.0-1.4,SS1646459697680,NA,NA,trial,NA,40,NA,500,1208.199999999255,images/stimuli/simple_20_A_a.gif,images/stimuli/simple_12_A_a.gif,self-paced,500,0,simple,500,images/stimuli/simple_12_A_a.gif,NA,NA,NA
2868.400000002235,"{""Q0"":""No""}",survey-multi-choice,25,110133,0.0-16.0,SS1646459697680,NA,NA,memory_test,NA,NA,NA,NA,NA,NA,NA,NA,NA,NA,NA,NA,NA,[0],images/stimuli/simple_02_A_a.gif,0
null,NA,html-keyboard-response,26,111137,0.0-17.0,SS1646459697680,NA,NA,NA,Watch carefully!,null,NA,NA,NA,NA,NA,NA,NA,NA,NA,NA,NA,NA,NA,NA
null,NA,stimuli-presentation,27,121143,0.0-18.0,SS1646459697680,NA,NA,NA,NA,null,NA,500,500,null,null,forced,10000,NA,NA,NA,NA,NA,NA,NA
null,NA,html-keyboard-response,28,122159,0.0-19.0,SS1646459697680,NA,NA,NA,Now you can keep studying the creature.,null,NA,NA,NA,NA,NA,NA,NA,NA,NA,NA,NA,NA,NA,NA
null,NA,html-keyboard-response,29,123065,0.0-20.0-0.0,SS1646459697680,NA,NA,NA,"<p><img src= images/blank.png width =""600"" height = ""600"" style=""position:fixed;top:50%; left:50%; transform: translate(-50%, -50%); border:5px solid black"">",null,NA,NA,NA,NA,NA,NA,NA,NA,NA,NA,NA,NA,NA,NA
6451.89999999851,NA,stimuli-presentation,30,127595,0.0-20.0-1.0,SS1646459697680,NA,NA,trial,NA,40,NA,500,6951.89999999851,null,null,forced,10000,1,simple,10000,images/stimuli/simple_04_A_a.gif,NA,NA,NA
null,NA,html-keyboard-response,31,128679,0.0-20.0-0.1,SS1646459697680,NA,NA,NA,"<p><img src= images/blank.png width =""600"" height = ""600"" style=""position:fixed;top:50%; left:50%; transform: translate(-50%, -50%); border:5px solid black"">",null,NA,NA,NA,NA,NA,NA,NA,NA,NA,NA,NA,NA,NA,NA
1153.300000000745,NA,stimuli-presentation,32,130349,0.0-20.0-1.1,SS1646459697680,NA,NA,trial,NA,40,NA,500,1653.300000000745,images/stimuli/simple_04_A_a.gif,images/stimuli/simple_13_A_a.gif,self-paced,10000,1,simple,10000,images/stimuli/simple_13_A_a.gif,NA,NA,NA
null,NA,html-keyboard-response,33,131211,0.0-20.0-0.2,SS1646459697680,NA,NA,NA,"<p><img src= images/blank.png width =""600"" height = ""600"" style=""position:fixed;top:50%; left:50%; transform: translate(-50%, -50%); border:5px solid black"">",null,NA,NA,NA,NA,NA,NA,NA,NA,NA,NA,NA,NA,NA,NA
176.69999999925494,NA,stimuli-presentation,34,131894,0.0-20.0-1.2,SS1646459697680,NA,NA,trial,NA,40,NA,500,676.6999999992549,images/stimuli/simple_04_A_a.gif,images/stimuli/simple_13_A_a.gif,self-paced,10000,1,simple,10000,images/stimuli/simple_13_A_a.gif,NA,NA,NA
null,NA,html-keyboard-response,35,133113,0.0-20.0-0.3,SS1646459697680,NA,NA,NA,"<p><img src= images/blank.png width =""600"" height = ""600"" style=""position:fixed;top:50%; left:50%; transform: translate(-50%, -50%); border:5px solid black"">",null,NA,NA,NA,NA,NA,NA,NA,NA,NA,NA,NA,NA,NA,NA
593.1999999992549,NA,stimuli-presentation,36,134210,0.0-20.0-1.3,SS1646459697680,NA,NA,trial,NA,40,NA,500,1093.199999999255,images/stimuli/simple_04_A_a.gif,images/stimuli/simple_13_A_a.gif,self-paced,10000,1,simple,10000,images/stimuli/simple_13_A_a.gif,NA,NA,NA
null,NA,html-keyboard-response,37,135479,0.0-20.0-0.4,SS1646459697680,NA,NA,NA,"<p><img src= images/blank.png width =""600"" height = ""600"" style=""position:fixed;top:50%; left:50%; transform: translate(-50%, -50%); border:5px solid black"">",null,NA,NA,NA,NA,NA,NA,NA,NA,NA,NA,NA,NA,NA,NA
591.1000000014901,NA,stimuli-presentation,38,136577,0.0-20.0-1.4,SS1646459697680,NA,NA,trial,NA,40,NA,500,1091.1000000014901,images/stimuli/simple_04_A_a.gif,images/stimuli/simple_13_A_a.gif,self-paced,10000,1,simple,10000,images/stimuli/simple_13_A_a.gif,NA,NA,NA
2467.800000000745,"{""Q0"":""Yes""}",survey-multi-choice,39,139048,0.0-21.0,SS1646459697680,NA,NA,memory_test,NA,NA,NA,NA,NA,NA,NA,NA,NA,NA,NA,NA,NA,[0],images/stimuli/simple_13_A_a.gif,1
null,NA,html-keyboard-response,40,140052,0.0-22.0,SS1646459697680,NA,NA,NA,Watch carefully!,null,NA,NA,NA,NA,NA,NA,NA,NA,NA,NA,NA,NA,NA,NA
null,NA,stimuli-presentation,41,140558,0.0-23.0,SS1646459697680,NA,NA,NA,NA,null,NA,500,500,null,null,forced,500,NA,NA,NA,NA,NA,NA,NA
null,NA,html-keyboard-response,42,141562,0.0-24.0,SS1646459697680,NA,NA,NA,Now you can keep studying the creature.,null,NA,NA,NA,NA,NA,NA,NA,NA,NA,NA,NA,NA,NA,NA
null,NA,html-keyboard-response,43,142520,0.0-25.0-0.0,SS1646459697680,NA,NA,NA,"<p><img src= images/blank.png width =""600"" height = ""600"" style=""position:fixed;top:50%; left:50%; transform: translate(-50%, -50%); border:5px solid black"">",null,NA,NA,NA,NA,NA,NA,NA,NA,NA,NA,NA,NA,NA,NA
4336.900000002235,NA,stimuli-presentation,44,144895,0.0-25.0-1.0,SS1646459697680,NA,NA,trial,NA,40,NA,500,4836.900000002235,null,null,forced,500,2,simple,500,images/stimuli/simple_15_A_a.gif,NA,NA,NA
