"view_history","rt","trial_type","trial_index","time_elapsed","internal_node_id","subject","stimulus_type","trial_stimulus","key_press","minimum_viewing_duration","trial_looking_time","block_deviant","block_background","exposure_type","stimulus","block_number","block_type","stimulus_displayed","responses","question_order","math_correct_answer","stimulus_left","stimulus_right"
"[{""page_index"":0,""viewing_time"":6634.994999971241}]","6635.580000001937","instructions","0","6637","0.0-0.0","SS1619205504013","","","","","","","","","","","","","","","","",""
"[{""page_index"":0,""viewing_time"":18056.85000005178},{""page_index"":1,""viewing_time"":8970.024999929592}]","27027.134999865666","instructions","1","35677","0.0-1.0","SS1619205504013","instructions","","","","","","","","","","","","","","","",""
"","6039.209999842569","sequential-stimulus-presentation-old","2","42219","0.0-2.0","SS1619205504013","","","40","500","6539.209999842569","null","null","self_paced","","","","","","","","",""
"","4864.219999872148","sequential-stimulus-presentation-old","3","47591","0.0-3.0","SS1619205504013","","","40","500","5364.219999872148","null","null","self_paced","","","","","","","","",""
"[{""page_index"":0,""viewing_time"":20964.129999978468}]","20964.350000023842","instructions","4","68556","0.0-4.0","SS1619205504013","instructions","","","","","","","","","","","","","","","",""
"","1401.354999979958","sequential-stimulus-presentation-old","5","79960","0.0-5.0","SS1619205504013","","","40","500","1901.354999979958","null","null","forced_long","","","","","","","","",""
"","5291.045000078157","sequential-stimulus-presentation-old","6","85352","0.0-6.0","SS1619205504013","","","40","500","5791.045000078157","null","null","forced_long","","","","","","","","",""
"[{""page_index"":0,""viewing_time"":7111.955000087619}]","7112.205000128597","instructions","7","92465","0.0-7.0","SS1619205504013","instructions","","","","","","","","","","","","","","","",""
"[{""page_index"":0,""viewing_time"":14566.919999895617},{""page_index"":1,""viewing_time"":11659.794999985024},{""page_index"":2,""viewing_time"":6158.98000006564},{""page_index"":3,""viewing_time"":1774.144999915734},{""page_index"":4,""viewing_time"":2304.8350000754}]","36464.8749998305","instructions","8","128930","0.0-8.0","SS1619205504013","instructions","","","","","","","","","","","","","","","",""
"","null","html-keyboard-response","9","130135","0.0-9.0-0.0","SS1619205504013","","","null","","","","","","<p><img src= images/blank.png width =""600"" height = ""600"" style=""position:fixed;top:50%; left:50%; transform: translate(-50%, -50%); border:5px solid black"">","","","","","","","",""
"","2609.425000147894","sequential-stimulus-presentation-old","10","132855","0.0-9.0-1.0","SS1619205504013","trial","","40","500","3109.425000147894","images/stimuli/spore_stims/complex_18_A_b.gif","images/stimuli/spore_stims/complex_07_A_a.gif","forced_short","","0","complex_dissimilar","images/stimuli/spore_stims/complex_07_A_a.gif","","","","",""
"","null","html-keyboard-response","11","134056","0.0-9.0-0.1","SS1619205504013","","","null","","","","","","<p><img src= images/blank.png width =""600"" height = ""600"" style=""position:fixed;top:50%; left:50%; transform: translate(-50%, -50%); border:5px solid black"">","","","","","","","",""
"","41937.785000074655","sequential-stimulus-presentation-old","12","176497","0.0-9.0-1.1","SS1619205504013","trial","","40","500","42437.785000074655","images/stimuli/spore_stims/complex_18_A_b.gif","images/stimuli/spore_stims/complex_07_A_a.gif","forced_short","","0","complex_dissimilar","images/stimuli/spore_stims/complex_07_A_a.gif","","","","",""
"","null","html-keyboard-response","13","177789","0.0-9.0-0.2","SS1619205504013","","","null","","","","","","<p><img src= images/blank.png width =""600"" height = ""600"" style=""position:fixed;top:50%; left:50%; transform: translate(-50%, -50%); border:5px solid black"">","","","","","","","",""
"","41482.31999995187","sequential-stimulus-presentation-old","14","219777","0.0-9.0-1.2","SS1619205504013","trial","","40","500","41982.31999995187","images/stimuli/spore_stims/complex_18_A_b.gif","images/stimuli/spore_stims/complex_07_A_a.gif","forced_short","","0","complex_dissimilar","images/stimuli/spore_stims/complex_07_A_a.gif","","","","",""
"","null","html-keyboard-response","15","220588","0.0-9.0-0.3","SS1619205504013","","","null","","","","","","<p><img src= images/blank.png width =""600"" height = ""600"" style=""position:fixed;top:50%; left:50%; transform: translate(-50%, -50%); border:5px solid black"">","","","","","","","",""
"","25538.500000024214","sequential-stimulus-presentation-old","16","246633","0.0-9.0-1.3","SS1619205504013","trial","","40","500","26038.500000024214","images/stimuli/spore_stims/complex_18_A_b.gif","images/stimuli/spore_stims/complex_07_A_a.gif","forced_short","","0","complex_dissimilar","images/stimuli/spore_stims/complex_07_A_a.gif","","","","",""
"","null","html-keyboard-response","17","247873","0.0-9.0-0.4","SS1619205504013","","","null","","","","","","<p><img src= images/blank.png width =""600"" height = ""600"" style=""position:fixed;top:50%; left:50%; transform: translate(-50%, -50%); border:5px solid black"">","","","","","","","",""
"","55923.48500015214","sequential-stimulus-presentation-old","18","304303","0.0-9.0-1.4","SS1619205504013","trial","","40","500","56423.48500015214","images/stimuli/spore_stims/complex_18_A_b.gif","images/stimuli/spore_stims/complex_07_A_a.gif","forced_short","","0","complex_dissimilar","images/stimuli/spore_stims/complex_07_A_a.gif","","","","",""
"","null","html-keyboard-response","19","305297","0.0-9.0-0.5","SS1619205504013","","","null","","","","","","<p><img src= images/blank.png width =""600"" height = ""600"" style=""position:fixed;top:50%; left:50%; transform: translate(-50%, -50%); border:5px solid black"">","","","","","","","",""
"","19146.750000072643","sequential-stimulus-presentation-old","20","324954","0.0-9.0-1.5","SS1619205504013","trial","","40","500","19646.750000072643","images/stimuli/spore_stims/complex_18_A_b.gif","images/stimuli/spore_stims/complex_07_A_a.gif","forced_short","","0","complex_dissimilar","images/stimuli/spore_stims/complex_07_A_a.gif","","","","",""
"","5622.539999894798","survey-multi-choice","21","330581","0.0-10.0","SS1619205504013","math_question","","","","","","","","","","","","{""Q0"":""9""}","[0]","9","",""
"","null","html-keyboard-response","22","331724","0.0-11.0-0.0","SS1619205504013","","","null","","","","","","<p><img src= images/blank.png width =""600"" height = ""600"" style=""position:fixed;top:50%; left:50%; transform: translate(-50%, -50%); border:5px solid black"">","","","","","","","",""
"","2598.045000107959","sequential-stimulus-presentation-old","23","344328","0.0-11.0-1.0","SS1619205504013","trial","","40","500","3098.045000107959","images/stimuli/spore_stims/simple_12_A_a.gif","images/stimuli/spore_stims/simple_16_A_b.gif","forced_long","","1","simple_dissimilar","images/stimuli/spore_stims/simple_16_A_b.gif","","","","",""
"","null","html-keyboard-response","24","345407","0.0-11.0-0.1","SS1619205504013","","","null","","","","","","<p><img src= images/blank.png width =""600"" height = ""600"" style=""position:fixed;top:50%; left:50%; transform: translate(-50%, -50%); border:5px solid black"">","","","","","","","",""
"","35513.21500004269","sequential-stimulus-presentation-old","25","381426","0.0-11.0-1.1","SS1619205504013","trial","","40","500","36013.21500004269","images/stimuli/spore_stims/simple_12_A_a.gif","images/stimuli/spore_stims/simple_16_A_b.gif","forced_long","","1","simple_dissimilar","images/stimuli/spore_stims/simple_16_A_b.gif","","","","",""
"","null","html-keyboard-response","26","382635","0.0-11.0-0.2","SS1619205504013","","","null","","","","","","<p><img src= images/blank.png width =""600"" height = ""600"" style=""position:fixed;top:50%; left:50%; transform: translate(-50%, -50%); border:5px solid black"">","","","","","","","",""
"","21395.735000027344","sequential-stimulus-presentation-old","27","404535","0.0-11.0-1.2","SS1619205504013","trial","","40","500","21895.735000027344","images/stimuli/spore_stims/simple_12_A_a.gif","images/stimuli/spore_stims/simple_16_A_b.gif","forced_long","","1","simple_dissimilar","images/stimuli/spore_stims/simple_16_A_b.gif","","","","",""
"","null","html-keyboard-response","28","405378","0.0-11.0-0.3","SS1619205504013","","","null","","","","","","<p><img src= images/blank.png width =""600"" height = ""600"" style=""position:fixed;top:50%; left:50%; transform: translate(-50%, -50%); border:5px solid black"">","","","","","","","",""
"","30256.22499990277","sequential-stimulus-presentation-old","29","436137","0.0-11.0-1.3","SS1619205504013","trial","","40","500","30756.22499990277","images/stimuli/spore_stims/simple_12_A_a.gif","images/stimuli/spore_stims/simple_16_A_b.gif","forced_long","","1","simple_dissimilar","images/stimuli/spore_stims/simple_12_A_a.gif","","","","",""
"","null","html-keyboard-response","30","437341","0.0-11.0-0.4","SS1619205504013","","","null","","","","","","<p><img src= images/blank.png width =""600"" height = ""600"" style=""position:fixed;top:50%; left:50%; transform: translate(-50%, -50%); border:5px solid black"">","","","","","","","",""
"","25750.914999982342","sequential-stimulus-presentation-old","31","463601","0.0-11.0-1.4","SS1619205504013","trial","","40","500","26250.914999982342","images/stimuli/spore_stims/simple_12_A_a.gif","images/stimuli/spore_stims/simple_16_A_b.gif","forced_long","","1","simple_dissimilar","images/stimuli/spore_stims/simple_16_A_b.gif","","","","",""
"","2866.799999959767","survey-multi-choice","32","466471","0.0-12.0","SS1619205504013","math_question","","","","","","","","","","","","{""Q0"":""5""}","[0]","5","",""
"","null","html-keyboard-response","33","467566","0.0-13.0-0.0","SS1619205504013","","","null","","","","","","<p><img src= images/blank.png width =""600"" height = ""600"" style=""position:fixed;top:50%; left:50%; transform: translate(-50%, -50%); border:5px solid black"">","","","","","","","",""
"","29118.49999986589","sequential-stimulus-presentation-old","34","497194","0.0-13.0-1.0","SS1619205504013","trial","","40","500","29618.49999986589","images/stimuli/spore_stims/complex_12_A_a.gif","images/stimuli/spore_stims/complex_17_A_b.gif","self_paced","","2","complex_dissimilar","images/stimuli/spore_stims/complex_17_A_b.gif","","","","",""
"","null","html-keyboard-response","35","498391","0.0-13.0-0.1","SS1619205504013","","","null","","","","","","<p><img src= images/blank.png width =""600"" height = ""600"" style=""position:fixed;top:50%; left:50%; transform: translate(-50%, -50%); border:5px solid black"">","","","","","","","",""
"","13317.710000090301","sequential-stimulus-presentation-old","36","512217","0.0-13.0-1.1","SS1619205504013","trial","","40","500","13817.710000090301","images/stimuli/spore_stims/complex_12_A_a.gif","images/stimuli/spore_stims/complex_17_A_b.gif","self_paced","","2","complex_dissimilar","images/stimuli/spore_stims/complex_17_A_b.gif","","","","",""
"","null","html-keyboard-response","37","513107","0.0-13.0-0.2","SS1619205504013","","","null","","","","","","<p><img src= images/blank.png width =""600"" height = ""600"" style=""position:fixed;top:50%; left:50%; transform: translate(-50%, -50%); border:5px solid black"">","","","","","","","",""
"","16700.29000006616","sequential-stimulus-presentation-old","38","530313","0.0-13.0-1.2","SS1619205504013","trial","","40","500","17200.29000006616","images/stimuli/spore_stims/complex_12_A_a.gif","images/stimuli/spore_stims/complex_17_A_b.gif","self_paced","","2","complex_dissimilar","images/stimuli/spore_stims/complex_17_A_b.gif","","","","",""
"","null","html-keyboard-response","39","531218","0.0-13.0-0.3","SS1619205504013","","","null","","","","","","<p><img src= images/blank.png width =""600"" height = ""600"" style=""position:fixed;top:50%; left:50%; transform: translate(-50%, -50%); border:5px solid black"">","","","","","","","",""
"","17570.644999854267","sequential-stimulus-presentation-old","40","549296","0.0-13.0-1.3","SS1619205504013","trial","","40","500","18070.644999854267","images/stimuli/spore_stims/complex_12_A_a.gif","images/stimuli/spore_stims/complex_17_A_b.gif","self_paced","","2","complex_dissimilar","images/stimuli/spore_stims/complex_12_A_a.gif","","","","",""
"","null","html-keyboard-response","41","550141","0.0-13.0-0.4","SS1619205504013","","","null","","","","","","<p><img src= images/blank.png width =""600"" height = ""600"" style=""position:fixed;top:50%; left:50%; transform: translate(-50%, -50%); border:5px solid black"">","","","","","","","",""
"","34185.9800000675","sequential-stimulus-presentation-old","42","584833","0.0-13.0-1.4","SS1619205504013","trial","","40","500","34685.9800000675","images/stimuli/spore_stims/complex_12_A_a.gif","images/stimuli/spore_stims/complex_17_A_b.gif","self_paced","","2","complex_dissimilar","images/stimuli/spore_stims/complex_17_A_b.gif","","","","",""
"","null","html-keyboard-response","43","585900","0.0-13.0-0.5","SS1619205504013","","","null","","","","","","<p><img src= images/blank.png width =""600"" height = ""600"" style=""position:fixed;top:50%; left:50%; transform: translate(-50%, -50%); border:5px solid black"">","","","","","","","",""
"","38026.770000113174","sequential-stimulus-presentation-old","44","624432","0.0-13.0-1.5","SS1619205504013","trial","","40","500","38526.770000113174","images/stimuli/spore_stims/complex_12_A_a.gif","images/stimuli/spore_stims/complex_17_A_b.gif","self_paced","","2","complex_dissimilar","images/stimuli/spore_stims/complex_17_A_b.gif","","","","",""
"","2546.665000030771","survey-multi-choice","45","626983","0.0-14.0","SS1619205504013","math_question","","","","","","","","","","","","{""Q0"":""10""}","[0]","10","",""
"","null","html-keyboard-response","46","628049","0.0-15.0-0.0","SS1619205504013","","","null","","","","","","<p><img src= images/blank.png width =""600"" height = ""600"" style=""position:fixed;top:50%; left:50%; transform: translate(-50%, -50%); border:5px solid black"">","","","","","","","",""
"","1011.6850000340492","sequential-stimulus-presentation-old","47","629167","0.0-15.0-1.0","SS1619205504013","trial","","40","500","1511.6850000340492","images/stimuli/spore_stims/simple_09_A_b.gif","images/stimuli/spore_stims/simple_01_A_a.gif","forced_short","","3","simple_dissimilar","images/stimuli/spore_stims/simple_01_A_a.gif","","","","",""
"","null","html-keyboard-response","48","630303","0.0-15.0-0.1","SS1619205504013","","","null","","","","","","<p><img src= images/blank.png width =""600"" height = ""600"" style=""position:fixed;top:50%; left:50%; transform: translate(-50%, -50%); border:5px solid black"">","","","","","","","",""
"","15779.080000007525","sequential-stimulus-presentation-old","49","646592","0.0-15.0-1.1","SS1619205504013","trial","","40","500","16279.080000007525","images/stimuli/spore_stims/simple_09_A_b.gif","images/stimuli/spore_stims/simple_01_A_a.gif","forced_short","","3","simple_dissimilar","images/stimuli/spore_stims/simple_01_A_a.gif","","","","",""
"","null","html-keyboard-response","50","647496","0.0-15.0-0.2","SS1619205504013","","","null","","","","","","<p><img src= images/blank.png width =""600"" height = ""600"" style=""position:fixed;top:50%; left:50%; transform: translate(-50%, -50%); border:5px solid black"">","","","","","","","",""
"","15478.640000103042","sequential-stimulus-presentation-old","51","663481","0.0-15.0-1.2","SS1619205504013","trial","","40","500","15978.640000103042","images/stimuli/spore_stims/simple_09_A_b.gif","images/stimuli/spore_stims/simple_01_A_a.gif","forced_short","","3","simple_dissimilar","images/stimuli/spore_stims/simple_09_A_b.gif","","","","",""
"","null","html-keyboard-response","52","664728","0.0-15.0-0.3","SS1619205504013","","","null","","","","","","<p><img src= images/blank.png width =""600"" height = ""600"" style=""position:fixed;top:50%; left:50%; transform: translate(-50%, -50%); border:5px solid black"">","","","","","","","",""
"","11242.3350000754","sequential-stimulus-presentation-old","53","676480","0.0-15.0-1.3","SS1619205504013","trial","","40","500","11742.3350000754","images/stimuli/spore_stims/simple_09_A_b.gif","images/stimuli/spore_stims/simple_01_A_a.gif","forced_short","","3","simple_dissimilar","images/stimuli/spore_stims/simple_01_A_a.gif","","","","",""
"","null","html-keyboard-response","54","677513","0.0-15.0-0.4","SS1619205504013","","","null","","","","","","<p><img src= images/blank.png width =""600"" height = ""600"" style=""position:fixed;top:50%; left:50%; transform: translate(-50%, -50%); border:5px solid black"">","","","","","","","",""
"","13616.08500010334","sequential-stimulus-presentation-old","55","691633","0.0-15.0-1.4","SS1619205504013","trial","","40","500","14116.08500010334","images/stimuli/spore_stims/simple_09_A_b.gif","images/stimuli/spore_stims/simple_01_A_a.gif","forced_short","","3","simple_dissimilar","images/stimuli/spore_stims/simple_01_A_a.gif","","","","",""
"","null","html-keyboard-response","56","692732","0.0-15.0-0.5","SS1619205504013","","","null","","","","","","<p><img src= images/blank.png width =""600"" height = ""600"" style=""position:fixed;top:50%; left:50%; transform: translate(-50%, -50%); border:5px solid black"">","","","","","","","",""
"","15718.62499997951","sequential-stimulus-presentation-old","57","708953","0.0-15.0-1.5","SS1619205504013","trial","","40","500","16218.62499997951","images/stimuli/spore_stims/simple_09_A_b.gif","images/stimuli/spore_stims/simple_01_A_a.gif","forced_short","","3","simple_dissimilar","images/stimuli/spore_stims/simple_09_A_b.gif","","","","",""
"","3210.335000185296","survey-multi-choice","58","712168","0.0-16.0","SS1619205504013","math_question","","","","","","","","","","","","{""Q0"":""9""}","[0]","9","",""
"","null","html-keyboard-response","59","713386","0.0-17.0-0.0","SS1619205504013","","","null","","","","","","<p><img src= images/blank.png width =""600"" height = ""600"" style=""position:fixed;top:50%; left:50%; transform: translate(-50%, -50%); border:5px solid black"">","","","","","","","",""
"","1999.7449999209493","sequential-stimulus-presentation-old","60","715495","0.0-17.0-1.0","SS1619205504013","trial","","40","500","2499.7449999209493","images/stimuli/spore_stims/complex_15_A_a.gif","images/stimuli/spore_stims/complex_03_A_b.gif","forced_short","","4","complex_dissimilar","images/stimuli/spore_stims/complex_03_A_b.gif","","","","",""
"","null","html-keyboard-response","61","716777","0.0-17.0-0.1","SS1619205504013","","","null","","","","","","<p><img src= images/blank.png width =""600"" height = ""600"" style=""position:fixed;top:50%; left:50%; transform: translate(-50%, -50%); border:5px solid black"">","","","","","","","",""
"","16621.474999934435","sequential-stimulus-presentation-old","62","733905","0.0-17.0-1.1","SS1619205504013","trial","","40","500","17121.474999934435","images/stimuli/spore_stims/complex_15_A_a.gif","images/stimuli/spore_stims/complex_03_A_b.gif","forced_short","","4","complex_dissimilar","images/stimuli/spore_stims/complex_03_A_b.gif","","","","",""
"","null","html-keyboard-response","63","735087","0.0-17.0-0.2","SS1619205504013","","","null","","","","","","<p><img src= images/blank.png width =""600"" height = ""600"" style=""position:fixed;top:50%; left:50%; transform: translate(-50%, -50%); border:5px solid black"">","","","","","","","",""
"","12559.115000069141","sequential-stimulus-presentation-old","64","748153","0.0-17.0-1.2","SS1619205504013","trial","","40","500","13059.115000069141","images/stimuli/spore_stims/complex_15_A_a.gif","images/stimuli/spore_stims/complex_03_A_b.gif","forced_short","","4","complex_dissimilar","images/stimuli/spore_stims/complex_03_A_b.gif","","","","",""
"","null","html-keyboard-response","65","749393","0.0-17.0-0.3","SS1619205504013","","","null","","","","","","<p><img src= images/blank.png width =""600"" height = ""600"" style=""position:fixed;top:50%; left:50%; transform: translate(-50%, -50%); border:5px solid black"">","","","","","","","",""
"","24875.959999859333","sequential-stimulus-presentation-old","66","774774","0.0-17.0-1.3","SS1619205504013","trial","","40","500","25375.959999859333","images/stimuli/spore_stims/complex_15_A_a.gif","images/stimuli/spore_stims/complex_03_A_b.gif","forced_short","","4","complex_dissimilar","images/stimuli/spore_stims/complex_03_A_b.gif","","","","",""
"","null","html-keyboard-response","67","775854","0.0-17.0-0.4","SS1619205504013","","","null","","","","","","<p><img src= images/blank.png width =""600"" height = ""600"" style=""position:fixed;top:50%; left:50%; transform: translate(-50%, -50%); border:5px solid black"">","","","","","","","",""
"","22829.1400000453","sequential-stimulus-presentation-old","68","799193","0.0-17.0-1.4","SS1619205504013","trial","","40","500","23329.1400000453","images/stimuli/spore_stims/complex_15_A_a.gif","images/stimuli/spore_stims/complex_03_A_b.gif","forced_short","","4","complex_dissimilar","images/stimuli/spore_stims/complex_03_A_b.gif","","","","",""
"","3963.084999937564","survey-multi-choice","69","803159","0.0-18.0","SS1619205504013","math_question","","","","","","","","","","","","{""Q0"":""8""}","[0]","8","",""
"","null","html-keyboard-response","70","804247","0.0-19.0-0.0","SS1619205504013","","","null","","","","","","<p><img src= images/blank.png width =""600"" height = ""600"" style=""position:fixed;top:50%; left:50%; transform: translate(-50%, -50%); border:5px solid black"">","","","","","","","",""
"","2569.439999992028","sequential-stimulus-presentation-old","71","816824","0.0-19.0-1.0","SS1619205504013","trial","","40","500","3069.439999992028","images/stimuli/spore_stims/complex_11_A_b.gif","images/stimuli/spore_stims/complex_17_A_a.gif","forced_long","","5","complex_dissimilar","images/stimuli/spore_stims/complex_17_A_a.gif","","","","",""
"","null","html-keyboard-response","72","818030","0.0-19.0-0.1","SS1619205504013","","","null","","","","","","<p><img src= images/blank.png width =""600"" height = ""600"" style=""position:fixed;top:50%; left:50%; transform: translate(-50%, -50%); border:5px solid black"">","","","","","","","",""
"","58349.729999899864","sequential-stimulus-presentation-old","73","876889","0.0-19.0-1.1","SS1619205504013","trial","","40","500","58849.729999899864","images/stimuli/spore_stims/complex_11_A_b.gif","images/stimuli/spore_stims/complex_17_A_a.gif","forced_long","","5","complex_dissimilar","images/stimuli/spore_stims/complex_17_A_a.gif","","","","",""
"","null","html-keyboard-response","74","877762","0.0-19.0-0.2","SS1619205504013","","","null","","","","","","<p><img src= images/blank.png width =""600"" height = ""600"" style=""position:fixed;top:50%; left:50%; transform: translate(-50%, -50%); border:5px solid black"">","","","","","","","",""
"","14898.449999978766","sequential-stimulus-presentation-old","75","893168","0.0-19.0-1.2","SS1619205504013","trial","","40","500","15398.449999978766","images/stimuli/spore_stims/complex_11_A_b.gif","images/stimuli/spore_stims/complex_17_A_a.gif","forced_long","","5","complex_dissimilar","images/stimuli/spore_stims/complex_17_A_a.gif","","","","",""
"","null","html-keyboard-response","76","894068","0.0-19.0-0.3","SS1619205504013","","","null","","","","","","<p><img src= images/blank.png width =""600"" height = ""600"" style=""position:fixed;top:50%; left:50%; transform: translate(-50%, -50%); border:5px solid black"">","","","","","","","",""
"","24050.09499983862","sequential-stimulus-presentation-old","77","918625","0.0-19.0-1.3","SS1619205504013","trial","","40","500","24550.09499983862","images/stimuli/spore_stims/complex_11_A_b.gif","images/stimuli/spore_stims/complex_17_A_a.gif","forced_long","","5","complex_dissimilar","images/stimuli/spore_stims/complex_17_A_a.gif","","","","",""
"","null","html-keyboard-response","78","919559","0.0-19.0-0.4","SS1619205504013","","","null","","","","","","<p><img src= images/blank.png width =""600"" height = ""600"" style=""position:fixed;top:50%; left:50%; transform: translate(-50%, -50%); border:5px solid black"">","","","","","","","",""
"","34846.30499989726","sequential-stimulus-presentation-old","79","954912","0.0-19.0-1.4","SS1619205504013","trial","","40","500","35346.30499989726","images/stimuli/spore_stims/complex_11_A_b.gif","images/stimuli/spore_stims/complex_17_A_a.gif","forced_long","","5","complex_dissimilar","images/stimuli/spore_stims/complex_17_A_a.gif","","","","",""
"","null","html-keyboard-response","80","956083","0.0-19.0-0.5","SS1619205504013","","","null","","","","","","<p><img src= images/blank.png width =""600"" height = ""600"" style=""position:fixed;top:50%; left:50%; transform: translate(-50%, -50%); border:5px solid black"">","","","","","","","",""
"","41701.49999996647","sequential-stimulus-presentation-old","81","998288","0.0-19.0-1.5","SS1619205504013","trial","","40","500","42201.49999996647","images/stimuli/spore_stims/complex_11_A_b.gif","images/stimuli/spore_stims/complex_17_A_a.gif","forced_long","","5","complex_dissimilar","images/stimuli/spore_stims/complex_17_A_a.gif","","","","",""
"","2493.9199998043478","survey-multi-choice","82","1000787","0.0-20.0","SS1619205504013","math_question","","","","","","","","","","","","{""Q0"":""7""}","[0]","7","",""
"","null","html-keyboard-response","83","1002043","0.0-21.0-0.0","SS1619205504013","","","null","","","","","","<p><img src= images/blank.png width =""600"" height = ""600"" style=""position:fixed;top:50%; left:50%; transform: translate(-50%, -50%); border:5px solid black"">","","","","","","","",""
"","6183.685000054538","sequential-stimulus-presentation-old","84","1018240","0.0-21.0-1.0","SS1619205504013","trial","","40","500","6683.685000054538","images/stimuli/spore_stims/simple_03_A_a.gif","images/stimuli/spore_stims/simple_20_A_b.gif","forced_long","","6","simple_dissimilar","images/stimuli/spore_stims/simple_20_A_b.gif","","","","",""
"","null","html-keyboard-response","85","1019444","0.0-21.0-0.1","SS1619205504013","","","null","","","","","","<p><img src= images/blank.png width =""600"" height = ""600"" style=""position:fixed;top:50%; left:50%; transform: translate(-50%, -50%); border:5px solid black"">","","","","","","","",""
"","15179.974999977276","sequential-stimulus-presentation-old","86","1035127","0.0-21.0-1.1","SS1619205504013","trial","","40","500","15679.974999977276","images/stimuli/spore_stims/simple_03_A_a.gif","images/stimuli/spore_stims/simple_20_A_b.gif","forced_long","","6","simple_dissimilar","images/stimuli/spore_stims/simple_03_A_a.gif","","","","",""
"","null","html-keyboard-response","87","1036365","0.0-21.0-0.2","SS1619205504013","","","null","","","","","","<p><img src= images/blank.png width =""600"" height = ""600"" style=""position:fixed;top:50%; left:50%; transform: translate(-50%, -50%); border:5px solid black"">","","","","","","","",""
"","28626.199999824166","sequential-stimulus-presentation-old","88","1065496","0.0-21.0-1.2","SS1619205504013","trial","","40","500","29126.199999824166","images/stimuli/spore_stims/simple_03_A_a.gif","images/stimuli/spore_stims/simple_20_A_b.gif","forced_long","","6","simple_dissimilar","images/stimuli/spore_stims/simple_20_A_b.gif","","","","",""
"","null","html-keyboard-response","89","1066422","0.0-21.0-0.3","SS1619205504013","","","null","","","","","","<p><img src= images/blank.png width =""600"" height = ""600"" style=""position:fixed;top:50%; left:50%; transform: translate(-50%, -50%); border:5px solid black"">","","","","","","","",""
"","36446.62000006065","sequential-stimulus-presentation-old","90","1103374","0.0-21.0-1.3","SS1619205504013","trial","","40","500","36946.62000006065","images/stimuli/spore_stims/simple_03_A_a.gif","images/stimuli/spore_stims/simple_20_A_b.gif","forced_long","","6","simple_dissimilar","images/stimuli/spore_stims/simple_20_A_b.gif","","","","",""
"","null","html-keyboard-response","91","1104641","0.0-21.0-0.4","SS1619205504013","","","null","","","","","","<p><img src= images/blank.png width =""600"" height = ""600"" style=""position:fixed;top:50%; left:50%; transform: translate(-50%, -50%); border:5px solid black"">","","","","","","","",""
"","14610.355000011623","sequential-stimulus-presentation-old","92","1119758","0.0-21.0-1.4","SS1619205504013","trial","","40","500","15110.355000011623","images/stimuli/spore_stims/simple_03_A_a.gif","images/stimuli/spore_stims/simple_20_A_b.gif","forced_long","","6","simple_dissimilar","images/stimuli/spore_stims/simple_20_A_b.gif","","","","",""
"","null","html-keyboard-response","93","1120829","0.0-21.0-0.5","SS1619205504013","","","null","","","","","","<p><img src= images/blank.png width =""600"" height = ""600"" style=""position:fixed;top:50%; left:50%; transform: translate(-50%, -50%); border:5px solid black"">","","","","","","","",""
"","26791.674999985844","sequential-stimulus-presentation-old","94","1148128","0.0-21.0-1.5","SS1619205504013","trial","","40","500","27291.674999985844","images/stimuli/spore_stims/simple_03_A_a.gif","images/stimuli/spore_stims/simple_20_A_b.gif","forced_long","","6","simple_dissimilar","images/stimuli/spore_stims/simple_20_A_b.gif","","","","",""
"","4090.224999934435","survey-multi-choice","95","1152223","0.0-22.0","SS1619205504013","math_question","","","","","","","","","","","","{""Q0"":""10""}","[0]","10","",""
"","null","html-keyboard-response","96","1153385","0.0-23.0-0.0","SS1619205504013","","","null","","","","","","<p><img src= images/blank.png width =""600"" height = ""600"" style=""position:fixed;top:50%; left:50%; transform: translate(-50%, -50%); border:5px solid black"">","","","","","","","",""
"","10755.540000041947","sequential-stimulus-presentation-old","97","1164648","0.0-23.0-1.0","SS1619205504013","trial","","40","500","11255.540000041947","images/stimuli/spore_stims/simple_06_A_a.gif","images/stimuli/spore_stims/simple_08_A_b.gif","self_paced","","7","simple_dissimilar","images/stimuli/spore_stims/simple_08_A_b.gif","","","","",""
"","null","html-keyboard-response","98","1165581","0.0-23.0-0.1","SS1619205504013","","","null","","","","","","<p><img src= images/blank.png width =""600"" height = ""600"" style=""position:fixed;top:50%; left:50%; transform: translate(-50%, -50%); border:5px solid black"">","","","","","","","",""
"","10711.829999927431","sequential-stimulus-presentation-old","99","1176800","0.0-23.0-1.1","SS1619205504013","trial","","40","500","11211.829999927431","images/stimuli/spore_stims/simple_06_A_a.gif","images/stimuli/spore_stims/simple_08_A_b.gif","self_paced","","7","simple_dissimilar","images/stimuli/spore_stims/simple_06_A_a.gif","","","","",""
"","null","html-keyboard-response","100","1177754","0.0-23.0-0.2","SS1619205504013","","","null","","","","","","<p><img src= images/blank.png width =""600"" height = ""600"" style=""position:fixed;top:50%; left:50%; transform: translate(-50%, -50%); border:5px solid black"">","","","","","","","",""
"","15851.664999965578","sequential-stimulus-presentation-old","101","1194114","0.0-23.0-1.2","SS1619205504013","trial","","40","500","16351.664999965578","images/stimuli/spore_stims/simple_06_A_a.gif","images/stimuli/spore_stims/simple_08_A_b.gif","self_paced","","7","simple_dissimilar","images/stimuli/spore_stims/simple_08_A_b.gif","","","","",""
"","null","html-keyboard-response","102","1195218","0.0-23.0-0.3","SS1619205504013","","","null","","","","","","<p><img src= images/blank.png width =""600"" height = ""600"" style=""position:fixed;top:50%; left:50%; transform: translate(-50%, -50%); border:5px solid black"">","","","","","","","",""
"","20779.42500007339","sequential-stimulus-presentation-old","103","1216504","0.0-23.0-1.3","SS1619205504013","trial","","40","500","21279.42500007339","images/stimuli/spore_stims/simple_06_A_a.gif","images/stimuli/spore_stims/simple_08_A_b.gif","self_paced","","7","simple_dissimilar","images/stimuli/spore_stims/simple_06_A_a.gif","","","","",""
"","null","html-keyboard-response","104","1217388","0.0-23.0-0.4","SS1619205504013","","","null","","","","","","<p><img src= images/blank.png width =""600"" height = ""600"" style=""position:fixed;top:50%; left:50%; transform: translate(-50%, -50%); border:5px solid black"">","","","","","","","",""
"","15057.869999902323","sequential-stimulus-presentation-old","105","1232951","0.0-23.0-1.4","SS1619205504013","trial","","40","500","15557.869999902323","images/stimuli/spore_stims/simple_06_A_a.gif","images/stimuli/spore_stims/simple_08_A_b.gif","self_paced","","7","simple_dissimilar","images/stimuli/spore_stims/simple_08_A_b.gif","","","","",""
"","null","html-keyboard-response","106","1233767","0.0-23.0-0.5","SS1619205504013","","","null","","","","","","<p><img src= images/blank.png width =""600"" height = ""600"" style=""position:fixed;top:50%; left:50%; transform: translate(-50%, -50%); border:5px solid black"">","","","","","","","",""
"","34248.314999975264","sequential-stimulus-presentation-old","107","1268527","0.0-23.0-1.5","SS1619205504013","trial","","40","500","34748.314999975264","images/stimuli/spore_stims/simple_06_A_a.gif","images/stimuli/spore_stims/simple_08_A_b.gif","self_paced","","7","simple_dissimilar","images/stimuli/spore_stims/simple_08_A_b.gif","","","","",""
"","2994.179999921471","survey-multi-choice","108","1271527","0.0-24.0","SS1619205504013","math_question","","","","","","","","","","","","{""Q0"":""9""}","[0]","9","",""
"","null","html-keyboard-response","109","1272687","0.0-25.0-0.0","SS1619205504013","","","null","","","","","","<p><img src= images/blank.png width =""600"" height = ""600"" style=""position:fixed;top:50%; left:50%; transform: translate(-50%, -50%); border:5px solid black"">","","","","","","","",""
"","21163.734999950975","sequential-stimulus-presentation-old","110","1294358","0.0-25.0-1.0","SS1619205504013","trial","","40","500","21663.734999950975","images/stimuli/spore_stims/complex_18_A_a.gif","images/stimuli/spore_stims/complex_01_A_b.gif","self_paced","","8","complex_dissimilar","images/stimuli/spore_stims/complex_01_A_b.gif","","","","",""
"","null","html-keyboard-response","111","1295630","0.0-25.0-0.1","SS1619205504013","","","null","","","","","","<p><img src= images/blank.png width =""600"" height = ""600"" style=""position:fixed;top:50%; left:50%; transform: translate(-50%, -50%); border:5px solid black"">","","","","","","","",""
"","12695.199999958277","sequential-stimulus-presentation-old","112","1308832","0.0-25.0-1.1","SS1619205504013","trial","","40","500","13195.199999958277","images/stimuli/spore_stims/complex_18_A_a.gif","images/stimuli/spore_stims/complex_01_A_b.gif","self_paced","","8","complex_dissimilar","images/stimuli/spore_stims/complex_01_A_b.gif","","","","",""
"","null","html-keyboard-response","113","1309865","0.0-25.0-0.2","SS1619205504013","","","null","","","","","","<p><img src= images/blank.png width =""600"" height = ""600"" style=""position:fixed;top:50%; left:50%; transform: translate(-50%, -50%); border:5px solid black"">","","","","","","","",""
"","25029.245000099763","sequential-stimulus-presentation-old","114","1335398","0.0-25.0-1.2","SS1619205504013","trial","","40","500","25529.245000099763","images/stimuli/spore_stims/complex_18_A_a.gif","images/stimuli/spore_stims/complex_01_A_b.gif","self_paced","","8","complex_dissimilar","images/stimuli/spore_stims/complex_01_A_b.gif","","","","",""
"","null","html-keyboard-response","115","1336346","0.0-25.0-0.3","SS1619205504013","","","null","","","","","","<p><img src= images/blank.png width =""600"" height = ""600"" style=""position:fixed;top:50%; left:50%; transform: translate(-50%, -50%); border:5px solid black"">","","","","","","","",""
"","17118.250000057742","sequential-stimulus-presentation-old","116","1353967","0.0-25.0-1.3","SS1619205504013","trial","","40","500","17618.250000057742","images/stimuli/spore_stims/complex_18_A_a.gif","images/stimuli/spore_stims/complex_01_A_b.gif","self_paced","","8","complex_dissimilar","images/stimuli/spore_stims/complex_01_A_b.gif","","","","",""
"","null","html-keyboard-response","117","1354973","0.0-25.0-0.4","SS1619205504013","","","null","","","","","","<p><img src= images/blank.png width =""600"" height = ""600"" style=""position:fixed;top:50%; left:50%; transform: translate(-50%, -50%); border:5px solid black"">","","","","","","","",""
"","19846.494999947026","sequential-stimulus-presentation-old","118","1375327","0.0-25.0-1.4","SS1619205504013","trial","","40","500","20346.494999947026","images/stimuli/spore_stims/complex_18_A_a.gif","images/stimuli/spore_stims/complex_01_A_b.gif","self_paced","","8","complex_dissimilar","images/stimuli/spore_stims/complex_01_A_b.gif","","","","",""
"","null","html-keyboard-response","119","1376187","0.0-25.0-0.5","SS1619205504013","","","null","","","","","","<p><img src= images/blank.png width =""600"" height = ""600"" style=""position:fixed;top:50%; left:50%; transform: translate(-50%, -50%); border:5px solid black"">","","","","","","","",""
"","24399.549999972805","sequential-stimulus-presentation-old","120","1401094","0.0-25.0-1.5","SS1619205504013","trial","","40","500","24899.549999972805","images/stimuli/spore_stims/complex_18_A_a.gif","images/stimuli/spore_stims/complex_01_A_b.gif","self_paced","","8","complex_dissimilar","images/stimuli/spore_stims/complex_18_A_a.gif","","","","",""
"","6145.974999992177","survey-multi-choice","121","1407242","0.0-26.0","SS1619205504013","math_question","","","","","","","","","","","","{""Q0"":""15""}","[0]","15","",""
"","null","html-keyboard-response","122","1408233","0.0-27.0-0.0","SS1619205504013","","","null","","","","","","<p><img src= images/blank.png width =""600"" height = ""600"" style=""position:fixed;top:50%; left:50%; transform: translate(-50%, -50%); border:5px solid black"">","","","","","","","",""
"","29608.895000070333","sequential-stimulus-presentation-old","123","1438349","0.0-27.0-1.0","SS1619205504013","trial","","40","500","30108.895000070333","images/stimuli/spore_stims/simple_18_A_a.gif","images/stimuli/spore_stims/simple_17_A_b.gif","self_paced","","9","simple_dissimilar","images/stimuli/spore_stims/simple_17_A_b.gif","","","","",""
"","null","html-keyboard-response","124","1439630","0.0-27.0-0.1","SS1619205504013","","","null","","","","","","<p><img src= images/blank.png width =""600"" height = ""600"" style=""position:fixed;top:50%; left:50%; transform: translate(-50%, -50%); border:5px solid black"">","","","","","","","",""
"","10075.545000145212","sequential-stimulus-presentation-old","125","1450215","0.0-27.0-1.1","SS1619205504013","trial","","40","500","10575.545000145212","images/stimuli/spore_stims/simple_18_A_a.gif","images/stimuli/spore_stims/simple_17_A_b.gif","self_paced","","9","simple_dissimilar","images/stimuli/spore_stims/simple_17_A_b.gif","","","","",""
"","null","html-keyboard-response","126","1451467","0.0-27.0-0.2","SS1619205504013","","","null","","","","","","<p><img src= images/blank.png width =""600"" height = ""600"" style=""position:fixed;top:50%; left:50%; transform: translate(-50%, -50%); border:5px solid black"">","","","","","","","",""
"","3103.0500000342727","sequential-stimulus-presentation-old","127","1455095","0.0-27.0-1.2","SS1619205504013","trial","","40","500","3603.0500000342727","images/stimuli/spore_stims/simple_18_A_a.gif","images/stimuli/spore_stims/simple_17_A_b.gif","self_paced","","9","simple_dissimilar","images/stimuli/spore_stims/simple_17_A_b.gif","","","","",""
"","null","html-keyboard-response","128","1456072","0.0-27.0-0.3","SS1619205504013","","","null","","","","","","<p><img src= images/blank.png width =""600"" height = ""600"" style=""position:fixed;top:50%; left:50%; transform: translate(-50%, -50%); border:5px solid black"">","","","","","","","",""
"","8075.685000047088","sequential-stimulus-presentation-old","129","1464655","0.0-27.0-1.3","SS1619205504013","trial","","40","500","8575.685000047088","images/stimuli/spore_stims/simple_18_A_a.gif","images/stimuli/spore_stims/simple_17_A_b.gif","self_paced","","9","simple_dissimilar","images/stimuli/spore_stims/simple_17_A_b.gif","","","","",""
"","null","html-keyboard-response","130","1465688","0.0-27.0-0.4","SS1619205504013","","","null","","","","","","<p><img src= images/blank.png width =""600"" height = ""600"" style=""position:fixed;top:50%; left:50%; transform: translate(-50%, -50%); border:5px solid black"">","","","","","","","",""
"","10444.835000205785","sequential-stimulus-presentation-old","131","1476639","0.0-27.0-1.4","SS1619205504013","trial","","40","500","10944.835000205785","images/stimuli/spore_stims/simple_18_A_a.gif","images/stimuli/spore_stims/simple_17_A_b.gif","self_paced","","9","simple_dissimilar","images/stimuli/spore_stims/simple_17_A_b.gif","","","","",""
"","2905.2950001787394","survey-multi-choice","132","1479550","0.0-28.0","SS1619205504013","math_question","","","","","","","","","","","","{""Q0"":""6""}","[0]","6","",""
"","null","html-keyboard-response","133","1480563","0.0-29.0-0.0","SS1619205504013","","","null","","","","","","<p><img src= images/blank.png width =""600"" height = ""600"" style=""position:fixed;top:50%; left:50%; transform: translate(-50%, -50%); border:5px solid black"">","","","","","","","",""
"","1125.389999942854","sequential-stimulus-presentation-old","134","1481798","0.0-29.0-1.0","SS1619205504013","trial","","40","500","1625.389999942854","images/stimuli/spore_stims/simple_04_A_a.gif","images/stimuli/spore_stims/simple_02_A_b.gif","forced_short","","10","simple_dissimilar","images/stimuli/spore_stims/simple_02_A_b.gif","","","","",""
"","null","html-keyboard-response","135","1482648","0.0-29.0-0.1","SS1619205504013","","","null","","","","","","<p><img src= images/blank.png width =""600"" height = ""600"" style=""position:fixed;top:50%; left:50%; transform: translate(-50%, -50%); border:5px solid black"">","","","","","","","",""
"","5646.135000046343","sequential-stimulus-presentation-old","136","1488805","0.0-29.0-1.1","SS1619205504013","trial","","40","500","6146.135000046343","images/stimuli/spore_stims/simple_04_A_a.gif","images/stimuli/spore_stims/simple_02_A_b.gif","forced_short","","10","simple_dissimilar","images/stimuli/spore_stims/simple_02_A_b.gif","","","","",""
"","null","html-keyboard-response","137","1489621","0.0-29.0-0.2","SS1619205504013","","","null","","","","","","<p><img src= images/blank.png width =""600"" height = ""600"" style=""position:fixed;top:50%; left:50%; transform: translate(-50%, -50%); border:5px solid black"">","","","","","","","",""
"","6105.070000048727","sequential-stimulus-presentation-old","138","1496230","0.0-29.0-1.2","SS1619205504013","trial","","40","500","6605.070000048727","images/stimuli/spore_stims/simple_04_A_a.gif","images/stimuli/spore_stims/simple_02_A_b.gif","forced_short","","10","simple_dissimilar","images/stimuli/spore_stims/simple_02_A_b.gif","","","","",""
"","null","html-keyboard-response","139","1497248","0.0-29.0-0.3","SS1619205504013","","","null","","","","","","<p><img src= images/blank.png width =""600"" height = ""600"" style=""position:fixed;top:50%; left:50%; transform: translate(-50%, -50%); border:5px solid black"">","","","","","","","",""
"","6934.194999979809","sequential-stimulus-presentation-old","140","1504686","0.0-29.0-1.3","SS1619205504013","trial","","40","500","7434.194999979809","images/stimuli/spore_stims/simple_04_A_a.gif","images/stimuli/spore_stims/simple_02_A_b.gif","forced_short","","10","simple_dissimilar","images/stimuli/spore_stims/simple_02_A_b.gif","","","","",""
"","null","html-keyboard-response","141","1505955","0.0-29.0-0.4","SS1619205504013","","","null","","","","","","<p><img src= images/blank.png width =""600"" height = ""600"" style=""position:fixed;top:50%; left:50%; transform: translate(-50%, -50%); border:5px solid black"">","","","","","","","",""
"","8549.739999929443","sequential-stimulus-presentation-old","142","1515014","0.0-29.0-1.4","SS1619205504013","trial","","40","500","9049.739999929443","images/stimuli/spore_stims/simple_04_A_a.gif","images/stimuli/spore_stims/simple_02_A_b.gif","forced_short","","10","simple_dissimilar","images/stimuli/spore_stims/simple_02_A_b.gif","","","","",""
"","null","html-keyboard-response","143","1516286","0.0-29.0-0.5","SS1619205504013","","","null","","","","","","<p><img src= images/blank.png width =""600"" height = ""600"" style=""position:fixed;top:50%; left:50%; transform: translate(-50%, -50%); border:5px solid black"">","","","","","","","",""
"","18410.304999910295","sequential-stimulus-presentation-old","144","1535207","0.0-29.0-1.5","SS1619205504013","trial","","40","500","18910.304999910295","images/stimuli/spore_stims/simple_04_A_a.gif","images/stimuli/spore_stims/simple_02_A_b.gif","forced_short","","10","simple_dissimilar","images/stimuli/spore_stims/simple_04_A_a.gif","","","","",""
"","2879.814999876544","survey-multi-choice","145","1538093","0.0-30.0","SS1619205504013","math_question","","","","","","","","","","","","{""Q0"":""10""}","[0]","10","",""
"","null","html-keyboard-response","146","1539166","0.0-31.0-0.0","SS1619205504013","","","null","","","","","","<p><img src= images/blank.png width =""600"" height = ""600"" style=""position:fixed;top:50%; left:50%; transform: translate(-50%, -50%); border:5px solid black"">","","","","","","","",""
"","7624.900000169873","sequential-stimulus-presentation-old","147","1556799","0.0-31.0-1.0","SS1619205504013","trial","","40","500","8124.900000169873","images/stimuli/spore_stims/complex_08_A_b.gif","images/stimuli/spore_stims/complex_10_A_a.gif","forced_long","","11","complex_dissimilar","images/stimuli/spore_stims/complex_10_A_a.gif","","","","",""
"","null","html-keyboard-response","148","1557695","0.0-31.0-0.1","SS1619205504013","","","null","","","","","","<p><img src= images/blank.png width =""600"" height = ""600"" style=""position:fixed;top:50%; left:50%; transform: translate(-50%, -50%); border:5px solid black"">","","","","","","","",""
"","10492.0399999246","sequential-stimulus-presentation-old","149","1568695","0.0-31.0-1.1","SS1619205504013","trial","","40","500","10992.0399999246","images/stimuli/spore_stims/complex_08_A_b.gif","images/stimuli/spore_stims/complex_10_A_a.gif","forced_long","","11","complex_dissimilar","images/stimuli/spore_stims/complex_08_A_b.gif","","","","",""
"","null","html-keyboard-response","150","1569793","0.0-31.0-0.2","SS1619205504013","","","null","","","","","","<p><img src= images/blank.png width =""600"" height = ""600"" style=""position:fixed;top:50%; left:50%; transform: translate(-50%, -50%); border:5px solid black"">","","","","","","","",""
"","6563.545000040904","sequential-stimulus-presentation-old","151","1576863","0.0-31.0-1.2","SS1619205504013","trial","","40","500","7063.545000040904","images/stimuli/spore_stims/complex_08_A_b.gif","images/stimuli/spore_stims/complex_10_A_a.gif","forced_long","","11","complex_dissimilar","images/stimuli/spore_stims/complex_10_A_a.gif","","","","",""
"","null","html-keyboard-response","152","1577800","0.0-31.0-0.3","SS1619205504013","","","null","","","","","","<p><img src= images/blank.png width =""600"" height = ""600"" style=""position:fixed;top:50%; left:50%; transform: translate(-50%, -50%); border:5px solid black"">","","","","","","","",""
"","17048.919999971986","sequential-stimulus-presentation-old","153","1595357","0.0-31.0-1.3","SS1619205504013","trial","","40","500","17548.919999971986","images/stimuli/spore_stims/complex_08_A_b.gif","images/stimuli/spore_stims/complex_10_A_a.gif","forced_long","","11","complex_dissimilar","images/stimuli/spore_stims/complex_08_A_b.gif","","","","",""
"","null","html-keyboard-response","154","1596234","0.0-31.0-0.4","SS1619205504013","","","null","","","","","","<p><img src= images/blank.png width =""600"" height = ""600"" style=""position:fixed;top:50%; left:50%; transform: translate(-50%, -50%); border:5px solid black"">","","","","","","","",""
"","17208.074999973178","sequential-stimulus-presentation-old","155","1613951","0.0-31.0-1.4","SS1619205504013","trial","","40","500","17708.074999973178","images/stimuli/spore_stims/complex_08_A_b.gif","images/stimuli/spore_stims/complex_10_A_a.gif","forced_long","","11","complex_dissimilar","images/stimuli/spore_stims/complex_10_A_a.gif","","","","",""
"[{""page_index"":0,""viewing_time"":4647.92999997735}]","4648.159999866039","instructions","156","1618604","0.0-32.0","SS1619205504013","instructions","","","","","","","","","","","","","","","",""
"","5579.810000024736","survey-likert","157","1624187","0.0-33.0","SS1619205504013","similarity_question","","","","","","","","","","","","{""Q0"":1}","[0]","","images/stimuli/spore_stims/complex_18_A_b.gif","images/stimuli/spore_stims/complex_07_A_a.gif"
"","3953.495000023395","survey-likert","158","1628145","0.0-34.0","SS1619205504013","similarity_question","","","","","","","","","","","","{""Q0"":4}","[0]","","images/stimuli/spore_stims/simple_04_A_a.gif","images/stimuli/spore_stims/simple_02_A_b.gif"
"","4994.655000045896","survey-likert","159","1633145","0.0-35.0","SS1619205504013","similarity_question","","","","","","","","","","","","{""Q0"":1}","[0]","","images/stimuli/spore_stims/complex_03_A_b.gif","images/stimuli/spore_stims/complex_15_A_a.gif"
"","5075.039999792352","survey-likert","160","1638227","0.0-36.0","SS1619205504013","similarity_question","","","","","","","","","","","","{""Q0"":2}","[0]","","images/stimuli/spore_stims/complex_17_A_b.gif","images/stimuli/spore_stims/complex_12_A_a.gif"
"","3271.2199999950826","survey-likert","161","1641503","0.0-37.0","SS1619205504013","similarity_question","","","","","","","","","","","","{""Q0"":1}","[0]","","images/stimuli/spore_stims/complex_18_A_a.gif","images/stimuli/spore_stims/complex_01_A_b.gif"
"","3186.6399999707937","survey-likert","162","1644696","0.0-38.0","SS1619205504013","similarity_question","","","","","","","","","","","","{""Q0"":5}","[0]","","images/stimuli/spore_stims/simple_09_A_b.gif","images/stimuli/spore_stims/simple_01_A_a.gif"
"","3727.625000057742","survey-likert","163","1648429","0.0-39.0","SS1619205504013","similarity_question","","","","","","","","","","","","{""Q0"":5}","[0]","","images/stimuli/spore_stims/simple_03_A_a.gif","images/stimuli/spore_stims/simple_20_A_b.gif"
"","9194.350000005215","survey-likert","164","1657628","0.0-40.0","SS1619205504013","similarity_question","","","","","","","","","","","","{""Q0"":0}","[0]","","images/stimuli/spore_stims/complex_10_A_a.gif","images/stimuli/spore_stims/complex_08_A_b.gif"
"","2906.4650000073016","survey-likert","165","1660539","0.0-41.0","SS1619205504013","similarity_question","","","","","","","","","","","","{""Q0"":4}","[0]","","images/stimuli/spore_stims/simple_12_A_a.gif","images/stimuli/spore_stims/simple_16_A_b.gif"
"","7191.110000014305","survey-likert","166","1667735","0.0-42.0","SS1619205504013","similarity_question","","","","","","","","","","","","{""Q0"":2}","[0]","","images/stimuli/spore_stims/complex_17_A_a.gif","images/stimuli/spore_stims/complex_11_A_b.gif"
"","3095.9749999456108","survey-likert","167","1670836","0.0-43.0","SS1619205504013","similarity_question","","","","","","","","","","","","{""Q0"":5}","[0]","","images/stimuli/spore_stims/simple_18_A_a.gif","images/stimuli/spore_stims/simple_17_A_b.gif"
"","3588.200000114739","survey-likert","168","1674429","0.0-44.0","SS1619205504013","similarity_question","","","","","","","","","","","","{""Q0"":6}","[0]","","images/stimuli/spore_stims/simple_06_A_a.gif","images/stimuli/spore_stims/simple_08_A_b.gif"
"[{""page_index"":0,""viewing_time"":7865.604999940842}]","7865.890000015497","instructions","169","1682300","0.0-45.0","SS1619205504013","instructions","","","","","","","","","","","","","","","",""
"","5764.670000178739","survey-likert","170","1688068","0.0-46.0","SS1619205504013","","","","","","","","","images/stimuli/spore_stims/simple_09_A_b.gif","","","","{""Q0"":0}","[0]","","",""
"","3442.7949998062104","survey-likert","171","1691516","0.0-47.0","SS1619205504013","","","","","","","","","images/stimuli/spore_stims/simple_02_A_b.gif","","","","{""Q0"":0}","[0]","","",""
"","1543.3750001247972","survey-likert","172","1693064","0.0-48.0","SS1619205504013","","","","","","","","","images/stimuli/spore_stims/simple_17_A_b.gif","","","","{""Q0"":1}","[0]","","",""
"","2700.995000079274","survey-likert","173","1695770","0.0-49.0","SS1619205504013","","","","","","","","","images/stimuli/spore_stims/complex_01_A_b.gif","","","","{""Q0"":5}","[0]","","",""
"","5507.974999956787","survey-likert","174","1701282","0.0-50.0","SS1619205504013","","","","","","","","","images/stimuli/spore_stims/complex_07_A_a.gif","","","","{""Q0"":6}","[0]","","",""
"","4334.604999981821","survey-likert","175","1705622","0.0-51.0","SS1619205504013","","","","","","","","","images/stimuli/spore_stims/simple_03_A_a.gif","","","","{""Q0"":1}","[0]","","",""
"","3543.2799998670816","survey-likert","176","1709169","0.0-52.0","SS1619205504013","","","","","","","","","images/stimuli/spore_stims/simple_12_A_a.gif","","","","{""Q0"":1}","[0]","","",""
"","1884.7149999346584","survey-likert","177","1711059","0.0-53.0","SS1619205504013","","","","","","","","","images/stimuli/spore_stims/simple_08_A_b.gif","","","","{""Q0"":0}","[0]","","",""
"","3413.219999987632","survey-likert","178","1714476","0.0-54.0","SS1619205504013","","","","","","","","","images/stimuli/spore_stims/complex_15_A_a.gif","","","","{""Q0"":5}","[0]","","",""
"","2180.2499999757856","survey-likert","179","1716661","0.0-55.0","SS1619205504013","","","","","","","","","images/stimuli/spore_stims/complex_17_A_a.gif","","","","{""Q0"":5}","[0]","","",""
"","3377.0149999763817","survey-likert","180","1720043","0.0-56.0","SS1619205504013","","","","","","","","","images/stimuli/spore_stims/complex_12_A_a.gif","","","","{""Q0"":6}","[0]","","",""
"","2906.680000014603","survey-likert","181","1722954","0.0-57.0","SS1619205504013","","","","","","","","","images/stimuli/spore_stims/complex_08_A_b.gif","","","","{""Q0"":6}","[0]","","",""
"[{""page_index"":0,""viewing_time"":3032.740000169724}]","3032.9950000159442","instructions","182","1725991","0.0-58.0","SS1619205504013","instructions","","","","","","","","","","","","","","","",""
"","2934.204999823123","demog-age","183","1728932","0.0-59.0","SS1619205504013","","","","","","","","","","","","","{""age"":""20""}","","","",""
"","4154.964999994263","demog-ethnic-US","184","1733092","0.0-60.0","SS1619205504013","","","","","","","","","","","","","{""ethnicity"":[""White""]}","[0]","","",""
"","13814.825000008568","demog-gender-and-education","185","1746912","0.0-61.0","SS1619205504013","","","","","","","","","","","","","{""gender"":""Male"",""education"":""High school diploma""}","[0,1]","","",""
"","38744.30999998003","survey-text","186","1785665","0.0-62.0","SS1619205504013","feedback","","","","","","","","","","","","{""Q0"":""Everything worked out very well!""}","","","",""
"[{""page_index"":0,""viewing_time"":1309.2700000852346}]","1309.5299999695271","instructions","187","1786978","0.0-63.0","SS1619205504013","instructions","","","","","","","","","","","","","","","",""
