"view_history","rt","trial_type","trial_index","time_elapsed","internal_node_id","subject","stimulus_type","trial_stimulus","key_press","minimum_viewing_duration","trial_looking_time","block_deviant","block_background","exposure_type","stimulus","block_number","block_type","stimulus_displayed","responses","question_order","math_correct_answer","stimulus_left","stimulus_right"
"[{""page_index"":0,""viewing_time"":28399.554999894463}]","28400.084999972023","instructions","0","28401","0.0-0.0","SS1619205530598","","","","","","","","","","","","","","","","",""
"[{""page_index"":0,""viewing_time"":20990.055000060238},{""page_index"":1,""viewing_time"":8420.649999985471}]","29410.93999997247","instructions","1","59814","0.0-1.0","SS1619205530598","instructions","","","","","","","","","","","","","","","",""
"","9109.375","sequential-stimulus-presentation-old","2","69426","0.0-2.0","SS1619205530598","","","40","500","9609.375","null","null","self_paced","","","","","","","","",""
"","11960.435000015423","sequential-stimulus-presentation-old","3","81888","0.0-3.0","SS1619205530598","","","40","500","12460.435000015423","null","null","self_paced","","","","","","","","",""
"[{""page_index"":0,""viewing_time"":21574.474999913946}]","21574.7599999886","instructions","4","103464","0.0-4.0","SS1619205530598","instructions","","","","","","","","","","","","","","","",""
"","6773.894999991171","sequential-stimulus-presentation-old","5","120240","0.0-5.0","SS1619205530598","","","40","500","7273.894999991171","null","null","forced_long","","","","","","","","",""
"","658.3000000100583","sequential-stimulus-presentation-old","6","121001","0.0-6.0","SS1619205530598","","","40","500","1158.3000000100583","null","null","forced_long","","","","","","","","",""
"[{""page_index"":0,""viewing_time"":4812.554999953136}]","4812.754999962635","instructions","7","125814","0.0-7.0","SS1619205530598","instructions","","","","","","","","","","","","","","","",""
"[{""page_index"":0,""viewing_time"":8922.479999950156},{""page_index"":1,""viewing_time"":15426.794999977574},{""page_index"":2,""viewing_time"":6905.930000008084},{""page_index"":3,""viewing_time"":1978.015000000596},{""page_index"":4,""viewing_time"":1396.7800000682473}]","34630.209999973886","instructions","8","160445","0.0-8.0","SS1619205530598","instructions","","","","","","","","","","","","","","","",""
"","null","html-keyboard-response","9","161391","0.0-9.0-0.0","SS1619205530598","","","null","","","","","","<p><img src= images/blank.png width =""600"" height = ""600"" style=""position:fixed;top:50%; left:50%; transform: translate(-50%, -50%); border:5px solid black"">","","","","","","","",""
"","7170.614999951795","sequential-stimulus-presentation-old","10","169065","0.0-9.0-1.0","SS1619205530598","trial","","40","500","7670.614999951795","images/stimuli/spore_stims/complex_10_A_b.gif","images/stimuli/spore_stims/complex_19_A_a.gif","self_paced","","0","complex_dissimilar","images/stimuli/spore_stims/complex_19_A_a.gif","","","","",""
"","null","html-keyboard-response","11","169908","0.0-9.0-0.1","SS1619205530598","","","null","","","","","","<p><img src= images/blank.png width =""600"" height = ""600"" style=""position:fixed;top:50%; left:50%; transform: translate(-50%, -50%); border:5px solid black"">","","","","","","","",""
"","6790.625000023283","sequential-stimulus-presentation-old","12","177200","0.0-9.0-1.1","SS1619205530598","trial","","40","500","7290.625000023283","images/stimuli/spore_stims/complex_10_A_b.gif","images/stimuli/spore_stims/complex_19_A_a.gif","self_paced","","0","complex_dissimilar","images/stimuli/spore_stims/complex_19_A_a.gif","","","","",""
"","null","html-keyboard-response","13","178233","0.0-9.0-0.2","SS1619205530598","","","null","","","","","","<p><img src= images/blank.png width =""600"" height = ""600"" style=""position:fixed;top:50%; left:50%; transform: translate(-50%, -50%); border:5px solid black"">","","","","","","","",""
"","7184.149999986403","sequential-stimulus-presentation-old","14","185920","0.0-9.0-1.2","SS1619205530598","trial","","40","500","7684.149999986403","images/stimuli/spore_stims/complex_10_A_b.gif","images/stimuli/spore_stims/complex_19_A_a.gif","self_paced","","0","complex_dissimilar","images/stimuli/spore_stims/complex_19_A_a.gif","","","","",""
"","null","html-keyboard-response","15","186880","0.0-9.0-0.3","SS1619205530598","","","null","","","","","","<p><img src= images/blank.png width =""600"" height = ""600"" style=""position:fixed;top:50%; left:50%; transform: translate(-50%, -50%); border:5px solid black"">","","","","","","","",""
"","6745.365000097081","sequential-stimulus-presentation-old","16","194128","0.0-9.0-1.3","SS1619205530598","trial","","40","500","7245.365000097081","images/stimuli/spore_stims/complex_10_A_b.gif","images/stimuli/spore_stims/complex_19_A_a.gif","self_paced","","0","complex_dissimilar","images/stimuli/spore_stims/complex_19_A_a.gif","","","","",""
"","null","html-keyboard-response","17","195309","0.0-9.0-0.4","SS1619205530598","","","null","","","","","","<p><img src= images/blank.png width =""600"" height = ""600"" style=""position:fixed;top:50%; left:50%; transform: translate(-50%, -50%); border:5px solid black"">","","","","","","","",""
"","7154.9449999583885","sequential-stimulus-presentation-old","18","202969","0.0-9.0-1.4","SS1619205530598","trial","","40","500","7654.9449999583885","images/stimuli/spore_stims/complex_10_A_b.gif","images/stimuli/spore_stims/complex_19_A_a.gif","self_paced","","0","complex_dissimilar","images/stimuli/spore_stims/complex_19_A_a.gif","","","","",""
"","null","html-keyboard-response","19","204244","0.0-9.0-0.5","SS1619205530598","","","null","","","","","","<p><img src= images/blank.png width =""600"" height = ""600"" style=""position:fixed;top:50%; left:50%; transform: translate(-50%, -50%); border:5px solid black"">","","","","","","","",""
"","10517.095000017434","sequential-stimulus-presentation-old","20","215264","0.0-9.0-1.5","SS1619205530598","trial","","40","500","11017.095000017434","images/stimuli/spore_stims/complex_10_A_b.gif","images/stimuli/spore_stims/complex_19_A_a.gif","self_paced","","0","complex_dissimilar","images/stimuli/spore_stims/complex_10_A_b.gif","","","","",""
"","6372.669999953359","survey-multi-choice","21","221640","0.0-10.0","SS1619205530598","math_question","","","","","","","","","","","","{""Q0"":""14""}","[0]","14","",""
"","null","html-keyboard-response","22","222937","0.0-11.0-0.0","SS1619205530598","","","null","","","","","","<p><img src= images/blank.png width =""600"" height = ""600"" style=""position:fixed;top:50%; left:50%; transform: translate(-50%, -50%); border:5px solid black"">","","","","","","","",""
"","2200.5999999819323","sequential-stimulus-presentation-old","23","225240","0.0-11.0-1.0","SS1619205530598","trial","","40","500","2700.5999999819323","images/stimuli/spore_stims/simple_04_A_b.gif","images/stimuli/spore_stims/simple_19_A_a.gif","forced_short","","1","simple_dissimilar","images/stimuli/spore_stims/simple_19_A_a.gif","","","","",""
"","null","html-keyboard-response","24","226465","0.0-11.0-0.1","SS1619205530598","","","null","","","","","","<p><img src= images/blank.png width =""600"" height = ""600"" style=""position:fixed;top:50%; left:50%; transform: translate(-50%, -50%); border:5px solid black"">","","","","","","","",""
"","8130.899999989197","sequential-stimulus-presentation-old","25","235097","0.0-11.0-1.1","SS1619205530598","trial","","40","500","8630.899999989197","images/stimuli/spore_stims/simple_04_A_b.gif","images/stimuli/spore_stims/simple_19_A_a.gif","forced_short","","1","simple_dissimilar","images/stimuli/spore_stims/simple_04_A_b.gif","","","","",""
"","null","html-keyboard-response","26","236338","0.0-11.0-0.2","SS1619205530598","","","null","","","","","","<p><img src= images/blank.png width =""600"" height = ""600"" style=""position:fixed;top:50%; left:50%; transform: translate(-50%, -50%); border:5px solid black"">","","","","","","","",""
"","7135.160000063479","sequential-stimulus-presentation-old","27","243976","0.0-11.0-1.2","SS1619205530598","trial","","40","500","7635.160000063479","images/stimuli/spore_stims/simple_04_A_b.gif","images/stimuli/spore_stims/simple_19_A_a.gif","forced_short","","1","simple_dissimilar","images/stimuli/spore_stims/simple_04_A_b.gif","","","","",""
"","null","html-keyboard-response","28","245128","0.0-11.0-0.3","SS1619205530598","","","null","","","","","","<p><img src= images/blank.png width =""600"" height = ""600"" style=""position:fixed;top:50%; left:50%; transform: translate(-50%, -50%); border:5px solid black"">","","","","","","","",""
"","9399.744999944232","sequential-stimulus-presentation-old","29","255032","0.0-11.0-1.3","SS1619205530598","trial","","40","500","9899.744999944232","images/stimuli/spore_stims/simple_04_A_b.gif","images/stimuli/spore_stims/simple_19_A_a.gif","forced_short","","1","simple_dissimilar","images/stimuli/spore_stims/simple_19_A_a.gif","","","","",""
"","4296.074999962002","survey-multi-choice","30","259330","0.0-12.0","SS1619205530598","math_question","","","","","","","","","","","","{""Q0"":""6""}","[0]","6","",""
"","null","html-keyboard-response","31","260613","0.0-13.0-0.0","SS1619205530598","","","null","","","","","","<p><img src= images/blank.png width =""600"" height = ""600"" style=""position:fixed;top:50%; left:50%; transform: translate(-50%, -50%); border:5px solid black"">","","","","","","","",""
"","3392.9699999280274","sequential-stimulus-presentation-old","32","274008","0.0-13.0-1.0","SS1619205530598","trial","","40","500","3892.9699999280274","images/stimuli/spore_stims/complex_16_A_a.gif","images/stimuli/spore_stims/complex_11_A_b.gif","forced_long","","2","complex_dissimilar","images/stimuli/spore_stims/complex_11_A_b.gif","","","","",""
"","null","html-keyboard-response","33","274941","0.0-13.0-0.1","SS1619205530598","","","null","","","","","","<p><img src= images/blank.png width =""600"" height = ""600"" style=""position:fixed;top:50%; left:50%; transform: translate(-50%, -50%); border:5px solid black"">","","","","","","","",""
"","10540.180000010878","sequential-stimulus-presentation-old","34","285984","0.0-13.0-1.1","SS1619205530598","trial","","40","500","11040.180000010878","images/stimuli/spore_stims/complex_16_A_a.gif","images/stimuli/spore_stims/complex_11_A_b.gif","forced_long","","2","complex_dissimilar","images/stimuli/spore_stims/complex_11_A_b.gif","","","","",""
"","null","html-keyboard-response","35","287285","0.0-13.0-0.2","SS1619205530598","","","null","","","","","","<p><img src= images/blank.png width =""600"" height = ""600"" style=""position:fixed;top:50%; left:50%; transform: translate(-50%, -50%); border:5px solid black"">","","","","","","","",""
"","21436.370000010356","sequential-stimulus-presentation-old","36","309224","0.0-13.0-1.2","SS1619205530598","trial","","40","500","21936.370000010356","images/stimuli/spore_stims/complex_16_A_a.gif","images/stimuli/spore_stims/complex_11_A_b.gif","forced_long","","2","complex_dissimilar","images/stimuli/spore_stims/complex_16_A_a.gif","","","","",""
"","null","html-keyboard-response","37","310385","0.0-13.0-0.3","SS1619205530598","","","null","","","","","","<p><img src= images/blank.png width =""600"" height = ""600"" style=""position:fixed;top:50%; left:50%; transform: translate(-50%, -50%); border:5px solid black"">","","","","","","","",""
"","7327.099999994971","sequential-stimulus-presentation-old","38","318216","0.0-13.0-1.3","SS1619205530598","trial","","40","500","7827.099999994971","images/stimuli/spore_stims/complex_16_A_a.gif","images/stimuli/spore_stims/complex_11_A_b.gif","forced_long","","2","complex_dissimilar","images/stimuli/spore_stims/complex_11_A_b.gif","","","","",""
"","null","html-keyboard-response","39","319286","0.0-13.0-0.4","SS1619205530598","","","null","","","","","","<p><img src= images/blank.png width =""600"" height = ""600"" style=""position:fixed;top:50%; left:50%; transform: translate(-50%, -50%); border:5px solid black"">","","","","","","","",""
"","9914.705000002868","sequential-stimulus-presentation-old","40","329704","0.0-13.0-1.4","SS1619205530598","trial","","40","500","10414.705000002868","images/stimuli/spore_stims/complex_16_A_a.gif","images/stimuli/spore_stims/complex_11_A_b.gif","forced_long","","2","complex_dissimilar","images/stimuli/spore_stims/complex_16_A_a.gif","","","","",""
"","3748.245000024326","survey-multi-choice","41","333454","0.0-14.0","SS1619205530598","math_question","","","","","","","","","","","","{""Q0"":""5""}","[0]","5","",""
"","null","html-keyboard-response","42","334292","0.0-15.0-0.0","SS1619205530598","","","null","","","","","","<p><img src= images/blank.png width =""600"" height = ""600"" style=""position:fixed;top:50%; left:50%; transform: translate(-50%, -50%); border:5px solid black"">","","","","","","","",""
"","12860.325000016019","sequential-stimulus-presentation-old","43","347656","0.0-15.0-1.0","SS1619205530598","trial","","40","500","13360.325000016019","images/stimuli/spore_stims/simple_19_A_b.gif","images/stimuli/spore_stims/simple_09_A_a.gif","self_paced","","3","simple_dissimilar","images/stimuli/spore_stims/simple_09_A_a.gif","","","","",""
"","null","html-keyboard-response","44","348914","0.0-15.0-0.1","SS1619205530598","","","null","","","","","","<p><img src= images/blank.png width =""600"" height = ""600"" style=""position:fixed;top:50%; left:50%; transform: translate(-50%, -50%); border:5px solid black"">","","","","","","","",""
"","12966.549999895506","sequential-stimulus-presentation-old","45","362384","0.0-15.0-1.1","SS1619205530598","trial","","40","500","13466.549999895506","images/stimuli/spore_stims/simple_19_A_b.gif","images/stimuli/spore_stims/simple_09_A_a.gif","self_paced","","3","simple_dissimilar","images/stimuli/spore_stims/simple_19_A_b.gif","","","","",""
"","null","html-keyboard-response","46","363624","0.0-15.0-0.2","SS1619205530598","","","null","","","","","","<p><img src= images/blank.png width =""600"" height = ""600"" style=""position:fixed;top:50%; left:50%; transform: translate(-50%, -50%); border:5px solid black"">","","","","","","","",""
"","9201.965000014752","sequential-stimulus-presentation-old","47","373329","0.0-15.0-1.2","SS1619205530598","trial","","40","500","9701.965000014752","images/stimuli/spore_stims/simple_19_A_b.gif","images/stimuli/spore_stims/simple_09_A_a.gif","self_paced","","3","simple_dissimilar","images/stimuli/spore_stims/simple_09_A_a.gif","","","","",""
"","null","html-keyboard-response","48","374405","0.0-15.0-0.3","SS1619205530598","","","null","","","","","","<p><img src= images/blank.png width =""600"" height = ""600"" style=""position:fixed;top:50%; left:50%; transform: translate(-50%, -50%); border:5px solid black"">","","","","","","","",""
"","5867.295000003651","sequential-stimulus-presentation-old","49","380776","0.0-15.0-1.3","SS1619205530598","trial","","40","500","6367.295000003651","images/stimuli/spore_stims/simple_19_A_b.gif","images/stimuli/spore_stims/simple_09_A_a.gif","self_paced","","3","simple_dissimilar","images/stimuli/spore_stims/simple_09_A_a.gif","","","","",""
"","null","html-keyboard-response","50","382008","0.0-15.0-0.4","SS1619205530598","","","null","","","","","","<p><img src= images/blank.png width =""600"" height = ""600"" style=""position:fixed;top:50%; left:50%; transform: translate(-50%, -50%); border:5px solid black"">","","","","","","","",""
"","3984.8950000014156","sequential-stimulus-presentation-old","51","386496","0.0-15.0-1.4","SS1619205530598","trial","","40","500","4484.895000001416","images/stimuli/spore_stims/simple_19_A_b.gif","images/stimuli/spore_stims/simple_09_A_a.gif","self_paced","","3","simple_dissimilar","images/stimuli/spore_stims/simple_19_A_b.gif","","","","",""
"","3365.084999939427","survey-multi-choice","52","389863","0.0-16.0","SS1619205530598","math_question","","","","","","","","","","","","{""Q0"":""6""}","[0]","6","",""
"","null","html-keyboard-response","53","390838","0.0-17.0-0.0","SS1619205530598","","","null","","","","","","<p><img src= images/blank.png width =""600"" height = ""600"" style=""position:fixed;top:50%; left:50%; transform: translate(-50%, -50%); border:5px solid black"">","","","","","","","",""
"","2763.35999998264","sequential-stimulus-presentation-old","54","393704","0.0-17.0-1.0","SS1619205530598","trial","","40","500","3263.35999998264","images/stimuli/spore_stims/complex_03_A_b.gif","images/stimuli/spore_stims/complex_07_A_a.gif","forced_short","","4","complex_dissimilar","images/stimuli/spore_stims/complex_07_A_a.gif","","","","",""
"","null","html-keyboard-response","55","394704","0.0-17.0-0.1","SS1619205530598","","","null","","","","","","<p><img src= images/blank.png width =""600"" height = ""600"" style=""position:fixed;top:50%; left:50%; transform: translate(-50%, -50%); border:5px solid black"">","","","","","","","",""
"","8866.124999942258","sequential-stimulus-presentation-old","56","404073","0.0-17.0-1.1","SS1619205530598","trial","","40","500","9366.124999942258","images/stimuli/spore_stims/complex_03_A_b.gif","images/stimuli/spore_stims/complex_07_A_a.gif","forced_short","","4","complex_dissimilar","images/stimuli/spore_stims/complex_07_A_a.gif","","","","",""
"","null","html-keyboard-response","57","404929","0.0-17.0-0.2","SS1619205530598","","","null","","","","","","<p><img src= images/blank.png width =""600"" height = ""600"" style=""position:fixed;top:50%; left:50%; transform: translate(-50%, -50%); border:5px solid black"">","","","","","","","",""
"","20752.694999915548","sequential-stimulus-presentation-old","58","426184","0.0-17.0-1.2","SS1619205530598","trial","","40","500","21252.694999915548","images/stimuli/spore_stims/complex_03_A_b.gif","images/stimuli/spore_stims/complex_07_A_a.gif","forced_short","","4","complex_dissimilar","images/stimuli/spore_stims/complex_07_A_a.gif","","","","",""
"","null","html-keyboard-response","59","427201","0.0-17.0-0.3","SS1619205530598","","","null","","","","","","<p><img src= images/blank.png width =""600"" height = ""600"" style=""position:fixed;top:50%; left:50%; transform: translate(-50%, -50%); border:5px solid black"">","","","","","","","",""
"","21136.364999925718","sequential-stimulus-presentation-old","60","448840","0.0-17.0-1.3","SS1619205530598","trial","","40","500","21636.364999925718","images/stimuli/spore_stims/complex_03_A_b.gif","images/stimuli/spore_stims/complex_07_A_a.gif","forced_short","","4","complex_dissimilar","images/stimuli/spore_stims/complex_07_A_a.gif","","","","",""
"","null","html-keyboard-response","61","450093","0.0-17.0-0.4","SS1619205530598","","","null","","","","","","<p><img src= images/blank.png width =""600"" height = ""600"" style=""position:fixed;top:50%; left:50%; transform: translate(-50%, -50%); border:5px solid black"">","","","","","","","",""
"","8675.46499997843","sequential-stimulus-presentation-old","62","459272","0.0-17.0-1.4","SS1619205530598","trial","","40","500","9175.46499997843","images/stimuli/spore_stims/complex_03_A_b.gif","images/stimuli/spore_stims/complex_07_A_a.gif","forced_short","","4","complex_dissimilar","images/stimuli/spore_stims/complex_03_A_b.gif","","","","",""
"","2807.4450000422075","survey-multi-choice","63","462082","0.0-18.0","SS1619205530598","math_question","","","","","","","","","","","","{""Q0"":""7""}","[0]","7","",""
"","null","html-keyboard-response","64","463324","0.0-19.0-0.0","SS1619205530598","","","null","","","","","","<p><img src= images/blank.png width =""600"" height = ""600"" style=""position:fixed;top:50%; left:50%; transform: translate(-50%, -50%); border:5px solid black"">","","","","","","","",""
"","1948.340000002645","sequential-stimulus-presentation-old","65","465376","0.0-19.0-1.0","SS1619205530598","trial","","40","500","2448.340000002645","images/stimuli/spore_stims/simple_13_A_a.gif","images/stimuli/spore_stims/simple_07_A_b.gif","forced_short","","5","simple_dissimilar","images/stimuli/spore_stims/simple_07_A_b.gif","","","","",""
"","null","html-keyboard-response","66","466592","0.0-19.0-0.1","SS1619205530598","","","null","","","","","","<p><img src= images/blank.png width =""600"" height = ""600"" style=""position:fixed;top:50%; left:50%; transform: translate(-50%, -50%); border:5px solid black"">","","","","","","","",""
"","4086.9600001024082","sequential-stimulus-presentation-old","67","471184","0.0-19.0-1.1","SS1619205530598","trial","","40","500","4586.960000102408","images/stimuli/spore_stims/simple_13_A_a.gif","images/stimuli/spore_stims/simple_07_A_b.gif","forced_short","","5","simple_dissimilar","images/stimuli/spore_stims/simple_07_A_b.gif","","","","",""
"","null","html-keyboard-response","68","472242","0.0-19.0-0.2","SS1619205530598","","","null","","","","","","<p><img src= images/blank.png width =""600"" height = ""600"" style=""position:fixed;top:50%; left:50%; transform: translate(-50%, -50%); border:5px solid black"">","","","","","","","",""
"","2293.904999969527","sequential-stimulus-presentation-old","69","475040","0.0-19.0-1.2","SS1619205530598","trial","","40","500","2793.904999969527","images/stimuli/spore_stims/simple_13_A_a.gif","images/stimuli/spore_stims/simple_07_A_b.gif","forced_short","","5","simple_dissimilar","images/stimuli/spore_stims/simple_07_A_b.gif","","","","",""
"","null","html-keyboard-response","70","476298","0.0-19.0-0.3","SS1619205530598","","","null","","","","","","<p><img src= images/blank.png width =""600"" height = ""600"" style=""position:fixed;top:50%; left:50%; transform: translate(-50%, -50%); border:5px solid black"">","","","","","","","",""
"","5574.505000025965","sequential-stimulus-presentation-old","71","482377","0.0-19.0-1.3","SS1619205530598","trial","","40","500","6074.505000025965","images/stimuli/spore_stims/simple_13_A_a.gif","images/stimuli/spore_stims/simple_07_A_b.gif","forced_short","","5","simple_dissimilar","images/stimuli/spore_stims/simple_13_A_a.gif","","","","",""
"","2307.509999955073","survey-multi-choice","72","484686","0.0-20.0","SS1619205530598","math_question","","","","","","","","","","","","{""Q0"":""12""}","[0]","12","",""
"","null","html-keyboard-response","73","485830","0.0-21.0-0.0","SS1619205530598","","","null","","","","","","<p><img src= images/blank.png width =""600"" height = ""600"" style=""position:fixed;top:50%; left:50%; transform: translate(-50%, -50%); border:5px solid black"">","","","","","","","",""
"","1821.8900000210851","sequential-stimulus-presentation-old","74","497655","0.0-21.0-1.0","SS1619205530598","trial","","40","500","2321.890000021085","images/stimuli/spore_stims/complex_15_A_b.gif","images/stimuli/spore_stims/complex_14_A_a.gif","forced_long","","6","complex_dissimilar","images/stimuli/spore_stims/complex_14_A_a.gif","","","","",""
"","null","html-keyboard-response","75","498674","0.0-21.0-0.1","SS1619205530598","","","null","","","","","","<p><img src= images/blank.png width =""600"" height = ""600"" style=""position:fixed;top:50%; left:50%; transform: translate(-50%, -50%); border:5px solid black"">","","","","","","","",""
"","2982.810000074096","sequential-stimulus-presentation-old","76","502160","0.0-21.0-1.1","SS1619205530598","trial","","40","500","3482.810000074096","images/stimuli/spore_stims/complex_15_A_b.gif","images/stimuli/spore_stims/complex_14_A_a.gif","forced_long","","6","complex_dissimilar","images/stimuli/spore_stims/complex_14_A_a.gif","","","","",""
"","null","html-keyboard-response","77","503327","0.0-21.0-0.2","SS1619205530598","","","null","","","","","","<p><img src= images/blank.png width =""600"" height = ""600"" style=""position:fixed;top:50%; left:50%; transform: translate(-50%, -50%); border:5px solid black"">","","","","","","","",""
"","3905.4500000784174","sequential-stimulus-presentation-old","78","507736","0.0-21.0-1.2","SS1619205530598","trial","","40","500","4405.450000078417","images/stimuli/spore_stims/complex_15_A_b.gif","images/stimuli/spore_stims/complex_14_A_a.gif","forced_long","","6","complex_dissimilar","images/stimuli/spore_stims/complex_14_A_a.gif","","","","",""
"","null","html-keyboard-response","79","508627","0.0-21.0-0.3","SS1619205530598","","","null","","","","","","<p><img src= images/blank.png width =""600"" height = ""600"" style=""position:fixed;top:50%; left:50%; transform: translate(-50%, -50%); border:5px solid black"">","","","","","","","",""
"","3237.005000002682","sequential-stimulus-presentation-old","80","512368","0.0-21.0-1.3","SS1619205530598","trial","","40","500","3737.005000002682","images/stimuli/spore_stims/complex_15_A_b.gif","images/stimuli/spore_stims/complex_14_A_a.gif","forced_long","","6","complex_dissimilar","images/stimuli/spore_stims/complex_14_A_a.gif","","","","",""
"","6174.195000086911","survey-multi-choice","81","518544","0.0-22.0","SS1619205530598","math_question","","","","","","","","","","","","{""Q0"":""17""}","[0]","17","",""
"","null","html-keyboard-response","82","519842","0.0-23.0-0.0","SS1619205530598","","","null","","","","","","<p><img src= images/blank.png width =""600"" height = ""600"" style=""position:fixed;top:50%; left:50%; transform: translate(-50%, -50%); border:5px solid black"">","","","","","","","",""
"","1332.2400000179186","sequential-stimulus-presentation-old","83","521280","0.0-23.0-1.0","SS1619205530598","trial","","40","500","1832.2400000179186","images/stimuli/spore_stims/complex_20_A_a.gif","images/stimuli/spore_stims/complex_16_A_b.gif","forced_short","","7","complex_dissimilar","images/stimuli/spore_stims/complex_16_A_b.gif","","","","",""
"","null","html-keyboard-response","84","522557","0.0-23.0-0.1","SS1619205530598","","","null","","","","","","<p><img src= images/blank.png width =""600"" height = ""600"" style=""position:fixed;top:50%; left:50%; transform: translate(-50%, -50%); border:5px solid black"">","","","","","","","",""
"","4834.524999954738","sequential-stimulus-presentation-old","85","527895","0.0-23.0-1.1","SS1619205530598","trial","","40","500","5334.524999954738","images/stimuli/spore_stims/complex_20_A_a.gif","images/stimuli/spore_stims/complex_16_A_b.gif","forced_short","","7","complex_dissimilar","images/stimuli/spore_stims/complex_16_A_b.gif","","","","",""
"","null","html-keyboard-response","86","528817","0.0-23.0-0.2","SS1619205530598","","","null","","","","","","<p><img src= images/blank.png width =""600"" height = ""600"" style=""position:fixed;top:50%; left:50%; transform: translate(-50%, -50%); border:5px solid black"">","","","","","","","",""
"","2727.0750000607222","sequential-stimulus-presentation-old","87","532048","0.0-23.0-1.2","SS1619205530598","trial","","40","500","3227.0750000607222","images/stimuli/spore_stims/complex_20_A_a.gif","images/stimuli/spore_stims/complex_16_A_b.gif","forced_short","","7","complex_dissimilar","images/stimuli/spore_stims/complex_16_A_b.gif","","","","",""
"","null","html-keyboard-response","88","533075","0.0-23.0-0.3","SS1619205530598","","","null","","","","","","<p><img src= images/blank.png width =""600"" height = ""600"" style=""position:fixed;top:50%; left:50%; transform: translate(-50%, -50%); border:5px solid black"">","","","","","","","",""
"","3620.8450000267476","sequential-stimulus-presentation-old","89","537200","0.0-23.0-1.3","SS1619205530598","trial","","40","500","4120.845000026748","images/stimuli/spore_stims/complex_20_A_a.gif","images/stimuli/spore_stims/complex_16_A_b.gif","forced_short","","7","complex_dissimilar","images/stimuli/spore_stims/complex_16_A_b.gif","","","","",""
"","null","html-keyboard-response","90","538061","0.0-23.0-0.4","SS1619205530598","","","null","","","","","","<p><img src= images/blank.png width =""600"" height = ""600"" style=""position:fixed;top:50%; left:50%; transform: translate(-50%, -50%); border:5px solid black"">","","","","","","","",""
"","2707.3050000471994","sequential-stimulus-presentation-old","91","541272","0.0-23.0-1.4","SS1619205530598","trial","","40","500","3207.3050000471994","images/stimuli/spore_stims/complex_20_A_a.gif","images/stimuli/spore_stims/complex_16_A_b.gif","forced_short","","7","complex_dissimilar","images/stimuli/spore_stims/complex_16_A_b.gif","","","","",""
"","2557.9049999359995","survey-multi-choice","92","543832","0.0-24.0","SS1619205530598","math_question","","","","","","","","","","","","{""Q0"":""10""}","[0]","10","",""
"","null","html-keyboard-response","93","544771","0.0-25.0-0.0","SS1619205530598","","","null","","","","","","<p><img src= images/blank.png width =""600"" height = ""600"" style=""position:fixed;top:50%; left:50%; transform: translate(-50%, -50%); border:5px solid black"">","","","","","","","",""
"","5245.66000001505","sequential-stimulus-presentation-old","94","550520","0.0-25.0-1.0","SS1619205530598","trial","","40","500","5745.66000001505","images/stimuli/spore_stims/complex_18_A_a.gif","images/stimuli/spore_stims/complex_05_A_b.gif","self_paced","","8","complex_dissimilar","images/stimuli/spore_stims/complex_05_A_b.gif","","","","",""
"","null","html-keyboard-response","95","551470","0.0-25.0-0.1","SS1619205530598","","","null","","","","","","<p><img src= images/blank.png width =""600"" height = ""600"" style=""position:fixed;top:50%; left:50%; transform: translate(-50%, -50%); border:5px solid black"">","","","","","","","",""
"","5793.90000004787","sequential-stimulus-presentation-old","96","557768","0.0-25.0-1.1","SS1619205530598","trial","","40","500","6293.90000004787","images/stimuli/spore_stims/complex_18_A_a.gif","images/stimuli/spore_stims/complex_05_A_b.gif","self_paced","","8","complex_dissimilar","images/stimuli/spore_stims/complex_18_A_a.gif","","","","",""
"","null","html-keyboard-response","97","558924","0.0-25.0-0.2","SS1619205530598","","","null","","","","","","<p><img src= images/blank.png width =""600"" height = ""600"" style=""position:fixed;top:50%; left:50%; transform: translate(-50%, -50%); border:5px solid black"">","","","","","","","",""
"","925.1299999887124","sequential-stimulus-presentation-old","98","560352","0.0-25.0-1.2","SS1619205530598","trial","","40","500","1425.1299999887124","images/stimuli/spore_stims/complex_18_A_a.gif","images/stimuli/spore_stims/complex_05_A_b.gif","self_paced","","8","complex_dissimilar","images/stimuli/spore_stims/complex_05_A_b.gif","","","","",""
"","null","html-keyboard-response","99","561381","0.0-25.0-0.3","SS1619205530598","","","null","","","","","","<p><img src= images/blank.png width =""600"" height = ""600"" style=""position:fixed;top:50%; left:50%; transform: translate(-50%, -50%); border:5px solid black"">","","","","","","","",""
"","1218.5349999926984","sequential-stimulus-presentation-old","100","563104","0.0-25.0-1.3","SS1619205530598","trial","","40","500","1718.5349999926984","images/stimuli/spore_stims/complex_18_A_a.gif","images/stimuli/spore_stims/complex_05_A_b.gif","self_paced","","8","complex_dissimilar","images/stimuli/spore_stims/complex_05_A_b.gif","","","","",""
"","null","html-keyboard-response","101","564372","0.0-25.0-0.4","SS1619205530598","","","null","","","","","","<p><img src= images/blank.png width =""600"" height = ""600"" style=""position:fixed;top:50%; left:50%; transform: translate(-50%, -50%); border:5px solid black"">","","","","","","","",""
"","2813.3399999933317","sequential-stimulus-presentation-old","102","567688","0.0-25.0-1.4","SS1619205530598","trial","","40","500","3313.3399999933317","images/stimuli/spore_stims/complex_18_A_a.gif","images/stimuli/spore_stims/complex_05_A_b.gif","self_paced","","8","complex_dissimilar","images/stimuli/spore_stims/complex_18_A_a.gif","","","","",""
"","9454.670000006445","survey-multi-choice","103","577145","0.0-26.0","SS1619205530598","math_question","","","","","","","","","","","","{""Q0"":""13""}","[0]","13","",""
"","null","html-keyboard-response","104","578280","0.0-27.0-0.0","SS1619205530598","","","null","","","","","","<p><img src= images/blank.png width =""600"" height = ""600"" style=""position:fixed;top:50%; left:50%; transform: translate(-50%, -50%); border:5px solid black"">","","","","","","","",""
"","600.0650000059977","sequential-stimulus-presentation-old","105","579384","0.0-27.0-1.0","SS1619205530598","trial","","40","500","1100.0650000059977","images/stimuli/spore_stims/simple_03_A_b.gif","images/stimuli/spore_stims/simple_05_A_a.gif","self_paced","","9","simple_dissimilar","images/stimuli/spore_stims/simple_05_A_a.gif","","","","",""
"","null","html-keyboard-response","106","580272","0.0-27.0-0.1","SS1619205530598","","","null","","","","","","<p><img src= images/blank.png width =""600"" height = ""600"" style=""position:fixed;top:50%; left:50%; transform: translate(-50%, -50%); border:5px solid black"">","","","","","","","",""
"","1743.2300000218675","sequential-stimulus-presentation-old","107","582520","0.0-27.0-1.1","SS1619205530598","trial","","40","500","2243.2300000218675","images/stimuli/spore_stims/simple_03_A_b.gif","images/stimuli/spore_stims/simple_05_A_a.gif","self_paced","","9","simple_dissimilar","images/stimuli/spore_stims/simple_03_A_b.gif","","","","",""
"","null","html-keyboard-response","108","583379","0.0-27.0-0.2","SS1619205530598","","","null","","","","","","<p><img src= images/blank.png width =""600"" height = ""600"" style=""position:fixed;top:50%; left:50%; transform: translate(-50%, -50%); border:5px solid black"">","","","","","","","",""
"","4389.775000046939","sequential-stimulus-presentation-old","109","588272","0.0-27.0-1.2","SS1619205530598","trial","","40","500","4889.775000046939","images/stimuli/spore_stims/simple_03_A_b.gif","images/stimuli/spore_stims/simple_05_A_a.gif","self_paced","","9","simple_dissimilar","images/stimuli/spore_stims/simple_03_A_b.gif","","","","",""
"","null","html-keyboard-response","110","589084","0.0-27.0-0.3","SS1619205530598","","","null","","","","","","<p><img src= images/blank.png width =""600"" height = ""600"" style=""position:fixed;top:50%; left:50%; transform: translate(-50%, -50%); border:5px solid black"">","","","","","","","",""
"","3315.8400000538677","sequential-stimulus-presentation-old","111","592904","0.0-27.0-1.3","SS1619205530598","trial","","40","500","3815.8400000538677","images/stimuli/spore_stims/simple_03_A_b.gif","images/stimuli/spore_stims/simple_05_A_a.gif","self_paced","","9","simple_dissimilar","images/stimuli/spore_stims/simple_05_A_a.gif","","","","",""
"","null","html-keyboard-response","112","593818","0.0-27.0-0.4","SS1619205530598","","","null","","","","","","<p><img src= images/blank.png width =""600"" height = ""600"" style=""position:fixed;top:50%; left:50%; transform: translate(-50%, -50%); border:5px solid black"">","","","","","","","",""
"","4348.814999917522","sequential-stimulus-presentation-old","113","598671","0.0-27.0-1.4","SS1619205530598","trial","","40","500","4848.814999917522","images/stimuli/spore_stims/simple_03_A_b.gif","images/stimuli/spore_stims/simple_05_A_a.gif","self_paced","","9","simple_dissimilar","images/stimuli/spore_stims/simple_05_A_a.gif","","","","",""
"","2352.049999986775","survey-multi-choice","114","601026","0.0-28.0","SS1619205530598","math_question","","","","","","","","","","","","{""Q0"":""12""}","[0]","12","",""
"","null","html-keyboard-response","115","601912","0.0-29.0-0.0","SS1619205530598","","","null","","","","","","<p><img src= images/blank.png width =""600"" height = ""600"" style=""position:fixed;top:50%; left:50%; transform: translate(-50%, -50%); border:5px solid black"">","","","","","","","",""
"","2746.984999976121","sequential-stimulus-presentation-old","116","614663","0.0-29.0-1.0","SS1619205530598","trial","","40","500","3246.984999976121","images/stimuli/spore_stims/simple_16_A_a.gif","images/stimuli/spore_stims/simple_11_A_b.gif","forced_long","","10","simple_dissimilar","images/stimuli/spore_stims/simple_11_A_b.gif","","","","",""
"","null","html-keyboard-response","117","615632","0.0-29.0-0.1","SS1619205530598","","","null","","","","","","<p><img src= images/blank.png width =""600"" height = ""600"" style=""position:fixed;top:50%; left:50%; transform: translate(-50%, -50%); border:5px solid black"">","","","","","","","",""
"","1974.88999995403","sequential-stimulus-presentation-old","118","618111","0.0-29.0-1.1","SS1619205530598","trial","","40","500","2474.88999995403","images/stimuli/spore_stims/simple_16_A_a.gif","images/stimuli/spore_stims/simple_11_A_b.gif","forced_long","","10","simple_dissimilar","images/stimuli/spore_stims/simple_11_A_b.gif","","","","",""
"","null","html-keyboard-response","119","619270","0.0-29.0-0.2","SS1619205530598","","","null","","","","","","<p><img src= images/blank.png width =""600"" height = ""600"" style=""position:fixed;top:50%; left:50%; transform: translate(-50%, -50%); border:5px solid black"">","","","","","","","",""
"","1258.1500000087544","sequential-stimulus-presentation-old","120","621031","0.0-29.0-1.2","SS1619205530598","trial","","40","500","1758.1500000087544","images/stimuli/spore_stims/simple_16_A_a.gif","images/stimuli/spore_stims/simple_11_A_b.gif","forced_long","","10","simple_dissimilar","images/stimuli/spore_stims/simple_11_A_b.gif","","","","",""
"","null","html-keyboard-response","121","621860","0.0-29.0-0.3","SS1619205530598","","","null","","","","","","<p><img src= images/blank.png width =""600"" height = ""600"" style=""position:fixed;top:50%; left:50%; transform: translate(-50%, -50%); border:5px solid black"">","","","","","","","",""
"","2971.8400000128895","sequential-stimulus-presentation-old","122","625336","0.0-29.0-1.3","SS1619205530598","trial","","40","500","3471.8400000128895","images/stimuli/spore_stims/simple_16_A_a.gif","images/stimuli/spore_stims/simple_11_A_b.gif","forced_long","","10","simple_dissimilar","images/stimuli/spore_stims/simple_16_A_a.gif","","","","",""
"","3592.685000039637","survey-multi-choice","123","628931","0.0-30.0","SS1619205530598","math_question","","","","","","","","","","","","{""Q0"":""8""}","[0]","8","",""
"","null","html-keyboard-response","124","629955","0.0-31.0-0.0","SS1619205530598","","","null","","","","","","<p><img src= images/blank.png width =""600"" height = ""600"" style=""position:fixed;top:50%; left:50%; transform: translate(-50%, -50%); border:5px solid black"">","","","","","","","",""
"","223.06999994907528","sequential-stimulus-presentation-old","125","640183","0.0-31.0-1.0","SS1619205530598","trial","","40","500","723.0699999490753","images/stimuli/spore_stims/simple_15_A_b.gif","images/stimuli/spore_stims/simple_17_A_a.gif","forced_long","","11","simple_dissimilar","images/stimuli/spore_stims/simple_17_A_a.gif","","","","",""
"","null","html-keyboard-response","126","641243","0.0-31.0-0.1","SS1619205530598","","","null","","","","","","<p><img src= images/blank.png width =""600"" height = ""600"" style=""position:fixed;top:50%; left:50%; transform: translate(-50%, -50%); border:5px solid black"">","","","","","","","",""
"","3083.9500000001863","sequential-stimulus-presentation-old","127","644831","0.0-31.0-1.1","SS1619205530598","trial","","40","500","3583.9500000001863","images/stimuli/spore_stims/simple_15_A_b.gif","images/stimuli/spore_stims/simple_17_A_a.gif","forced_long","","11","simple_dissimilar","images/stimuli/spore_stims/simple_17_A_a.gif","","","","",""
"","null","html-keyboard-response","128","646093","0.0-31.0-0.2","SS1619205530598","","","null","","","","","","<p><img src= images/blank.png width =""600"" height = ""600"" style=""position:fixed;top:50%; left:50%; transform: translate(-50%, -50%); border:5px solid black"">","","","","","","","",""
"","2378.150000004098","sequential-stimulus-presentation-old","129","648975","0.0-31.0-1.2","SS1619205530598","trial","","40","500","2878.150000004098","images/stimuli/spore_stims/simple_15_A_b.gif","images/stimuli/spore_stims/simple_17_A_a.gif","forced_long","","11","simple_dissimilar","images/stimuli/spore_stims/simple_17_A_a.gif","","","","",""
"","null","html-keyboard-response","130","650095","0.0-31.0-0.3","SS1619205530598","","","null","","","","","","<p><img src= images/blank.png width =""600"" height = ""600"" style=""position:fixed;top:50%; left:50%; transform: translate(-50%, -50%); border:5px solid black"">","","","","","","","",""
"","1871.9699999783188","sequential-stimulus-presentation-old","131","652471","0.0-31.0-1.3","SS1619205530598","trial","","40","500","2371.969999978319","images/stimuli/spore_stims/simple_15_A_b.gif","images/stimuli/spore_stims/simple_17_A_a.gif","forced_long","","11","simple_dissimilar","images/stimuli/spore_stims/simple_17_A_a.gif","","","","",""
"[{""page_index"":0,""viewing_time"":6540.474999928847}]","6540.939999977127","instructions","132","659014","0.0-32.0","SS1619205530598","instructions","","","","","","","","","","","","","","","",""
"","13767.724999925122","survey-likert","133","672785","0.0-33.0","SS1619205530598","similarity_question","","","","","","","","","","","","{""Q0"":4}","[0]","","images/stimuli/spore_stims/complex_14_A_a.gif","images/stimuli/spore_stims/complex_15_A_b.gif"
"","7857.889999984764","survey-likert","134","680645","0.0-34.0","SS1619205530598","similarity_question","","","","","","","","","","","","{""Q0"":5}","[0]","","images/stimuli/spore_stims/complex_11_A_b.gif","images/stimuli/spore_stims/complex_16_A_a.gif"
"","5218.374999938533","survey-likert","135","685865","0.0-35.0","SS1619205530598","similarity_question","","","","","","","","","","","","{""Q0"":6}","[0]","","images/stimuli/spore_stims/simple_15_A_b.gif","images/stimuli/spore_stims/simple_17_A_a.gif"
"","5769.004999892786","survey-likert","136","691637","0.0-36.0","SS1619205530598","similarity_question","","","","","","","","","","","","{""Q0"":5}","[0]","","images/stimuli/spore_stims/simple_07_A_b.gif","images/stimuli/spore_stims/simple_13_A_a.gif"
"","7209.060000022873","survey-likert","137","698848","0.0-37.0","SS1619205530598","similarity_question","","","","","","","","","","","","{""Q0"":1}","[0]","","images/stimuli/spore_stims/complex_20_A_a.gif","images/stimuli/spore_stims/complex_16_A_b.gif"
"","7355.325000011362","survey-likert","138","706207","0.0-38.0","SS1619205530598","similarity_question","","","","","","","","","","","","{""Q0"":1}","[0]","","images/stimuli/spore_stims/complex_18_A_a.gif","images/stimuli/spore_stims/complex_05_A_b.gif"
"","4801.025000051595","survey-likert","139","711010","0.0-39.0","SS1619205530598","similarity_question","","","","","","","","","","","","{""Q0"":6}","[0]","","images/stimuli/spore_stims/complex_19_A_a.gif","images/stimuli/spore_stims/complex_10_A_b.gif"
"","3401.570000103675","survey-likert","140","714413","0.0-40.0","SS1619205530598","similarity_question","","","","","","","","","","","","{""Q0"":6}","[0]","","images/stimuli/spore_stims/simple_11_A_b.gif","images/stimuli/spore_stims/simple_16_A_a.gif"
"","3993.999999947846","survey-likert","141","718410","0.0-41.0","SS1619205530598","similarity_question","","","","","","","","","","","","{""Q0"":6}","[0]","","images/stimuli/spore_stims/simple_05_A_a.gif","images/stimuli/spore_stims/simple_03_A_b.gif"
"","8544.514999957755","survey-likert","142","726957","0.0-42.0","SS1619205530598","similarity_question","","","","","","","","","","","","{""Q0"":5}","[0]","","images/stimuli/spore_stims/simple_19_A_b.gif","images/stimuli/spore_stims/simple_09_A_a.gif"
"","4353.665000060573","survey-likert","143","731313","0.0-43.0","SS1619205530598","similarity_question","","","","","","","","","","","","{""Q0"":5}","[0]","","images/stimuli/spore_stims/complex_03_A_b.gif","images/stimuli/spore_stims/complex_07_A_a.gif"
"","4046.8150000087917","survey-likert","144","735362","0.0-44.0","SS1619205530598","similarity_question","","","","","","","","","","","","{""Q0"":4}","[0]","","images/stimuli/spore_stims/simple_19_A_a.gif","images/stimuli/spore_stims/simple_04_A_b.gif"
"[{""page_index"":0,""viewing_time"":3576.5299999620765}]","3576.7800000030547","instructions","145","738941","0.0-45.0","SS1619205530598","instructions","","","","","","","","","","","","","","","",""
"","4232.115000020713","survey-likert","146","743175","0.0-46.0","SS1619205530598","","","","","","","","","images/stimuli/spore_stims/complex_16_A_b.gif","","","","{""Q0"":5}","[0]","","",""
"","3229.4700000202283","survey-likert","147","746407","0.0-47.0","SS1619205530598","","","","","","","","","images/stimuli/spore_stims/simple_07_A_b.gif","","","","{""Q0"":1}","[0]","","",""
"","2787.38999995403","survey-likert","148","749197","0.0-48.0","SS1619205530598","","","","","","","","","images/stimuli/spore_stims/simple_19_A_b.gif","","","","{""Q0"":2}","[0]","","",""
"","11549.520000000484","survey-likert","149","760749","0.0-49.0","SS1619205530598","","","","","","","","","images/stimuli/spore_stims/complex_15_A_b.gif","","","","{""Q0"":6}","[0]","","",""
"","2568.684999947436","survey-likert","150","763320","0.0-50.0","SS1619205530598","","","","","","","","","images/stimuli/spore_stims/complex_18_A_a.gif","","","","{""Q0"":6}","[0]","","",""
"","3703.095000004396","survey-likert","151","767026","0.0-51.0","SS1619205530598","","","","","","","","","images/stimuli/spore_stims/simple_05_A_a.gif","","","","{""Q0"":0}","[0]","","",""
"","2167.53500001505","survey-likert","152","769196","0.0-52.0","SS1619205530598","","","","","","","","","images/stimuli/spore_stims/simple_04_A_b.gif","","","","{""Q0"":1}","[0]","","",""
"","2204.329999978654","survey-likert","153","771403","0.0-53.0","SS1619205530598","","","","","","","","","images/stimuli/spore_stims/complex_07_A_a.gif","","","","{""Q0"":6}","[0]","","",""
"","2538.7099999934435","survey-likert","154","773945","0.0-54.0","SS1619205530598","","","","","","","","","images/stimuli/spore_stims/complex_10_A_b.gif","","","","{""Q0"":6}","[0]","","",""
"","3161.1299999058247","survey-likert","155","777108","0.0-55.0","SS1619205530598","","","","","","","","","images/stimuli/spore_stims/complex_11_A_b.gif","","","","{""Q0"":6}","[0]","","",""
"","2571.9950000056997","survey-likert","156","779683","0.0-56.0","SS1619205530598","","","","","","","","","images/stimuli/spore_stims/simple_16_A_a.gif","","","","{""Q0"":2}","[0]","","",""
"","3214.8700000252575","survey-likert","157","782900","0.0-57.0","SS1619205530598","","","","","","","","","images/stimuli/spore_stims/simple_17_A_a.gif","","","","{""Q0"":2}","[0]","","",""
"[{""page_index"":0,""viewing_time"":2741.9750000117347}]","2742.22999997437","instructions","158","785644","0.0-58.0","SS1619205530598","instructions","","","","","","","","","","","","","","","",""
"","4214.544999995269","demog-age","159","789862","0.0-59.0","SS1619205530598","","","","","","","","","","","","","{""age"":""42""}","","","",""
"","4565.130000002682","demog-ethnic-US","160","794431","0.0-60.0","SS1619205530598","","","","","","","","","","","","","{""ethnicity"":[""White""]}","[0]","","",""
"","15469.92499998305","demog-gender-and-education","161","809904","0.0-61.0","SS1619205530598","","","","","","","","","","","","","{""gender"":""Female"",""education"":""High school diploma""}","[0,1]","","",""
"","6171.704999986105","survey-text","162","816078","0.0-62.0","SS1619205530598","feedback","","","","","","","","","","","","{""Q0"":""no""}","","","",""
"[{""page_index"":0,""viewing_time"":1287.2050000587478}]","1287.415000027977","instructions","163","817368","0.0-63.0","SS1619205530598","instructions","","","","","","","","","","","","","","","",""
