"view_history","rt","trial_type","trial_index","time_elapsed","internal_node_id","subject","stimulus_type","trial_stimulus","key_press","minimum_viewing_duration","trial_looking_time","block_deviant","block_background","exposure_type","stimulus","block_number","block_type","stimulus_displayed","responses","question_order","math_correct_answer","stimulus_left","stimulus_right"
"[{""page_index"":0,""viewing_time"":5097.8049999994255}]","5099.3949999992765","instructions","0","5108","0.0-0.0","SS1619205402694","","","","","","","","","","","","","","","","",""
"[{""page_index"":0,""viewing_time"":16226.945000000342},{""page_index"":1,""viewing_time"":10228.699999999662}]","26456.555000000662","instructions","1","33571","0.0-1.0","SS1619205402694","instructions","","","","","","","","","","","","","","","",""
"","9868.35500000052","sequential-stimulus-presentation-old","2","43953","0.0-2.0","SS1619205402694","","","40","500","10368.35500000052","null","null","self_paced","","","","","","","","",""
"","4906.944999998814","sequential-stimulus-presentation-old","3","49372","0.0-3.0","SS1619205402694","","","40","500","5406.944999998814","null","null","self_paced","","","","","","","","",""
"[{""page_index"":0,""viewing_time"":27160.964999999123}]","27161.700000000565","instructions","4","76540","0.0-4.0","SS1619205402694","instructions","","","","","","","","","","","","","","","",""
"","872.655000001032","sequential-stimulus-presentation-old","5","87426","0.0-5.0","SS1619205402694","","","40","500","1372.655000001032","null","null","forced_long","","","","","","","","",""
"","5597.439999999551","sequential-stimulus-presentation-old","6","93134","0.0-6.0","SS1619205402694","","","40","500","6097.439999999551","null","null","forced_long","","","","","","","","",""
"[{""page_index"":0,""viewing_time"":4812.229999999545}]","4812.934999999925","instructions","7","97949","0.0-7.0","SS1619205402694","instructions","","","","","","","","","","","","","","","",""
"[{""page_index"":0,""viewing_time"":8948.58000000022},{""page_index"":1,""viewing_time"":23499.57999999968},{""page_index"":2,""viewing_time"":9856.36999999953},{""page_index"":3,""viewing_time"":1940.075000000419},{""page_index"":4,""viewing_time"":1609.7250000002678}]","45854.99499999969","instructions","8","143807","0.0-8.0","SS1619205402694","instructions","","","","","","","","","","","","","","","",""
"","null","html-keyboard-response","9","145054","0.0-9.0-0.0","SS1619205402694","","","null","","","","","","<p><img src= images/blank.png width =""600"" height = ""600"" style=""position:fixed;top:50%; left:50%; transform: translate(-50%, -50%); border:5px solid black"">","","","","","","","",""
"","591.1450000003388","sequential-stimulus-presentation-old","10","155663","0.0-9.0-1.0","SS1619205402694","trial","","40","500","1091.1450000003388","images/stimuli/spore_stims/complex_16_A_b.gif","images/stimuli/spore_stims/complex_09_A_a.gif","forced_long","","0","complex_dissimilar","images/stimuli/spore_stims/complex_09_A_a.gif","","","","",""
"","null","html-keyboard-response","11","156640","0.0-9.0-0.1","SS1619205402694","","","null","","","","","","<p><img src= images/blank.png width =""600"" height = ""600"" style=""position:fixed;top:50%; left:50%; transform: translate(-50%, -50%); border:5px solid black"">","","","","","","","",""
"","35980.30999999901","sequential-stimulus-presentation-old","12","193133","0.0-9.0-1.1","SS1619205402694","trial","","40","500","36480.30999999901","images/stimuli/spore_stims/complex_16_A_b.gif","images/stimuli/spore_stims/complex_09_A_a.gif","forced_long","","0","complex_dissimilar","images/stimuli/spore_stims/complex_09_A_a.gif","","","","",""
"","null","html-keyboard-response","13","194371","0.0-9.0-0.2","SS1619205402694","","","null","","","","","","<p><img src= images/blank.png width =""600"" height = ""600"" style=""position:fixed;top:50%; left:50%; transform: translate(-50%, -50%); border:5px solid black"">","","","","","","","",""
"","16713.52499999921","sequential-stimulus-presentation-old","14","211599","0.0-9.0-1.2","SS1619205402694","trial","","40","500","17213.52499999921","images/stimuli/spore_stims/complex_16_A_b.gif","images/stimuli/spore_stims/complex_09_A_a.gif","forced_long","","0","complex_dissimilar","images/stimuli/spore_stims/complex_09_A_a.gif","","","","",""
"","null","html-keyboard-response","15","212702","0.0-9.0-0.3","SS1619205402694","","","null","","","","","","<p><img src= images/blank.png width =""600"" height = ""600"" style=""position:fixed;top:50%; left:50%; transform: translate(-50%, -50%); border:5px solid black"">","","","","","","","",""
"","7490.805000001274","sequential-stimulus-presentation-old","16","220717","0.0-9.0-1.3","SS1619205402694","trial","","40","500","7990.805000001274","images/stimuli/spore_stims/complex_16_A_b.gif","images/stimuli/spore_stims/complex_09_A_a.gif","forced_long","","0","complex_dissimilar","images/stimuli/spore_stims/complex_09_A_a.gif","","","","",""
"","5684.215000001132","survey-multi-choice","17","226413","0.0-10.0","SS1619205402694","math_question","","","","","","","","","","","","{""Q0"":""15""}","[0]","15","",""
"","null","html-keyboard-response","18","227662","0.0-11.0-0.0","SS1619205402694","","","null","","","","","","<p><img src= images/blank.png width =""600"" height = ""600"" style=""position:fixed;top:50%; left:50%; transform: translate(-50%, -50%); border:5px solid black"">","","","","","","","",""
"","20862.65499999898","sequential-stimulus-presentation-old","19","249050","0.0-11.0-1.0","SS1619205402694","trial","","40","500","21362.65499999898","images/stimuli/spore_stims/complex_17_A_a.gif","images/stimuli/spore_stims/complex_07_A_b.gif","self_paced","","1","complex_dissimilar","images/stimuli/spore_stims/complex_07_A_b.gif","","","","",""
"","null","html-keyboard-response","20","250282","0.0-11.0-0.1","SS1619205402694","","","null","","","","","","<p><img src= images/blank.png width =""600"" height = ""600"" style=""position:fixed;top:50%; left:50%; transform: translate(-50%, -50%); border:5px solid black"">","","","","","","","",""
"","9365.979999998643","sequential-stimulus-presentation-old","21","260168","0.0-11.0-1.1","SS1619205402694","trial","","40","500","9865.979999998643","images/stimuli/spore_stims/complex_17_A_a.gif","images/stimuli/spore_stims/complex_07_A_b.gif","self_paced","","1","complex_dissimilar","images/stimuli/spore_stims/complex_17_A_a.gif","","","","",""
"","null","html-keyboard-response","22","261212","0.0-11.0-0.2","SS1619205402694","","","null","","","","","","<p><img src= images/blank.png width =""600"" height = ""600"" style=""position:fixed;top:50%; left:50%; transform: translate(-50%, -50%); border:5px solid black"">","","","","","","","",""
"","2780.3199999998324","sequential-stimulus-presentation-old","23","264505","0.0-11.0-1.2","SS1619205402694","trial","","40","500","3280.3199999998324","images/stimuli/spore_stims/complex_17_A_a.gif","images/stimuli/spore_stims/complex_07_A_b.gif","self_paced","","1","complex_dissimilar","images/stimuli/spore_stims/complex_07_A_b.gif","","","","",""
"","null","html-keyboard-response","24","265407","0.0-11.0-0.3","SS1619205402694","","","null","","","","","","<p><img src= images/blank.png width =""600"" height = ""600"" style=""position:fixed;top:50%; left:50%; transform: translate(-50%, -50%); border:5px solid black"">","","","","","","","",""
"","3808.3700000006356","sequential-stimulus-presentation-old","25","269735","0.0-11.0-1.3","SS1619205402694","trial","","40","500","4308.370000000636","images/stimuli/spore_stims/complex_17_A_a.gif","images/stimuli/spore_stims/complex_07_A_b.gif","self_paced","","1","complex_dissimilar","images/stimuli/spore_stims/complex_07_A_b.gif","","","","",""
"","null","html-keyboard-response","26","270922","0.0-11.0-0.4","SS1619205402694","","","null","","","","","","<p><img src= images/blank.png width =""600"" height = ""600"" style=""position:fixed;top:50%; left:50%; transform: translate(-50%, -50%); border:5px solid black"">","","","","","","","",""
"","2013.119999999646","sequential-stimulus-presentation-old","27","273448","0.0-11.0-1.4","SS1619205402694","trial","","40","500","2513.119999999646","images/stimuli/spore_stims/complex_17_A_a.gif","images/stimuli/spore_stims/complex_07_A_b.gif","self_paced","","1","complex_dissimilar","images/stimuli/spore_stims/complex_07_A_b.gif","","","","",""
"","null","html-keyboard-response","28","274421","0.0-11.0-0.5","SS1619205402694","","","null","","","","","","<p><img src= images/blank.png width =""600"" height = ""600"" style=""position:fixed;top:50%; left:50%; transform: translate(-50%, -50%); border:5px solid black"">","","","","","","","",""
"","5514.295000000857","sequential-stimulus-presentation-old","29","280451","0.0-11.0-1.5","SS1619205402694","trial","","40","500","6014.295000000857","images/stimuli/spore_stims/complex_17_A_a.gif","images/stimuli/spore_stims/complex_07_A_b.gif","self_paced","","1","complex_dissimilar","images/stimuli/spore_stims/complex_17_A_a.gif","","","","",""
"","4450.525000000256","survey-multi-choice","30","284911","0.0-12.0","SS1619205402694","math_question","","","","","","","","","","","","{""Q0"":""10""}","[0]","10","",""
"","null","html-keyboard-response","31","285954","0.0-13.0-0.0","SS1619205402694","","","null","","","","","","<p><img src= images/blank.png width =""600"" height = ""600"" style=""position:fixed;top:50%; left:50%; transform: translate(-50%, -50%); border:5px solid black"">","","","","","","","",""
"","1197.4399999999441","sequential-stimulus-presentation-old","32","287276","0.0-13.0-1.0","SS1619205402694","trial","","40","500","1697.4399999999441","images/stimuli/spore_stims/simple_01_A_b.gif","images/stimuli/spore_stims/simple_06_A_a.gif","forced_short","","2","simple_dissimilar","images/stimuli/spore_stims/simple_06_A_a.gif","","","","",""
"","null","html-keyboard-response","33","288561","0.0-13.0-0.1","SS1619205402694","","","null","","","","","","<p><img src= images/blank.png width =""600"" height = ""600"" style=""position:fixed;top:50%; left:50%; transform: translate(-50%, -50%); border:5px solid black"">","","","","","","","",""
"","6018.495000000228","sequential-stimulus-presentation-old","34","295094","0.0-13.0-1.1","SS1619205402694","trial","","40","500","6518.495000000228","images/stimuli/spore_stims/simple_01_A_b.gif","images/stimuli/spore_stims/simple_06_A_a.gif","forced_short","","2","simple_dissimilar","images/stimuli/spore_stims/simple_06_A_a.gif","","","","",""
"","null","html-keyboard-response","35","296120","0.0-13.0-0.2","SS1619205402694","","","null","","","","","","<p><img src= images/blank.png width =""600"" height = ""600"" style=""position:fixed;top:50%; left:50%; transform: translate(-50%, -50%); border:5px solid black"">","","","","","","","",""
"","4876.809999999765","sequential-stimulus-presentation-old","36","301512","0.0-13.0-1.2","SS1619205402694","trial","","40","500","5376.809999999765","images/stimuli/spore_stims/simple_01_A_b.gif","images/stimuli/spore_stims/simple_06_A_a.gif","forced_short","","2","simple_dissimilar","images/stimuli/spore_stims/simple_06_A_a.gif","","","","",""
"","null","html-keyboard-response","37","302498","0.0-13.0-0.3","SS1619205402694","","","null","","","","","","<p><img src= images/blank.png width =""600"" height = ""600"" style=""position:fixed;top:50%; left:50%; transform: translate(-50%, -50%); border:5px solid black"">","","","","","","","",""
"","3665.4600000001374","sequential-stimulus-presentation-old","38","306685","0.0-13.0-1.3","SS1619205402694","trial","","40","500","4165.460000000137","images/stimuli/spore_stims/simple_01_A_b.gif","images/stimuli/spore_stims/simple_06_A_a.gif","forced_short","","2","simple_dissimilar","images/stimuli/spore_stims/simple_06_A_a.gif","","","","",""
"","null","html-keyboard-response","39","307718","0.0-13.0-0.4","SS1619205402694","","","null","","","","","","<p><img src= images/blank.png width =""600"" height = ""600"" style=""position:fixed;top:50%; left:50%; transform: translate(-50%, -50%); border:5px solid black"">","","","","","","","",""
"","4827.160000000731","sequential-stimulus-presentation-old","40","313063","0.0-13.0-1.4","SS1619205402694","trial","","40","500","5327.160000000731","images/stimuli/spore_stims/simple_01_A_b.gif","images/stimuli/spore_stims/simple_06_A_a.gif","forced_short","","2","simple_dissimilar","images/stimuli/spore_stims/simple_06_A_a.gif","","","","",""
"","null","html-keyboard-response","41","314133","0.0-13.0-0.5","SS1619205402694","","","null","","","","","","<p><img src= images/blank.png width =""600"" height = ""600"" style=""position:fixed;top:50%; left:50%; transform: translate(-50%, -50%); border:5px solid black"">","","","","","","","",""
"","3467.179999999702","sequential-stimulus-presentation-old","42","318120","0.0-13.0-1.5","SS1619205402694","trial","","40","500","3967.179999999702","images/stimuli/spore_stims/simple_01_A_b.gif","images/stimuli/spore_stims/simple_06_A_a.gif","forced_short","","2","simple_dissimilar","images/stimuli/spore_stims/simple_06_A_a.gif","","","","",""
"","4080.8299999989686","survey-multi-choice","43","322213","0.0-14.0","SS1619205402694","math_question","","","","","","","","","","","","{""Q0"":""4""}","[0]","4","",""
"","null","html-keyboard-response","44","323504","0.0-15.0-0.0","SS1619205402694","","","null","","","","","","<p><img src= images/blank.png width =""600"" height = ""600"" style=""position:fixed;top:50%; left:50%; transform: translate(-50%, -50%); border:5px solid black"">","","","","","","","",""
"","886.8949999996694","sequential-stimulus-presentation-old","45","324507","0.0-15.0-1.0","SS1619205402694","trial","","40","500","1386.8949999996694","images/stimuli/spore_stims/complex_08_A_a.gif","images/stimuli/spore_stims/complex_18_A_b.gif","forced_short","","3","complex_dissimilar","images/stimuli/spore_stims/complex_18_A_b.gif","","","","",""
"","null","html-keyboard-response","46","325791","0.0-15.0-0.1","SS1619205402694","","","null","","","","","","<p><img src= images/blank.png width =""600"" height = ""600"" style=""position:fixed;top:50%; left:50%; transform: translate(-50%, -50%); border:5px solid black"">","","","","","","","",""
"","3950.890000000072","sequential-stimulus-presentation-old","47","330254","0.0-15.0-1.1","SS1619205402694","trial","","40","500","4450.890000000072","images/stimuli/spore_stims/complex_08_A_a.gif","images/stimuli/spore_stims/complex_18_A_b.gif","forced_short","","3","complex_dissimilar","images/stimuli/spore_stims/complex_08_A_a.gif","","","","",""
"","null","html-keyboard-response","48","331515","0.0-15.0-0.2","SS1619205402694","","","null","","","","","","<p><img src= images/blank.png width =""600"" height = ""600"" style=""position:fixed;top:50%; left:50%; transform: translate(-50%, -50%); border:5px solid black"">","","","","","","","",""
"","3798.104999999865","sequential-stimulus-presentation-old","49","335822","0.0-15.0-1.2","SS1619205402694","trial","","40","500","4298.104999999865","images/stimuli/spore_stims/complex_08_A_a.gif","images/stimuli/spore_stims/complex_18_A_b.gif","forced_short","","3","complex_dissimilar","images/stimuli/spore_stims/complex_18_A_b.gif","","","","",""
"","null","html-keyboard-response","50","336877","0.0-15.0-0.3","SS1619205402694","","","null","","","","","","<p><img src= images/blank.png width =""600"" height = ""600"" style=""position:fixed;top:50%; left:50%; transform: translate(-50%, -50%); border:5px solid black"">","","","","","","","",""
"","2423.0999999999767","sequential-stimulus-presentation-old","51","339815","0.0-15.0-1.3","SS1619205402694","trial","","40","500","2923.0999999999767","images/stimuli/spore_stims/complex_08_A_a.gif","images/stimuli/spore_stims/complex_18_A_b.gif","forced_short","","3","complex_dissimilar","images/stimuli/spore_stims/complex_18_A_b.gif","","","","",""
"","null","html-keyboard-response","52","340641","0.0-15.0-0.4","SS1619205402694","","","null","","","","","","<p><img src= images/blank.png width =""600"" height = ""600"" style=""position:fixed;top:50%; left:50%; transform: translate(-50%, -50%); border:5px solid black"">","","","","","","","",""
"","3924.949999998731","sequential-stimulus-presentation-old","53","345084","0.0-15.0-1.4","SS1619205402694","trial","","40","500","4424.949999998731","images/stimuli/spore_stims/complex_08_A_a.gif","images/stimuli/spore_stims/complex_18_A_b.gif","forced_short","","3","complex_dissimilar","images/stimuli/spore_stims/complex_08_A_a.gif","","","","",""
"","null","html-keyboard-response","54","346079","0.0-15.0-0.5","SS1619205402694","","","null","","","","","","<p><img src= images/blank.png width =""600"" height = ""600"" style=""position:fixed;top:50%; left:50%; transform: translate(-50%, -50%); border:5px solid black"">","","","","","","","",""
"","3392.3050000012154","sequential-stimulus-presentation-old","55","349984","0.0-15.0-1.5","SS1619205402694","trial","","40","500","3892.3050000012154","images/stimuli/spore_stims/complex_08_A_a.gif","images/stimuli/spore_stims/complex_18_A_b.gif","forced_short","","3","complex_dissimilar","images/stimuli/spore_stims/complex_18_A_b.gif","","","","",""
"","3868.1550000001444","survey-multi-choice","56","353859","0.0-16.0","SS1619205402694","math_question","","","","","","","","","","","","{""Q0"":""7""}","[0]","7","",""
"","null","html-keyboard-response","57","354756","0.0-17.0-0.0","SS1619205402694","","","null","","","","","","<p><img src= images/blank.png width =""600"" height = ""600"" style=""position:fixed;top:50%; left:50%; transform: translate(-50%, -50%); border:5px solid black"">","","","","","","","",""
"","1127.3049999999348","sequential-stimulus-presentation-old","58","356003","0.0-17.0-1.0","SS1619205402694","trial","","40","500","1627.3049999999348","images/stimuli/spore_stims/complex_19_A_a.gif","images/stimuli/spore_stims/complex_13_A_b.gif","forced_short","","4","complex_dissimilar","images/stimuli/spore_stims/complex_13_A_b.gif","","","","",""
"","null","html-keyboard-response","59","356859","0.0-17.0-0.1","SS1619205402694","","","null","","","","","","<p><img src= images/blank.png width =""600"" height = ""600"" style=""position:fixed;top:50%; left:50%; transform: translate(-50%, -50%); border:5px solid black"">","","","","","","","",""
"","5453.0699999995995","sequential-stimulus-presentation-old","60","362828","0.0-17.0-1.1","SS1619205402694","trial","","40","500","5953.0699999995995","images/stimuli/spore_stims/complex_19_A_a.gif","images/stimuli/spore_stims/complex_13_A_b.gif","forced_short","","4","complex_dissimilar","images/stimuli/spore_stims/complex_13_A_b.gif","","","","",""
"","null","html-keyboard-response","61","363850","0.0-17.0-0.2","SS1619205402694","","","null","","","","","","<p><img src= images/blank.png width =""600"" height = ""600"" style=""position:fixed;top:50%; left:50%; transform: translate(-50%, -50%); border:5px solid black"">","","","","","","","",""
"","1536.5000000001746","sequential-stimulus-presentation-old","62","365911","0.0-17.0-1.2","SS1619205402694","trial","","40","500","2036.5000000001746","images/stimuli/spore_stims/complex_19_A_a.gif","images/stimuli/spore_stims/complex_13_A_b.gif","forced_short","","4","complex_dissimilar","images/stimuli/spore_stims/complex_13_A_b.gif","","","","",""
"","null","html-keyboard-response","63","366931","0.0-17.0-0.3","SS1619205402694","","","null","","","","","","<p><img src= images/blank.png width =""600"" height = ""600"" style=""position:fixed;top:50%; left:50%; transform: translate(-50%, -50%); border:5px solid black"">","","","","","","","",""
"","2004.8900000001886","sequential-stimulus-presentation-old","64","369447","0.0-17.0-1.3","SS1619205402694","trial","","40","500","2504.8900000001886","images/stimuli/spore_stims/complex_19_A_a.gif","images/stimuli/spore_stims/complex_13_A_b.gif","forced_short","","4","complex_dissimilar","images/stimuli/spore_stims/complex_13_A_b.gif","","","","",""
"","null","html-keyboard-response","65","370281","0.0-17.0-0.4","SS1619205402694","","","null","","","","","","<p><img src= images/blank.png width =""600"" height = ""600"" style=""position:fixed;top:50%; left:50%; transform: translate(-50%, -50%); border:5px solid black"">","","","","","","","",""
"","1543.2249999994528","sequential-stimulus-presentation-old","66","372339","0.0-17.0-1.4","SS1619205402694","trial","","40","500","2043.2249999994528","images/stimuli/spore_stims/complex_19_A_a.gif","images/stimuli/spore_stims/complex_13_A_b.gif","forced_short","","4","complex_dissimilar","images/stimuli/spore_stims/complex_13_A_b.gif","","","","",""
"","null","html-keyboard-response","67","373295","0.0-17.0-0.5","SS1619205402694","","","null","","","","","","<p><img src= images/blank.png width =""600"" height = ""600"" style=""position:fixed;top:50%; left:50%; transform: translate(-50%, -50%); border:5px solid black"">","","","","","","","",""
"","3271.570000000822","sequential-stimulus-presentation-old","68","377084","0.0-17.0-1.5","SS1619205402694","trial","","40","500","3771.570000000822","images/stimuli/spore_stims/complex_19_A_a.gif","images/stimuli/spore_stims/complex_13_A_b.gif","forced_short","","4","complex_dissimilar","images/stimuli/spore_stims/complex_19_A_a.gif","","","","",""
"","4066.3250000015832","survey-multi-choice","69","381158","0.0-18.0","SS1619205402694","math_question","","","","","","","","","","","","{""Q0"":""11""}","[0]","11","",""
"","null","html-keyboard-response","70","382239","0.0-19.0-0.0","SS1619205402694","","","null","","","","","","<p><img src= images/blank.png width =""600"" height = ""600"" style=""position:fixed;top:50%; left:50%; transform: translate(-50%, -50%); border:5px solid black"">","","","","","","","",""
"","3537.3450000006123","sequential-stimulus-presentation-old","71","386296","0.0-19.0-1.0","SS1619205402694","trial","","40","500","4037.3450000006123","images/stimuli/spore_stims/complex_03_A_b.gif","images/stimuli/spore_stims/complex_12_A_a.gif","self_paced","","5","complex_dissimilar","images/stimuli/spore_stims/complex_12_A_a.gif","","","","",""
"","null","html-keyboard-response","72","387218","0.0-19.0-0.1","SS1619205402694","","","null","","","","","","<p><img src= images/blank.png width =""600"" height = ""600"" style=""position:fixed;top:50%; left:50%; transform: translate(-50%, -50%); border:5px solid black"">","","","","","","","",""
"","4309.304999998887","sequential-stimulus-presentation-old","73","392044","0.0-19.0-1.1","SS1619205402694","trial","","40","500","4809.304999998887","images/stimuli/spore_stims/complex_03_A_b.gif","images/stimuli/spore_stims/complex_12_A_a.gif","self_paced","","5","complex_dissimilar","images/stimuli/spore_stims/complex_12_A_a.gif","","","","",""
"","null","html-keyboard-response","74","393247","0.0-19.0-0.2","SS1619205402694","","","null","","","","","","<p><img src= images/blank.png width =""600"" height = ""600"" style=""position:fixed;top:50%; left:50%; transform: translate(-50%, -50%); border:5px solid black"">","","","","","","","",""
"","4376.874999999942","sequential-stimulus-presentation-old","75","398138","0.0-19.0-1.2","SS1619205402694","trial","","40","500","4876.874999999942","images/stimuli/spore_stims/complex_03_A_b.gif","images/stimuli/spore_stims/complex_12_A_a.gif","self_paced","","5","complex_dissimilar","images/stimuli/spore_stims/complex_12_A_a.gif","","","","",""
"","null","html-keyboard-response","76","399258","0.0-19.0-0.3","SS1619205402694","","","null","","","","","","<p><img src= images/blank.png width =""600"" height = ""600"" style=""position:fixed;top:50%; left:50%; transform: translate(-50%, -50%); border:5px solid black"">","","","","","","","",""
"","3005.554999999702","sequential-stimulus-presentation-old","77","402779","0.0-19.0-1.3","SS1619205402694","trial","","40","500","3505.554999999702","images/stimuli/spore_stims/complex_03_A_b.gif","images/stimuli/spore_stims/complex_12_A_a.gif","self_paced","","5","complex_dissimilar","images/stimuli/spore_stims/complex_12_A_a.gif","","","","",""
"","null","html-keyboard-response","78","403760","0.0-19.0-0.4","SS1619205402694","","","null","","","","","","<p><img src= images/blank.png width =""600"" height = ""600"" style=""position:fixed;top:50%; left:50%; transform: translate(-50%, -50%); border:5px solid black"">","","","","","","","",""
"","3467.744999999937","sequential-stimulus-presentation-old","79","407745","0.0-19.0-1.4","SS1619205402694","trial","","40","500","3967.744999999937","images/stimuli/spore_stims/complex_03_A_b.gif","images/stimuli/spore_stims/complex_12_A_a.gif","self_paced","","5","complex_dissimilar","images/stimuli/spore_stims/complex_12_A_a.gif","","","","",""
"","null","html-keyboard-response","80","408997","0.0-19.0-0.5","SS1619205402694","","","null","","","","","","<p><img src= images/blank.png width =""600"" height = ""600"" style=""position:fixed;top:50%; left:50%; transform: translate(-50%, -50%); border:5px solid black"">","","","","","","","",""
"","2814.629999998957","sequential-stimulus-presentation-old","81","412331","0.0-19.0-1.5","SS1619205402694","trial","","40","500","3314.629999998957","images/stimuli/spore_stims/complex_03_A_b.gif","images/stimuli/spore_stims/complex_12_A_a.gif","self_paced","","5","complex_dissimilar","images/stimuli/spore_stims/complex_12_A_a.gif","","","","",""
"","4873.790000001492","survey-multi-choice","82","417218","0.0-20.0","SS1619205402694","math_question","","","","","","","","","","","","{""Q0"":""16""}","[0]","16","",""
"","null","html-keyboard-response","83","418445","0.0-21.0-0.0","SS1619205402694","","","null","","","","","","<p><img src= images/blank.png width =""600"" height = ""600"" style=""position:fixed;top:50%; left:50%; transform: translate(-50%, -50%); border:5px solid black"">","","","","","","","",""
"","75.63499999925261","sequential-stimulus-presentation-old","84","428535","0.0-21.0-1.0","SS1619205402694","trial","","40","500","575.6349999992526","images/stimuli/spore_stims/simple_09_A_a.gif","images/stimuli/spore_stims/simple_08_A_b.gif","forced_long","","6","simple_dissimilar","images/stimuli/spore_stims/simple_08_A_b.gif","","","","",""
"","null","html-keyboard-response","85","429355","0.0-21.0-0.1","SS1619205402694","","","null","","","","","","<p><img src= images/blank.png width =""600"" height = ""600"" style=""position:fixed;top:50%; left:50%; transform: translate(-50%, -50%); border:5px solid black"">","","","","","","","",""
"","2757.315000000759","sequential-stimulus-presentation-old","86","432632","0.0-21.0-1.1","SS1619205402694","trial","","40","500","3257.315000000759","images/stimuli/spore_stims/simple_09_A_a.gif","images/stimuli/spore_stims/simple_08_A_b.gif","forced_long","","6","simple_dissimilar","images/stimuli/spore_stims/simple_08_A_b.gif","","","","",""
"","null","html-keyboard-response","87","433623","0.0-21.0-0.2","SS1619205402694","","","null","","","","","","<p><img src= images/blank.png width =""600"" height = ""600"" style=""position:fixed;top:50%; left:50%; transform: translate(-50%, -50%); border:5px solid black"">","","","","","","","",""
"","1508.9099999986938","sequential-stimulus-presentation-old","88","435652","0.0-21.0-1.2","SS1619205402694","trial","","40","500","2008.9099999986938","images/stimuli/spore_stims/simple_09_A_a.gif","images/stimuli/spore_stims/simple_08_A_b.gif","forced_long","","6","simple_dissimilar","images/stimuli/spore_stims/simple_08_A_b.gif","","","","",""
"","null","html-keyboard-response","89","436894","0.0-21.0-0.3","SS1619205402694","","","null","","","","","","<p><img src= images/blank.png width =""600"" height = ""600"" style=""position:fixed;top:50%; left:50%; transform: translate(-50%, -50%); border:5px solid black"">","","","","","","","",""
"","1705.4900000002235","sequential-stimulus-presentation-old","90","439113","0.0-21.0-1.3","SS1619205402694","trial","","40","500","2205.4900000002235","images/stimuli/spore_stims/simple_09_A_a.gif","images/stimuli/spore_stims/simple_08_A_b.gif","forced_long","","6","simple_dissimilar","images/stimuli/spore_stims/simple_08_A_b.gif","","","","",""
"","null","html-keyboard-response","91","440263","0.0-21.0-0.4","SS1619205402694","","","null","","","","","","<p><img src= images/blank.png width =""600"" height = ""600"" style=""position:fixed;top:50%; left:50%; transform: translate(-50%, -50%); border:5px solid black"">","","","","","","","",""
"","2042.6299999998882","sequential-stimulus-presentation-old","92","442815","0.0-21.0-1.4","SS1619205402694","trial","","40","500","2542.6299999998882","images/stimuli/spore_stims/simple_09_A_a.gif","images/stimuli/spore_stims/simple_08_A_b.gif","forced_long","","6","simple_dissimilar","images/stimuli/spore_stims/simple_08_A_b.gif","","","","",""
"","4014.6000000004424","survey-multi-choice","93","446844","0.0-22.0","SS1619205402694","math_question","","","","","","","","","","","","{""Q0"":""6""}","[0]","6","",""
"","null","html-keyboard-response","94","447901","0.0-23.0-0.0","SS1619205402694","","","null","","","","","","<p><img src= images/blank.png width =""600"" height = ""600"" style=""position:fixed;top:50%; left:50%; transform: translate(-50%, -50%); border:5px solid black"">","","","","","","","",""
"","5316.34000000119","sequential-stimulus-presentation-old","95","453733","0.0-23.0-1.0","SS1619205402694","trial","","40","500","5816.34000000119","images/stimuli/spore_stims/simple_03_A_a.gif","images/stimuli/spore_stims/simple_13_A_b.gif","self_paced","","7","simple_dissimilar","images/stimuli/spore_stims/simple_13_A_b.gif","","","","",""
"","null","html-keyboard-response","96","454915","0.0-23.0-0.1","SS1619205402694","","","null","","","","","","<p><img src= images/blank.png width =""600"" height = ""600"" style=""position:fixed;top:50%; left:50%; transform: translate(-50%, -50%); border:5px solid black"">","","","","","","","",""
"","3223.944999999716","sequential-stimulus-presentation-old","97","458659","0.0-23.0-1.1","SS1619205402694","trial","","40","500","3723.944999999716","images/stimuli/spore_stims/simple_03_A_a.gif","images/stimuli/spore_stims/simple_13_A_b.gif","self_paced","","7","simple_dissimilar","images/stimuli/spore_stims/simple_13_A_b.gif","","","","",""
"","null","html-keyboard-response","98","459824","0.0-23.0-0.2","SS1619205402694","","","null","","","","","","<p><img src= images/blank.png width =""600"" height = ""600"" style=""position:fixed;top:50%; left:50%; transform: translate(-50%, -50%); border:5px solid black"">","","","","","","","",""
"","1936.6600000011967","sequential-stimulus-presentation-old","99","462279","0.0-23.0-1.2","SS1619205402694","trial","","40","500","2436.6600000011967","images/stimuli/spore_stims/simple_03_A_a.gif","images/stimuli/spore_stims/simple_13_A_b.gif","self_paced","","7","simple_dissimilar","images/stimuli/spore_stims/simple_13_A_b.gif","","","","",""
"","null","html-keyboard-response","100","463215","0.0-23.0-0.3","SS1619205402694","","","null","","","","","","<p><img src= images/blank.png width =""600"" height = ""600"" style=""position:fixed;top:50%; left:50%; transform: translate(-50%, -50%); border:5px solid black"">","","","","","","","",""
"","2095.269999999786","sequential-stimulus-presentation-old","101","465828","0.0-23.0-1.3","SS1619205402694","trial","","40","500","2595.269999999786","images/stimuli/spore_stims/simple_03_A_a.gif","images/stimuli/spore_stims/simple_13_A_b.gif","self_paced","","7","simple_dissimilar","images/stimuli/spore_stims/simple_13_A_b.gif","","","","",""
"","null","html-keyboard-response","102","467043","0.0-23.0-0.4","SS1619205402694","","","null","","","","","","<p><img src= images/blank.png width =""600"" height = ""600"" style=""position:fixed;top:50%; left:50%; transform: translate(-50%, -50%); border:5px solid black"">","","","","","","","",""
"","3264.4299999992363","sequential-stimulus-presentation-old","103","470831","0.0-23.0-1.4","SS1619205402694","trial","","40","500","3764.4299999992363","images/stimuli/spore_stims/simple_03_A_a.gif","images/stimuli/spore_stims/simple_13_A_b.gif","self_paced","","7","simple_dissimilar","images/stimuli/spore_stims/simple_13_A_b.gif","","","","",""
"","null","html-keyboard-response","104","472055","0.0-23.0-0.5","SS1619205402694","","","null","","","","","","<p><img src= images/blank.png width =""600"" height = ""600"" style=""position:fixed;top:50%; left:50%; transform: translate(-50%, -50%); border:5px solid black"">","","","","","","","",""
"","3544.570000000007","sequential-stimulus-presentation-old","105","476131","0.0-23.0-1.5","SS1619205402694","trial","","40","500","4044.570000000007","images/stimuli/spore_stims/simple_03_A_a.gif","images/stimuli/spore_stims/simple_13_A_b.gif","self_paced","","7","simple_dissimilar","images/stimuli/spore_stims/simple_13_A_b.gif","","","","",""
"","4066.0799999986775","survey-multi-choice","106","480205","0.0-24.0","SS1619205402694","math_question","","","","","","","","","","","","{""Q0"":""12""}","[0]","12","",""
"","null","html-keyboard-response","107","481260","0.0-25.0-0.0","SS1619205402694","","","null","","","","","","<p><img src= images/blank.png width =""600"" height = ""600"" style=""position:fixed;top:50%; left:50%; transform: translate(-50%, -50%); border:5px solid black"">","","","","","","","",""
"","2777.825000001001","sequential-stimulus-presentation-old","108","494056","0.0-25.0-1.0","SS1619205402694","trial","","40","500","3277.825000001001","images/stimuli/spore_stims/complex_16_A_a.gif","images/stimuli/spore_stims/complex_20_A_b.gif","forced_long","","8","complex_dissimilar","images/stimuli/spore_stims/complex_20_A_b.gif","","","","",""
"","null","html-keyboard-response","109","495170","0.0-25.0-0.1","SS1619205402694","","","null","","","","","","<p><img src= images/blank.png width =""600"" height = ""600"" style=""position:fixed;top:50%; left:50%; transform: translate(-50%, -50%); border:5px solid black"">","","","","","","","",""
"","2533.595000000787","sequential-stimulus-presentation-old","110","498222","0.0-25.0-1.1","SS1619205402694","trial","","40","500","3033.595000000787","images/stimuli/spore_stims/complex_16_A_a.gif","images/stimuli/spore_stims/complex_20_A_b.gif","forced_long","","8","complex_dissimilar","images/stimuli/spore_stims/complex_20_A_b.gif","","","","",""
"","null","html-keyboard-response","111","499527","0.0-25.0-0.2","SS1619205402694","","","null","","","","","","<p><img src= images/blank.png width =""600"" height = ""600"" style=""position:fixed;top:50%; left:50%; transform: translate(-50%, -50%); border:5px solid black"">","","","","","","","",""
"","3081.084999999788","sequential-stimulus-presentation-old","112","503139","0.0-25.0-1.2","SS1619205402694","trial","","40","500","3581.084999999788","images/stimuli/spore_stims/complex_16_A_a.gif","images/stimuli/spore_stims/complex_20_A_b.gif","forced_long","","8","complex_dissimilar","images/stimuli/spore_stims/complex_20_A_b.gif","","","","",""
"","null","html-keyboard-response","113","504248","0.0-25.0-0.3","SS1619205402694","","","null","","","","","","<p><img src= images/blank.png width =""600"" height = ""600"" style=""position:fixed;top:50%; left:50%; transform: translate(-50%, -50%); border:5px solid black"">","","","","","","","",""
"","2900.535000000673","sequential-stimulus-presentation-old","114","507668","0.0-25.0-1.3","SS1619205402694","trial","","40","500","3400.535000000673","images/stimuli/spore_stims/complex_16_A_a.gif","images/stimuli/spore_stims/complex_20_A_b.gif","forced_long","","8","complex_dissimilar","images/stimuli/spore_stims/complex_20_A_b.gif","","","","",""
"","4195.455000000948","survey-multi-choice","115","511874","0.0-26.0","SS1619205402694","math_question","","","","","","","","","","","","{""Q0"":""13""}","[0]","13","",""
"","null","html-keyboard-response","116","513146","0.0-27.0-0.0","SS1619205402694","","","null","","","","","","<p><img src= images/blank.png width =""600"" height = ""600"" style=""position:fixed;top:50%; left:50%; transform: translate(-50%, -50%); border:5px solid black"">","","","","","","","",""
"","2612.9199999995762","sequential-stimulus-presentation-old","117","515874","0.0-27.0-1.0","SS1619205402694","trial","","40","500","3112.9199999995762","images/stimuli/spore_stims/simple_19_A_b.gif","images/stimuli/spore_stims/simple_11_A_a.gif","forced_short","","9","simple_dissimilar","images/stimuli/spore_stims/simple_11_A_a.gif","","","","",""
"","null","html-keyboard-response","118","516994","0.0-27.0-0.1","SS1619205402694","","","null","","","","","","<p><img src= images/blank.png width =""600"" height = ""600"" style=""position:fixed;top:50%; left:50%; transform: translate(-50%, -50%); border:5px solid black"">","","","","","","","",""
"","2770.6799999995856","sequential-stimulus-presentation-old","119","520290","0.0-27.0-1.1","SS1619205402694","trial","","40","500","3270.6799999995856","images/stimuli/spore_stims/simple_19_A_b.gif","images/stimuli/spore_stims/simple_11_A_a.gif","forced_short","","9","simple_dissimilar","images/stimuli/spore_stims/simple_11_A_a.gif","","","","",""
"","null","html-keyboard-response","120","521207","0.0-27.0-0.2","SS1619205402694","","","null","","","","","","<p><img src= images/blank.png width =""600"" height = ""600"" style=""position:fixed;top:50%; left:50%; transform: translate(-50%, -50%); border:5px solid black"">","","","","","","","",""
"","2451.960000000312","sequential-stimulus-presentation-old","121","524178","0.0-27.0-1.2","SS1619205402694","trial","","40","500","2951.960000000312","images/stimuli/spore_stims/simple_19_A_b.gif","images/stimuli/spore_stims/simple_11_A_a.gif","forced_short","","9","simple_dissimilar","images/stimuli/spore_stims/simple_11_A_a.gif","","","","",""
"","null","html-keyboard-response","122","525408","0.0-27.0-0.3","SS1619205402694","","","null","","","","","","<p><img src= images/blank.png width =""600"" height = ""600"" style=""position:fixed;top:50%; left:50%; transform: translate(-50%, -50%); border:5px solid black"">","","","","","","","",""
"","4937.770000000368","sequential-stimulus-presentation-old","123","530864","0.0-27.0-1.3","SS1619205402694","trial","","40","500","5437.770000000368","images/stimuli/spore_stims/simple_19_A_b.gif","images/stimuli/spore_stims/simple_11_A_a.gif","forced_short","","9","simple_dissimilar","images/stimuli/spore_stims/simple_19_A_b.gif","","","","",""
"","null","html-keyboard-response","124","531917","0.0-27.0-0.4","SS1619205402694","","","null","","","","","","<p><img src= images/blank.png width =""600"" height = ""600"" style=""position:fixed;top:50%; left:50%; transform: translate(-50%, -50%); border:5px solid black"">","","","","","","","",""
"","2728.375000000582","sequential-stimulus-presentation-old","125","535166","0.0-27.0-1.4","SS1619205402694","trial","","40","500","3228.375000000582","images/stimuli/spore_stims/simple_19_A_b.gif","images/stimuli/spore_stims/simple_11_A_a.gif","forced_short","","9","simple_dissimilar","images/stimuli/spore_stims/simple_11_A_a.gif","","","","",""
"","null","html-keyboard-response","126","536185","0.0-27.0-0.5","SS1619205402694","","","null","","","","","","<p><img src= images/blank.png width =""600"" height = ""600"" style=""position:fixed;top:50%; left:50%; transform: translate(-50%, -50%); border:5px solid black"">","","","","","","","",""
"","3510.504999998375","sequential-stimulus-presentation-old","127","540213","0.0-27.0-1.5","SS1619205402694","trial","","40","500","4010.504999998375","images/stimuli/spore_stims/simple_19_A_b.gif","images/stimuli/spore_stims/simple_11_A_a.gif","forced_short","","9","simple_dissimilar","images/stimuli/spore_stims/simple_11_A_a.gif","","","","",""
"","4293.865000001504","survey-multi-choice","128","544518","0.0-28.0","SS1619205402694","math_question","","","","","","","","","","","","{""Q0"":""5""}","[0]","5","",""
"","null","html-keyboard-response","129","545546","0.0-29.0-0.0","SS1619205402694","","","null","","","","","","<p><img src= images/blank.png width =""600"" height = ""600"" style=""position:fixed;top:50%; left:50%; transform: translate(-50%, -50%); border:5px solid black"">","","","","","","","",""
"","5289.014999998501","sequential-stimulus-presentation-old","130","551357","0.0-29.0-1.0","SS1619205402694","trial","","40","500","5789.014999998501","images/stimuli/spore_stims/simple_12_A_a.gif","images/stimuli/spore_stims/simple_07_A_b.gif","self_paced","","10","simple_dissimilar","images/stimuli/spore_stims/simple_07_A_b.gif","","","","",""
"","null","html-keyboard-response","131","552208","0.0-29.0-0.1","SS1619205402694","","","null","","","","","","<p><img src= images/blank.png width =""600"" height = ""600"" style=""position:fixed;top:50%; left:50%; transform: translate(-50%, -50%); border:5px solid black"">","","","","","","","",""
"","1781.6549999988638","sequential-stimulus-presentation-old","132","554506","0.0-29.0-1.1","SS1619205402694","trial","","40","500","2281.654999998864","images/stimuli/spore_stims/simple_12_A_a.gif","images/stimuli/spore_stims/simple_07_A_b.gif","self_paced","","10","simple_dissimilar","images/stimuli/spore_stims/simple_07_A_b.gif","","","","",""
"","null","html-keyboard-response","133","555568","0.0-29.0-0.2","SS1619205402694","","","null","","","","","","<p><img src= images/blank.png width =""600"" height = ""600"" style=""position:fixed;top:50%; left:50%; transform: translate(-50%, -50%); border:5px solid black"">","","","","","","","",""
"","1030.2049999991432","sequential-stimulus-presentation-old","134","557116","0.0-29.0-1.2","SS1619205402694","trial","","40","500","1530.2049999991432","images/stimuli/spore_stims/simple_12_A_a.gif","images/stimuli/spore_stims/simple_07_A_b.gif","self_paced","","10","simple_dissimilar","images/stimuli/spore_stims/simple_07_A_b.gif","","","","",""
"","null","html-keyboard-response","135","558010","0.0-29.0-0.3","SS1619205402694","","","null","","","","","","<p><img src= images/blank.png width =""600"" height = ""600"" style=""position:fixed;top:50%; left:50%; transform: translate(-50%, -50%); border:5px solid black"">","","","","","","","",""
"","702.5350000003818","sequential-stimulus-presentation-old","136","559227","0.0-29.0-1.3","SS1619205402694","trial","","40","500","1202.5350000003818","images/stimuli/spore_stims/simple_12_A_a.gif","images/stimuli/spore_stims/simple_07_A_b.gif","self_paced","","10","simple_dissimilar","images/stimuli/spore_stims/simple_07_A_b.gif","","","","",""
"","null","html-keyboard-response","137","560164","0.0-29.0-0.4","SS1619205402694","","","null","","","","","","<p><img src= images/blank.png width =""600"" height = ""600"" style=""position:fixed;top:50%; left:50%; transform: translate(-50%, -50%); border:5px solid black"">","","","","","","","",""
"","673.3449999992736","sequential-stimulus-presentation-old","138","561359","0.0-29.0-1.4","SS1619205402694","trial","","40","500","1173.3449999992736","images/stimuli/spore_stims/simple_12_A_a.gif","images/stimuli/spore_stims/simple_07_A_b.gif","self_paced","","10","simple_dissimilar","images/stimuli/spore_stims/simple_07_A_b.gif","","","","",""
"","null","html-keyboard-response","139","562599","0.0-29.0-0.5","SS1619205402694","","","null","","","","","","<p><img src= images/blank.png width =""600"" height = ""600"" style=""position:fixed;top:50%; left:50%; transform: translate(-50%, -50%); border:5px solid black"">","","","","","","","",""
"","748.695000000298","sequential-stimulus-presentation-old","140","563863","0.0-29.0-1.5","SS1619205402694","trial","","40","500","1248.695000000298","images/stimuli/spore_stims/simple_12_A_a.gif","images/stimuli/spore_stims/simple_07_A_b.gif","self_paced","","10","simple_dissimilar","images/stimuli/spore_stims/simple_07_A_b.gif","","","","",""
"","3643.0349999991013","survey-multi-choice","141","567519","0.0-30.0","SS1619205402694","math_question","","","","","","","","","","","","{""Q0"":""8""}","[0]","8","",""
"","null","html-keyboard-response","142","568560","0.0-31.0-0.0","SS1619205402694","","","null","","","","","","<p><img src= images/blank.png width =""600"" height = ""600"" style=""position:fixed;top:50%; left:50%; transform: translate(-50%, -50%); border:5px solid black"">","","","","","","","",""
"","1067.3050000004005","sequential-stimulus-presentation-old","143","579652","0.0-31.0-1.0","SS1619205402694","trial","","40","500","1567.3050000004005","images/stimuli/spore_stims/simple_20_A_a.gif","images/stimuli/spore_stims/simple_03_A_b.gif","forced_long","","11","simple_dissimilar","images/stimuli/spore_stims/simple_03_A_b.gif","","","","",""
"","null","html-keyboard-response","144","580895","0.0-31.0-0.1","SS1619205402694","","","null","","","","","","<p><img src= images/blank.png width =""600"" height = ""600"" style=""position:fixed;top:50%; left:50%; transform: translate(-50%, -50%); border:5px solid black"">","","","","","","","",""
"","1179.294999999809","sequential-stimulus-presentation-old","145","582598","0.0-31.0-1.1","SS1619205402694","trial","","40","500","1679.294999999809","images/stimuli/spore_stims/simple_20_A_a.gif","images/stimuli/spore_stims/simple_03_A_b.gif","forced_long","","11","simple_dissimilar","images/stimuli/spore_stims/simple_03_A_b.gif","","","","",""
"","null","html-keyboard-response","146","583418","0.0-31.0-0.2","SS1619205402694","","","null","","","","","","<p><img src= images/blank.png width =""600"" height = ""600"" style=""position:fixed;top:50%; left:50%; transform: translate(-50%, -50%); border:5px solid black"">","","","","","","","",""
"","510.30999999970663","sequential-stimulus-presentation-old","147","584447","0.0-31.0-1.2","SS1619205402694","trial","","40","500","1010.3099999997066","images/stimuli/spore_stims/simple_20_A_a.gif","images/stimuli/spore_stims/simple_03_A_b.gif","forced_long","","11","simple_dissimilar","images/stimuli/spore_stims/simple_03_A_b.gif","","","","",""
"","null","html-keyboard-response","148","585591","0.0-31.0-0.3","SS1619205402694","","","null","","","","","","<p><img src= images/blank.png width =""600"" height = ""600"" style=""position:fixed;top:50%; left:50%; transform: translate(-50%, -50%); border:5px solid black"">","","","","","","","",""
"","1434.699999999837","sequential-stimulus-presentation-old","149","587544","0.0-31.0-1.3","SS1619205402694","trial","","40","500","1934.699999999837","images/stimuli/spore_stims/simple_20_A_a.gif","images/stimuli/spore_stims/simple_03_A_b.gif","forced_long","","11","simple_dissimilar","images/stimuli/spore_stims/simple_03_A_b.gif","","","","",""
"","null","html-keyboard-response","150","588667","0.0-31.0-0.4","SS1619205402694","","","null","","","","","","<p><img src= images/blank.png width =""600"" height = ""600"" style=""position:fixed;top:50%; left:50%; transform: translate(-50%, -50%); border:5px solid black"">","","","","","","","",""
"","3026.5799999997253","sequential-stimulus-presentation-old","151","592213","0.0-31.0-1.4","SS1619205402694","trial","","40","500","3526.5799999997253","images/stimuli/spore_stims/simple_20_A_a.gif","images/stimuli/spore_stims/simple_03_A_b.gif","forced_long","","11","simple_dissimilar","images/stimuli/spore_stims/simple_03_A_b.gif","","","","",""
"","null","html-keyboard-response","152","593280","0.0-31.0-0.5","SS1619205402694","","","null","","","","","","<p><img src= images/blank.png width =""600"" height = ""600"" style=""position:fixed;top:50%; left:50%; transform: translate(-50%, -50%); border:5px solid black"">","","","","","","","",""
"","2828.1599999991013","sequential-stimulus-presentation-old","153","596632","0.0-31.0-1.5","SS1619205402694","trial","","40","500","3328.1599999991013","images/stimuli/spore_stims/simple_20_A_a.gif","images/stimuli/spore_stims/simple_03_A_b.gif","forced_long","","11","simple_dissimilar","images/stimuli/spore_stims/simple_03_A_b.gif","","","","",""
"[{""page_index"":0,""viewing_time"":4662.454999999725}]","4663.19499999925","instructions","154","601304","0.0-32.0","SS1619205402694","instructions","","","","","","","","","","","","","","","",""
"","16166.63499999966","survey-likert","155","617484","0.0-33.0","SS1619205402694","similarity_question","","","","","","","","","","","","{""Q0"":2}","[0]","","images/stimuli/spore_stims/complex_19_A_a.gif","images/stimuli/spore_stims/complex_13_A_b.gif"
"","5749.6000000010245","survey-likert","156","623247","0.0-34.0","SS1619205402694","similarity_question","","","","","","","","","","","","{""Q0"":1}","[0]","","images/stimuli/spore_stims/complex_08_A_a.gif","images/stimuli/spore_stims/complex_18_A_b.gif"
"","7138.860000000917","survey-likert","157","630396","0.0-35.0","SS1619205402694","similarity_question","","","","","","","","","","","","{""Q0"":5}","[0]","","images/stimuli/spore_stims/simple_01_A_b.gif","images/stimuli/spore_stims/simple_06_A_a.gif"
"","4483.819999999483","survey-likert","158","634893","0.0-36.0","SS1619205402694","similarity_question","","","","","","","","","","","","{""Q0"":2}","[0]","","images/stimuli/spore_stims/simple_19_A_b.gif","images/stimuli/spore_stims/simple_11_A_a.gif"
"","7504.3800000002375","survey-likert","159","642411","0.0-37.0","SS1619205402694","similarity_question","","","","","","","","","","","","{""Q0"":4}","[0]","","images/stimuli/spore_stims/simple_08_A_b.gif","images/stimuli/spore_stims/simple_09_A_a.gif"
"","3989.7899999995716","survey-likert","160","646411","0.0-38.0","SS1619205402694","similarity_question","","","","","","","","","","","","{""Q0"":4}","[0]","","images/stimuli/spore_stims/simple_20_A_a.gif","images/stimuli/spore_stims/simple_03_A_b.gif"
"","7085.840000001597","survey-likert","161","653509","0.0-39.0","SS1619205402694","similarity_question","","","","","","","","","","","","{""Q0"":3}","[0]","","images/stimuli/spore_stims/complex_20_A_b.gif","images/stimuli/spore_stims/complex_16_A_a.gif"
"","4588.934999999707","survey-likert","162","658111","0.0-40.0","SS1619205402694","similarity_question","","","","","","","","","","","","{""Q0"":4}","[0]","","images/stimuli/spore_stims/complex_17_A_a.gif","images/stimuli/spore_stims/complex_07_A_b.gif"
"","4740.68000000075","survey-likert","163","662862","0.0-41.0","SS1619205402694","similarity_question","","","","","","","","","","","","{""Q0"":3}","[0]","","images/stimuli/spore_stims/simple_13_A_b.gif","images/stimuli/spore_stims/simple_03_A_a.gif"
"","4131.1600000008475","survey-likert","164","667007","0.0-42.0","SS1619205402694","similarity_question","","","","","","","","","","","","{""Q0"":3}","[0]","","images/stimuli/spore_stims/simple_07_A_b.gif","images/stimuli/spore_stims/simple_12_A_a.gif"
"","7676.009999999194","survey-likert","165","674696","0.0-43.0","SS1619205402694","similarity_question","","","","","","","","","","","","{""Q0"":2}","[0]","","images/stimuli/spore_stims/complex_16_A_b.gif","images/stimuli/spore_stims/complex_09_A_a.gif"
"","4351.800000000396","survey-likert","166","679059","0.0-44.0","SS1619205402694","similarity_question","","","","","","","","","","","","{""Q0"":2}","[0]","","images/stimuli/spore_stims/complex_03_A_b.gif","images/stimuli/spore_stims/complex_12_A_a.gif"
"[{""page_index"":0,""viewing_time"":3712.065000001574}]","3712.6950000001816","instructions","167","682783","0.0-45.0","SS1619205402694","instructions","","","","","","","","","","","","","","","",""
"","5693.05999999959","survey-likert","168","688489","0.0-46.0","SS1619205402694","","","","","","","","","images/stimuli/spore_stims/simple_13_A_b.gif","","","","{""Q0"":1}","[0]","","",""
"","5097.9400000014575","survey-likert","169","693598","0.0-47.0","SS1619205402694","","","","","","","","","images/stimuli/spore_stims/complex_16_A_a.gif","","","","{""Q0"":5}","[0]","","",""
"","4499.284999999916","survey-likert","170","698110","0.0-48.0","SS1619205402694","","","","","","","","","images/stimuli/spore_stims/simple_01_A_b.gif","","","","{""Q0"":1}","[0]","","",""
"","4611.134999999194","survey-likert","171","702733","0.0-49.0","SS1619205402694","","","","","","","","","images/stimuli/spore_stims/simple_12_A_a.gif","","","","{""Q0"":1}","[0]","","",""
"","3485.8249999997206","survey-likert","172","706233","0.0-50.0","SS1619205402694","","","","","","","","","images/stimuli/spore_stims/complex_18_A_b.gif","","","","{""Q0"":4}","[0]","","",""
"","4897.554999999469","survey-likert","173","711142","0.0-51.0","SS1619205402694","","","","","","","","","images/stimuli/spore_stims/complex_03_A_b.gif","","","","{""Q0"":3}","[0]","","",""
"","3242.2150000002002","survey-likert","174","714396","0.0-52.0","SS1619205402694","","","","","","","","","images/stimuli/spore_stims/simple_03_A_b.gif","","","","{""Q0"":1}","[0]","","",""
"","3118.2499999995343","survey-likert","175","717528","0.0-53.0","SS1619205402694","","","","","","","","","images/stimuli/spore_stims/simple_09_A_a.gif","","","","{""Q0"":1}","[0]","","",""
"","3410.50999999966","survey-likert","176","720952","0.0-54.0","SS1619205402694","","","","","","","","","images/stimuli/spore_stims/simple_19_A_b.gif","","","","{""Q0"":2}","[0]","","",""
"","5296.619999999064","survey-likert","177","726260","0.0-55.0","SS1619205402694","","","","","","","","","images/stimuli/spore_stims/complex_07_A_b.gif","","","","{""Q0"":5}","[0]","","",""
"","2722.2750000000233","survey-likert","178","728994","0.0-56.0","SS1619205402694","","","","","","","","","images/stimuli/spore_stims/complex_13_A_b.gif","","","","{""Q0"":5}","[0]","","",""
"","2565.0499999992317","survey-likert","179","731572","0.0-57.0","SS1619205402694","","","","","","","","","images/stimuli/spore_stims/complex_09_A_a.gif","","","","{""Q0"":5}","[0]","","",""
"[{""page_index"":0,""viewing_time"":3458.9250000008615}]","3459.554999999469","instructions","180","735042","0.0-58.0","SS1619205402694","instructions","","","","","","","","","","","","","","","",""
"","3390.5149999990826","demog-age","181","738449","0.0-59.0","SS1619205402694","","","","","","","","","","","","","{""age"":""27""}","","","",""
"","8479.36999999918","demog-ethnic-US","182","746954","0.0-60.0","SS1619205402694","","","","","","","","","","","","","{""ethnicity"":[""White""]}","[0]","","",""
"","5899.2099999996135","demog-gender-and-education","183","752867","0.0-61.0","SS1619205402694","","","","","","","","","","","","","{""gender"":""Male"",""education"":""Bachelor's Degree""}","[0,1]","","",""
"","8901.459999999148","survey-text","184","761786","0.0-62.0","SS1619205402694","feedback","","","","","","","","","","","","{""Q0"":""none""}","","","",""
"[{""page_index"":0,""viewing_time"":1972.8000000013271}]","1973.2700000003679","instructions","185","763771","0.0-63.0","SS1619205402694","instructions","","","","","","","","","","","","","","","",""
