"view_history","rt","trial_type","trial_index","time_elapsed","internal_node_id","subject","stimulus_type","trial_stimulus","key_press","minimum_viewing_duration","trial_looking_time","block_deviant","block_background","exposure_type","stimulus","block_number","block_type","stimulus_displayed","responses","question_order","math_correct_answer","stimulus_left","stimulus_right"
"[{""page_index"":0,""viewing_time"":11873.704999918118}]","11874.179999926127","instructions","0","11877","0.0-0.0","SS1619204435390","","","","","","","","","","","","","","","","",""
"[{""page_index"":0,""viewing_time"":28830.885000061244},{""page_index"":1,""viewing_time"":45848.21499988902}]","74679.4500000542","instructions","1","88565","0.0-1.0","SS1619204435390","instructions","","","","","","","","","","","","","","","",""
"","19492.6399999531","sequential-stimulus-presentation-old","2","108568","0.0-2.0","SS1619204435390","","","40","500","19992.6399999531","null","null","self_paced","","","","","","","","",""
"","6595.314999925904","sequential-stimulus-presentation-old","3","115670","0.0-3.0","SS1619204435390","","","40","500","7095.314999925904","null","null","self_paced","","","","","","","","",""
"[{""page_index"":0,""viewing_time"":24797.34000004828}]","24797.660000040196","instructions","4","140468","0.0-4.0","SS1619204435390","instructions","","","","","","","","","","","","","","","",""
"","12182.849999982864","sequential-stimulus-presentation-old","5","162736","0.0-5.0","SS1619204435390","","","40","500","12682.849999982864","null","null","forced_long","","","","","","","","",""
"","2315.195000031963","sequential-stimulus-presentation-old","6","165158","0.0-6.0","SS1619204435390","","","40","500","2815.195000031963","null","null","forced_long","","","","","","","","",""
"[{""page_index"":0,""viewing_time"":3027.9800000134856}]","3028.3849999541417","instructions","7","168188","0.0-7.0","SS1619204435390","instructions","","","","","","","","","","","","","","","",""
"[{""page_index"":0,""viewing_time"":16046.819999930449},{""page_index"":1,""viewing_time"":20728.400000021793},{""page_index"":2,""viewing_time"":17263.28499999363},{""page_index"":3,""viewing_time"":2791.7649999726564},{""page_index"":4,""viewing_time"":1208.4350000368431}]","58039.074999978766","instructions","8","226228","0.0-8.0","SS1619204435390","instructions","","","","","","","","","","","","","","","",""
"","null","html-keyboard-response","9","227515","0.0-9.0-0.0","SS1619204435390","","","null","","","","","","<p><img src= images/blank.png width =""600"" height = ""600"" style=""position:fixed;top:50%; left:50%; transform: translate(-50%, -50%); border:5px solid black"">","","","","","","","",""
"","15147.870000102557","sequential-stimulus-presentation-old","10","243176","0.0-9.0-1.0","SS1619204435390","trial","","40","500","15647.870000102557","images/stimuli/spore_stims/simple_11_A_a.gif","images/stimuli/spore_stims/simple_14_A_b.gif","self_paced","","0","simple_dissimilar","images/stimuli/spore_stims/simple_14_A_b.gif","","","","",""
"","null","html-keyboard-response","11","244256","0.0-9.0-0.1","SS1619204435390","","","null","","","","","","<p><img src= images/blank.png width =""600"" height = ""600"" style=""position:fixed;top:50%; left:50%; transform: translate(-50%, -50%); border:5px solid black"">","","","","","","","",""
"","7806.8249999778345","sequential-stimulus-presentation-old","12","252577","0.0-9.0-1.1","SS1619204435390","trial","","40","500","8306.824999977835","images/stimuli/spore_stims/simple_11_A_a.gif","images/stimuli/spore_stims/simple_14_A_b.gif","self_paced","","0","simple_dissimilar","images/stimuli/spore_stims/simple_11_A_a.gif","","","","",""
"","null","html-keyboard-response","13","253416","0.0-9.0-0.2","SS1619204435390","","","null","","","","","","<p><img src= images/blank.png width =""600"" height = ""600"" style=""position:fixed;top:50%; left:50%; transform: translate(-50%, -50%); border:5px solid black"">","","","","","","","",""
"","7204.899999895133","sequential-stimulus-presentation-old","14","261133","0.0-9.0-1.2","SS1619204435390","trial","","40","500","7704.899999895133","images/stimuli/spore_stims/simple_11_A_a.gif","images/stimuli/spore_stims/simple_14_A_b.gif","self_paced","","0","simple_dissimilar","images/stimuli/spore_stims/simple_14_A_b.gif","","","","",""
"","null","html-keyboard-response","15","262187","0.0-9.0-0.3","SS1619204435390","","","null","","","","","","<p><img src= images/blank.png width =""600"" height = ""600"" style=""position:fixed;top:50%; left:50%; transform: translate(-50%, -50%); border:5px solid black"">","","","","","","","",""
"","9084.41499993205","sequential-stimulus-presentation-old","16","271783","0.0-9.0-1.3","SS1619204435390","trial","","40","500","9584.41499993205","images/stimuli/spore_stims/simple_11_A_a.gif","images/stimuli/spore_stims/simple_14_A_b.gif","self_paced","","0","simple_dissimilar","images/stimuli/spore_stims/simple_14_A_b.gif","","","","",""
"","null","html-keyboard-response","17","272730","0.0-9.0-0.4","SS1619204435390","","","null","","","","","","<p><img src= images/blank.png width =""600"" height = ""600"" style=""position:fixed;top:50%; left:50%; transform: translate(-50%, -50%); border:5px solid black"">","","","","","","","",""
"","9191.170000005513","sequential-stimulus-presentation-old","18","282434","0.0-9.0-1.4","SS1619204435390","trial","","40","500","9691.170000005513","images/stimuli/spore_stims/simple_11_A_a.gif","images/stimuli/spore_stims/simple_14_A_b.gif","self_paced","","0","simple_dissimilar","images/stimuli/spore_stims/simple_14_A_b.gif","","","","",""
"","null","html-keyboard-response","19","283664","0.0-9.0-0.5","SS1619204435390","","","null","","","","","","<p><img src= images/blank.png width =""600"" height = ""600"" style=""position:fixed;top:50%; left:50%; transform: translate(-50%, -50%); border:5px solid black"">","","","","","","","",""
"","5875.405000057071","sequential-stimulus-presentation-old","20","290054","0.0-9.0-1.5","SS1619204435390","trial","","40","500","6375.405000057071","images/stimuli/spore_stims/simple_11_A_a.gif","images/stimuli/spore_stims/simple_14_A_b.gif","self_paced","","0","simple_dissimilar","images/stimuli/spore_stims/simple_14_A_b.gif","","","","",""
"","4540.730000007898","survey-multi-choice","21","294605","0.0-10.0","SS1619204435390","math_question","","","","","","","","","","","","{""Q0"":""12""}","[0]","12","",""
"","null","html-keyboard-response","22","295626","0.0-11.0-0.0","SS1619204435390","","","null","","","","","","<p><img src= images/blank.png width =""600"" height = ""600"" style=""position:fixed;top:50%; left:50%; transform: translate(-50%, -50%); border:5px solid black"">","","","","","","","",""
"","6381.120000034571","sequential-stimulus-presentation-old","23","302522","0.0-11.0-1.0","SS1619204435390","trial","","40","500","6881.120000034571","images/stimuli/spore_stims/simple_10_A_b.gif","images/stimuli/spore_stims/simple_17_A_a.gif","self_paced","","1","simple_dissimilar","images/stimuli/spore_stims/simple_17_A_a.gif","","","","",""
"","null","html-keyboard-response","24","303755","0.0-11.0-0.1","SS1619204435390","","","null","","","","","","<p><img src= images/blank.png width =""600"" height = ""600"" style=""position:fixed;top:50%; left:50%; transform: translate(-50%, -50%); border:5px solid black"">","","","","","","","",""
"","10237.490000086837","sequential-stimulus-presentation-old","25","314505","0.0-11.0-1.1","SS1619204435390","trial","","40","500","10737.490000086837","images/stimuli/spore_stims/simple_10_A_b.gif","images/stimuli/spore_stims/simple_17_A_a.gif","self_paced","","1","simple_dissimilar","images/stimuli/spore_stims/simple_17_A_a.gif","","","","",""
"","null","html-keyboard-response","26","315538","0.0-11.0-0.2","SS1619204435390","","","null","","","","","","<p><img src= images/blank.png width =""600"" height = ""600"" style=""position:fixed;top:50%; left:50%; transform: translate(-50%, -50%); border:5px solid black"">","","","","","","","",""
"","6808.760000043549","sequential-stimulus-presentation-old","27","322858","0.0-11.0-1.2","SS1619204435390","trial","","40","500","7308.760000043549","images/stimuli/spore_stims/simple_10_A_b.gif","images/stimuli/spore_stims/simple_17_A_a.gif","self_paced","","1","simple_dissimilar","images/stimuli/spore_stims/simple_10_A_b.gif","","","","",""
"","null","html-keyboard-response","28","323671","0.0-11.0-0.3","SS1619204435390","","","null","","","","","","<p><img src= images/blank.png width =""600"" height = ""600"" style=""position:fixed;top:50%; left:50%; transform: translate(-50%, -50%); border:5px solid black"">","","","","","","","",""
"","7174.77499996312","sequential-stimulus-presentation-old","29","331376","0.0-11.0-1.3","SS1619204435390","trial","","40","500","7674.77499996312","images/stimuli/spore_stims/simple_10_A_b.gif","images/stimuli/spore_stims/simple_17_A_a.gif","self_paced","","1","simple_dissimilar","images/stimuli/spore_stims/simple_17_A_a.gif","","","","",""
"","null","html-keyboard-response","30","332634","0.0-11.0-0.4","SS1619204435390","","","null","","","","","","<p><img src= images/blank.png width =""600"" height = ""600"" style=""position:fixed;top:50%; left:50%; transform: translate(-50%, -50%); border:5px solid black"">","","","","","","","",""
"","6403.430000063963","sequential-stimulus-presentation-old","31","339555","0.0-11.0-1.4","SS1619204435390","trial","","40","500","6903.430000063963","images/stimuli/spore_stims/simple_10_A_b.gif","images/stimuli/spore_stims/simple_17_A_a.gif","self_paced","","1","simple_dissimilar","images/stimuli/spore_stims/simple_17_A_a.gif","","","","",""
"","null","html-keyboard-response","32","340787","0.0-11.0-0.5","SS1619204435390","","","null","","","","","","<p><img src= images/blank.png width =""600"" height = ""600"" style=""position:fixed;top:50%; left:50%; transform: translate(-50%, -50%); border:5px solid black"">","","","","","","","",""
"","6625.755000044592","sequential-stimulus-presentation-old","33","347925","0.0-11.0-1.5","SS1619204435390","trial","","40","500","7125.755000044592","images/stimuli/spore_stims/simple_10_A_b.gif","images/stimuli/spore_stims/simple_17_A_a.gif","self_paced","","1","simple_dissimilar","images/stimuli/spore_stims/simple_10_A_b.gif","","","","",""
"","4538.360000005923","survey-multi-choice","34","352468","0.0-12.0","SS1619204435390","math_question","","","","","","","","","","","","{""Q0"":""12""}","[0]","12","",""
"","null","html-keyboard-response","35","353438","0.0-13.0-0.0","SS1619204435390","","","null","","","","","","<p><img src= images/blank.png width =""600"" height = ""600"" style=""position:fixed;top:50%; left:50%; transform: translate(-50%, -50%); border:5px solid black"">","","","","","","","",""
"","2831.2049999367446","sequential-stimulus-presentation-old","36","356381","0.0-13.0-1.0","SS1619204435390","trial","","40","500","3331.2049999367446","images/stimuli/spore_stims/simple_17_A_b.gif","images/stimuli/spore_stims/simple_09_A_a.gif","forced_short","","2","simple_dissimilar","images/stimuli/spore_stims/simple_09_A_a.gif","","","","",""
"","null","html-keyboard-response","37","357422","0.0-13.0-0.1","SS1619204435390","","","null","","","","","","<p><img src= images/blank.png width =""600"" height = ""600"" style=""position:fixed;top:50%; left:50%; transform: translate(-50%, -50%); border:5px solid black"">","","","","","","","",""
"","7778.284999891184","sequential-stimulus-presentation-old","38","365715","0.0-13.0-1.1","SS1619204435390","trial","","40","500","8278.284999891184","images/stimuli/spore_stims/simple_17_A_b.gif","images/stimuli/spore_stims/simple_09_A_a.gif","forced_short","","2","simple_dissimilar","images/stimuli/spore_stims/simple_09_A_a.gif","","","","",""
"","null","html-keyboard-response","39","366578","0.0-13.0-0.2","SS1619204435390","","","null","","","","","","<p><img src= images/blank.png width =""600"" height = ""600"" style=""position:fixed;top:50%; left:50%; transform: translate(-50%, -50%); border:5px solid black"">","","","","","","","",""
"","5591.259999899194","sequential-stimulus-presentation-old","40","372682","0.0-13.0-1.2","SS1619204435390","trial","","40","500","6091.259999899194","images/stimuli/spore_stims/simple_17_A_b.gif","images/stimuli/spore_stims/simple_09_A_a.gif","forced_short","","2","simple_dissimilar","images/stimuli/spore_stims/simple_17_A_b.gif","","","","",""
"","null","html-keyboard-response","41","373833","0.0-13.0-0.3","SS1619204435390","","","null","","","","","","<p><img src= images/blank.png width =""600"" height = ""600"" style=""position:fixed;top:50%; left:50%; transform: translate(-50%, -50%); border:5px solid black"">","","","","","","","",""
"","6433.86999994982","sequential-stimulus-presentation-old","42","380782","0.0-13.0-1.3","SS1619204435390","trial","","40","500","6933.86999994982","images/stimuli/spore_stims/simple_17_A_b.gif","images/stimuli/spore_stims/simple_09_A_a.gif","forced_short","","2","simple_dissimilar","images/stimuli/spore_stims/simple_09_A_a.gif","","","","",""
"","null","html-keyboard-response","43","381789","0.0-13.0-0.4","SS1619204435390","","","null","","","","","","<p><img src= images/blank.png width =""600"" height = ""600"" style=""position:fixed;top:50%; left:50%; transform: translate(-50%, -50%); border:5px solid black"">","","","","","","","",""
"","6221.740000066347","sequential-stimulus-presentation-old","44","388521","0.0-13.0-1.4","SS1619204435390","trial","","40","500","6721.740000066347","images/stimuli/spore_stims/simple_17_A_b.gif","images/stimuli/spore_stims/simple_09_A_a.gif","forced_short","","2","simple_dissimilar","images/stimuli/spore_stims/simple_09_A_a.gif","","","","",""
"","null","html-keyboard-response","45","389823","0.0-13.0-0.5","SS1619204435390","","","null","","","","","","<p><img src= images/blank.png width =""600"" height = ""600"" style=""position:fixed;top:50%; left:50%; transform: translate(-50%, -50%); border:5px solid black"">","","","","","","","",""
"","6426.12000007648","sequential-stimulus-presentation-old","46","396768","0.0-13.0-1.5","SS1619204435390","trial","","40","500","6926.12000007648","images/stimuli/spore_stims/simple_17_A_b.gif","images/stimuli/spore_stims/simple_09_A_a.gif","forced_short","","2","simple_dissimilar","images/stimuli/spore_stims/simple_09_A_a.gif","","","","",""
"","4242.059999960475","survey-multi-choice","47","401020","0.0-14.0","SS1619204435390","math_question","","","","","","","","","","","","{""Q0"":""6""}","[0]","6","",""
"","null","html-keyboard-response","48","402284","0.0-15.0-0.0","SS1619204435390","","","null","","","","","","<p><img src= images/blank.png width =""600"" height = ""600"" style=""position:fixed;top:50%; left:50%; transform: translate(-50%, -50%); border:5px solid black"">","","","","","","","",""
"","1018.7000000150874","sequential-stimulus-presentation-old","49","413318","0.0-15.0-1.0","SS1619204435390","trial","","40","500","1518.7000000150874","images/stimuli/spore_stims/simple_01_A_a.gif","images/stimuli/spore_stims/simple_19_A_b.gif","forced_long","","3","simple_dissimilar","images/stimuli/spore_stims/simple_19_A_b.gif","","","","",""
"","null","html-keyboard-response","50","414225","0.0-15.0-0.1","SS1619204435390","","","null","","","","","","<p><img src= images/blank.png width =""600"" height = ""600"" style=""position:fixed;top:50%; left:50%; transform: translate(-50%, -50%); border:5px solid black"">","","","","","","","",""
"","7811.199999996461","sequential-stimulus-presentation-old","51","422548","0.0-15.0-1.1","SS1619204435390","trial","","40","500","8311.199999996461","images/stimuli/spore_stims/simple_01_A_a.gif","images/stimuli/spore_stims/simple_19_A_b.gif","forced_long","","3","simple_dissimilar","images/stimuli/spore_stims/simple_19_A_b.gif","","","","",""
"","null","html-keyboard-response","52","423791","0.0-15.0-0.2","SS1619204435390","","","null","","","","","","<p><img src= images/blank.png width =""600"" height = ""600"" style=""position:fixed;top:50%; left:50%; transform: translate(-50%, -50%); border:5px solid black"">","","","","","","","",""
"","7326.914999983273","sequential-stimulus-presentation-old","53","431633","0.0-15.0-1.2","SS1619204435390","trial","","40","500","7826.914999983273","images/stimuli/spore_stims/simple_01_A_a.gif","images/stimuli/spore_stims/simple_19_A_b.gif","forced_long","","3","simple_dissimilar","images/stimuli/spore_stims/simple_19_A_b.gif","","","","",""
"","null","html-keyboard-response","54","432726","0.0-15.0-0.3","SS1619204435390","","","null","","","","","","<p><img src= images/blank.png width =""600"" height = ""600"" style=""position:fixed;top:50%; left:50%; transform: translate(-50%, -50%); border:5px solid black"">","","","","","","","",""
"","7469.889999949373","sequential-stimulus-presentation-old","55","440706","0.0-15.0-1.3","SS1619204435390","trial","","40","500","7969.889999949373","images/stimuli/spore_stims/simple_01_A_a.gif","images/stimuli/spore_stims/simple_19_A_b.gif","forced_long","","3","simple_dissimilar","images/stimuli/spore_stims/simple_01_A_a.gif","","","","",""
"","4493.3400000445545","survey-multi-choice","56","445204","0.0-16.0","SS1619204435390","math_question","","","","","","","","","","","","{""Q0"":""10""}","[0]","10","",""
"","null","html-keyboard-response","57","446197","0.0-17.0-0.0","SS1619204435390","","","null","","","","","","<p><img src= images/blank.png width =""600"" height = ""600"" style=""position:fixed;top:50%; left:50%; transform: translate(-50%, -50%); border:5px solid black"">","","","","","","","",""
"","1472.1000000135973","sequential-stimulus-presentation-old","58","447784","0.0-17.0-1.0","SS1619204435390","trial","","40","500","1972.1000000135973","images/stimuli/spore_stims/simple_02_A_a.gif","images/stimuli/spore_stims/simple_07_A_b.gif","forced_short","","4","simple_dissimilar","images/stimuli/spore_stims/simple_07_A_b.gif","","","","",""
"","null","html-keyboard-response","59","448646","0.0-17.0-0.1","SS1619204435390","","","null","","","","","","<p><img src= images/blank.png width =""600"" height = ""600"" style=""position:fixed;top:50%; left:50%; transform: translate(-50%, -50%); border:5px solid black"">","","","","","","","",""
"","4126.954999985173","sequential-stimulus-presentation-old","60","453285","0.0-17.0-1.1","SS1619204435390","trial","","40","500","4626.954999985173","images/stimuli/spore_stims/simple_02_A_a.gif","images/stimuli/spore_stims/simple_07_A_b.gif","forced_short","","4","simple_dissimilar","images/stimuli/spore_stims/simple_02_A_a.gif","","","","",""
"","null","html-keyboard-response","61","454493","0.0-17.0-0.2","SS1619204435390","","","null","","","","","","<p><img src= images/blank.png width =""600"" height = ""600"" style=""position:fixed;top:50%; left:50%; transform: translate(-50%, -50%); border:5px solid black"">","","","","","","","",""
"","6079.165000002831","sequential-stimulus-presentation-old","62","461085","0.0-17.0-1.2","SS1619204435390","trial","","40","500","6579.165000002831","images/stimuli/spore_stims/simple_02_A_a.gif","images/stimuli/spore_stims/simple_07_A_b.gif","forced_short","","4","simple_dissimilar","images/stimuli/spore_stims/simple_02_A_a.gif","","","","",""
"","null","html-keyboard-response","63","461893","0.0-17.0-0.3","SS1619204435390","","","null","","","","","","<p><img src= images/blank.png width =""600"" height = ""600"" style=""position:fixed;top:50%; left:50%; transform: translate(-50%, -50%); border:5px solid black"">","","","","","","","",""
"","4105.03500001505","sequential-stimulus-presentation-old","64","466519","0.0-17.0-1.3","SS1619204435390","trial","","40","500","4605.03500001505","images/stimuli/spore_stims/simple_02_A_a.gif","images/stimuli/spore_stims/simple_07_A_b.gif","forced_short","","4","simple_dissimilar","images/stimuli/spore_stims/simple_07_A_b.gif","","","","",""
"","null","html-keyboard-response","65","467694","0.0-17.0-0.4","SS1619204435390","","","null","","","","","","<p><img src= images/blank.png width =""600"" height = ""600"" style=""position:fixed;top:50%; left:50%; transform: translate(-50%, -50%); border:5px solid black"">","","","","","","","",""
"","4545.925000100397","sequential-stimulus-presentation-old","66","472758","0.0-17.0-1.4","SS1619204435390","trial","","40","500","5045.925000100397","images/stimuli/spore_stims/simple_02_A_a.gif","images/stimuli/spore_stims/simple_07_A_b.gif","forced_short","","4","simple_dissimilar","images/stimuli/spore_stims/simple_07_A_b.gif","","","","",""
"","null","html-keyboard-response","67","473682","0.0-17.0-0.5","SS1619204435390","","","null","","","","","","<p><img src= images/blank.png width =""600"" height = ""600"" style=""position:fixed;top:50%; left:50%; transform: translate(-50%, -50%); border:5px solid black"">","","","","","","","",""
"","5434.750000014901","sequential-stimulus-presentation-old","68","479631","0.0-17.0-1.5","SS1619204435390","trial","","40","500","5934.750000014901","images/stimuli/spore_stims/simple_02_A_a.gif","images/stimuli/spore_stims/simple_07_A_b.gif","forced_short","","4","simple_dissimilar","images/stimuli/spore_stims/simple_07_A_b.gif","","","","",""
"","5839.055000105873","survey-multi-choice","69","485476","0.0-18.0","SS1619204435390","math_question","","","","","","","","","","","","{""Q0"":""11""}","[0]","11","",""
"","null","html-keyboard-response","70","486782","0.0-19.0-0.0","SS1619204435390","","","null","","","","","","<p><img src= images/blank.png width =""600"" height = ""600"" style=""position:fixed;top:50%; left:50%; transform: translate(-50%, -50%); border:5px solid black"">","","","","","","","",""
"","645.479999948293","sequential-stimulus-presentation-old","71","497445","0.0-19.0-1.0","SS1619204435390","trial","","40","500","1145.479999948293","images/stimuli/spore_stims/complex_15_A_a.gif","images/stimuli/spore_stims/complex_14_A_b.gif","forced_long","","5","complex_dissimilar","images/stimuli/spore_stims/complex_14_A_b.gif","","","","",""
"","null","html-keyboard-response","72","498569","0.0-19.0-0.1","SS1619204435390","","","null","","","","","","<p><img src= images/blank.png width =""600"" height = ""600"" style=""position:fixed;top:50%; left:50%; transform: translate(-50%, -50%); border:5px solid black"">","","","","","","","",""
"","8873.13500000164","sequential-stimulus-presentation-old","73","507953","0.0-19.0-1.1","SS1619204435390","trial","","40","500","9373.13500000164","images/stimuli/spore_stims/complex_15_A_a.gif","images/stimuli/spore_stims/complex_14_A_b.gif","forced_long","","5","complex_dissimilar","images/stimuli/spore_stims/complex_14_A_b.gif","","","","",""
"","null","html-keyboard-response","74","509041","0.0-19.0-0.2","SS1619204435390","","","null","","","","","","<p><img src= images/blank.png width =""600"" height = ""600"" style=""position:fixed;top:50%; left:50%; transform: translate(-50%, -50%); border:5px solid black"">","","","","","","","",""
"","6164.599999901839","sequential-stimulus-presentation-old","75","515719","0.0-19.0-1.2","SS1619204435390","trial","","40","500","6664.599999901839","images/stimuli/spore_stims/complex_15_A_a.gif","images/stimuli/spore_stims/complex_14_A_b.gif","forced_long","","5","complex_dissimilar","images/stimuli/spore_stims/complex_14_A_b.gif","","","","",""
"","null","html-keyboard-response","76","516691","0.0-19.0-0.3","SS1619204435390","","","null","","","","","","<p><img src= images/blank.png width =""600"" height = ""600"" style=""position:fixed;top:50%; left:50%; transform: translate(-50%, -50%); border:5px solid black"">","","","","","","","",""
"","5775.739999953657","sequential-stimulus-presentation-old","77","522977","0.0-19.0-1.3","SS1619204435390","trial","","40","500","6275.739999953657","images/stimuli/spore_stims/complex_15_A_a.gif","images/stimuli/spore_stims/complex_14_A_b.gif","forced_long","","5","complex_dissimilar","images/stimuli/spore_stims/complex_14_A_b.gif","","","","",""
"","null","html-keyboard-response","78","524125","0.0-19.0-0.4","SS1619204435390","","","null","","","","","","<p><img src= images/blank.png width =""600"" height = ""600"" style=""position:fixed;top:50%; left:50%; transform: translate(-50%, -50%); border:5px solid black"">","","","","","","","",""
"","9269.195000058971","sequential-stimulus-presentation-old","79","533921","0.0-19.0-1.4","SS1619204435390","trial","","40","500","9769.195000058971","images/stimuli/spore_stims/complex_15_A_a.gif","images/stimuli/spore_stims/complex_14_A_b.gif","forced_long","","5","complex_dissimilar","images/stimuli/spore_stims/complex_14_A_b.gif","","","","",""
"","28229.83500000555","survey-multi-choice","80","562156","0.0-20.0","SS1619204435390","math_question","","","","","","","","","","","","{""Q0"":""14""}","[0]","14","",""
"","null","html-keyboard-response","81","563142","0.0-21.0-0.0","SS1619204435390","","","null","","","","","","<p><img src= images/blank.png width =""600"" height = ""600"" style=""position:fixed;top:50%; left:50%; transform: translate(-50%, -50%); border:5px solid black"">","","","","","","","",""
"","737.6050000311807","sequential-stimulus-presentation-old","82","563992","0.0-21.0-1.0","SS1619204435390","trial","","40","500","1237.6050000311807","images/stimuli/spore_stims/complex_06_A_a.gif","images/stimuli/spore_stims/complex_19_A_b.gif","forced_short","","6","complex_dissimilar","images/stimuli/spore_stims/complex_19_A_b.gif","","","","",""
"","null","html-keyboard-response","83","565300","0.0-21.0-0.1","SS1619204435390","","","null","","","","","","<p><img src= images/blank.png width =""600"" height = ""600"" style=""position:fixed;top:50%; left:50%; transform: translate(-50%, -50%); border:5px solid black"">","","","","","","","",""
"","3409.8249999806285","sequential-stimulus-presentation-old","84","569226","0.0-21.0-1.1","SS1619204435390","trial","","40","500","3909.8249999806285","images/stimuli/spore_stims/complex_06_A_a.gif","images/stimuli/spore_stims/complex_19_A_b.gif","forced_short","","6","complex_dissimilar","images/stimuli/spore_stims/complex_19_A_b.gif","","","","",""
"","null","html-keyboard-response","85","570220","0.0-21.0-0.2","SS1619204435390","","","null","","","","","","<p><img src= images/blank.png width =""600"" height = ""600"" style=""position:fixed;top:50%; left:50%; transform: translate(-50%, -50%); border:5px solid black"">","","","","","","","",""
"","9592.289999942295","sequential-stimulus-presentation-old","86","580330","0.0-21.0-1.2","SS1619204435390","trial","","40","500","10092.289999942295","images/stimuli/spore_stims/complex_06_A_a.gif","images/stimuli/spore_stims/complex_19_A_b.gif","forced_short","","6","complex_dissimilar","images/stimuli/spore_stims/complex_19_A_b.gif","","","","",""
"","null","html-keyboard-response","87","581219","0.0-21.0-0.3","SS1619204435390","","","null","","","","","","<p><img src= images/blank.png width =""600"" height = ""600"" style=""position:fixed;top:50%; left:50%; transform: translate(-50%, -50%); border:5px solid black"">","","","","","","","",""
"","4748.400000040419","sequential-stimulus-presentation-old","88","586482","0.0-21.0-1.3","SS1619204435390","trial","","40","500","5248.400000040419","images/stimuli/spore_stims/complex_06_A_a.gif","images/stimuli/spore_stims/complex_19_A_b.gif","forced_short","","6","complex_dissimilar","images/stimuli/spore_stims/complex_19_A_b.gif","","","","",""
"","null","html-keyboard-response","89","587532","0.0-21.0-0.4","SS1619204435390","","","null","","","","","","<p><img src= images/blank.png width =""600"" height = ""600"" style=""position:fixed;top:50%; left:50%; transform: translate(-50%, -50%); border:5px solid black"">","","","","","","","",""
"","6356.870000017807","sequential-stimulus-presentation-old","90","594408","0.0-21.0-1.4","SS1619204435390","trial","","40","500","6856.870000017807","images/stimuli/spore_stims/complex_06_A_a.gif","images/stimuli/spore_stims/complex_19_A_b.gif","forced_short","","6","complex_dissimilar","images/stimuli/spore_stims/complex_06_A_a.gif","","","","",""
"","null","html-keyboard-response","91","595511","0.0-21.0-0.5","SS1619204435390","","","null","","","","","","<p><img src= images/blank.png width =""600"" height = ""600"" style=""position:fixed;top:50%; left:50%; transform: translate(-50%, -50%); border:5px solid black"">","","","","","","","",""
"","2826.545000076294","sequential-stimulus-presentation-old","92","598849","0.0-21.0-1.5","SS1619204435390","trial","","40","500","3326.545000076294","images/stimuli/spore_stims/complex_06_A_a.gif","images/stimuli/spore_stims/complex_19_A_b.gif","forced_short","","6","complex_dissimilar","images/stimuli/spore_stims/complex_06_A_a.gif","","","","",""
"","3779.9749999539927","survey-multi-choice","93","602636","0.0-22.0","SS1619204435390","math_question","","","","","","","","","","","","{""Q0"":""14""}","[0]","14","",""
"","null","html-keyboard-response","94","603859","0.0-23.0-0.0","SS1619204435390","","","null","","","","","","<p><img src= images/blank.png width =""600"" height = ""600"" style=""position:fixed;top:50%; left:50%; transform: translate(-50%, -50%); border:5px solid black"">","","","","","","","",""
"","755.3400000324473","sequential-stimulus-presentation-old","95","614632","0.0-23.0-1.0","SS1619204435390","trial","","40","500","1255.3400000324473","images/stimuli/spore_stims/complex_01_A_a.gif","images/stimuli/spore_stims/complex_03_A_b.gif","forced_long","","7","complex_dissimilar","images/stimuli/spore_stims/complex_03_A_b.gif","","","","",""
"","null","html-keyboard-response","96","615482","0.0-23.0-0.1","SS1619204435390","","","null","","","","","","<p><img src= images/blank.png width =""600"" height = ""600"" style=""position:fixed;top:50%; left:50%; transform: translate(-50%, -50%); border:5px solid black"">","","","","","","","",""
"","6104.799999971874","sequential-stimulus-presentation-old","97","622099","0.0-23.0-1.1","SS1619204435390","trial","","40","500","6604.799999971874","images/stimuli/spore_stims/complex_01_A_a.gif","images/stimuli/spore_stims/complex_03_A_b.gif","forced_long","","7","complex_dissimilar","images/stimuli/spore_stims/complex_03_A_b.gif","","","","",""
"","null","html-keyboard-response","98","623408","0.0-23.0-0.2","SS1619204435390","","","null","","","","","","<p><img src= images/blank.png width =""600"" height = ""600"" style=""position:fixed;top:50%; left:50%; transform: translate(-50%, -50%); border:5px solid black"">","","","","","","","",""
"","3326.420000055805","sequential-stimulus-presentation-old","99","627247","0.0-23.0-1.2","SS1619204435390","trial","","40","500","3826.420000055805","images/stimuli/spore_stims/complex_01_A_a.gif","images/stimuli/spore_stims/complex_03_A_b.gif","forced_long","","7","complex_dissimilar","images/stimuli/spore_stims/complex_03_A_b.gif","","","","",""
"","null","html-keyboard-response","100","628553","0.0-23.0-0.3","SS1619204435390","","","null","","","","","","<p><img src= images/blank.png width =""600"" height = ""600"" style=""position:fixed;top:50%; left:50%; transform: translate(-50%, -50%); border:5px solid black"">","","","","","","","",""
"","4301.1549999937415","sequential-stimulus-presentation-old","101","633368","0.0-23.0-1.3","SS1619204435390","trial","","40","500","4801.1549999937415","images/stimuli/spore_stims/complex_01_A_a.gif","images/stimuli/spore_stims/complex_03_A_b.gif","forced_long","","7","complex_dissimilar","images/stimuli/spore_stims/complex_01_A_a.gif","","","","",""
"","null","html-keyboard-response","102","634307","0.0-23.0-0.4","SS1619204435390","","","null","","","","","","<p><img src= images/blank.png width =""600"" height = ""600"" style=""position:fixed;top:50%; left:50%; transform: translate(-50%, -50%); border:5px solid black"">","","","","","","","",""
"","4026.465000002645","sequential-stimulus-presentation-old","103","638855","0.0-23.0-1.4","SS1619204435390","trial","","40","500","4526.465000002645","images/stimuli/spore_stims/complex_01_A_a.gif","images/stimuli/spore_stims/complex_03_A_b.gif","forced_long","","7","complex_dissimilar","images/stimuli/spore_stims/complex_03_A_b.gif","","","","",""
"","null","html-keyboard-response","104","639779","0.0-23.0-0.5","SS1619204435390","","","null","","","","","","<p><img src= images/blank.png width =""600"" height = ""600"" style=""position:fixed;top:50%; left:50%; transform: translate(-50%, -50%); border:5px solid black"">","","","","","","","",""
"","8702.370000071824","sequential-stimulus-presentation-old","105","648997","0.0-23.0-1.5","SS1619204435390","trial","","40","500","9202.370000071824","images/stimuli/spore_stims/complex_01_A_a.gif","images/stimuli/spore_stims/complex_03_A_b.gif","forced_long","","7","complex_dissimilar","images/stimuli/spore_stims/complex_01_A_a.gif","","","","",""
"","4321.775000076741","survey-multi-choice","106","653323","0.0-24.0","SS1619204435390","math_question","","","","","","","","","","","","{""Q0"":""8""}","[0]","8","",""
"","null","html-keyboard-response","107","654132","0.0-25.0-0.0","SS1619204435390","","","null","","","","","","<p><img src= images/blank.png width =""600"" height = ""600"" style=""position:fixed;top:50%; left:50%; transform: translate(-50%, -50%); border:5px solid black"">","","","","","","","",""
"","5018.135000020266","sequential-stimulus-presentation-old","108","659662","0.0-25.0-1.0","SS1619204435390","trial","","40","500","5518.135000020266","images/stimuli/spore_stims/complex_11_A_a.gif","images/stimuli/spore_stims/complex_12_A_b.gif","self_paced","","8","complex_dissimilar","images/stimuli/spore_stims/complex_12_A_b.gif","","","","",""
"","null","html-keyboard-response","109","660580","0.0-25.0-0.1","SS1619204435390","","","null","","","","","","<p><img src= images/blank.png width =""600"" height = ""600"" style=""position:fixed;top:50%; left:50%; transform: translate(-50%, -50%); border:5px solid black"">","","","","","","","",""
"","4422.724999953061","sequential-stimulus-presentation-old","110","665523","0.0-25.0-1.1","SS1619204435390","trial","","40","500","4922.724999953061","images/stimuli/spore_stims/complex_11_A_a.gif","images/stimuli/spore_stims/complex_12_A_b.gif","self_paced","","8","complex_dissimilar","images/stimuli/spore_stims/complex_12_A_b.gif","","","","",""
"","null","html-keyboard-response","111","666706","0.0-25.0-0.2","SS1619204435390","","","null","","","","","","<p><img src= images/blank.png width =""600"" height = ""600"" style=""position:fixed;top:50%; left:50%; transform: translate(-50%, -50%); border:5px solid black"">","","","","","","","",""
"","5006.885000038892","sequential-stimulus-presentation-old","112","672233","0.0-25.0-1.2","SS1619204435390","trial","","40","500","5506.885000038892","images/stimuli/spore_stims/complex_11_A_a.gif","images/stimuli/spore_stims/complex_12_A_b.gif","self_paced","","8","complex_dissimilar","images/stimuli/spore_stims/complex_12_A_b.gif","","","","",""
"","null","html-keyboard-response","113","673184","0.0-25.0-0.3","SS1619204435390","","","null","","","","","","<p><img src= images/blank.png width =""600"" height = ""600"" style=""position:fixed;top:50%; left:50%; transform: translate(-50%, -50%); border:5px solid black"">","","","","","","","",""
"","4447.825000039302","sequential-stimulus-presentation-old","114","678152","0.0-25.0-1.3","SS1619204435390","trial","","40","500","4947.825000039302","images/stimuli/spore_stims/complex_11_A_a.gif","images/stimuli/spore_stims/complex_12_A_b.gif","self_paced","","8","complex_dissimilar","images/stimuli/spore_stims/complex_12_A_b.gif","","","","",""
"","null","html-keyboard-response","115","679273","0.0-25.0-0.4","SS1619204435390","","","null","","","","","","<p><img src= images/blank.png width =""600"" height = ""600"" style=""position:fixed;top:50%; left:50%; transform: translate(-50%, -50%); border:5px solid black"">","","","","","","","",""
"","4969.6299999486655","sequential-stimulus-presentation-old","116","684759","0.0-25.0-1.4","SS1619204435390","trial","","40","500","5469.6299999486655","images/stimuli/spore_stims/complex_11_A_a.gif","images/stimuli/spore_stims/complex_12_A_b.gif","self_paced","","8","complex_dissimilar","images/stimuli/spore_stims/complex_12_A_b.gif","","","","",""
"","4762.72500003688","survey-multi-choice","117","689532","0.0-26.0","SS1619204435390","math_question","","","","","","","","","","","","{""Q0"":""11""}","[0]","11","",""
"","null","html-keyboard-response","118","690547","0.0-27.0-0.0","SS1619204435390","","","null","","","","","","<p><img src= images/blank.png width =""600"" height = ""600"" style=""position:fixed;top:50%; left:50%; transform: translate(-50%, -50%); border:5px solid black"">","","","","","","","",""
"","1500.884999986738","sequential-stimulus-presentation-old","119","692164","0.0-27.0-1.0","SS1619204435390","trial","","40","500","2000.884999986738","images/stimuli/spore_stims/complex_09_A_b.gif","images/stimuli/spore_stims/complex_19_A_a.gif","forced_short","","9","complex_dissimilar","images/stimuli/spore_stims/complex_19_A_a.gif","","","","",""
"","null","html-keyboard-response","120","693296","0.0-27.0-0.1","SS1619204435390","","","null","","","","","","<p><img src= images/blank.png width =""600"" height = ""600"" style=""position:fixed;top:50%; left:50%; transform: translate(-50%, -50%); border:5px solid black"">","","","","","","","",""
"","3708.6850000778213","sequential-stimulus-presentation-old","121","697518","0.0-27.0-1.1","SS1619204435390","trial","","40","500","4208.685000077821","images/stimuli/spore_stims/complex_09_A_b.gif","images/stimuli/spore_stims/complex_19_A_a.gif","forced_short","","9","complex_dissimilar","images/stimuli/spore_stims/complex_19_A_a.gif","","","","",""
"","null","html-keyboard-response","122","698598","0.0-27.0-0.2","SS1619204435390","","","null","","","","","","<p><img src= images/blank.png width =""600"" height = ""600"" style=""position:fixed;top:50%; left:50%; transform: translate(-50%, -50%); border:5px solid black"">","","","","","","","",""
"","6499.225000035949","sequential-stimulus-presentation-old","123","705619","0.0-27.0-1.2","SS1619204435390","trial","","40","500","6999.225000035949","images/stimuli/spore_stims/complex_09_A_b.gif","images/stimuli/spore_stims/complex_19_A_a.gif","forced_short","","9","complex_dissimilar","images/stimuli/spore_stims/complex_19_A_a.gif","","","","",""
"","null","html-keyboard-response","124","706693","0.0-27.0-0.3","SS1619204435390","","","null","","","","","","<p><img src= images/blank.png width =""600"" height = ""600"" style=""position:fixed;top:50%; left:50%; transform: translate(-50%, -50%); border:5px solid black"">","","","","","","","",""
"","5742.8550000768155","sequential-stimulus-presentation-old","125","712951","0.0-27.0-1.3","SS1619204435390","trial","","40","500","6242.8550000768155","images/stimuli/spore_stims/complex_09_A_b.gif","images/stimuli/spore_stims/complex_19_A_a.gif","forced_short","","9","complex_dissimilar","images/stimuli/spore_stims/complex_19_A_a.gif","","","","",""
"","null","html-keyboard-response","126","714069","0.0-27.0-0.4","SS1619204435390","","","null","","","","","","<p><img src= images/blank.png width =""600"" height = ""600"" style=""position:fixed;top:50%; left:50%; transform: translate(-50%, -50%); border:5px solid black"">","","","","","","","",""
"","7470.00999993179","sequential-stimulus-presentation-old","127","722059","0.0-27.0-1.4","SS1619204435390","trial","","40","500","7970.00999993179","images/stimuli/spore_stims/complex_09_A_b.gif","images/stimuli/spore_stims/complex_19_A_a.gif","forced_short","","9","complex_dissimilar","images/stimuli/spore_stims/complex_19_A_a.gif","","","","",""
"","5464.799999957904","survey-multi-choice","128","727532","0.0-28.0","SS1619204435390","math_question","","","","","","","","","","","","{""Q0"":""6""}","[0]","6","",""
"","null","html-keyboard-response","129","728340","0.0-29.0-0.0","SS1619204435390","","","null","","","","","","<p><img src= images/blank.png width =""600"" height = ""600"" style=""position:fixed;top:50%; left:50%; transform: translate(-50%, -50%); border:5px solid black"">","","","","","","","",""
"","6674.014999996871","sequential-stimulus-presentation-old","130","735530","0.0-29.0-1.0","SS1619204435390","trial","","40","500","7174.014999996871","images/stimuli/spore_stims/complex_03_A_a.gif","images/stimuli/spore_stims/complex_04_A_b.gif","self_paced","","10","complex_dissimilar","images/stimuli/spore_stims/complex_04_A_b.gif","","","","",""
"","null","html-keyboard-response","131","736556","0.0-29.0-0.1","SS1619204435390","","","null","","","","","","<p><img src= images/blank.png width =""600"" height = ""600"" style=""position:fixed;top:50%; left:50%; transform: translate(-50%, -50%); border:5px solid black"">","","","","","","","",""
"","3896.4299999643117","sequential-stimulus-presentation-old","132","740974","0.0-29.0-1.1","SS1619204435390","trial","","40","500","4396.429999964312","images/stimuli/spore_stims/complex_03_A_a.gif","images/stimuli/spore_stims/complex_04_A_b.gif","self_paced","","10","complex_dissimilar","images/stimuli/spore_stims/complex_04_A_b.gif","","","","",""
"","null","html-keyboard-response","133","742248","0.0-29.0-0.2","SS1619204435390","","","null","","","","","","<p><img src= images/blank.png width =""600"" height = ""600"" style=""position:fixed;top:50%; left:50%; transform: translate(-50%, -50%); border:5px solid black"">","","","","","","","",""
"","12320.149999926798","sequential-stimulus-presentation-old","134","755077","0.0-29.0-1.2","SS1619204435390","trial","","40","500","12820.149999926798","images/stimuli/spore_stims/complex_03_A_a.gif","images/stimuli/spore_stims/complex_04_A_b.gif","self_paced","","10","complex_dissimilar","images/stimuli/spore_stims/complex_03_A_a.gif","","","","",""
"","null","html-keyboard-response","135","756032","0.0-29.0-0.3","SS1619204435390","","","null","","","","","","<p><img src= images/blank.png width =""600"" height = ""600"" style=""position:fixed;top:50%; left:50%; transform: translate(-50%, -50%); border:5px solid black"">","","","","","","","",""
"","4458.159999921918","sequential-stimulus-presentation-old","136","761013","0.0-29.0-1.3","SS1619204435390","trial","","40","500","4958.159999921918","images/stimuli/spore_stims/complex_03_A_a.gif","images/stimuli/spore_stims/complex_04_A_b.gif","self_paced","","10","complex_dissimilar","images/stimuli/spore_stims/complex_04_A_b.gif","","","","",""
"","null","html-keyboard-response","137","762264","0.0-29.0-0.4","SS1619204435390","","","null","","","","","","<p><img src= images/blank.png width =""600"" height = ""600"" style=""position:fixed;top:50%; left:50%; transform: translate(-50%, -50%); border:5px solid black"">","","","","","","","",""
"","3307.574999984354","sequential-stimulus-presentation-old","138","766088","0.0-29.0-1.4","SS1619204435390","trial","","40","500","3807.574999984354","images/stimuli/spore_stims/complex_03_A_a.gif","images/stimuli/spore_stims/complex_04_A_b.gif","self_paced","","10","complex_dissimilar","images/stimuli/spore_stims/complex_04_A_b.gif","","","","",""
"","3565.004999982193","survey-multi-choice","139","769660","0.0-30.0","SS1619204435390","math_question","","","","","","","","","","","","{""Q0"":""9""}","[0]","9","",""
"","null","html-keyboard-response","140","770941","0.0-31.0-0.0","SS1619204435390","","","null","","","","","","<p><img src= images/blank.png width =""600"" height = ""600"" style=""position:fixed;top:50%; left:50%; transform: translate(-50%, -50%); border:5px solid black"">","","","","","","","",""
"","4129.3050000676885","sequential-stimulus-presentation-old","141","785092","0.0-31.0-1.0","SS1619204435390","trial","","40","500","4629.3050000676885","images/stimuli/spore_stims/simple_02_A_b.gif","images/stimuli/spore_stims/simple_20_A_a.gif","forced_long","","11","simple_dissimilar","images/stimuli/spore_stims/simple_20_A_a.gif","","","","",""
"","null","html-keyboard-response","142","786311","0.0-31.0-0.1","SS1619204435390","","","null","","","","","","<p><img src= images/blank.png width =""600"" height = ""600"" style=""position:fixed;top:50%; left:50%; transform: translate(-50%, -50%); border:5px solid black"">","","","","","","","",""
"","9025.604999973439","sequential-stimulus-presentation-old","143","795855","0.0-31.0-1.1","SS1619204435390","trial","","40","500","9525.604999973439","images/stimuli/spore_stims/simple_02_A_b.gif","images/stimuli/spore_stims/simple_20_A_a.gif","forced_long","","11","simple_dissimilar","images/stimuli/spore_stims/simple_20_A_a.gif","","","","",""
"","null","html-keyboard-response","144","796731","0.0-31.0-0.2","SS1619204435390","","","null","","","","","","<p><img src= images/blank.png width =""600"" height = ""600"" style=""position:fixed;top:50%; left:50%; transform: translate(-50%, -50%); border:5px solid black"">","","","","","","","",""
"","5770.9250000771135","sequential-stimulus-presentation-old","145","803024","0.0-31.0-1.2","SS1619204435390","trial","","40","500","6270.9250000771135","images/stimuli/spore_stims/simple_02_A_b.gif","images/stimuli/spore_stims/simple_20_A_a.gif","forced_long","","11","simple_dissimilar","images/stimuli/spore_stims/simple_02_A_b.gif","","","","",""
"","null","html-keyboard-response","146","803993","0.0-31.0-0.3","SS1619204435390","","","null","","","","","","<p><img src= images/blank.png width =""600"" height = ""600"" style=""position:fixed;top:50%; left:50%; transform: translate(-50%, -50%); border:5px solid black"">","","","","","","","",""
"","3733.3850000286475","sequential-stimulus-presentation-old","147","808240","0.0-31.0-1.3","SS1619204435390","trial","","40","500","4233.3850000286475","images/stimuli/spore_stims/simple_02_A_b.gif","images/stimuli/spore_stims/simple_20_A_a.gif","forced_long","","11","simple_dissimilar","images/stimuli/spore_stims/simple_20_A_a.gif","","","","",""
"","null","html-keyboard-response","148","809116","0.0-31.0-0.4","SS1619204435390","","","null","","","","","","<p><img src= images/blank.png width =""600"" height = ""600"" style=""position:fixed;top:50%; left:50%; transform: translate(-50%, -50%); border:5px solid black"">","","","","","","","",""
"","3002.059999969788","sequential-stimulus-presentation-old","149","812633","0.0-31.0-1.4","SS1619204435390","trial","","40","500","3502.059999969788","images/stimuli/spore_stims/simple_02_A_b.gif","images/stimuli/spore_stims/simple_20_A_a.gif","forced_long","","11","simple_dissimilar","images/stimuli/spore_stims/simple_20_A_a.gif","","","","",""
"[{""page_index"":0,""viewing_time"":3219.219999969937}]","3219.5499999215826","instructions","150","815860","0.0-32.0","SS1619204435390","instructions","","","","","","","","","","","","","","","",""
"","23563.794999965467","survey-likert","151","839428","0.0-33.0","SS1619204435390","similarity_question","","","","","","","","","","","","{""Q0"":0}","[0]","","images/stimuli/spore_stims/complex_01_A_a.gif","images/stimuli/spore_stims/complex_03_A_b.gif"
"","6450.6550000514835","survey-likert","152","845883","0.0-34.0","SS1619204435390","similarity_question","","","","","","","","","","","","{""Q0"":4}","[0]","","images/stimuli/spore_stims/simple_20_A_a.gif","images/stimuli/spore_stims/simple_02_A_b.gif"
"","11740.250000031665","survey-likert","153","857628","0.0-35.0","SS1619204435390","similarity_question","","","","","","","","","","","","{""Q0"":4}","[0]","","images/stimuli/spore_stims/simple_10_A_b.gif","images/stimuli/spore_stims/simple_17_A_a.gif"
"","7627.304999972694","survey-likert","154","865260","0.0-36.0","SS1619204435390","similarity_question","","","","","","","","","","","","{""Q0"":0}","[0]","","images/stimuli/spore_stims/complex_15_A_a.gif","images/stimuli/spore_stims/complex_14_A_b.gif"
"","3140.239999978803","survey-likert","155","868404","0.0-37.0","SS1619204435390","similarity_question","","","","","","","","","","","","{""Q0"":4}","[0]","","images/stimuli/spore_stims/simple_11_A_a.gif","images/stimuli/spore_stims/simple_14_A_b.gif"
"","3147.744999965653","survey-likert","156","871557","0.0-38.0","SS1619204435390","similarity_question","","","","","","","","","","","","{""Q0"":0}","[0]","","images/stimuli/spore_stims/complex_04_A_b.gif","images/stimuli/spore_stims/complex_03_A_a.gif"
"","5954.284999985248","survey-likert","157","877516","0.0-39.0","SS1619204435390","similarity_question","","","","","","","","","","","","{""Q0"":1}","[0]","","images/stimuli/spore_stims/simple_02_A_a.gif","images/stimuli/spore_stims/simple_07_A_b.gif"
"","11723.230000003241","survey-likert","158","889243","0.0-40.0","SS1619204435390","similarity_question","","","","","","","","","","","","{""Q0"":1}","[0]","","images/stimuli/spore_stims/complex_09_A_b.gif","images/stimuli/spore_stims/complex_19_A_a.gif"
"","2916.5600000414997","survey-likert","159","892164","0.0-41.0","SS1619204435390","similarity_question","","","","","","","","","","","","{""Q0"":4}","[0]","","images/stimuli/spore_stims/simple_09_A_a.gif","images/stimuli/spore_stims/simple_17_A_b.gif"
"","1859.4800001010299","survey-likert","160","894028","0.0-42.0","SS1619204435390","similarity_question","","","","","","","","","","","","{""Q0"":4}","[0]","","images/stimuli/spore_stims/simple_01_A_a.gif","images/stimuli/spore_stims/simple_19_A_b.gif"
"","6772.065000026487","survey-likert","161","900804","0.0-43.0","SS1619204435390","similarity_question","","","","","","","","","","","","{""Q0"":1}","[0]","","images/stimuli/spore_stims/complex_11_A_a.gif","images/stimuli/spore_stims/complex_12_A_b.gif"
"","3947.5649999221787","survey-likert","162","904755","0.0-44.0","SS1619204435390","similarity_question","","","","","","","","","","","","{""Q0"":4}","[0]","","images/stimuli/spore_stims/complex_06_A_a.gif","images/stimuli/spore_stims/complex_19_A_b.gif"
"[{""page_index"":0,""viewing_time"":7611.930000013672}]","7612.2449999675155","instructions","163","912371","0.0-45.0","SS1619204435390","instructions","","","","","","","","","","","","","","","",""
"","17156.489999964833","survey-likert","164","929531","0.0-46.0","SS1619204435390","","","","","","","","","images/stimuli/spore_stims/simple_19_A_b.gif","","","","{""Q0"":1}","[0]","","",""
"","7691.849999944679","survey-likert","165","937227","0.0-47.0","SS1619204435390","","","","","","","","","images/stimuli/spore_stims/complex_03_A_b.gif","","","","{""Q0"":4}","[0]","","",""
"","2706.9899999769405","survey-likert","166","939939","0.0-48.0","SS1619204435390","","","","","","","","","images/stimuli/spore_stims/simple_07_A_b.gif","","","","{""Q0"":0}","[0]","","",""
"","5331.880000070669","survey-likert","167","945275","0.0-49.0","SS1619204435390","","","","","","","","","images/stimuli/spore_stims/complex_12_A_b.gif","","","","{""Q0"":6}","[0]","","",""
"","2188.5699999984354","survey-likert","168","947467","0.0-50.0","SS1619204435390","","","","","","","","","images/stimuli/spore_stims/simple_11_A_a.gif","","","","{""Q0"":0}","[0]","","",""
"","2907.8150000423193","survey-likert","169","950380","0.0-51.0","SS1619204435390","","","","","","","","","images/stimuli/spore_stims/complex_15_A_a.gif","","","","{""Q0"":6}","[0]","","",""
"","2305.2899999311194","survey-likert","170","952691","0.0-52.0","SS1619204435390","","","","","","","","","images/stimuli/spore_stims/complex_04_A_b.gif","","","","{""Q0"":6}","[0]","","",""
"","2411.9900000514463","survey-likert","171","955107","0.0-53.0","SS1619204435390","","","","","","","","","images/stimuli/spore_stims/simple_17_A_b.gif","","","","{""Q0"":0}","[0]","","",""
"","2931.7250000312924","survey-likert","172","958043","0.0-54.0","SS1619204435390","","","","","","","","","images/stimuli/spore_stims/complex_19_A_a.gif","","","","{""Q0"":6}","[0]","","",""
"","2162.6699999906123","survey-likert","173","960211","0.0-55.0","SS1619204435390","","","","","","","","","images/stimuli/spore_stims/simple_20_A_a.gif","","","","{""Q0"":1}","[0]","","",""
"","2083.5550000192598","survey-likert","174","962299","0.0-56.0","SS1619204435390","","","","","","","","","images/stimuli/spore_stims/simple_10_A_b.gif","","","","{""Q0"":0}","[0]","","",""
"","1915.8250000327826","survey-likert","175","964219","0.0-57.0","SS1619204435390","","","","","","","","","images/stimuli/spore_stims/complex_06_A_a.gif","","","","{""Q0"":6}","[0]","","",""
"[{""page_index"":0,""viewing_time"":1612.0949999894947}]","1612.3699999880046","instructions","176","965836","0.0-58.0","SS1619204435390","instructions","","","","","","","","","","","","","","","",""
"","3840.8249999629334","demog-age","177","969683","0.0-59.0","SS1619204435390","","","","","","","","","","","","","{""age"":""32""}","","","",""
"","3918.1450000032783","demog-ethnic-US","178","973612","0.0-60.0","SS1619204435390","","","","","","","","","","","","","{""ethnicity"":[""White""]}","[0]","","",""
"","6762.2199999168515","demog-gender-and-education","179","980379","0.0-61.0","SS1619204435390","","","","","","","","","","","","","{""gender"":""Male"",""education"":""Master's Degree""}","[0,1]","","",""
"","16186.12500000745","survey-text","180","996572","0.0-62.0","SS1619204435390","feedback","","","","","","","","","","","","{""Q0"":""no""}","","","",""
"[{""page_index"":0,""viewing_time"":1451.3750000623986}]","1451.6950000543147","instructions","181","998027","0.0-63.0","SS1619204435390","instructions","","","","","","","","","","","","","","","",""
