"view_history","rt","trial_type","trial_index","time_elapsed","internal_node_id","subject","stimulus_type","trial_stimulus","key_press","minimum_viewing_duration","trial_looking_time","block_deviant","block_background","exposure_type","stimulus","block_number","block_type","stimulus_displayed","responses","question_order","math_correct_answer","stimulus_left","stimulus_right"
"[{""page_index"":0,""viewing_time"":12468.069999998988}]","12468.834999999672","instructions","0","12470","0.0-0.0","SS1619205567965","","","","","","","","","","","","","","","","",""
"[{""page_index"":0,""viewing_time"":36286.35000000213},{""page_index"":1,""viewing_time"":6120.0299999982235}]","42406.685000001744","instructions","1","56878","0.0-1.0","SS1619205567965","instructions","","","","","","","","","","","","","","","",""
"","5222.350000000006","sequential-stimulus-presentation-old","2","62604","0.0-2.0","SS1619205567965","","","40","500","5722.350000000006","null","null","self_paced","","","","","","","","",""
"","3146.2499999979627","sequential-stimulus-presentation-old","3","66251","0.0-3.0","SS1619205567965","","","40","500","3646.2499999979627","null","null","self_paced","","","","","","","","",""
"[{""page_index"":0,""viewing_time"":28646.570000000793}]","28646.874999998545","instructions","4","94899","0.0-4.0","SS1619205567965","instructions","","","","","","","","","","","","","","","",""
"","863.8600000012957","sequential-stimulus-presentation-old","5","105764","0.0-5.0","SS1619205567965","","","40","500","1363.8600000012957","null","null","forced_long","","","","","","","","",""
"","4386.350000000675","sequential-stimulus-presentation-old","6","110252","0.0-6.0","SS1619205567965","","","40","500","4886.350000000675","null","null","forced_long","","","","","","","","",""
"[{""page_index"":0,""viewing_time"":3677.7750000001106}]","3678.059999998368","instructions","7","113931","0.0-7.0","SS1619205567965","instructions","","","","","","","","","","","","","","","",""
"[{""page_index"":0,""viewing_time"":135769.85499999864},{""page_index"":1,""viewing_time"":4923.975000001519},{""page_index"":2,""viewing_time"":4292.099999998754},{""page_index"":3,""viewing_time"":1260.085000001709},{""page_index"":4,""viewing_time"":1215.9999999966822}]","147462.3049999973","instructions","8","261395","0.0-8.0","SS1619205567965","instructions","","","","","","","","","","","","","","","",""
"","null","html-keyboard-response","9","262411","0.0-9.0-0.0","SS1619205567965","","","null","","","","","","<p><img src= images/blank.png width =""600"" height = ""600"" style=""position:fixed;top:50%; left:50%; transform: translate(-50%, -50%); border:5px solid black"">","","","","","","","",""
"","8279.06499999878","sequential-stimulus-presentation-old","10","271192","0.0-9.0-1.0","SS1619205567965","trial","","40","500","8779.06499999878","images/stimuli/spore_stims/simple_01_A_b.gif","images/stimuli/spore_stims/simple_02_A_a.gif","self_paced","","0","simple_dissimilar","images/stimuli/spore_stims/simple_02_A_a.gif","","","","",""
"","null","html-keyboard-response","11","272098","0.0-9.0-0.1","SS1619205567965","","","null","","","","","","<p><img src= images/blank.png width =""600"" height = ""600"" style=""position:fixed;top:50%; left:50%; transform: translate(-50%, -50%); border:5px solid black"">","","","","","","","",""
"","14633.780000000144","sequential-stimulus-presentation-old","12","287233","0.0-9.0-1.1","SS1619205567965","trial","","40","500","15133.780000000144","images/stimuli/spore_stims/simple_01_A_b.gif","images/stimuli/spore_stims/simple_02_A_a.gif","self_paced","","0","simple_dissimilar","images/stimuli/spore_stims/simple_02_A_a.gif","","","","",""
"","null","html-keyboard-response","13","288438","0.0-9.0-0.2","SS1619205567965","","","null","","","","","","<p><img src= images/blank.png width =""600"" height = ""600"" style=""position:fixed;top:50%; left:50%; transform: translate(-50%, -50%); border:5px solid black"">","","","","","","","",""
"","17516.924999999872","sequential-stimulus-presentation-old","14","306457","0.0-9.0-1.2","SS1619205567965","trial","","40","500","18016.924999999872","images/stimuli/spore_stims/simple_01_A_b.gif","images/stimuli/spore_stims/simple_02_A_a.gif","self_paced","","0","simple_dissimilar","images/stimuli/spore_stims/simple_02_A_a.gif","","","","",""
"","null","html-keyboard-response","15","307567","0.0-9.0-0.3","SS1619205567965","","","null","","","","","","<p><img src= images/blank.png width =""600"" height = ""600"" style=""position:fixed;top:50%; left:50%; transform: translate(-50%, -50%); border:5px solid black"">","","","","","","","",""
"","12708.739999998244","sequential-stimulus-presentation-old","16","320777","0.0-9.0-1.3","SS1619205567965","trial","","40","500","13208.739999998244","images/stimuli/spore_stims/simple_01_A_b.gif","images/stimuli/spore_stims/simple_02_A_a.gif","self_paced","","0","simple_dissimilar","images/stimuli/spore_stims/simple_02_A_a.gif","","","","",""
"","2764.259999999893","survey-multi-choice","17","323545","0.0-10.0","SS1619205567965","math_question","","","","","","","","","","","","{""Q0"":""4""}","[0]","4","",""
"","null","html-keyboard-response","18","324679","0.0-11.0-0.0","SS1619205567965","","","null","","","","","","<p><img src= images/blank.png width =""600"" height = ""600"" style=""position:fixed;top:50%; left:50%; transform: translate(-50%, -50%); border:5px solid black"">","","","","","","","",""
"","2855.8699999994133","sequential-stimulus-presentation-old","19","337537","0.0-11.0-1.0","SS1619205567965","trial","","40","500","3355.8699999994133","images/stimuli/spore_stims/simple_20_A_a.gif","images/stimuli/spore_stims/simple_07_A_b.gif","forced_long","","1","simple_dissimilar","images/stimuli/spore_stims/simple_07_A_b.gif","","","","",""
"","null","html-keyboard-response","20","338594","0.0-11.0-0.1","SS1619205567965","","","null","","","","","","<p><img src= images/blank.png width =""600"" height = ""600"" style=""position:fixed;top:50%; left:50%; transform: translate(-50%, -50%); border:5px solid black"">","","","","","","","",""
"","9897.95999999845","sequential-stimulus-presentation-old","21","348994","0.0-11.0-1.1","SS1619205567965","trial","","40","500","10397.95999999845","images/stimuli/spore_stims/simple_20_A_a.gif","images/stimuli/spore_stims/simple_07_A_b.gif","forced_long","","1","simple_dissimilar","images/stimuli/spore_stims/simple_07_A_b.gif","","","","",""
"","null","html-keyboard-response","22","350219","0.0-11.0-0.2","SS1619205567965","","","null","","","","","","<p><img src= images/blank.png width =""600"" height = ""600"" style=""position:fixed;top:50%; left:50%; transform: translate(-50%, -50%); border:5px solid black"">","","","","","","","",""
"","9635.460000001302","sequential-stimulus-presentation-old","23","360356","0.0-11.0-1.2","SS1619205567965","trial","","40","500","10135.460000001302","images/stimuli/spore_stims/simple_20_A_a.gif","images/stimuli/spore_stims/simple_07_A_b.gif","forced_long","","1","simple_dissimilar","images/stimuli/spore_stims/simple_07_A_b.gif","","","","",""
"","null","html-keyboard-response","24","361467","0.0-11.0-0.3","SS1619205567965","","","null","","","","","","<p><img src= images/blank.png width =""600"" height = ""600"" style=""position:fixed;top:50%; left:50%; transform: translate(-50%, -50%); border:5px solid black"">","","","","","","","",""
"","15.994999997958075","sequential-stimulus-presentation-old","25","361986","0.0-11.0-1.3","SS1619205567965","trial","","40","500","515.9949999979581","images/stimuli/spore_stims/simple_20_A_a.gif","images/stimuli/spore_stims/simple_07_A_b.gif","forced_long","","1","simple_dissimilar","images/stimuli/spore_stims/simple_07_A_b.gif","","","","",""
"","null","html-keyboard-response","26","362833","0.0-11.0-0.4","SS1619205567965","","","null","","","","","","<p><img src= images/blank.png width =""600"" height = ""600"" style=""position:fixed;top:50%; left:50%; transform: translate(-50%, -50%); border:5px solid black"">","","","","","","","",""
"","3979.8200000004144","sequential-stimulus-presentation-old","27","367314","0.0-11.0-1.4","SS1619205567965","trial","","40","500","4479.820000000414","images/stimuli/spore_stims/simple_20_A_a.gif","images/stimuli/spore_stims/simple_07_A_b.gif","forced_long","","1","simple_dissimilar","images/stimuli/spore_stims/simple_07_A_b.gif","","","","",""
"","null","html-keyboard-response","28","368278","0.0-11.0-0.5","SS1619205567965","","","null","","","","","","<p><img src= images/blank.png width =""600"" height = ""600"" style=""position:fixed;top:50%; left:50%; transform: translate(-50%, -50%); border:5px solid black"">","","","","","","","",""
"","31094.639999999315","sequential-stimulus-presentation-old","29","399875","0.0-11.0-1.5","SS1619205567965","trial","","40","500","31594.639999999315","images/stimuli/spore_stims/simple_20_A_a.gif","images/stimuli/spore_stims/simple_07_A_b.gif","forced_long","","1","simple_dissimilar","images/stimuli/spore_stims/simple_07_A_b.gif","","","","",""
"","3523.6650000006193","survey-multi-choice","30","403402","0.0-12.0","SS1619205567965","math_question","","","","","","","","","","","","{""Q0"":""11""}","[0]","11","",""
"","null","html-keyboard-response","31","404210","0.0-13.0-0.0","SS1619205567965","","","null","","","","","","<p><img src= images/blank.png width =""600"" height = ""600"" style=""position:fixed;top:50%; left:50%; transform: translate(-50%, -50%); border:5px solid black"">","","","","","","","",""
"","7154.6500000003725","sequential-stimulus-presentation-old","32","411868","0.0-13.0-1.0","SS1619205567965","trial","","40","500","7654.6500000003725","images/stimuli/spore_stims/complex_15_A_b.gif","images/stimuli/spore_stims/complex_01_A_a.gif","self_paced","","2","complex_dissimilar","images/stimuli/spore_stims/complex_01_A_a.gif","","","","",""
"","null","html-keyboard-response","33","413117","0.0-13.0-0.1","SS1619205567965","","","null","","","","","","<p><img src= images/blank.png width =""600"" height = ""600"" style=""position:fixed;top:50%; left:50%; transform: translate(-50%, -50%); border:5px solid black"">","","","","","","","",""
"","5527.545000000799","sequential-stimulus-presentation-old","34","419147","0.0-13.0-1.1","SS1619205567965","trial","","40","500","6027.545000000799","images/stimuli/spore_stims/complex_15_A_b.gif","images/stimuli/spore_stims/complex_01_A_a.gif","self_paced","","2","complex_dissimilar","images/stimuli/spore_stims/complex_01_A_a.gif","","","","",""
"","null","html-keyboard-response","35","420214","0.0-13.0-0.2","SS1619205567965","","","null","","","","","","<p><img src= images/blank.png width =""600"" height = ""600"" style=""position:fixed;top:50%; left:50%; transform: translate(-50%, -50%); border:5px solid black"">","","","","","","","",""
"","5007.83500000037","sequential-stimulus-presentation-old","36","425724","0.0-13.0-1.2","SS1619205567965","trial","","40","500","5507.83500000037","images/stimuli/spore_stims/complex_15_A_b.gif","images/stimuli/spore_stims/complex_01_A_a.gif","self_paced","","2","complex_dissimilar","images/stimuli/spore_stims/complex_15_A_b.gif","","","","",""
"","null","html-keyboard-response","37","426763","0.0-13.0-0.3","SS1619205567965","","","null","","","","","","<p><img src= images/blank.png width =""600"" height = ""600"" style=""position:fixed;top:50%; left:50%; transform: translate(-50%, -50%); border:5px solid black"">","","","","","","","",""
"","5418.229999999283","sequential-stimulus-presentation-old","38","432684","0.0-13.0-1.3","SS1619205567965","trial","","40","500","5918.229999999283","images/stimuli/spore_stims/complex_15_A_b.gif","images/stimuli/spore_stims/complex_01_A_a.gif","self_paced","","2","complex_dissimilar","images/stimuli/spore_stims/complex_01_A_a.gif","","","","",""
"","null","html-keyboard-response","39","433965","0.0-13.0-0.4","SS1619205567965","","","null","","","","","","<p><img src= images/blank.png width =""600"" height = ""600"" style=""position:fixed;top:50%; left:50%; transform: translate(-50%, -50%); border:5px solid black"">","","","","","","","",""
"","9201.225000000675","sequential-stimulus-presentation-old","40","443668","0.0-13.0-1.4","SS1619205567965","trial","","40","500","9701.225000000675","images/stimuli/spore_stims/complex_15_A_b.gif","images/stimuli/spore_stims/complex_01_A_a.gif","self_paced","","2","complex_dissimilar","images/stimuli/spore_stims/complex_01_A_a.gif","","","","",""
"","4565.285000000615","survey-multi-choice","41","448235","0.0-14.0","SS1619205567965","math_question","","","","","","","","","","","","{""Q0"":""11""}","[0]","11","",""
"","null","html-keyboard-response","42","449055","0.0-15.0-0.0","SS1619205567965","","","null","","","","","","<p><img src= images/blank.png width =""600"" height = ""600"" style=""position:fixed;top:50%; left:50%; transform: translate(-50%, -50%); border:5px solid black"">","","","","","","","",""
"","1329.0849999976344","sequential-stimulus-presentation-old","43","460388","0.0-15.0-1.0","SS1619205567965","trial","","40","500","1829.0849999976344","images/stimuli/spore_stims/complex_08_A_a.gif","images/stimuli/spore_stims/complex_09_A_b.gif","forced_long","","3","complex_dissimilar","images/stimuli/spore_stims/complex_09_A_b.gif","","","","",""
"","null","html-keyboard-response","44","461361","0.0-15.0-0.1","SS1619205567965","","","null","","","","","","<p><img src= images/blank.png width =""600"" height = ""600"" style=""position:fixed;top:50%; left:50%; transform: translate(-50%, -50%); border:5px solid black"">","","","","","","","",""
"","4398.379999998724","sequential-stimulus-presentation-old","45","466262","0.0-15.0-1.1","SS1619205567965","trial","","40","500","4898.379999998724","images/stimuli/spore_stims/complex_08_A_a.gif","images/stimuli/spore_stims/complex_09_A_b.gif","forced_long","","3","complex_dissimilar","images/stimuli/spore_stims/complex_09_A_b.gif","","","","",""
"","null","html-keyboard-response","46","467415","0.0-15.0-0.2","SS1619205567965","","","null","","","","","","<p><img src= images/blank.png width =""600"" height = ""600"" style=""position:fixed;top:50%; left:50%; transform: translate(-50%, -50%); border:5px solid black"">","","","","","","","",""
"","2151.545000000624","sequential-stimulus-presentation-old","47","470068","0.0-15.0-1.2","SS1619205567965","trial","","40","500","2651.545000000624","images/stimuli/spore_stims/complex_08_A_a.gif","images/stimuli/spore_stims/complex_09_A_b.gif","forced_long","","3","complex_dissimilar","images/stimuli/spore_stims/complex_09_A_b.gif","","","","",""
"","null","html-keyboard-response","48","471047","0.0-15.0-0.3","SS1619205567965","","","null","","","","","","<p><img src= images/blank.png width =""600"" height = ""600"" style=""position:fixed;top:50%; left:50%; transform: translate(-50%, -50%); border:5px solid black"">","","","","","","","",""
"","3471.0049999994226","sequential-stimulus-presentation-old","49","475021","0.0-15.0-1.3","SS1619205567965","trial","","40","500","3971.0049999994226","images/stimuli/spore_stims/complex_08_A_a.gif","images/stimuli/spore_stims/complex_09_A_b.gif","forced_long","","3","complex_dissimilar","images/stimuli/spore_stims/complex_09_A_b.gif","","","","",""
"","null","html-keyboard-response","50","476170","0.0-15.0-0.4","SS1619205567965","","","null","","","","","","<p><img src= images/blank.png width =""600"" height = ""600"" style=""position:fixed;top:50%; left:50%; transform: translate(-50%, -50%); border:5px solid black"">","","","","","","","",""
"","3443.894999996701","sequential-stimulus-presentation-old","51","480117","0.0-15.0-1.4","SS1619205567965","trial","","40","500","3943.894999996701","images/stimuli/spore_stims/complex_08_A_a.gif","images/stimuli/spore_stims/complex_09_A_b.gif","forced_long","","3","complex_dissimilar","images/stimuli/spore_stims/complex_09_A_b.gif","","","","",""
"","null","html-keyboard-response","52","481253","0.0-15.0-0.5","SS1619205567965","","","null","","","","","","<p><img src= images/blank.png width =""600"" height = ""600"" style=""position:fixed;top:50%; left:50%; transform: translate(-50%, -50%); border:5px solid black"">","","","","","","","",""
"","2185.475000002072","sequential-stimulus-presentation-old","53","483941","0.0-15.0-1.5","SS1619205567965","trial","","40","500","2685.475000002072","images/stimuli/spore_stims/complex_08_A_a.gif","images/stimuli/spore_stims/complex_09_A_b.gif","forced_long","","3","complex_dissimilar","images/stimuli/spore_stims/complex_09_A_b.gif","","","","",""
"","3469.180000000051","survey-multi-choice","54","487412","0.0-16.0","SS1619205567965","math_question","","","","","","","","","","","","{""Q0"":""7""}","[0]","7","",""
"","null","html-keyboard-response","55","488399","0.0-17.0-0.0","SS1619205567965","","","null","","","","","","<p><img src= images/blank.png width =""600"" height = ""600"" style=""position:fixed;top:50%; left:50%; transform: translate(-50%, -50%); border:5px solid black"">","","","","","","","",""
"","1879.1649999984656","sequential-stimulus-presentation-old","56","490381","0.0-17.0-1.0","SS1619205567965","trial","","40","500","2379.1649999984656","images/stimuli/spore_stims/simple_18_A_b.gif","images/stimuli/spore_stims/simple_11_A_a.gif","forced_short","","4","simple_dissimilar","images/stimuli/spore_stims/simple_11_A_a.gif","","","","",""
"","null","html-keyboard-response","57","491355","0.0-17.0-0.1","SS1619205567965","","","null","","","","","","<p><img src= images/blank.png width =""600"" height = ""600"" style=""position:fixed;top:50%; left:50%; transform: translate(-50%, -50%); border:5px solid black"">","","","","","","","",""
"","2707.0349999994505","sequential-stimulus-presentation-old","58","494565","0.0-17.0-1.1","SS1619205567965","trial","","40","500","3207.0349999994505","images/stimuli/spore_stims/simple_18_A_b.gif","images/stimuli/spore_stims/simple_11_A_a.gif","forced_short","","4","simple_dissimilar","images/stimuli/spore_stims/simple_11_A_a.gif","","","","",""
"","null","html-keyboard-response","59","495536","0.0-17.0-0.2","SS1619205567965","","","null","","","","","","<p><img src= images/blank.png width =""600"" height = ""600"" style=""position:fixed;top:50%; left:50%; transform: translate(-50%, -50%); border:5px solid black"">","","","","","","","",""
"","29062.685000000754","sequential-stimulus-presentation-old","60","525102","0.0-17.0-1.2","SS1619205567965","trial","","40","500","29562.685000000754","images/stimuli/spore_stims/simple_18_A_b.gif","images/stimuli/spore_stims/simple_11_A_a.gif","forced_short","","4","simple_dissimilar","images/stimuli/spore_stims/simple_11_A_a.gif","","","","",""
"","null","html-keyboard-response","61","526100","0.0-17.0-0.3","SS1619205567965","","","null","","","","","","<p><img src= images/blank.png width =""600"" height = ""600"" style=""position:fixed;top:50%; left:50%; transform: translate(-50%, -50%); border:5px solid black"">","","","","","","","",""
"","1352.6050000000978","sequential-stimulus-presentation-old","62","527958","0.0-17.0-1.3","SS1619205567965","trial","","40","500","1852.6050000000978","images/stimuli/spore_stims/simple_18_A_b.gif","images/stimuli/spore_stims/simple_11_A_a.gif","forced_short","","4","simple_dissimilar","images/stimuli/spore_stims/simple_18_A_b.gif","","","","",""
"","null","html-keyboard-response","63","528955","0.0-17.0-0.4","SS1619205567965","","","null","","","","","","<p><img src= images/blank.png width =""600"" height = ""600"" style=""position:fixed;top:50%; left:50%; transform: translate(-50%, -50%); border:5px solid black"">","","","","","","","",""
"","2243.995000000694","sequential-stimulus-presentation-old","64","531702","0.0-17.0-1.4","SS1619205567965","trial","","40","500","2743.995000000694","images/stimuli/spore_stims/simple_18_A_b.gif","images/stimuli/spore_stims/simple_11_A_a.gif","forced_short","","4","simple_dissimilar","images/stimuli/spore_stims/simple_11_A_a.gif","","","","",""
"","null","html-keyboard-response","65","532857","0.0-17.0-0.5","SS1619205567965","","","null","","","","","","<p><img src= images/blank.png width =""600"" height = ""600"" style=""position:fixed;top:50%; left:50%; transform: translate(-50%, -50%); border:5px solid black"">","","","","","","","",""
"","1406.3500000011409","sequential-stimulus-presentation-old","66","534766","0.0-17.0-1.5","SS1619205567965","trial","","40","500","1906.3500000011409","images/stimuli/spore_stims/simple_18_A_b.gif","images/stimuli/spore_stims/simple_11_A_a.gif","forced_short","","4","simple_dissimilar","images/stimuli/spore_stims/simple_18_A_b.gif","","","","",""
"","4192.934999999125","survey-multi-choice","67","538961","0.0-18.0","SS1619205567965","math_question","","","","","","","","","","","","{""Q0"":""7""}","[0]","7","",""
"","null","html-keyboard-response","68","540146","0.0-19.0-0.0","SS1619205567965","","","null","","","","","","<p><img src= images/blank.png width =""600"" height = ""600"" style=""position:fixed;top:50%; left:50%; transform: translate(-50%, -50%); border:5px solid black"">","","","","","","","",""
"","733.8149999994785","sequential-stimulus-presentation-old","69","540982","0.0-19.0-1.0","SS1619205567965","trial","","40","500","1233.8149999994785","images/stimuli/spore_stims/complex_05_A_b.gif","images/stimuli/spore_stims/complex_14_A_a.gif","forced_short","","5","complex_dissimilar","images/stimuli/spore_stims/complex_14_A_a.gif","","","","",""
"","null","html-keyboard-response","70","542278","0.0-19.0-0.1","SS1619205567965","","","null","","","","","","<p><img src= images/blank.png width =""600"" height = ""600"" style=""position:fixed;top:50%; left:50%; transform: translate(-50%, -50%); border:5px solid black"">","","","","","","","",""
"","1386.0050000002375","sequential-stimulus-presentation-old","71","544166","0.0-19.0-1.1","SS1619205567965","trial","","40","500","1886.0050000002375","images/stimuli/spore_stims/complex_05_A_b.gif","images/stimuli/spore_stims/complex_14_A_a.gif","forced_short","","5","complex_dissimilar","images/stimuli/spore_stims/complex_14_A_a.gif","","","","",""
"","null","html-keyboard-response","72","544994","0.0-19.0-0.2","SS1619205567965","","","null","","","","","","<p><img src= images/blank.png width =""600"" height = ""600"" style=""position:fixed;top:50%; left:50%; transform: translate(-50%, -50%); border:5px solid black"">","","","","","","","",""
"","2421.879999998142","sequential-stimulus-presentation-old","73","547918","0.0-19.0-1.2","SS1619205567965","trial","","40","500","2921.879999998142","images/stimuli/spore_stims/complex_05_A_b.gif","images/stimuli/spore_stims/complex_14_A_a.gif","forced_short","","5","complex_dissimilar","images/stimuli/spore_stims/complex_14_A_a.gif","","","","",""
"","null","html-keyboard-response","74","548767","0.0-19.0-0.3","SS1619205567965","","","null","","","","","","<p><img src= images/blank.png width =""600"" height = ""600"" style=""position:fixed;top:50%; left:50%; transform: translate(-50%, -50%); border:5px solid black"">","","","","","","","",""
"","1312.7700000003679","sequential-stimulus-presentation-old","75","550582","0.0-19.0-1.3","SS1619205567965","trial","","40","500","1812.7700000003679","images/stimuli/spore_stims/complex_05_A_b.gif","images/stimuli/spore_stims/complex_14_A_a.gif","forced_short","","5","complex_dissimilar","images/stimuli/spore_stims/complex_14_A_a.gif","","","","",""
"","null","html-keyboard-response","76","551504","0.0-19.0-0.4","SS1619205567965","","","null","","","","","","<p><img src= images/blank.png width =""600"" height = ""600"" style=""position:fixed;top:50%; left:50%; transform: translate(-50%, -50%); border:5px solid black"">","","","","","","","",""
"","1311.4549999991432","sequential-stimulus-presentation-old","77","553318","0.0-19.0-1.4","SS1619205567965","trial","","40","500","1811.4549999991432","images/stimuli/spore_stims/complex_05_A_b.gif","images/stimuli/spore_stims/complex_14_A_a.gif","forced_short","","5","complex_dissimilar","images/stimuli/spore_stims/complex_14_A_a.gif","","","","",""
"","null","html-keyboard-response","78","554138","0.0-19.0-0.5","SS1619205567965","","","null","","","","","","<p><img src= images/blank.png width =""600"" height = ""600"" style=""position:fixed;top:50%; left:50%; transform: translate(-50%, -50%); border:5px solid black"">","","","","","","","",""
"","725.5150000018766","sequential-stimulus-presentation-old","79","555367","0.0-19.0-1.5","SS1619205567965","trial","","40","500","1225.5150000018766","images/stimuli/spore_stims/complex_05_A_b.gif","images/stimuli/spore_stims/complex_14_A_a.gif","forced_short","","5","complex_dissimilar","images/stimuli/spore_stims/complex_14_A_a.gif","","","","",""
"","2981.1399999998976","survey-multi-choice","80","558354","0.0-20.0","SS1619205567965","math_question","","","","","","","","","","","","{""Q0"":""9""}","[0]","9","",""
"","null","html-keyboard-response","81","559653","0.0-21.0-0.0","SS1619205567965","","","null","","","","","","<p><img src= images/blank.png width =""600"" height = ""600"" style=""position:fixed;top:50%; left:50%; transform: translate(-50%, -50%); border:5px solid black"">","","","","","","","",""
"","3966.8449999990407","sequential-stimulus-presentation-old","82","573623","0.0-21.0-1.0","SS1619205567965","trial","","40","500","4466.844999999041","images/stimuli/spore_stims/complex_12_A_a.gif","images/stimuli/spore_stims/complex_04_A_b.gif","forced_long","","6","complex_dissimilar","images/stimuli/spore_stims/complex_04_A_b.gif","","","","",""
"","null","html-keyboard-response","83","574907","0.0-21.0-0.1","SS1619205567965","","","null","","","","","","<p><img src= images/blank.png width =""600"" height = ""600"" style=""position:fixed;top:50%; left:50%; transform: translate(-50%, -50%); border:5px solid black"">","","","","","","","",""
"","2558.019999996759","sequential-stimulus-presentation-old","84","577967","0.0-21.0-1.1","SS1619205567965","trial","","40","500","3058.019999996759","images/stimuli/spore_stims/complex_12_A_a.gif","images/stimuli/spore_stims/complex_04_A_b.gif","forced_long","","6","complex_dissimilar","images/stimuli/spore_stims/complex_04_A_b.gif","","","","",""
"","null","html-keyboard-response","85","578913","0.0-21.0-0.2","SS1619205567965","","","null","","","","","","<p><img src= images/blank.png width =""600"" height = ""600"" style=""position:fixed;top:50%; left:50%; transform: translate(-50%, -50%); border:5px solid black"">","","","","","","","",""
"","4479.605000000447","sequential-stimulus-presentation-old","86","583895","0.0-21.0-1.2","SS1619205567965","trial","","40","500","4979.605000000447","images/stimuli/spore_stims/complex_12_A_a.gif","images/stimuli/spore_stims/complex_04_A_b.gif","forced_long","","6","complex_dissimilar","images/stimuli/spore_stims/complex_04_A_b.gif","","","","",""
"","null","html-keyboard-response","87","585147","0.0-21.0-0.3","SS1619205567965","","","null","","","","","","<p><img src= images/blank.png width =""600"" height = ""600"" style=""position:fixed;top:50%; left:50%; transform: translate(-50%, -50%); border:5px solid black"">","","","","","","","",""
"","3173.464999999851","sequential-stimulus-presentation-old","88","588823","0.0-21.0-1.3","SS1619205567965","trial","","40","500","3673.464999999851","images/stimuli/spore_stims/complex_12_A_a.gif","images/stimuli/spore_stims/complex_04_A_b.gif","forced_long","","6","complex_dissimilar","images/stimuli/spore_stims/complex_04_A_b.gif","","","","",""
"","null","html-keyboard-response","89","589657","0.0-21.0-0.4","SS1619205567965","","","null","","","","","","<p><img src= images/blank.png width =""600"" height = ""600"" style=""position:fixed;top:50%; left:50%; transform: translate(-50%, -50%); border:5px solid black"">","","","","","","","",""
"","2047.2249999984633","sequential-stimulus-presentation-old","90","592207","0.0-21.0-1.4","SS1619205567965","trial","","40","500","2547.2249999984633","images/stimuli/spore_stims/complex_12_A_a.gif","images/stimuli/spore_stims/complex_04_A_b.gif","forced_long","","6","complex_dissimilar","images/stimuli/spore_stims/complex_04_A_b.gif","","","","",""
"","null","html-keyboard-response","91","593290","0.0-21.0-0.5","SS1619205567965","","","null","","","","","","<p><img src= images/blank.png width =""600"" height = ""600"" style=""position:fixed;top:50%; left:50%; transform: translate(-50%, -50%); border:5px solid black"">","","","","","","","",""
"","3151.1150000005728","sequential-stimulus-presentation-old","92","596943","0.0-21.0-1.5","SS1619205567965","trial","","40","500","3651.1150000005728","images/stimuli/spore_stims/complex_12_A_a.gif","images/stimuli/spore_stims/complex_04_A_b.gif","forced_long","","6","complex_dissimilar","images/stimuli/spore_stims/complex_04_A_b.gif","","","","",""
"","2932.8349999996135","survey-multi-choice","93","599879","0.0-22.0","SS1619205567965","math_question","","","","","","","","","","","","{""Q0"":""14""}","[0]","14","",""
"","null","html-keyboard-response","94","601069","0.0-23.0-0.0","SS1619205567965","","","null","","","","","","<p><img src= images/blank.png width =""600"" height = ""600"" style=""position:fixed;top:50%; left:50%; transform: translate(-50%, -50%); border:5px solid black"">","","","","","","","",""
"","172.06000000075437","sequential-stimulus-presentation-old","95","601743","0.0-23.0-1.0","SS1619205567965","trial","","40","500","672.0600000007544","images/stimuli/spore_stims/simple_15_A_b.gif","images/stimuli/spore_stims/simple_07_A_a.gif","self_paced","","7","simple_dissimilar","images/stimuli/spore_stims/simple_07_A_a.gif","","","","",""
"","null","html-keyboard-response","96","602699","0.0-23.0-0.1","SS1619205567965","","","null","","","","","","<p><img src= images/blank.png width =""600"" height = ""600"" style=""position:fixed;top:50%; left:50%; transform: translate(-50%, -50%); border:5px solid black"">","","","","","","","",""
"","4966.394999999437","sequential-stimulus-presentation-old","97","608168","0.0-23.0-1.1","SS1619205567965","trial","","40","500","5466.394999999437","images/stimuli/spore_stims/simple_15_A_b.gif","images/stimuli/spore_stims/simple_07_A_a.gif","self_paced","","7","simple_dissimilar","images/stimuli/spore_stims/simple_07_A_a.gif","","","","",""
"","null","html-keyboard-response","98","609413","0.0-23.0-0.2","SS1619205567965","","","null","","","","","","<p><img src= images/blank.png width =""600"" height = ""600"" style=""position:fixed;top:50%; left:50%; transform: translate(-50%, -50%); border:5px solid black"">","","","","","","","",""
"","1115.4150000001537","sequential-stimulus-presentation-old","99","611032","0.0-23.0-1.2","SS1619205567965","trial","","40","500","1615.4150000001537","images/stimuli/spore_stims/simple_15_A_b.gif","images/stimuli/spore_stims/simple_07_A_a.gif","self_paced","","7","simple_dissimilar","images/stimuli/spore_stims/simple_07_A_a.gif","","","","",""
"","null","html-keyboard-response","100","612220","0.0-23.0-0.3","SS1619205567965","","","null","","","","","","<p><img src= images/blank.png width =""600"" height = ""600"" style=""position:fixed;top:50%; left:50%; transform: translate(-50%, -50%); border:5px solid black"">","","","","","","","",""
"","2612.329999999958","sequential-stimulus-presentation-old","101","615336","0.0-23.0-1.3","SS1619205567965","trial","","40","500","3112.329999999958","images/stimuli/spore_stims/simple_15_A_b.gif","images/stimuli/spore_stims/simple_07_A_a.gif","self_paced","","7","simple_dissimilar","images/stimuli/spore_stims/simple_07_A_a.gif","","","","",""
"","2811.870000001276","survey-multi-choice","102","618151","0.0-24.0","SS1619205567965","math_question","","","","","","","","","","","","{""Q0"":""18""}","[0]","18","",""
"","null","html-keyboard-response","103","619358","0.0-25.0-0.0","SS1619205567965","","","null","","","","","","<p><img src= images/blank.png width =""600"" height = ""600"" style=""position:fixed;top:50%; left:50%; transform: translate(-50%, -50%); border:5px solid black"">","","","","","","","",""
"","2267.429999999935","sequential-stimulus-presentation-old","104","622128","0.0-25.0-1.0","SS1619205567965","trial","","40","500","2767.429999999935","images/stimuli/spore_stims/complex_18_A_a.gif","images/stimuli/spore_stims/complex_19_A_b.gif","self_paced","","8","complex_dissimilar","images/stimuli/spore_stims/complex_19_A_b.gif","","","","",""
"","null","html-keyboard-response","105","623343","0.0-25.0-0.1","SS1619205567965","","","null","","","","","","<p><img src= images/blank.png width =""600"" height = ""600"" style=""position:fixed;top:50%; left:50%; transform: translate(-50%, -50%); border:5px solid black"">","","","","","","","",""
"","2201.6399999993155","sequential-stimulus-presentation-old","106","626048","0.0-25.0-1.1","SS1619205567965","trial","","40","500","2701.6399999993155","images/stimuli/spore_stims/complex_18_A_a.gif","images/stimuli/spore_stims/complex_19_A_b.gif","self_paced","","8","complex_dissimilar","images/stimuli/spore_stims/complex_19_A_b.gif","","","","",""
"","null","html-keyboard-response","107","627138","0.0-25.0-0.2","SS1619205567965","","","null","","","","","","<p><img src= images/blank.png width =""600"" height = ""600"" style=""position:fixed;top:50%; left:50%; transform: translate(-50%, -50%); border:5px solid black"">","","","","","","","",""
"","1927.5799999996088","sequential-stimulus-presentation-old","108","629568","0.0-25.0-1.2","SS1619205567965","trial","","40","500","2427.579999999609","images/stimuli/spore_stims/complex_18_A_a.gif","images/stimuli/spore_stims/complex_19_A_b.gif","self_paced","","8","complex_dissimilar","images/stimuli/spore_stims/complex_18_A_a.gif","","","","",""
"","null","html-keyboard-response","109","630370","0.0-25.0-0.3","SS1619205567965","","","null","","","","","","<p><img src= images/blank.png width =""600"" height = ""600"" style=""position:fixed;top:50%; left:50%; transform: translate(-50%, -50%); border:5px solid black"">","","","","","","","",""
"","2575.410000001313","sequential-stimulus-presentation-old","110","633448","0.0-25.0-1.3","SS1619205567965","trial","","40","500","3075.410000001313","images/stimuli/spore_stims/complex_18_A_a.gif","images/stimuli/spore_stims/complex_19_A_b.gif","self_paced","","8","complex_dissimilar","images/stimuli/spore_stims/complex_19_A_b.gif","","","","",""
"","2694.790000001318","survey-multi-choice","111","636147","0.0-26.0","SS1619205567965","math_question","","","","","","","","","","","","{""Q0"":""6""}","[0]","6","",""
"","null","html-keyboard-response","112","637371","0.0-27.0-0.0","SS1619205567965","","","null","","","","","","<p><img src= images/blank.png width =""600"" height = ""600"" style=""position:fixed;top:50%; left:50%; transform: translate(-50%, -50%); border:5px solid black"">","","","","","","","",""
"","966.1699999996927","sequential-stimulus-presentation-old","113","638440","0.0-27.0-1.0","SS1619205567965","trial","","40","500","1466.1699999996927","images/stimuli/spore_stims/complex_09_A_a.gif","images/stimuli/spore_stims/complex_16_A_b.gif","forced_short","","9","complex_dissimilar","images/stimuli/spore_stims/complex_16_A_b.gif","","","","",""
"","null","html-keyboard-response","114","639674","0.0-27.0-0.1","SS1619205567965","","","null","","","","","","<p><img src= images/blank.png width =""600"" height = ""600"" style=""position:fixed;top:50%; left:50%; transform: translate(-50%, -50%); border:5px solid black"">","","","","","","","",""
"","1679.674999999348","sequential-stimulus-presentation-old","115","641856","0.0-27.0-1.1","SS1619205567965","trial","","40","500","2179.674999999348","images/stimuli/spore_stims/complex_09_A_a.gif","images/stimuli/spore_stims/complex_16_A_b.gif","forced_short","","9","complex_dissimilar","images/stimuli/spore_stims/complex_16_A_b.gif","","","","",""
"","null","html-keyboard-response","116","643069","0.0-27.0-0.2","SS1619205567965","","","null","","","","","","<p><img src= images/blank.png width =""600"" height = ""600"" style=""position:fixed;top:50%; left:50%; transform: translate(-50%, -50%); border:5px solid black"">","","","","","","","",""
"","1164.369999998482","sequential-stimulus-presentation-old","117","644737","0.0-27.0-1.2","SS1619205567965","trial","","40","500","1664.369999998482","images/stimuli/spore_stims/complex_09_A_a.gif","images/stimuli/spore_stims/complex_16_A_b.gif","forced_short","","9","complex_dissimilar","images/stimuli/spore_stims/complex_09_A_a.gif","","","","",""
"","null","html-keyboard-response","118","645824","0.0-27.0-0.3","SS1619205567965","","","null","","","","","","<p><img src= images/blank.png width =""600"" height = ""600"" style=""position:fixed;top:50%; left:50%; transform: translate(-50%, -50%); border:5px solid black"">","","","","","","","",""
"","937.6249999987194","sequential-stimulus-presentation-old","119","647265","0.0-27.0-1.3","SS1619205567965","trial","","40","500","1437.6249999987194","images/stimuli/spore_stims/complex_09_A_a.gif","images/stimuli/spore_stims/complex_16_A_b.gif","forced_short","","9","complex_dissimilar","images/stimuli/spore_stims/complex_16_A_b.gif","","","","",""
"","3201.1749999983003","survey-multi-choice","120","650472","0.0-28.0","SS1619205567965","math_question","","","","","","","","","","","","{""Q0"":""6""}","[0]","6","",""
"","null","html-keyboard-response","121","651296","0.0-29.0-0.0","SS1619205567965","","","null","","","","","","<p><img src= images/blank.png width =""600"" height = ""600"" style=""position:fixed;top:50%; left:50%; transform: translate(-50%, -50%); border:5px solid black"">","","","","","","","",""
"","8800.5200000006","sequential-stimulus-presentation-old","122","660201","0.0-29.0-1.0","SS1619205567965","trial","","40","500","9300.5200000006","images/stimuli/spore_stims/simple_08_A_a.gif","images/stimuli/spore_stims/simple_13_A_b.gif","forced_short","","10","simple_dissimilar","images/stimuli/spore_stims/simple_13_A_b.gif","","","","",""
"","null","html-keyboard-response","123","661288","0.0-29.0-0.1","SS1619205567965","","","null","","","","","","<p><img src= images/blank.png width =""600"" height = ""600"" style=""position:fixed;top:50%; left:50%; transform: translate(-50%, -50%); border:5px solid black"">","","","","","","","",""
"","74691.48500000301","sequential-stimulus-presentation-old","124","736483","0.0-29.0-1.1","SS1619205567965","trial","","40","500","75191.48500000301","images/stimuli/spore_stims/simple_08_A_a.gif","images/stimuli/spore_stims/simple_13_A_b.gif","forced_short","","10","simple_dissimilar","images/stimuli/spore_stims/simple_13_A_b.gif","","","","",""
"","null","html-keyboard-response","125","737655","0.0-29.0-0.2","SS1619205567965","","","null","","","","","","<p><img src= images/blank.png width =""600"" height = ""600"" style=""position:fixed;top:50%; left:50%; transform: translate(-50%, -50%); border:5px solid black"">","","","","","","","",""
"","2508.805000001332","sequential-stimulus-presentation-old","126","740667","0.0-29.0-1.2","SS1619205567965","trial","","40","500","3008.805000001332","images/stimuli/spore_stims/simple_08_A_a.gif","images/stimuli/spore_stims/simple_13_A_b.gif","forced_short","","10","simple_dissimilar","images/stimuli/spore_stims/simple_08_A_a.gif","","","","",""
"","null","html-keyboard-response","127","741781","0.0-29.0-0.3","SS1619205567965","","","null","","","","","","<p><img src= images/blank.png width =""600"" height = ""600"" style=""position:fixed;top:50%; left:50%; transform: translate(-50%, -50%); border:5px solid black"">","","","","","","","",""
"","541.3750000006985","sequential-stimulus-presentation-old","128","742827","0.0-29.0-1.3","SS1619205567965","trial","","40","500","1041.3750000006985","images/stimuli/spore_stims/simple_08_A_a.gif","images/stimuli/spore_stims/simple_13_A_b.gif","forced_short","","10","simple_dissimilar","images/stimuli/spore_stims/simple_13_A_b.gif","","","","",""
"","null","html-keyboard-response","129","743798","0.0-29.0-0.4","SS1619205567965","","","null","","","","","","<p><img src= images/blank.png width =""600"" height = ""600"" style=""position:fixed;top:50%; left:50%; transform: translate(-50%, -50%); border:5px solid black"">","","","","","","","",""
"","3310.344999997993","sequential-stimulus-presentation-old","130","747612","0.0-29.0-1.4","SS1619205567965","trial","","40","500","3810.344999997993","images/stimuli/spore_stims/simple_08_A_a.gif","images/stimuli/spore_stims/simple_13_A_b.gif","forced_short","","10","simple_dissimilar","images/stimuli/spore_stims/simple_13_A_b.gif","","","","",""
"","null","html-keyboard-response","131","748656","0.0-29.0-0.5","SS1619205567965","","","null","","","","","","<p><img src= images/blank.png width =""600"" height = ""600"" style=""position:fixed;top:50%; left:50%; transform: translate(-50%, -50%); border:5px solid black"">","","","","","","","",""
"","2491.4499999977415","sequential-stimulus-presentation-old","132","751651","0.0-29.0-1.5","SS1619205567965","trial","","40","500","2991.4499999977415","images/stimuli/spore_stims/simple_08_A_a.gif","images/stimuli/spore_stims/simple_13_A_b.gif","forced_short","","10","simple_dissimilar","images/stimuli/spore_stims/simple_08_A_a.gif","","","","",""
"","4252.839999997406","survey-multi-choice","133","755906","0.0-30.0","SS1619205567965","math_question","","","","","","","","","","","","{""Q0"":""8""}","[0]","8","",""
"","null","html-keyboard-response","134","757033","0.0-31.0-0.0","SS1619205567965","","","null","","","","","","<p><img src= images/blank.png width =""600"" height = ""600"" style=""position:fixed;top:50%; left:50%; transform: translate(-50%, -50%); border:5px solid black"">","","","","","","","",""
"","831.6249999989523","sequential-stimulus-presentation-old","135","767867","0.0-31.0-1.0","SS1619205567965","trial","","40","500","1331.6249999989523","images/stimuli/spore_stims/simple_10_A_b.gif","images/stimuli/spore_stims/simple_01_A_a.gif","forced_long","","11","simple_dissimilar","images/stimuli/spore_stims/simple_01_A_a.gif","","","","",""
"","null","html-keyboard-response","136","768929","0.0-31.0-0.1","SS1619205567965","","","null","","","","","","<p><img src= images/blank.png width =""600"" height = ""600"" style=""position:fixed;top:50%; left:50%; transform: translate(-50%, -50%); border:5px solid black"">","","","","","","","",""
"","7668.209999999846","sequential-stimulus-presentation-old","137","777100","0.0-31.0-1.1","SS1619205567965","trial","","40","500","8168.209999999846","images/stimuli/spore_stims/simple_10_A_b.gif","images/stimuli/spore_stims/simple_01_A_a.gif","forced_long","","11","simple_dissimilar","images/stimuli/spore_stims/simple_01_A_a.gif","","","","",""
"","null","html-keyboard-response","138","777969","0.0-31.0-0.2","SS1619205567965","","","null","","","","","","<p><img src= images/blank.png width =""600"" height = ""600"" style=""position:fixed;top:50%; left:50%; transform: translate(-50%, -50%); border:5px solid black"">","","","","","","","",""
"","3368.6950000009965","sequential-stimulus-presentation-old","139","781844","0.0-31.0-1.2","SS1619205567965","trial","","40","500","3868.6950000009965","images/stimuli/spore_stims/simple_10_A_b.gif","images/stimuli/spore_stims/simple_01_A_a.gif","forced_long","","11","simple_dissimilar","images/stimuli/spore_stims/simple_10_A_b.gif","","","","",""
"","null","html-keyboard-response","140","782746","0.0-31.0-0.3","SS1619205567965","","","null","","","","","","<p><img src= images/blank.png width =""600"" height = ""600"" style=""position:fixed;top:50%; left:50%; transform: translate(-50%, -50%); border:5px solid black"">","","","","","","","",""
"","3993.999999998836","sequential-stimulus-presentation-old","141","787244","0.0-31.0-1.3","SS1619205567965","trial","","40","500","4493.999999998836","images/stimuli/spore_stims/simple_10_A_b.gif","images/stimuli/spore_stims/simple_01_A_a.gif","forced_long","","11","simple_dissimilar","images/stimuli/spore_stims/simple_01_A_a.gif","","","","",""
"","null","html-keyboard-response","142","788142","0.0-31.0-0.4","SS1619205567965","","","null","","","","","","<p><img src= images/blank.png width =""600"" height = ""600"" style=""position:fixed;top:50%; left:50%; transform: translate(-50%, -50%); border:5px solid black"">","","","","","","","",""
"","1470.4350000029663","sequential-stimulus-presentation-old","143","790116","0.0-31.0-1.4","SS1619205567965","trial","","40","500","1970.4350000029663","images/stimuli/spore_stims/simple_10_A_b.gif","images/stimuli/spore_stims/simple_01_A_a.gif","forced_long","","11","simple_dissimilar","images/stimuli/spore_stims/simple_10_A_b.gif","","","","",""
"","null","html-keyboard-response","144","791192","0.0-31.0-0.5","SS1619205567965","","","null","","","","","","<p><img src= images/blank.png width =""600"" height = ""600"" style=""position:fixed;top:50%; left:50%; transform: translate(-50%, -50%); border:5px solid black"">","","","","","","","",""
"","7139.729999998934","sequential-stimulus-presentation-old","145","798836","0.0-31.0-1.5","SS1619205567965","trial","","40","500","7639.729999998934","images/stimuli/spore_stims/simple_10_A_b.gif","images/stimuli/spore_stims/simple_01_A_a.gif","forced_long","","11","simple_dissimilar","images/stimuli/spore_stims/simple_01_A_a.gif","","","","",""
"[{""page_index"":0,""viewing_time"":7675.6550000027055}]","7675.934999999357","instructions","146","806515","0.0-32.0","SS1619205567965","instructions","","","","","","","","","","","","","","","",""
"","3859.98500000278","survey-likert","147","810380","0.0-33.0","SS1619205567965","similarity_question","","","","","","","","","","","","{""Q0"":3}","[0]","","images/stimuli/spore_stims/simple_15_A_b.gif","images/stimuli/spore_stims/simple_07_A_a.gif"
"","5867.860000002198","survey-likert","148","816252","0.0-34.0","SS1619205567965","similarity_question","","","","","","","","","","","","{""Q0"":0}","[0]","","images/stimuli/spore_stims/complex_15_A_b.gif","images/stimuli/spore_stims/complex_01_A_a.gif"
"","3259.7699999968754","survey-likert","149","819516","0.0-35.0","SS1619205567965","similarity_question","","","","","","","","","","","","{""Q0"":5}","[0]","","images/stimuli/spore_stims/simple_13_A_b.gif","images/stimuli/spore_stims/simple_08_A_a.gif"
"","3234.7150000022957","survey-likert","150","822756","0.0-36.0","SS1619205567965","similarity_question","","","","","","","","","","","","{""Q0"":5}","[0]","","images/stimuli/spore_stims/simple_10_A_b.gif","images/stimuli/spore_stims/simple_01_A_a.gif"
"","3729.405000001774","survey-likert","151","826493","0.0-37.0","SS1619205567965","similarity_question","","","","","","","","","","","","{""Q0"":2}","[0]","","images/stimuli/spore_stims/complex_05_A_b.gif","images/stimuli/spore_stims/complex_14_A_a.gif"
"","4991.634999998612","survey-likert","152","831488","0.0-38.0","SS1619205567965","similarity_question","","","","","","","","","","","","{""Q0"":2}","[0]","","images/stimuli/spore_stims/complex_19_A_b.gif","images/stimuli/spore_stims/complex_18_A_a.gif"
"","8387.990000002901","survey-likert","153","839880","0.0-39.0","SS1619205567965","similarity_question","","","","","","","","","","","","{""Q0"":4}","[0]","","images/stimuli/spore_stims/complex_09_A_b.gif","images/stimuli/spore_stims/complex_08_A_a.gif"
"","3931.939999998547","survey-likert","154","843816","0.0-40.0","SS1619205567965","similarity_question","","","","","","","","","","","","{""Q0"":4}","[0]","","images/stimuli/spore_stims/simple_07_A_b.gif","images/stimuli/spore_stims/simple_20_A_a.gif"
"","11252.919999998994","survey-likert","155","855073","0.0-41.0","SS1619205567965","similarity_question","","","","","","","","","","","","{""Q0"":4}","[0]","","images/stimuli/spore_stims/complex_16_A_b.gif","images/stimuli/spore_stims/complex_09_A_a.gif"
"","2690.804999998305","survey-likert","156","857769","0.0-42.0","SS1619205567965","similarity_question","","","","","","","","","","","","{""Q0"":6}","[0]","","images/stimuli/spore_stims/simple_02_A_a.gif","images/stimuli/spore_stims/simple_01_A_b.gif"
"","2520.2049999970477","survey-likert","157","860293","0.0-43.0","SS1619205567965","similarity_question","","","","","","","","","","","","{""Q0"":3}","[0]","","images/stimuli/spore_stims/simple_11_A_a.gif","images/stimuli/spore_stims/simple_18_A_b.gif"
"","3864.6300000000047","survey-likert","158","864162","0.0-44.0","SS1619205567965","similarity_question","","","","","","","","","","","","{""Q0"":0}","[0]","","images/stimuli/spore_stims/complex_12_A_a.gif","images/stimuli/spore_stims/complex_04_A_b.gif"
"[{""page_index"":0,""viewing_time"":3760.064999998547}]","3760.5899999981048","instructions","159","867925","0.0-45.0","SS1619205567965","instructions","","","","","","","","","","","","","","","",""
"","4047.8350000012433","survey-likert","160","871977","0.0-46.0","SS1619205567965","","","","","","","","","images/stimuli/spore_stims/simple_20_A_a.gif","","","","{""Q0"":0}","[0]","","",""
"","5635.974999997416","survey-likert","161","877617","0.0-47.0","SS1619205567965","","","","","","","","","images/stimuli/spore_stims/complex_09_A_b.gif","","","","{""Q0"":6}","[0]","","",""
"","3484.3199999995995","survey-likert","162","881105","0.0-48.0","SS1619205567965","","","","","","","","","images/stimuli/spore_stims/simple_11_A_a.gif","","","","{""Q0"":0}","[0]","","",""
"","2554.6399999985006","survey-likert","163","883665","0.0-49.0","SS1619205567965","","","","","","","","","images/stimuli/spore_stims/simple_08_A_a.gif","","","","{""Q0"":0}","[0]","","",""
"","3555.679999997723","survey-likert","164","887225","0.0-50.0","SS1619205567965","","","","","","","","","images/stimuli/spore_stims/complex_04_A_b.gif","","","","{""Q0"":6}","[0]","","",""
"","2508.32000000088","survey-likert","165","889737","0.0-51.0","SS1619205567965","","","","","","","","","images/stimuli/spore_stims/complex_01_A_a.gif","","","","{""Q0"":6}","[0]","","",""
"","2943.1800000020303","survey-likert","166","892685","0.0-52.0","SS1619205567965","","","","","","","","","images/stimuli/spore_stims/simple_01_A_a.gif","","","","{""Q0"":0}","[0]","","",""
"","2036.5050000000047","survey-likert","167","894726","0.0-53.0","SS1619205567965","","","","","","","","","images/stimuli/spore_stims/simple_15_A_b.gif","","","","{""Q0"":0}","[0]","","",""
"","5194.674999998766","survey-likert","168","899926","0.0-54.0","SS1619205567965","","","","","","","","","images/stimuli/spore_stims/simple_02_A_a.gif","","","","{""Q0"":0}","[0]","","",""
"","2818.530000000377","survey-likert","169","902750","0.0-55.0","SS1619205567965","","","","","","","","","images/stimuli/spore_stims/complex_05_A_b.gif","","","","{""Q0"":4}","[0]","","",""
"","4803.7900000017835","survey-likert","170","907558","0.0-56.0","SS1619205567965","","","","","","","","","images/stimuli/spore_stims/complex_16_A_b.gif","","","","{""Q0"":6}","[0]","","",""
"","3571.685000002617","survey-likert","171","911134","0.0-57.0","SS1619205567965","","","","","","","","","images/stimuli/spore_stims/complex_19_A_b.gif","","","","{""Q0"":6}","[0]","","",""
"[{""page_index"":0,""viewing_time"":1635.890000001411}]","1636.2150000022957","instructions","172","912774","0.0-58.0","SS1619205567965","instructions","","","","","","","","","","","","","","","",""
"","2323.319999999483","demog-age","173","915102","0.0-59.0","SS1619205567965","","","","","","","","","","","","","{""age"":""34""}","","","",""
"","5757.7000000019325","demog-ethnic-US","174","920867","0.0-60.0","SS1619205567965","","","","","","","","","","","","","{""ethnicity"":[""Hispanic or Latino""]}","[0]","","",""
"","5239.074999997625","demog-gender-and-education","175","926110","0.0-61.0","SS1619205567965","","","","","","","","","","","","","{""gender"":""Female"",""education"":""Master's Degree""}","[0,1]","","",""
"","10332.759999997448","survey-text","176","936451","0.0-62.0","SS1619205567965","feedback","","","","","","","","","","","","{""Q0"":""no""}","","","",""
"[{""page_index"":0,""viewing_time"":1555.7499999995343}]","1556.0499999992317","instructions","177","938010","0.0-63.0","SS1619205567965","instructions","","","","","","","","","","","","","","","",""
