"view_history","rt","trial_type","trial_index","time_elapsed","internal_node_id","subject","stimulus_type","trial_stimulus","key_press","minimum_viewing_duration","trial_looking_time","block_deviant","block_background","exposure_type","stimulus","block_number","block_type","stimulus_displayed","responses","question_order","math_correct_answer","stimulus_left","stimulus_right"
"[{""page_index"":0,""viewing_time"":183217.33000001404}]","183217.60500001255","instructions","0","183219","0.0-0.0","SS1619205130204","","","","","","","","","","","","","","","","",""
"[{""page_index"":0,""viewing_time"":12616.685000015423},{""page_index"":1,""viewing_time"":7607.989999931306}]","20224.975000019185","instructions","1","206211","0.0-1.0","SS1619205130204","instructions","","","","","","","","","","","","","","","",""
"","50599.234999972396","sequential-stimulus-presentation-old","2","257312","0.0-2.0","SS1619205130204","","","40","500","51099.234999972396","null","null","self_paced","","","","","","","","",""
"","5535.380000015721","sequential-stimulus-presentation-old","3","263355","0.0-3.0","SS1619205130204","","","40","500","6035.380000015721","null","null","self_paced","","","","","","","","",""
"[{""page_index"":0,""viewing_time"":26398.9049999509}]","26399.159999913536","instructions","4","289755","0.0-4.0","SS1619205130204","instructions","","","","","","","","","","","","","","","",""
"","494.4550000363961","sequential-stimulus-presentation-old","5","300256","0.0-5.0","SS1619205130204","","","40","500","994.4550000363961","null","null","forced_long","","","","","","","","",""
"","742.1499999472871","sequential-stimulus-presentation-old","6","301105","0.0-6.0","SS1619205130204","","","40","500","1242.1499999472871","null","null","forced_long","","","","","","","","",""
"[{""page_index"":0,""viewing_time"":2766.2550000241026}]","2766.509999986738","instructions","7","303872","0.0-7.0","SS1619205130204","instructions","","","","","","","","","","","","","","","",""
"[{""page_index"":0,""viewing_time"":12169.815000030212},{""page_index"":1,""viewing_time"":18734.000000054948},{""page_index"":2,""viewing_time"":6391.1999999545515},{""page_index"":3,""viewing_time"":2074.8000000603497},{""page_index"":4,""viewing_time"":1201.119999983348}]","40571.17000001017","instructions","8","344445","0.0-8.0","SS1619205130204","instructions","","","","","","","","","","","","","","","",""
"","null","html-keyboard-response","9","345569","0.0-9.0-0.0","SS1619205130204","","","null","","","","","","<p><img src= images/blank.png width =""600"" height = ""600"" style=""position:fixed;top:50%; left:50%; transform: translate(-50%, -50%); border:5px solid black"">","","","","","","","",""
"","451.5499999979511","sequential-stimulus-presentation-old","10","356027","0.0-9.0-1.0","SS1619205130204","trial","","40","500","951.5499999979511","images/stimuli/spore_stims/simple_05_A_a.gif","images/stimuli/spore_stims/simple_03_A_b.gif","forced_long","","0","simple_dissimilar","images/stimuli/spore_stims/simple_03_A_b.gif","","","","",""
"","null","html-keyboard-response","11","357164","0.0-9.0-0.1","SS1619205130204","","","null","","","","","","<p><img src= images/blank.png width =""600"" height = ""600"" style=""position:fixed;top:50%; left:50%; transform: translate(-50%, -50%); border:5px solid black"">","","","","","","","",""
"","98167.55000001285","sequential-stimulus-presentation-old","12","455834","0.0-9.0-1.1","SS1619205130204","trial","","40","500","98667.55000001285","images/stimuli/spore_stims/simple_05_A_a.gif","images/stimuli/spore_stims/simple_03_A_b.gif","forced_long","","0","simple_dissimilar","images/stimuli/spore_stims/simple_03_A_b.gif","","","","",""
"","null","html-keyboard-response","13","457064","0.0-9.0-0.2","SS1619205130204","","","null","","","","","","<p><img src= images/blank.png width =""600"" height = ""600"" style=""position:fixed;top:50%; left:50%; transform: translate(-50%, -50%); border:5px solid black"">","","","","","","","",""
"","44673.10000001453","sequential-stimulus-presentation-old","14","502250","0.0-9.0-1.2","SS1619205130204","trial","","40","500","45173.10000001453","images/stimuli/spore_stims/simple_05_A_a.gif","images/stimuli/spore_stims/simple_03_A_b.gif","forced_long","","0","simple_dissimilar","images/stimuli/spore_stims/simple_03_A_b.gif","","","","",""
"","null","html-keyboard-response","15","503084","0.0-9.0-0.3","SS1619205130204","","","null","","","","","","<p><img src= images/blank.png width =""600"" height = ""600"" style=""position:fixed;top:50%; left:50%; transform: translate(-50%, -50%); border:5px solid black"">","","","","","","","",""
"","1442.8450000705197","sequential-stimulus-presentation-old","16","505028","0.0-9.0-1.3","SS1619205130204","trial","","40","500","1942.8450000705197","images/stimuli/spore_stims/simple_05_A_a.gif","images/stimuli/spore_stims/simple_03_A_b.gif","forced_long","","0","simple_dissimilar","images/stimuli/spore_stims/simple_03_A_b.gif","","","","",""
"","null","html-keyboard-response","17","506180","0.0-9.0-0.4","SS1619205130204","","","null","","","","","","<p><img src= images/blank.png width =""600"" height = ""600"" style=""position:fixed;top:50%; left:50%; transform: translate(-50%, -50%); border:5px solid black"">","","","","","","","",""
"","516.9349999632686","sequential-stimulus-presentation-old","18","507198","0.0-9.0-1.4","SS1619205130204","trial","","40","500","1016.9349999632686","images/stimuli/spore_stims/simple_05_A_a.gif","images/stimuli/spore_stims/simple_03_A_b.gif","forced_long","","0","simple_dissimilar","images/stimuli/spore_stims/simple_03_A_b.gif","","","","",""
"","6285.915000014938","survey-multi-choice","19","513487","0.0-10.0","SS1619205130204","math_question","","","","","","","","","","","","{""Q0"":""14""}","[0]","14","",""
"","null","html-keyboard-response","20","514673","0.0-11.0-0.0","SS1619205130204","","","null","","","","","","<p><img src= images/blank.png width =""600"" height = ""600"" style=""position:fixed;top:50%; left:50%; transform: translate(-50%, -50%); border:5px solid black"">","","","","","","","",""
"","539.0149999875575","sequential-stimulus-presentation-old","21","515715","0.0-11.0-1.0","SS1619205130204","trial","","40","500","1039.0149999875575","images/stimuli/spore_stims/complex_13_A_a.gif","images/stimuli/spore_stims/complex_19_A_b.gif","self_paced","","1","complex_dissimilar","images/stimuli/spore_stims/complex_19_A_b.gif","","","","",""
"","null","html-keyboard-response","22","516888","0.0-11.0-0.1","SS1619205130204","","","null","","","","","","<p><img src= images/blank.png width =""600"" height = ""600"" style=""position:fixed;top:50%; left:50%; transform: translate(-50%, -50%); border:5px solid black"">","","","","","","","",""
"","373.1599999591708","sequential-stimulus-presentation-old","23","517764","0.0-11.0-1.1","SS1619205130204","trial","","40","500","873.1599999591708","images/stimuli/spore_stims/complex_13_A_a.gif","images/stimuli/spore_stims/complex_19_A_b.gif","self_paced","","1","complex_dissimilar","images/stimuli/spore_stims/complex_13_A_a.gif","","","","",""
"","null","html-keyboard-response","24","518645","0.0-11.0-0.2","SS1619205130204","","","null","","","","","","<p><img src= images/blank.png width =""600"" height = ""600"" style=""position:fixed;top:50%; left:50%; transform: translate(-50%, -50%); border:5px solid black"">","","","","","","","",""
"","8.045000024139881","sequential-stimulus-presentation-old","25","519157","0.0-11.0-1.2","SS1619205130204","trial","","40","500","508.0450000241399","images/stimuli/spore_stims/complex_13_A_a.gif","images/stimuli/spore_stims/complex_19_A_b.gif","self_paced","","1","complex_dissimilar","images/stimuli/spore_stims/complex_13_A_a.gif","","","","",""
"","null","html-keyboard-response","26","520369","0.0-11.0-0.3","SS1619205130204","","","null","","","","","","<p><img src= images/blank.png width =""600"" height = ""600"" style=""position:fixed;top:50%; left:50%; transform: translate(-50%, -50%); border:5px solid black"">","","","","","","","",""
"","390.00999997369945","sequential-stimulus-presentation-old","27","521261","0.0-11.0-1.3","SS1619205130204","trial","","40","500","890.0099999736995","images/stimuli/spore_stims/complex_13_A_a.gif","images/stimuli/spore_stims/complex_19_A_b.gif","self_paced","","1","complex_dissimilar","images/stimuli/spore_stims/complex_19_A_b.gif","","","","",""
"","null","html-keyboard-response","28","522441","0.0-11.0-0.4","SS1619205130204","","","null","","","","","","<p><img src= images/blank.png width =""600"" height = ""600"" style=""position:fixed;top:50%; left:50%; transform: translate(-50%, -50%); border:5px solid black"">","","","","","","","",""
"","95.2749999705702","sequential-stimulus-presentation-old","29","523039","0.0-11.0-1.4","SS1619205130204","trial","","40","500","595.2749999705702","images/stimuli/spore_stims/complex_13_A_a.gif","images/stimuli/spore_stims/complex_19_A_b.gif","self_paced","","1","complex_dissimilar","images/stimuli/spore_stims/complex_19_A_b.gif","","","","",""
"","2797.069999971427","survey-multi-choice","30","525837","0.0-12.0","SS1619205130204","math_question","","","","","","","","","","","","{""Q0"":""10""}","[0]","10","",""
"","null","html-keyboard-response","31","526764","0.0-13.0-0.0","SS1619205130204","","","null","","","","","","<p><img src= images/blank.png width =""600"" height = ""600"" style=""position:fixed;top:50%; left:50%; transform: translate(-50%, -50%); border:5px solid black"">","","","","","","","",""
"","382.93500000145286","sequential-stimulus-presentation-old","32","527649","0.0-13.0-1.0","SS1619205130204","trial","","40","500","882.9350000014529","images/stimuli/spore_stims/simple_12_A_a.gif","images/stimuli/spore_stims/simple_02_A_b.gif","self_paced","","2","simple_dissimilar","images/stimuli/spore_stims/simple_02_A_b.gif","","","","",""
"","null","html-keyboard-response","33","528503","0.0-13.0-0.1","SS1619205130204","","","null","","","","","","<p><img src= images/blank.png width =""600"" height = ""600"" style=""position:fixed;top:50%; left:50%; transform: translate(-50%, -50%); border:5px solid black"">","","","","","","","",""
"","65.18000003416091","sequential-stimulus-presentation-old","34","529075","0.0-13.0-1.1","SS1619205130204","trial","","40","500","565.1800000341609","images/stimuli/spore_stims/simple_12_A_a.gif","images/stimuli/spore_stims/simple_02_A_b.gif","self_paced","","2","simple_dissimilar","images/stimuli/spore_stims/simple_02_A_b.gif","","","","",""
"","null","html-keyboard-response","35","530277","0.0-13.0-0.2","SS1619205130204","","","null","","","","","","<p><img src= images/blank.png width =""600"" height = ""600"" style=""position:fixed;top:50%; left:50%; transform: translate(-50%, -50%); border:5px solid black"">","","","","","","","",""
"","1.9450000254437327","sequential-stimulus-presentation-old","36","530781","0.0-13.0-1.2","SS1619205130204","trial","","40","500","501.94500002544373","images/stimuli/spore_stims/simple_12_A_a.gif","images/stimuli/spore_stims/simple_02_A_b.gif","self_paced","","2","simple_dissimilar","images/stimuli/spore_stims/simple_02_A_b.gif","","","","",""
"","null","html-keyboard-response","37","531599","0.0-13.0-0.3","SS1619205130204","","","null","","","","","","<p><img src= images/blank.png width =""600"" height = ""600"" style=""position:fixed;top:50%; left:50%; transform: translate(-50%, -50%); border:5px solid black"">","","","","","","","",""
"","16.8899999698624","sequential-stimulus-presentation-old","38","532118","0.0-13.0-1.3","SS1619205130204","trial","","40","500","516.8899999698624","images/stimuli/spore_stims/simple_12_A_a.gif","images/stimuli/spore_stims/simple_02_A_b.gif","self_paced","","2","simple_dissimilar","images/stimuli/spore_stims/simple_02_A_b.gif","","","","",""
"","2372.1750000258908","survey-multi-choice","39","534492","0.0-14.0","SS1619205130204","math_question","","","","","","","","","","","","{""Q0"":""13""}","[0]","13","",""
"","null","html-keyboard-response","40","535418","0.0-15.0-0.0","SS1619205130204","","","null","","","","","","<p><img src= images/blank.png width =""600"" height = ""600"" style=""position:fixed;top:50%; left:50%; transform: translate(-50%, -50%); border:5px solid black"">","","","","","","","",""
"","958.8650000514463","sequential-stimulus-presentation-old","41","536487","0.0-15.0-1.0","SS1619205130204","trial","","40","500","1458.8650000514463","images/stimuli/spore_stims/simple_04_A_a.gif","images/stimuli/spore_stims/simple_11_A_b.gif","forced_short","","3","simple_dissimilar","images/stimuli/spore_stims/simple_11_A_b.gif","","","","",""
"","null","html-keyboard-response","42","537302","0.0-15.0-0.1","SS1619205130204","","","null","","","","","","<p><img src= images/blank.png width =""600"" height = ""600"" style=""position:fixed;top:50%; left:50%; transform: translate(-50%, -50%); border:5px solid black"">","","","","","","","",""
"","1155.9300000080839","sequential-stimulus-presentation-old","43","538965","0.0-15.0-1.1","SS1619205130204","trial","","40","500","1655.9300000080839","images/stimuli/spore_stims/simple_04_A_a.gif","images/stimuli/spore_stims/simple_11_A_b.gif","forced_short","","3","simple_dissimilar","images/stimuli/spore_stims/simple_11_A_b.gif","","","","",""
"","null","html-keyboard-response","44","539976","0.0-15.0-0.2","SS1619205130204","","","null","","","","","","<p><img src= images/blank.png width =""600"" height = ""600"" style=""position:fixed;top:50%; left:50%; transform: translate(-50%, -50%); border:5px solid black"">","","","","","","","",""
"","152.91499998420477","sequential-stimulus-presentation-old","45","540631","0.0-15.0-1.2","SS1619205130204","trial","","40","500","652.9149999842048","images/stimuli/spore_stims/simple_04_A_a.gif","images/stimuli/spore_stims/simple_11_A_b.gif","forced_short","","3","simple_dissimilar","images/stimuli/spore_stims/simple_04_A_a.gif","","","","",""
"","null","html-keyboard-response","46","541929","0.0-15.0-0.3","SS1619205130204","","","null","","","","","","<p><img src= images/blank.png width =""600"" height = ""600"" style=""position:fixed;top:50%; left:50%; transform: translate(-50%, -50%); border:5px solid black"">","","","","","","","",""
"","86.80499996989965","sequential-stimulus-presentation-old","47","542527","0.0-15.0-1.3","SS1619205130204","trial","","40","500","586.8049999698997","images/stimuli/spore_stims/simple_04_A_a.gif","images/stimuli/spore_stims/simple_11_A_b.gif","forced_short","","3","simple_dissimilar","images/stimuli/spore_stims/simple_04_A_a.gif","","","","",""
"","null","html-keyboard-response","48","543444","0.0-15.0-0.4","SS1619205130204","","","null","","","","","","<p><img src= images/blank.png width =""600"" height = ""600"" style=""position:fixed;top:50%; left:50%; transform: translate(-50%, -50%); border:5px solid black"">","","","","","","","",""
"","42.610000004060566","sequential-stimulus-presentation-old","49","544001","0.0-15.0-1.4","SS1619205130204","trial","","40","500","542.6100000040606","images/stimuli/spore_stims/simple_04_A_a.gif","images/stimuli/spore_stims/simple_11_A_b.gif","forced_short","","3","simple_dissimilar","images/stimuli/spore_stims/simple_11_A_b.gif","","","","",""
"","7306.9200000027195","survey-multi-choice","50","551309","0.0-16.0","SS1619205130204","math_question","","","","","","","","","","","","{""Q0"":""17""}","[0]","17","",""
"","null","html-keyboard-response","51","552545","0.0-17.0-0.0","SS1619205130204","","","null","","","","","","<p><img src= images/blank.png width =""600"" height = ""600"" style=""position:fixed;top:50%; left:50%; transform: translate(-50%, -50%); border:5px solid black"">","","","","","","","",""
"","633.7599999969825","sequential-stimulus-presentation-old","52","553281","0.0-17.0-1.0","SS1619205130204","trial","","40","500","1133.7599999969825","images/stimuli/spore_stims/complex_03_A_a.gif","images/stimuli/spore_stims/complex_20_A_b.gif","forced_short","","4","complex_dissimilar","images/stimuli/spore_stims/complex_20_A_b.gif","","","","",""
"","null","html-keyboard-response","53","554230","0.0-17.0-0.1","SS1619205130204","","","null","","","","","","<p><img src= images/blank.png width =""600"" height = ""600"" style=""position:fixed;top:50%; left:50%; transform: translate(-50%, -50%); border:5px solid black"">","","","","","","","",""
"","202.2049999795854","sequential-stimulus-presentation-old","54","554934","0.0-17.0-1.1","SS1619205130204","trial","","40","500","702.2049999795854","images/stimuli/spore_stims/complex_03_A_a.gif","images/stimuli/spore_stims/complex_20_A_b.gif","forced_short","","4","complex_dissimilar","images/stimuli/spore_stims/complex_20_A_b.gif","","","","",""
"","null","html-keyboard-response","55","555808","0.0-17.0-0.2","SS1619205130204","","","null","","","","","","<p><img src= images/blank.png width =""600"" height = ""600"" style=""position:fixed;top:50%; left:50%; transform: translate(-50%, -50%); border:5px solid black"">","","","","","","","",""
"","122.07000004127622","sequential-stimulus-presentation-old","56","556436","0.0-17.0-1.2","SS1619205130204","trial","","40","500","622.0700000412762","images/stimuli/spore_stims/complex_03_A_a.gif","images/stimuli/spore_stims/complex_20_A_b.gif","forced_short","","4","complex_dissimilar","images/stimuli/spore_stims/complex_20_A_b.gif","","","","",""
"","null","html-keyboard-response","57","557354","0.0-17.0-0.3","SS1619205130204","","","null","","","","","","<p><img src= images/blank.png width =""600"" height = ""600"" style=""position:fixed;top:50%; left:50%; transform: translate(-50%, -50%); border:5px solid black"">","","","","","","","",""
"","71.7949999962002","sequential-stimulus-presentation-old","58","557930","0.0-17.0-1.3","SS1619205130204","trial","","40","500","571.7949999962002","images/stimuli/spore_stims/complex_03_A_a.gif","images/stimuli/spore_stims/complex_20_A_b.gif","forced_short","","4","complex_dissimilar","images/stimuli/spore_stims/complex_20_A_b.gif","","","","",""
"","2728.5899999551475","survey-multi-choice","59","560661","0.0-18.0","SS1619205130204","math_question","","","","","","","","","","","","{""Q0"":""10""}","[0]","10","",""
"","null","html-keyboard-response","60","561727","0.0-19.0-0.0","SS1619205130204","","","null","","","","","","<p><img src= images/blank.png width =""600"" height = ""600"" style=""position:fixed;top:50%; left:50%; transform: translate(-50%, -50%); border:5px solid black"">","","","","","","","",""
"","120.89999997988343","sequential-stimulus-presentation-old","61","571859","0.0-19.0-1.0","SS1619205130204","trial","","40","500","620.8999999798834","images/stimuli/spore_stims/complex_14_A_a.gif","images/stimuli/spore_stims/complex_13_A_b.gif","forced_long","","5","complex_dissimilar","images/stimuli/spore_stims/complex_13_A_b.gif","","","","",""
"","null","html-keyboard-response","62","572836","0.0-19.0-0.1","SS1619205130204","","","null","","","","","","<p><img src= images/blank.png width =""600"" height = ""600"" style=""position:fixed;top:50%; left:50%; transform: translate(-50%, -50%); border:5px solid black"">","","","","","","","",""
"","284.9500000011176","sequential-stimulus-presentation-old","63","573623","0.0-19.0-1.1","SS1619205130204","trial","","40","500","784.9500000011176","images/stimuli/spore_stims/complex_14_A_a.gif","images/stimuli/spore_stims/complex_13_A_b.gif","forced_long","","5","complex_dissimilar","images/stimuli/spore_stims/complex_13_A_b.gif","","","","",""
"","null","html-keyboard-response","64","574766","0.0-19.0-0.2","SS1619205130204","","","null","","","","","","<p><img src= images/blank.png width =""600"" height = ""600"" style=""position:fixed;top:50%; left:50%; transform: translate(-50%, -50%); border:5px solid black"">","","","","","","","",""
"","105.14499992132187","sequential-stimulus-presentation-old","65","575376","0.0-19.0-1.2","SS1619205130204","trial","","40","500","605.1449999213219","images/stimuli/spore_stims/complex_14_A_a.gif","images/stimuli/spore_stims/complex_13_A_b.gif","forced_long","","5","complex_dissimilar","images/stimuli/spore_stims/complex_13_A_b.gif","","","","",""
"","null","html-keyboard-response","66","576212","0.0-19.0-0.3","SS1619205130204","","","null","","","","","","<p><img src= images/blank.png width =""600"" height = ""600"" style=""position:fixed;top:50%; left:50%; transform: translate(-50%, -50%); border:5px solid black"">","","","","","","","",""
"","26751.444999943487","sequential-stimulus-presentation-old","67","603466","0.0-19.0-1.3","SS1619205130204","trial","","40","500","27251.444999943487","images/stimuli/spore_stims/complex_14_A_a.gif","images/stimuli/spore_stims/complex_13_A_b.gif","forced_long","","5","complex_dissimilar","images/stimuli/spore_stims/complex_13_A_b.gif","","","","",""
"","null","html-keyboard-response","68","604680","0.0-19.0-0.4","SS1619205130204","","","null","","","","","","<p><img src= images/blank.png width =""600"" height = ""600"" style=""position:fixed;top:50%; left:50%; transform: translate(-50%, -50%); border:5px solid black"">","","","","","","","",""
"","1543.98499999661","sequential-stimulus-presentation-old","69","606727","0.0-19.0-1.4","SS1619205130204","trial","","40","500","2043.98499999661","images/stimuli/spore_stims/complex_14_A_a.gif","images/stimuli/spore_stims/complex_13_A_b.gif","forced_long","","5","complex_dissimilar","images/stimuli/spore_stims/complex_13_A_b.gif","","","","",""
"","null","html-keyboard-response","70","607774","0.0-19.0-0.5","SS1619205130204","","","null","","","","","","<p><img src= images/blank.png width =""600"" height = ""600"" style=""position:fixed;top:50%; left:50%; transform: translate(-50%, -50%); border:5px solid black"">","","","","","","","",""
"","1517.1400000108406","sequential-stimulus-presentation-old","71","609794","0.0-19.0-1.5","SS1619205130204","trial","","40","500","2017.1400000108406","images/stimuli/spore_stims/complex_14_A_a.gif","images/stimuli/spore_stims/complex_13_A_b.gif","forced_long","","5","complex_dissimilar","images/stimuli/spore_stims/complex_13_A_b.gif","","","","",""
"","3957.5999999651685","survey-multi-choice","72","613753","0.0-20.0","SS1619205130204","math_question","","","","","","","","","","","","{""Q0"":""12""}","[0]","12","",""
"","null","html-keyboard-response","73","614705","0.0-21.0-0.0","SS1619205130204","","","null","","","","","","<p><img src= images/blank.png width =""600"" height = ""600"" style=""position:fixed;top:50%; left:50%; transform: translate(-50%, -50%); border:5px solid black"">","","","","","","","",""
"","707.935000071302","sequential-stimulus-presentation-old","74","615516","0.0-21.0-1.0","SS1619205130204","trial","","40","500","1207.935000071302","images/stimuli/spore_stims/complex_09_A_a.gif","images/stimuli/spore_stims/complex_16_A_b.gif","forced_short","","6","complex_dissimilar","images/stimuli/spore_stims/complex_16_A_b.gif","","","","",""
"","null","html-keyboard-response","75","616564","0.0-21.0-0.1","SS1619205130204","","","null","","","","","","<p><img src= images/blank.png width =""600"" height = ""600"" style=""position:fixed;top:50%; left:50%; transform: translate(-50%, -50%); border:5px solid black"">","","","","","","","",""
"","777.1299999440089","sequential-stimulus-presentation-old","76","617844","0.0-21.0-1.1","SS1619205130204","trial","","40","500","1277.129999944009","images/stimuli/spore_stims/complex_09_A_a.gif","images/stimuli/spore_stims/complex_16_A_b.gif","forced_short","","6","complex_dissimilar","images/stimuli/spore_stims/complex_09_A_a.gif","","","","",""
"","null","html-keyboard-response","77","618790","0.0-21.0-0.2","SS1619205130204","","","null","","","","","","<p><img src= images/blank.png width =""600"" height = ""600"" style=""position:fixed;top:50%; left:50%; transform: translate(-50%, -50%); border:5px solid black"">","","","","","","","",""
"","697.9999999748543","sequential-stimulus-presentation-old","78","619991","0.0-21.0-1.2","SS1619205130204","trial","","40","500","1197.9999999748543","images/stimuli/spore_stims/complex_09_A_a.gif","images/stimuli/spore_stims/complex_16_A_b.gif","forced_short","","6","complex_dissimilar","images/stimuli/spore_stims/complex_16_A_b.gif","","","","",""
"","null","html-keyboard-response","79","621250","0.0-21.0-0.3","SS1619205130204","","","null","","","","","","<p><img src= images/blank.png width =""600"" height = ""600"" style=""position:fixed;top:50%; left:50%; transform: translate(-50%, -50%); border:5px solid black"">","","","","","","","",""
"","314.11999999545515","sequential-stimulus-presentation-old","80","622066","0.0-21.0-1.3","SS1619205130204","trial","","40","500","814.1199999954551","images/stimuli/spore_stims/complex_09_A_a.gif","images/stimuli/spore_stims/complex_16_A_b.gif","forced_short","","6","complex_dissimilar","images/stimuli/spore_stims/complex_16_A_b.gif","","","","",""
"","4487.61499999091","survey-multi-choice","81","626555","0.0-22.0","SS1619205130204","math_question","","","","","","","","","","","","{""Q0"":""13""}","[0]","13","",""
"","null","html-keyboard-response","82","627364","0.0-23.0-0.0","SS1619205130204","","","null","","","","","","<p><img src= images/blank.png width =""600"" height = ""600"" style=""position:fixed;top:50%; left:50%; transform: translate(-50%, -50%); border:5px solid black"">","","","","","","","",""
"","1598.2350000413135","sequential-stimulus-presentation-old","83","629466","0.0-23.0-1.0","SS1619205130204","trial","","40","500","2098.2350000413135","images/stimuli/spore_stims/simple_10_A_a.gif","images/stimuli/spore_stims/simple_01_A_b.gif","self_paced","","7","simple_dissimilar","images/stimuli/spore_stims/simple_01_A_b.gif","","","","",""
"","null","html-keyboard-response","84","630349","0.0-23.0-0.1","SS1619205130204","","","null","","","","","","<p><img src= images/blank.png width =""600"" height = ""600"" style=""position:fixed;top:50%; left:50%; transform: translate(-50%, -50%); border:5px solid black"">","","","","","","","",""
"","527.2950000362471","sequential-stimulus-presentation-old","85","631379","0.0-23.0-1.1","SS1619205130204","trial","","40","500","1027.295000036247","images/stimuli/spore_stims/simple_10_A_a.gif","images/stimuli/spore_stims/simple_01_A_b.gif","self_paced","","7","simple_dissimilar","images/stimuli/spore_stims/simple_01_A_b.gif","","","","",""
"","null","html-keyboard-response","86","632531","0.0-23.0-0.2","SS1619205130204","","","null","","","","","","<p><img src= images/blank.png width =""600"" height = ""600"" style=""position:fixed;top:50%; left:50%; transform: translate(-50%, -50%); border:5px solid black"">","","","","","","","",""
"","1.194999902509153","sequential-stimulus-presentation-old","87","633039","0.0-23.0-1.2","SS1619205130204","trial","","40","500","501.19499990250915","images/stimuli/spore_stims/simple_10_A_a.gif","images/stimuli/spore_stims/simple_01_A_b.gif","self_paced","","7","simple_dissimilar","images/stimuli/spore_stims/simple_01_A_b.gif","","","","",""
"","null","html-keyboard-response","88","634059","0.0-23.0-0.3","SS1619205130204","","","null","","","","","","<p><img src= images/blank.png width =""600"" height = ""600"" style=""position:fixed;top:50%; left:50%; transform: translate(-50%, -50%); border:5px solid black"">","","","","","","","",""
"","301.8750000046566","sequential-stimulus-presentation-old","89","634865","0.0-23.0-1.3","SS1619205130204","trial","","40","500","801.8750000046566","images/stimuli/spore_stims/simple_10_A_a.gif","images/stimuli/spore_stims/simple_01_A_b.gif","self_paced","","7","simple_dissimilar","images/stimuli/spore_stims/simple_01_A_b.gif","","","","",""
"","2243.904999922961","survey-multi-choice","90","637111","0.0-24.0","SS1619205130204","math_question","","","","","","","","","","","","{""Q0"":""5""}","[0]","5","",""
"","null","html-keyboard-response","91","638056","0.0-25.0-0.0","SS1619205130204","","","null","","","","","","<p><img src= images/blank.png width =""600"" height = ""600"" style=""position:fixed;top:50%; left:50%; transform: translate(-50%, -50%); border:5px solid black"">","","","","","","","",""
"","3260.3899999521673","sequential-stimulus-presentation-old","92","651320","0.0-25.0-1.0","SS1619205130204","trial","","40","500","3760.3899999521673","images/stimuli/spore_stims/simple_01_A_a.gif","images/stimuli/spore_stims/simple_14_A_b.gif","forced_long","","8","simple_dissimilar","images/stimuli/spore_stims/simple_14_A_b.gif","","","","",""
"","null","html-keyboard-response","93","652311","0.0-25.0-0.1","SS1619205130204","","","null","","","","","","<p><img src= images/blank.png width =""600"" height = ""600"" style=""position:fixed;top:50%; left:50%; transform: translate(-50%, -50%); border:5px solid black"">","","","","","","","",""
"","612.3399999924004","sequential-stimulus-presentation-old","94","653427","0.0-25.0-1.1","SS1619205130204","trial","","40","500","1112.3399999924004","images/stimuli/spore_stims/simple_01_A_a.gif","images/stimuli/spore_stims/simple_14_A_b.gif","forced_long","","8","simple_dissimilar","images/stimuli/spore_stims/simple_14_A_b.gif","","","","",""
"","null","html-keyboard-response","95","654294","0.0-25.0-0.2","SS1619205130204","","","null","","","","","","<p><img src= images/blank.png width =""600"" height = ""600"" style=""position:fixed;top:50%; left:50%; transform: translate(-50%, -50%); border:5px solid black"">","","","","","","","",""
"","354.84000004362315","sequential-stimulus-presentation-old","96","655157","0.0-25.0-1.2","SS1619205130204","trial","","40","500","854.8400000436231","images/stimuli/spore_stims/simple_01_A_a.gif","images/stimuli/spore_stims/simple_14_A_b.gif","forced_long","","8","simple_dissimilar","images/stimuli/spore_stims/simple_14_A_b.gif","","","","",""
"","null","html-keyboard-response","97","656450","0.0-25.0-0.3","SS1619205130204","","","null","","","","","","<p><img src= images/blank.png width =""600"" height = ""600"" style=""position:fixed;top:50%; left:50%; transform: translate(-50%, -50%); border:5px solid black"">","","","","","","","",""
"","19.05499992426485","sequential-stimulus-presentation-old","98","656971","0.0-25.0-1.3","SS1619205130204","trial","","40","500","519.0549999242648","images/stimuli/spore_stims/simple_01_A_a.gif","images/stimuli/spore_stims/simple_14_A_b.gif","forced_long","","8","simple_dissimilar","images/stimuli/spore_stims/simple_14_A_b.gif","","","","",""
"","null","html-keyboard-response","99","657942","0.0-25.0-0.4","SS1619205130204","","","null","","","","","","<p><img src= images/blank.png width =""600"" height = ""600"" style=""position:fixed;top:50%; left:50%; transform: translate(-50%, -50%); border:5px solid black"">","","","","","","","",""
"","178.13999997451901","sequential-stimulus-presentation-old","100","658624","0.0-25.0-1.4","SS1619205130204","trial","","40","500","678.139999974519","images/stimuli/spore_stims/simple_01_A_a.gif","images/stimuli/spore_stims/simple_14_A_b.gif","forced_long","","8","simple_dissimilar","images/stimuli/spore_stims/simple_01_A_a.gif","","","","",""
"","null","html-keyboard-response","101","659605","0.0-25.0-0.5","SS1619205130204","","","null","","","","","","<p><img src= images/blank.png width =""600"" height = ""600"" style=""position:fixed;top:50%; left:50%; transform: translate(-50%, -50%); border:5px solid black"">","","","","","","","",""
"","115.1600000448525","sequential-stimulus-presentation-old","102","660224","0.0-25.0-1.5","SS1619205130204","trial","","40","500","615.1600000448525","images/stimuli/spore_stims/simple_01_A_a.gif","images/stimuli/spore_stims/simple_14_A_b.gif","forced_long","","8","simple_dissimilar","images/stimuli/spore_stims/simple_01_A_a.gif","","","","",""
"","4128.339999937452","survey-multi-choice","103","664354","0.0-26.0","SS1619205130204","math_question","","","","","","","","","","","","{""Q0"":""5""}","[0]","5","",""
"","null","html-keyboard-response","104","665188","0.0-27.0-0.0","SS1619205130204","","","null","","","","","","<p><img src= images/blank.png width =""600"" height = ""600"" style=""position:fixed;top:50%; left:50%; transform: translate(-50%, -50%); border:5px solid black"">","","","","","","","",""
"","567.1449999790639","sequential-stimulus-presentation-old","105","666259","0.0-27.0-1.0","SS1619205130204","trial","","40","500","1067.1449999790639","images/stimuli/spore_stims/complex_12_A_a.gif","images/stimuli/spore_stims/complex_09_A_b.gif","self_paced","","9","complex_dissimilar","images/stimuli/spore_stims/complex_09_A_b.gif","","","","",""
"","null","html-keyboard-response","106","667518","0.0-27.0-0.1","SS1619205130204","","","null","","","","","","<p><img src= images/blank.png width =""600"" height = ""600"" style=""position:fixed;top:50%; left:50%; transform: translate(-50%, -50%); border:5px solid black"">","","","","","","","",""
"","362.36000002827495","sequential-stimulus-presentation-old","107","668384","0.0-27.0-1.1","SS1619205130204","trial","","40","500","862.360000028275","images/stimuli/spore_stims/complex_12_A_a.gif","images/stimuli/spore_stims/complex_09_A_b.gif","self_paced","","9","complex_dissimilar","images/stimuli/spore_stims/complex_09_A_b.gif","","","","",""
"","null","html-keyboard-response","108","669222","0.0-27.0-0.2","SS1619205130204","","","null","","","","","","<p><img src= images/blank.png width =""600"" height = ""600"" style=""position:fixed;top:50%; left:50%; transform: translate(-50%, -50%); border:5px solid black"">","","","","","","","",""
"","103.08999998960644","sequential-stimulus-presentation-old","109","669828","0.0-27.0-1.2","SS1619205130204","trial","","40","500","603.0899999896064","images/stimuli/spore_stims/complex_12_A_a.gif","images/stimuli/spore_stims/complex_09_A_b.gif","self_paced","","9","complex_dissimilar","images/stimuli/spore_stims/complex_09_A_b.gif","","","","",""
"","null","html-keyboard-response","110","670694","0.0-27.0-0.3","SS1619205130204","","","null","","","","","","<p><img src= images/blank.png width =""600"" height = ""600"" style=""position:fixed;top:50%; left:50%; transform: translate(-50%, -50%); border:5px solid black"">","","","","","","","",""
"","246.74500001128763","sequential-stimulus-presentation-old","111","671459","0.0-27.0-1.3","SS1619205130204","trial","","40","500","746.7450000112876","images/stimuli/spore_stims/complex_12_A_a.gif","images/stimuli/spore_stims/complex_09_A_b.gif","self_paced","","9","complex_dissimilar","images/stimuli/spore_stims/complex_09_A_b.gif","","","","",""
"","3140.0050000520423","survey-multi-choice","112","674601","0.0-28.0","SS1619205130204","math_question","","","","","","","","","","","","{""Q0"":""8""}","[0]","8","",""
"","null","html-keyboard-response","113","675908","0.0-29.0-0.0","SS1619205130204","","","null","","","","","","<p><img src= images/blank.png width =""600"" height = ""600"" style=""position:fixed;top:50%; left:50%; transform: translate(-50%, -50%); border:5px solid black"">","","","","","","","",""
"","233.87999995611608","sequential-stimulus-presentation-old","114","686153","0.0-29.0-1.0","SS1619205130204","trial","","40","500","733.8799999561161","images/stimuli/spore_stims/complex_18_A_b.gif","images/stimuli/spore_stims/complex_20_A_a.gif","forced_long","","10","complex_dissimilar","images/stimuli/spore_stims/complex_20_A_a.gif","","","","",""
"","null","html-keyboard-response","115","687319","0.0-29.0-0.1","SS1619205130204","","","null","","","","","","<p><img src= images/blank.png width =""600"" height = ""600"" style=""position:fixed;top:50%; left:50%; transform: translate(-50%, -50%); border:5px solid black"">","","","","","","","",""
"","5.699999979697168","sequential-stimulus-presentation-old","116","687831","0.0-29.0-1.1","SS1619205130204","trial","","40","500","505.69999997969717","images/stimuli/spore_stims/complex_18_A_b.gif","images/stimuli/spore_stims/complex_20_A_a.gif","forced_long","","10","complex_dissimilar","images/stimuli/spore_stims/complex_20_A_a.gif","","","","",""
"","null","html-keyboard-response","117","689000","0.0-29.0-0.2","SS1619205130204","","","null","","","","","","<p><img src= images/blank.png width =""600"" height = ""600"" style=""position:fixed;top:50%; left:50%; transform: translate(-50%, -50%); border:5px solid black"">","","","","","","","",""
"","169.15000008884817","sequential-stimulus-presentation-old","118","689672","0.0-29.0-1.2","SS1619205130204","trial","","40","500","669.1500000888482","images/stimuli/spore_stims/complex_18_A_b.gif","images/stimuli/spore_stims/complex_20_A_a.gif","forced_long","","10","complex_dissimilar","images/stimuli/spore_stims/complex_20_A_a.gif","","","","",""
"","null","html-keyboard-response","119","690902","0.0-29.0-0.3","SS1619205130204","","","null","","","","","","<p><img src= images/blank.png width =""600"" height = ""600"" style=""position:fixed;top:50%; left:50%; transform: translate(-50%, -50%); border:5px solid black"">","","","","","","","",""
"","329.08499997574836","sequential-stimulus-presentation-old","120","691749","0.0-29.0-1.3","SS1619205130204","trial","","40","500","829.0849999757484","images/stimuli/spore_stims/complex_18_A_b.gif","images/stimuli/spore_stims/complex_20_A_a.gif","forced_long","","10","complex_dissimilar","images/stimuli/spore_stims/complex_18_A_b.gif","","","","",""
"","3216.729999985546","survey-multi-choice","121","694967","0.0-30.0","SS1619205130204","math_question","","","","","","","","","","","","{""Q0"":""8""}","[0]","8","",""
"","null","html-keyboard-response","122","696268","0.0-31.0-0.0","SS1619205130204","","","null","","","","","","<p><img src= images/blank.png width =""600"" height = ""600"" style=""position:fixed;top:50%; left:50%; transform: translate(-50%, -50%); border:5px solid black"">","","","","","","","",""
"","14437.97500000801","sequential-stimulus-presentation-old","123","710810","0.0-31.0-1.0","SS1619205130204","trial","","40","500","14937.97500000801","images/stimuli/spore_stims/simple_13_A_a.gif","images/stimuli/spore_stims/simple_17_A_b.gif","forced_short","","11","simple_dissimilar","images/stimuli/spore_stims/simple_17_A_b.gif","","","","",""
"","null","html-keyboard-response","124","712028","0.0-31.0-0.1","SS1619205130204","","","null","","","","","","<p><img src= images/blank.png width =""600"" height = ""600"" style=""position:fixed;top:50%; left:50%; transform: translate(-50%, -50%); border:5px solid black"">","","","","","","","",""
"","578.6599999992177","sequential-stimulus-presentation-old","125","713109","0.0-31.0-1.1","SS1619205130204","trial","","40","500","1078.6599999992177","images/stimuli/spore_stims/simple_13_A_a.gif","images/stimuli/spore_stims/simple_17_A_b.gif","forced_short","","11","simple_dissimilar","images/stimuli/spore_stims/simple_17_A_b.gif","","","","",""
"","null","html-keyboard-response","126","714337","0.0-31.0-0.2","SS1619205130204","","","null","","","","","","<p><img src= images/blank.png width =""600"" height = ""600"" style=""position:fixed;top:50%; left:50%; transform: translate(-50%, -50%); border:5px solid black"">","","","","","","","",""
"","705.0600000657141","sequential-stimulus-presentation-old","127","715547","0.0-31.0-1.2","SS1619205130204","trial","","40","500","1205.0600000657141","images/stimuli/spore_stims/simple_13_A_a.gif","images/stimuli/spore_stims/simple_17_A_b.gif","forced_short","","11","simple_dissimilar","images/stimuli/spore_stims/simple_17_A_b.gif","","","","",""
"","null","html-keyboard-response","128","716662","0.0-31.0-0.3","SS1619205130204","","","null","","","","","","<p><img src= images/blank.png width =""600"" height = ""600"" style=""position:fixed;top:50%; left:50%; transform: translate(-50%, -50%); border:5px solid black"">","","","","","","","",""
"","109.27999997511506","sequential-stimulus-presentation-old","129","717274","0.0-31.0-1.3","SS1619205130204","trial","","40","500","609.2799999751151","images/stimuli/spore_stims/simple_13_A_a.gif","images/stimuli/spore_stims/simple_17_A_b.gif","forced_short","","11","simple_dissimilar","images/stimuli/spore_stims/simple_17_A_b.gif","","","","",""
"[{""page_index"":0,""viewing_time"":6253.935000044294}]","6254.565000068396","instructions","130","723531","0.0-32.0","SS1619205130204","instructions","","","","","","","","","","","","","","","",""
"","8159.215000108816","survey-likert","131","731693","0.0-33.0","SS1619205130204","similarity_question","","","","","","","","","","","","{""Q0"":0}","[0]","","images/stimuli/spore_stims/complex_13_A_a.gif","images/stimuli/spore_stims/complex_19_A_b.gif"
"","3338.4099999675527","survey-likert","132","735037","0.0-34.0","SS1619205130204","similarity_question","","","","","","","","","","","","{""Q0"":5}","[0]","","images/stimuli/spore_stims/simple_17_A_b.gif","images/stimuli/spore_stims/simple_13_A_a.gif"
"","4896.710000000894","survey-likert","133","739939","0.0-35.0","SS1619205130204","similarity_question","","","","","","","","","","","","{""Q0"":0}","[0]","","images/stimuli/spore_stims/complex_13_A_b.gif","images/stimuli/spore_stims/complex_14_A_a.gif"
"","2882.715000072494","survey-likert","134","742828","0.0-36.0","SS1619205130204","similarity_question","","","","","","","","","","","","{""Q0"":2}","[0]","","images/stimuli/spore_stims/complex_18_A_b.gif","images/stimuli/spore_stims/complex_20_A_a.gif"
"","2892.9399999324232","survey-likert","135","745727","0.0-37.0","SS1619205130204","similarity_question","","","","","","","","","","","","{""Q0"":4}","[0]","","images/stimuli/spore_stims/simple_05_A_a.gif","images/stimuli/spore_stims/simple_03_A_b.gif"
"","2324.9549999600276","survey-likert","136","748057","0.0-38.0","SS1619205130204","similarity_question","","","","","","","","","","","","{""Q0"":4}","[0]","","images/stimuli/spore_stims/simple_04_A_a.gif","images/stimuli/spore_stims/simple_11_A_b.gif"
"","3788.7549999868497","survey-likert","137","751853","0.0-39.0","SS1619205130204","similarity_question","","","","","","","","","","","","{""Q0"":0}","[0]","","images/stimuli/spore_stims/complex_03_A_a.gif","images/stimuli/spore_stims/complex_20_A_b.gif"
"","2215.7700000097975","survey-likert","138","754075","0.0-40.0","SS1619205130204","similarity_question","","","","","","","","","","","","{""Q0"":0}","[0]","","images/stimuli/spore_stims/complex_09_A_b.gif","images/stimuli/spore_stims/complex_12_A_a.gif"
"","2103.019999922253","survey-likert","139","756184","0.0-41.0","SS1619205130204","similarity_question","","","","","","","","","","","","{""Q0"":5}","[0]","","images/stimuli/spore_stims/simple_01_A_b.gif","images/stimuli/spore_stims/simple_10_A_a.gif"
"","2949.045000015758","survey-likert","140","759138","0.0-42.0","SS1619205130204","similarity_question","","","","","","","","","","","","{""Q0"":0}","[0]","","images/stimuli/spore_stims/complex_09_A_a.gif","images/stimuli/spore_stims/complex_16_A_b.gif"
"","2955.2499999990687","survey-likert","141","762100","0.0-43.0","SS1619205130204","similarity_question","","","","","","","","","","","","{""Q0"":5}","[0]","","images/stimuli/spore_stims/simple_01_A_a.gif","images/stimuli/spore_stims/simple_14_A_b.gif"
"","1702.5799999246374","survey-likert","142","763808","0.0-44.0","SS1619205130204","similarity_question","","","","","","","","","","","","{""Q0"":5}","[0]","","images/stimuli/spore_stims/simple_02_A_b.gif","images/stimuli/spore_stims/simple_12_A_a.gif"
"[{""page_index"":0,""viewing_time"":3314.060000004247}]","3314.375000074506","instructions","143","767127","0.0-45.0","SS1619205130204","instructions","","","","","","","","","","","","","","","",""
"","6561.884999973699","survey-likert","144","773691","0.0-46.0","SS1619205130204","","","","","","","","","images/stimuli/spore_stims/complex_19_A_b.gif","","","","{""Q0"":4}","[0]","","",""
"","2075.4549999255687","survey-likert","145","775773","0.0-47.0","SS1619205130204","","","","","","","","","images/stimuli/spore_stims/complex_13_A_b.gif","","","","{""Q0"":4}","[0]","","",""
"","1891.3099999772385","survey-likert","146","777669","0.0-48.0","SS1619205130204","","","","","","","","","images/stimuli/spore_stims/simple_17_A_b.gif","","","","{""Q0"":0}","[0]","","",""
"","1323.8750000018626","survey-likert","147","778998","0.0-49.0","SS1619205130204","","","","","","","","","images/stimuli/spore_stims/simple_11_A_b.gif","","","","{""Q0"":0}","[0]","","",""
"","1182.5800000224262","survey-likert","148","780186","0.0-50.0","SS1619205130204","","","","","","","","","images/stimuli/spore_stims/simple_01_A_b.gif","","","","{""Q0"":0}","[0]","","",""
"","1130.8699999935925","survey-likert","149","781323","0.0-51.0","SS1619205130204","","","","","","","","","images/stimuli/spore_stims/simple_12_A_a.gif","","","","{""Q0"":0}","[0]","","",""
"","3502.8549999697134","survey-likert","150","784832","0.0-52.0","SS1619205130204","","","","","","","","","images/stimuli/spore_stims/complex_09_A_b.gif","","","","{""Q0"":6}","[0]","","",""
"","1995.2899999916553","survey-likert","151","786832","0.0-53.0","SS1619205130204","","","","","","","","","images/stimuli/spore_stims/complex_20_A_b.gif","","","","{""Q0"":6}","[0]","","",""
"","2169.6999999694526","survey-likert","152","789008","0.0-54.0","SS1619205130204","","","","","","","","","images/stimuli/spore_stims/complex_09_A_a.gif","","","","{""Q0"":5}","[0]","","",""
"","2333.225000067614","survey-likert","153","791347","0.0-55.0","SS1619205130204","","","","","","","","","images/stimuli/spore_stims/simple_14_A_b.gif","","","","{""Q0"":0}","[0]","","",""
"","12715.135000064038","survey-likert","154","804069","0.0-56.0","SS1619205130204","","","","","","","","","images/stimuli/spore_stims/complex_20_A_a.gif","","","","{""Q0"":4}","[0]","","",""
"","8274.235000018962","survey-likert","155","812349","0.0-57.0","SS1619205130204","","","","","","","","","images/stimuli/spore_stims/simple_03_A_b.gif","","","","{""Q0"":0}","[0]","","",""
"[{""page_index"":0,""viewing_time"":1945.659999968484}]","1945.9550000028685","instructions","156","814300","0.0-58.0","SS1619205130204","instructions","","","","","","","","","","","","","","","",""
"","2709.705000044778","demog-age","157","817014","0.0-59.0","SS1619205130204","","","","","","","","","","","","","{""age"":""26""}","","","",""
"","5681.605000048876","demog-ethnic-US","158","822701","0.0-60.0","SS1619205130204","","","","","","","","","","","","","{""ethnicity"":[""Hispanic or Latino"",""White""]}","[0]","","",""
"","9317.279999959283","demog-gender-and-education","159","832024","0.0-61.0","SS1619205130204","","","","","","","","","","","","","{""gender"":""Male"",""education"":""High school diploma""}","[0,1]","","",""
"","8807.479999959469","survey-text","160","840838","0.0-62.0","SS1619205130204","feedback","","","","","","","","","","","","{""Q0"":""no""}","","","",""
"[{""page_index"":0,""viewing_time"":842.5950000528246}]","842.8100000601262","instructions","161","841683","0.0-63.0","SS1619205130204","instructions","","","","","","","","","","","","","","","",""
