"view_history","rt","trial_type","trial_index","time_elapsed","internal_node_id","subject","stimulus_type","trial_stimulus","key_press","minimum_viewing_duration","trial_looking_time","block_deviant","block_background","exposure_type","stimulus","block_number","block_type","stimulus_displayed","responses","question_order","math_correct_answer","stimulus_left","stimulus_right"
"[{""page_index"":0,""viewing_time"":2405.620000034105}]","2406.060000008438","instructions","0","2409","0.0-0.0","SS1619205373323","","","","","","","","","","","","","","","","",""
"[{""page_index"":0,""viewing_time"":11415.800000017043},{""page_index"":1,""viewing_time"":7911.7800000240095}]","19327.830000023823","instructions","1","24019","0.0-1.0","SS1619205373323","instructions","","","","","","","","","","","","","","","",""
"","5434.835000021849","sequential-stimulus-presentation-old","2","29966","0.0-2.0","SS1619205373323","","","40","500","5934.835000021849","null","null","self_paced","","","","","","","","",""
"","3516.1499999812804","sequential-stimulus-presentation-old","3","33987","0.0-3.0","SS1619205373323","","","40","500","4016.1499999812804","null","null","self_paced","","","","","","","","",""
"[{""page_index"":0,""viewing_time"":16926.5149999992}]","16926.97000002954","instructions","4","50916","0.0-4.0","SS1619205373323","instructions","","","","","","","","","","","","","","","",""
"","404.9250000389293","sequential-stimulus-presentation-old","5","61339","0.0-5.0","SS1619205373323","","","40","500","904.9250000389293","null","null","forced_long","","","","","","","","",""
"","3539.37999997288","sequential-stimulus-presentation-old","6","64991","0.0-6.0","SS1619205373323","","","40","500","4039.37999997288","null","null","forced_long","","","","","","","","",""
"[{""page_index"":0,""viewing_time"":2987.0250000385568}]","2987.43999999715","instructions","7","67980","0.0-7.0","SS1619205373323","instructions","","","","","","","","","","","","","","","",""
"[{""page_index"":0,""viewing_time"":9284.969999978784},{""page_index"":1,""viewing_time"":13175.660000008065},{""page_index"":2,""viewing_time"":52551.794999977574},{""page_index"":3,""viewing_time"":1464.0249999938533},{""page_index"":4,""viewing_time"":1079.680000024382}]","77556.37999996543","instructions","8","145539","0.0-8.0","SS1619205373323","instructions","","","","","","","","","","","","","","","",""
"","null","html-keyboard-response","9","146404","0.0-9.0-0.0","SS1619205373323","","","null","","","","","","<p><img src= images/blank.png width =""600"" height = ""600"" style=""position:fixed;top:50%; left:50%; transform: translate(-50%, -50%); border:5px solid black"">","","","","","","","",""
"","7953.3749999827705","sequential-stimulus-presentation-old","10","154866","0.0-9.0-1.0","SS1619205373323","trial","","40","500","8453.37499998277","images/stimuli/spore_stims/complex_05_A_a.gif","images/stimuli/spore_stims/complex_12_A_b.gif","self_paced","","0","complex_dissimilar","images/stimuli/spore_stims/complex_12_A_b.gif","","","","",""
"","null","html-keyboard-response","11","156033","0.0-9.0-0.1","SS1619205373323","","","null","","","","","","<p><img src= images/blank.png width =""600"" height = ""600"" style=""position:fixed;top:50%; left:50%; transform: translate(-50%, -50%); border:5px solid black"">","","","","","","","",""
"","11885.580000001937","sequential-stimulus-presentation-old","12","168432","0.0-9.0-1.1","SS1619205373323","trial","","40","500","12385.580000001937","images/stimuli/spore_stims/complex_05_A_a.gif","images/stimuli/spore_stims/complex_12_A_b.gif","self_paced","","0","complex_dissimilar","images/stimuli/spore_stims/complex_12_A_b.gif","","","","",""
"","null","html-keyboard-response","13","169330","0.0-9.0-0.2","SS1619205373323","","","null","","","","","","<p><img src= images/blank.png width =""600"" height = ""600"" style=""position:fixed;top:50%; left:50%; transform: translate(-50%, -50%); border:5px solid black"">","","","","","","","",""
"","8665.259999979753","sequential-stimulus-presentation-old","14","178499","0.0-9.0-1.2","SS1619205373323","trial","","40","500","9165.259999979753","images/stimuli/spore_stims/complex_05_A_a.gif","images/stimuli/spore_stims/complex_12_A_b.gif","self_paced","","0","complex_dissimilar","images/stimuli/spore_stims/complex_12_A_b.gif","","","","",""
"","null","html-keyboard-response","15","179361","0.0-9.0-0.3","SS1619205373323","","","null","","","","","","<p><img src= images/blank.png width =""600"" height = ""600"" style=""position:fixed;top:50%; left:50%; transform: translate(-50%, -50%); border:5px solid black"">","","","","","","","",""
"","4941.01499998942","sequential-stimulus-presentation-old","16","184814","0.0-9.0-1.3","SS1619205373323","trial","","40","500","5441.01499998942","images/stimuli/spore_stims/complex_05_A_a.gif","images/stimuli/spore_stims/complex_12_A_b.gif","self_paced","","0","complex_dissimilar","images/stimuli/spore_stims/complex_05_A_a.gif","","","","",""
"","7441.244999994524","survey-multi-choice","17","192260","0.0-10.0","SS1619205373323","math_question","","","","","","","","","","","","{""Q0"":""15""}","[0]","15","",""
"","null","html-keyboard-response","18","193164","0.0-11.0-0.0","SS1619205373323","","","null","","","","","","<p><img src= images/blank.png width =""600"" height = ""600"" style=""position:fixed;top:50%; left:50%; transform: translate(-50%, -50%); border:5px solid black"">","","","","","","","",""
"","6380.000000004657","sequential-stimulus-presentation-old","19","200064","0.0-11.0-1.0","SS1619205373323","trial","","40","500","6880.000000004657","images/stimuli/spore_stims/simple_02_A_a.gif","images/stimuli/spore_stims/simple_13_A_b.gif","self_paced","","1","simple_dissimilar","images/stimuli/spore_stims/simple_13_A_b.gif","","","","",""
"","null","html-keyboard-response","20","201130","0.0-11.0-0.1","SS1619205373323","","","null","","","","","","<p><img src= images/blank.png width =""600"" height = ""600"" style=""position:fixed;top:50%; left:50%; transform: translate(-50%, -50%); border:5px solid black"">","","","","","","","",""
"","3034.0199999627657","sequential-stimulus-presentation-old","21","204676","0.0-11.0-1.1","SS1619205373323","trial","","40","500","3534.0199999627657","images/stimuli/spore_stims/simple_02_A_a.gif","images/stimuli/spore_stims/simple_13_A_b.gif","self_paced","","1","simple_dissimilar","images/stimuli/spore_stims/simple_13_A_b.gif","","","","",""
"","null","html-keyboard-response","22","205970","0.0-11.0-0.2","SS1619205373323","","","null","","","","","","<p><img src= images/blank.png width =""600"" height = ""600"" style=""position:fixed;top:50%; left:50%; transform: translate(-50%, -50%); border:5px solid black"">","","","","","","","",""
"","238.81500004790723","sequential-stimulus-presentation-old","23","206725","0.0-11.0-1.2","SS1619205373323","trial","","40","500","738.8150000479072","images/stimuli/spore_stims/simple_02_A_a.gif","images/stimuli/spore_stims/simple_13_A_b.gif","self_paced","","1","simple_dissimilar","images/stimuli/spore_stims/simple_13_A_b.gif","","","","",""
"","null","html-keyboard-response","24","207876","0.0-11.0-0.3","SS1619205373323","","","null","","","","","","<p><img src= images/blank.png width =""600"" height = ""600"" style=""position:fixed;top:50%; left:50%; transform: translate(-50%, -50%); border:5px solid black"">","","","","","","","",""
"","5693.2249999954365","sequential-stimulus-presentation-old","25","214087","0.0-11.0-1.3","SS1619205373323","trial","","40","500","6193.2249999954365","images/stimuli/spore_stims/simple_02_A_a.gif","images/stimuli/spore_stims/simple_13_A_b.gif","self_paced","","1","simple_dissimilar","images/stimuli/spore_stims/simple_13_A_b.gif","","","","",""
"","null","html-keyboard-response","26","215329","0.0-11.0-0.4","SS1619205373323","","","null","","","","","","<p><img src= images/blank.png width =""600"" height = ""600"" style=""position:fixed;top:50%; left:50%; transform: translate(-50%, -50%); border:5px solid black"">","","","","","","","",""
"","2931.27000000095","sequential-stimulus-presentation-old","27","218771","0.0-11.0-1.4","SS1619205373323","trial","","40","500","3431.27000000095","images/stimuli/spore_stims/simple_02_A_a.gif","images/stimuli/spore_stims/simple_13_A_b.gif","self_paced","","1","simple_dissimilar","images/stimuli/spore_stims/simple_13_A_b.gif","","","","",""
"","null","html-keyboard-response","28","220687","0.0-11.0-0.5","SS1619205373323","","","null","","","","","","<p><img src= images/blank.png width =""600"" height = ""600"" style=""position:fixed;top:50%; left:50%; transform: translate(-50%, -50%); border:5px solid black"">","","","","","","","",""
"","2606.8450000020675","sequential-stimulus-presentation-old","29","223858","0.0-11.0-1.5","SS1619205373323","trial","","40","500","3106.8450000020675","images/stimuli/spore_stims/simple_02_A_a.gif","images/stimuli/spore_stims/simple_13_A_b.gif","self_paced","","1","simple_dissimilar","images/stimuli/spore_stims/simple_02_A_a.gif","","","","",""
"","2974.999999976717","survey-multi-choice","30","226836","0.0-12.0","SS1619205373323","math_question","","","","","","","","","","","","{""Q0"":""11""}","[0]","11","",""
"","null","html-keyboard-response","31","228688","0.0-13.0-0.0","SS1619205373323","","","null","","","","","","<p><img src= images/blank.png width =""600"" height = ""600"" style=""position:fixed;top:50%; left:50%; transform: translate(-50%, -50%); border:5px solid black"">","","","","","","","",""
"","5301.595000026282","sequential-stimulus-presentation-old","32","244001","0.0-13.0-1.0","SS1619205373323","trial","","40","500","5801.595000026282","images/stimuli/spore_stims/complex_17_A_b.gif","images/stimuli/spore_stims/complex_13_A_a.gif","forced_long","","2","complex_dissimilar","images/stimuli/spore_stims/complex_13_A_a.gif","","","","",""
"","null","html-keyboard-response","33","244927","0.0-13.0-0.1","SS1619205373323","","","null","","","","","","<p><img src= images/blank.png width =""600"" height = ""600"" style=""position:fixed;top:50%; left:50%; transform: translate(-50%, -50%); border:5px solid black"">","","","","","","","",""
"","5136.774999962654","sequential-stimulus-presentation-old","34","250571","0.0-13.0-1.1","SS1619205373323","trial","","40","500","5636.774999962654","images/stimuli/spore_stims/complex_17_A_b.gif","images/stimuli/spore_stims/complex_13_A_a.gif","forced_long","","2","complex_dissimilar","images/stimuli/spore_stims/complex_13_A_a.gif","","","","",""
"","null","html-keyboard-response","35","251564","0.0-13.0-0.2","SS1619205373323","","","null","","","","","","<p><img src= images/blank.png width =""600"" height = ""600"" style=""position:fixed;top:50%; left:50%; transform: translate(-50%, -50%); border:5px solid black"">","","","","","","","",""
"","2660.9849999658763","sequential-stimulus-presentation-old","36","254740","0.0-13.0-1.2","SS1619205373323","trial","","40","500","3160.9849999658763","images/stimuli/spore_stims/complex_17_A_b.gif","images/stimuli/spore_stims/complex_13_A_a.gif","forced_long","","2","complex_dissimilar","images/stimuli/spore_stims/complex_13_A_a.gif","","","","",""
"","null","html-keyboard-response","37","255794","0.0-13.0-0.3","SS1619205373323","","","null","","","","","","<p><img src= images/blank.png width =""600"" height = ""600"" style=""position:fixed;top:50%; left:50%; transform: translate(-50%, -50%); border:5px solid black"">","","","","","","","",""
"","3894.879999978002","sequential-stimulus-presentation-old","38","260201","0.0-13.0-1.3","SS1619205373323","trial","","40","500","4394.879999978002","images/stimuli/spore_stims/complex_17_A_b.gif","images/stimuli/spore_stims/complex_13_A_a.gif","forced_long","","2","complex_dissimilar","images/stimuli/spore_stims/complex_13_A_a.gif","","","","",""
"","null","html-keyboard-response","39","261380","0.0-13.0-0.4","SS1619205373323","","","null","","","","","","<p><img src= images/blank.png width =""600"" height = ""600"" style=""position:fixed;top:50%; left:50%; transform: translate(-50%, -50%); border:5px solid black"">","","","","","","","",""
"","3547.489999968093","sequential-stimulus-presentation-old","40","265521","0.0-13.0-1.4","SS1619205373323","trial","","40","500","4047.489999968093","images/stimuli/spore_stims/complex_17_A_b.gif","images/stimuli/spore_stims/complex_13_A_a.gif","forced_long","","2","complex_dissimilar","images/stimuli/spore_stims/complex_13_A_a.gif","","","","",""
"","null","html-keyboard-response","41","266673","0.0-13.0-0.5","SS1619205373323","","","null","","","","","","<p><img src= images/blank.png width =""600"" height = ""600"" style=""position:fixed;top:50%; left:50%; transform: translate(-50%, -50%); border:5px solid black"">","","","","","","","",""
"","5870.349999982864","sequential-stimulus-presentation-old","42","273555","0.0-13.0-1.5","SS1619205373323","trial","","40","500","6370.349999982864","images/stimuli/spore_stims/complex_17_A_b.gif","images/stimuli/spore_stims/complex_13_A_a.gif","forced_long","","2","complex_dissimilar","images/stimuli/spore_stims/complex_13_A_a.gif","","","","",""
"","3437.580000027083","survey-multi-choice","43","276995","0.0-14.0","SS1619205373323","math_question","","","","","","","","","","","","{""Q0"":""12""}","[0]","12","",""
"","null","html-keyboard-response","44","278693","0.0-15.0-0.0","SS1619205373323","","","null","","","","","","<p><img src= images/blank.png width =""600"" height = ""600"" style=""position:fixed;top:50%; left:50%; transform: translate(-50%, -50%); border:5px solid black"">","","","","","","","",""
"","692.7900000009686","sequential-stimulus-presentation-old","45","289558","0.0-15.0-1.0","SS1619205373323","trial","","40","500","1192.7900000009686","images/stimuli/spore_stims/simple_01_A_b.gif","images/stimuli/spore_stims/simple_10_A_a.gif","forced_long","","3","simple_dissimilar","images/stimuli/spore_stims/simple_10_A_a.gif","","","","",""
"","null","html-keyboard-response","46","290568","0.0-15.0-0.1","SS1619205373323","","","null","","","","","","<p><img src= images/blank.png width =""600"" height = ""600"" style=""position:fixed;top:50%; left:50%; transform: translate(-50%, -50%); border:5px solid black"">","","","","","","","",""
"","427.2650000057183","sequential-stimulus-presentation-old","47","291501","0.0-15.0-1.1","SS1619205373323","trial","","40","500","927.2650000057183","images/stimuli/spore_stims/simple_01_A_b.gif","images/stimuli/spore_stims/simple_10_A_a.gif","forced_long","","3","simple_dissimilar","images/stimuli/spore_stims/simple_10_A_a.gif","","","","",""
"","null","html-keyboard-response","48","292382","0.0-15.0-0.2","SS1619205373323","","","null","","","","","","<p><img src= images/blank.png width =""600"" height = ""600"" style=""position:fixed;top:50%; left:50%; transform: translate(-50%, -50%); border:5px solid black"">","","","","","","","",""
"","209.62999999755993","sequential-stimulus-presentation-old","49","293101","0.0-15.0-1.2","SS1619205373323","trial","","40","500","709.6299999975599","images/stimuli/spore_stims/simple_01_A_b.gif","images/stimuli/spore_stims/simple_10_A_a.gif","forced_long","","3","simple_dissimilar","images/stimuli/spore_stims/simple_01_A_b.gif","","","","",""
"","null","html-keyboard-response","50","294290","0.0-15.0-0.3","SS1619205373323","","","null","","","","","","<p><img src= images/blank.png width =""600"" height = ""600"" style=""position:fixed;top:50%; left:50%; transform: translate(-50%, -50%); border:5px solid black"">","","","","","","","",""
"","1681.7799999844283","sequential-stimulus-presentation-old","51","296485","0.0-15.0-1.3","SS1619205373323","trial","","40","500","2181.7799999844283","images/stimuli/spore_stims/simple_01_A_b.gif","images/stimuli/spore_stims/simple_10_A_a.gif","forced_long","","3","simple_dissimilar","images/stimuli/spore_stims/simple_10_A_a.gif","","","","",""
"","5651.039999967907","survey-multi-choice","52","302139","0.0-16.0","SS1619205373323","math_question","","","","","","","","","","","","{""Q0"":""11""}","[0]","11","",""
"","null","html-keyboard-response","53","303688","0.0-17.0-0.0","SS1619205373323","","","null","","","","","","<p><img src= images/blank.png width =""600"" height = ""600"" style=""position:fixed;top:50%; left:50%; transform: translate(-50%, -50%); border:5px solid black"">","","","","","","","",""
"","1159.0749999741092","sequential-stimulus-presentation-old","54","305842","0.0-17.0-1.0","SS1619205373323","trial","","40","500","1659.0749999741092","images/stimuli/spore_stims/complex_04_A_a.gif","images/stimuli/spore_stims/complex_05_A_b.gif","forced_short","","4","complex_dissimilar","images/stimuli/spore_stims/complex_05_A_b.gif","","","","",""
"","null","html-keyboard-response","55","306689","0.0-17.0-0.1","SS1619205373323","","","null","","","","","","<p><img src= images/blank.png width =""600"" height = ""600"" style=""position:fixed;top:50%; left:50%; transform: translate(-50%, -50%); border:5px solid black"">","","","","","","","",""
"","597.7699999930337","sequential-stimulus-presentation-old","56","307804","0.0-17.0-1.1","SS1619205373323","trial","","40","500","1097.7699999930337","images/stimuli/spore_stims/complex_04_A_a.gif","images/stimuli/spore_stims/complex_05_A_b.gif","forced_short","","4","complex_dissimilar","images/stimuli/spore_stims/complex_05_A_b.gif","","","","",""
"","null","html-keyboard-response","57","308664","0.0-17.0-0.2","SS1619205373323","","","null","","","","","","<p><img src= images/blank.png width =""600"" height = ""600"" style=""position:fixed;top:50%; left:50%; transform: translate(-50%, -50%); border:5px solid black"">","","","","","","","",""
"","3870.1100000180304","sequential-stimulus-presentation-old","58","313047","0.0-17.0-1.2","SS1619205373323","trial","","40","500","4370.11000001803","images/stimuli/spore_stims/complex_04_A_a.gif","images/stimuli/spore_stims/complex_05_A_b.gif","forced_short","","4","complex_dissimilar","images/stimuli/spore_stims/complex_05_A_b.gif","","","","",""
"","null","html-keyboard-response","59","313895","0.0-17.0-0.3","SS1619205373323","","","null","","","","","","<p><img src= images/blank.png width =""600"" height = ""600"" style=""position:fixed;top:50%; left:50%; transform: translate(-50%, -50%); border:5px solid black"">","","","","","","","",""
"","2326.3499999884516","sequential-stimulus-presentation-old","60","316730","0.0-17.0-1.3","SS1619205373323","trial","","40","500","2826.3499999884516","images/stimuli/spore_stims/complex_04_A_a.gif","images/stimuli/spore_stims/complex_05_A_b.gif","forced_short","","4","complex_dissimilar","images/stimuli/spore_stims/complex_05_A_b.gif","","","","",""
"","null","html-keyboard-response","61","317967","0.0-17.0-0.4","SS1619205373323","","","null","","","","","","<p><img src= images/blank.png width =""600"" height = ""600"" style=""position:fixed;top:50%; left:50%; transform: translate(-50%, -50%); border:5px solid black"">","","","","","","","",""
"","750.5649999948218","sequential-stimulus-presentation-old","62","319231","0.0-17.0-1.4","SS1619205373323","trial","","40","500","1250.5649999948218","images/stimuli/spore_stims/complex_04_A_a.gif","images/stimuli/spore_stims/complex_05_A_b.gif","forced_short","","4","complex_dissimilar","images/stimuli/spore_stims/complex_05_A_b.gif","","","","",""
"","null","html-keyboard-response","63","320211","0.0-17.0-0.5","SS1619205373323","","","null","","","","","","<p><img src= images/blank.png width =""600"" height = ""600"" style=""position:fixed;top:50%; left:50%; transform: translate(-50%, -50%); border:5px solid black"">","","","","","","","",""
"","569.0449999528937","sequential-stimulus-presentation-old","64","321296","0.0-17.0-1.5","SS1619205373323","trial","","40","500","1069.0449999528937","images/stimuli/spore_stims/complex_04_A_a.gif","images/stimuli/spore_stims/complex_05_A_b.gif","forced_short","","4","complex_dissimilar","images/stimuli/spore_stims/complex_05_A_b.gif","","","","",""
"","2328.1950000091456","survey-multi-choice","65","323627","0.0-18.0","SS1619205373323","math_question","","","","","","","","","","","","{""Q0"":""8""}","[0]","8","",""
"","null","html-keyboard-response","66","324850","0.0-19.0-0.0","SS1619205373323","","","null","","","","","","<p><img src= images/blank.png width =""600"" height = ""600"" style=""position:fixed;top:50%; left:50%; transform: translate(-50%, -50%); border:5px solid black"">","","","","","","","",""
"","2803.7699999986216","sequential-stimulus-presentation-old","67","328484","0.0-19.0-1.0","SS1619205373323","trial","","40","500","3303.7699999986216","images/stimuli/spore_stims/simple_10_A_b.gif","images/stimuli/spore_stims/simple_07_A_a.gif","forced_short","","5","simple_dissimilar","images/stimuli/spore_stims/simple_07_A_a.gif","","","","",""
"","null","html-keyboard-response","68","329513","0.0-19.0-0.1","SS1619205373323","","","null","","","","","","<p><img src= images/blank.png width =""600"" height = ""600"" style=""position:fixed;top:50%; left:50%; transform: translate(-50%, -50%); border:5px solid black"">","","","","","","","",""
"","3900.0450000166893","sequential-stimulus-presentation-old","69","333930","0.0-19.0-1.1","SS1619205373323","trial","","40","500","4400.045000016689","images/stimuli/spore_stims/simple_10_A_b.gif","images/stimuli/spore_stims/simple_07_A_a.gif","forced_short","","5","simple_dissimilar","images/stimuli/spore_stims/simple_07_A_a.gif","","","","",""
"","null","html-keyboard-response","70","334828","0.0-19.0-0.2","SS1619205373323","","","null","","","","","","<p><img src= images/blank.png width =""600"" height = ""600"" style=""position:fixed;top:50%; left:50%; transform: translate(-50%, -50%); border:5px solid black"">","","","","","","","",""
"","3715.089999954216","sequential-stimulus-presentation-old","71","339082","0.0-19.0-1.2","SS1619205373323","trial","","40","500","4215.089999954216","images/stimuli/spore_stims/simple_10_A_b.gif","images/stimuli/spore_stims/simple_07_A_a.gif","forced_short","","5","simple_dissimilar","images/stimuli/spore_stims/simple_07_A_a.gif","","","","",""
"","null","html-keyboard-response","72","339942","0.0-19.0-0.3","SS1619205373323","","","null","","","","","","<p><img src= images/blank.png width =""600"" height = ""600"" style=""position:fixed;top:50%; left:50%; transform: translate(-50%, -50%); border:5px solid black"">","","","","","","","",""
"","1076.3650000444613","sequential-stimulus-presentation-old","73","341531","0.0-19.0-1.3","SS1619205373323","trial","","40","500","1576.3650000444613","images/stimuli/spore_stims/simple_10_A_b.gif","images/stimuli/spore_stims/simple_07_A_a.gif","forced_short","","5","simple_dissimilar","images/stimuli/spore_stims/simple_07_A_a.gif","","","","",""
"","null","html-keyboard-response","74","343072","0.0-19.0-0.4","SS1619205373323","","","null","","","","","","<p><img src= images/blank.png width =""600"" height = ""600"" style=""position:fixed;top:50%; left:50%; transform: translate(-50%, -50%); border:5px solid black"">","","","","","","","",""
"","422.4050000193529","sequential-stimulus-presentation-old","75","344014","0.0-19.0-1.4","SS1619205373323","trial","","40","500","922.4050000193529","images/stimuli/spore_stims/simple_10_A_b.gif","images/stimuli/spore_stims/simple_07_A_a.gif","forced_short","","5","simple_dissimilar","images/stimuli/spore_stims/simple_07_A_a.gif","","","","",""
"","2026.5300000319257","survey-multi-choice","76","346044","0.0-20.0","SS1619205373323","math_question","","","","","","","","","","","","{""Q0"":""10""}","[0]","10","",""
"","null","html-keyboard-response","77","347330","0.0-21.0-0.0","SS1619205373323","","","null","","","","","","<p><img src= images/blank.png width =""600"" height = ""600"" style=""position:fixed;top:50%; left:50%; transform: translate(-50%, -50%); border:5px solid black"">","","","","","","","",""
"","26.010000030510128","sequential-stimulus-presentation-old","78","347869","0.0-21.0-1.0","SS1619205373323","trial","","40","500","526.0100000305101","images/stimuli/spore_stims/simple_09_A_a.gif","images/stimuli/spore_stims/simple_16_A_b.gif","self_paced","","6","simple_dissimilar","images/stimuli/spore_stims/simple_16_A_b.gif","","","","",""
"","null","html-keyboard-response","79","349091","0.0-21.0-0.1","SS1619205373323","","","null","","","","","","<p><img src= images/blank.png width =""600"" height = ""600"" style=""position:fixed;top:50%; left:50%; transform: translate(-50%, -50%); border:5px solid black"">","","","","","","","",""
"","323.26500001363456","sequential-stimulus-presentation-old","80","349932","0.0-21.0-1.1","SS1619205373323","trial","","40","500","823.2650000136346","images/stimuli/spore_stims/simple_09_A_a.gif","images/stimuli/spore_stims/simple_16_A_b.gif","self_paced","","6","simple_dissimilar","images/stimuli/spore_stims/simple_09_A_a.gif","","","","",""
"","null","html-keyboard-response","81","350880","0.0-21.0-0.2","SS1619205373323","","","null","","","","","","<p><img src= images/blank.png width =""600"" height = ""600"" style=""position:fixed;top:50%; left:50%; transform: translate(-50%, -50%); border:5px solid black"">","","","","","","","",""
"","655.8599999989383","sequential-stimulus-presentation-old","82","352041","0.0-21.0-1.2","SS1619205373323","trial","","40","500","1155.8599999989383","images/stimuli/spore_stims/simple_09_A_a.gif","images/stimuli/spore_stims/simple_16_A_b.gif","self_paced","","6","simple_dissimilar","images/stimuli/spore_stims/simple_16_A_b.gif","","","","",""
"","null","html-keyboard-response","83","353165","0.0-21.0-0.3","SS1619205373323","","","null","","","","","","<p><img src= images/blank.png width =""600"" height = ""600"" style=""position:fixed;top:50%; left:50%; transform: translate(-50%, -50%); border:5px solid black"">","","","","","","","",""
"","905.3100000019185","sequential-stimulus-presentation-old","84","354581","0.0-21.0-1.3","SS1619205373323","trial","","40","500","1405.3100000019185","images/stimuli/spore_stims/simple_09_A_a.gif","images/stimuli/spore_stims/simple_16_A_b.gif","self_paced","","6","simple_dissimilar","images/stimuli/spore_stims/simple_16_A_b.gif","","","","",""
"","null","html-keyboard-response","85","355788","0.0-21.0-0.4","SS1619205373323","","","null","","","","","","<p><img src= images/blank.png width =""600"" height = ""600"" style=""position:fixed;top:50%; left:50%; transform: translate(-50%, -50%); border:5px solid black"">","","","","","","","",""
"","1431.9649999961257","sequential-stimulus-presentation-old","86","357733","0.0-21.0-1.4","SS1619205373323","trial","","40","500","1931.9649999961257","images/stimuli/spore_stims/simple_09_A_a.gif","images/stimuli/spore_stims/simple_16_A_b.gif","self_paced","","6","simple_dissimilar","images/stimuli/spore_stims/simple_16_A_b.gif","","","","",""
"","null","html-keyboard-response","87","358742","0.0-21.0-0.5","SS1619205373323","","","null","","","","","","<p><img src= images/blank.png width =""600"" height = ""600"" style=""position:fixed;top:50%; left:50%; transform: translate(-50%, -50%); border:5px solid black"">","","","","","","","",""
"","665.9300000173971","sequential-stimulus-presentation-old","88","359933","0.0-21.0-1.5","SS1619205373323","trial","","40","500","1165.930000017397","images/stimuli/spore_stims/simple_09_A_a.gif","images/stimuli/spore_stims/simple_16_A_b.gif","self_paced","","6","simple_dissimilar","images/stimuli/spore_stims/simple_09_A_a.gif","","","","",""
"","3816.304999985732","survey-multi-choice","89","363756","0.0-22.0","SS1619205373323","math_question","","","","","","","","","","","","{""Q0"":""11""}","[0]","11","",""
"","null","html-keyboard-response","90","365680","0.0-23.0-0.0","SS1619205373323","","","null","","","","","","<p><img src= images/blank.png width =""600"" height = ""600"" style=""position:fixed;top:50%; left:50%; transform: translate(-50%, -50%); border:5px solid black"">","","","","","","","",""
"","3888.5599999921396","sequential-stimulus-presentation-old","91","370573","0.0-23.0-1.0","SS1619205373323","trial","","40","500","4388.55999999214","images/stimuli/spore_stims/simple_09_A_b.gif","images/stimuli/spore_stims/simple_14_A_a.gif","forced_short","","7","simple_dissimilar","images/stimuli/spore_stims/simple_14_A_a.gif","","","","",""
"","null","html-keyboard-response","92","371777","0.0-23.0-0.1","SS1619205373323","","","null","","","","","","<p><img src= images/blank.png width =""600"" height = ""600"" style=""position:fixed;top:50%; left:50%; transform: translate(-50%, -50%); border:5px solid black"">","","","","","","","",""
"","447.6600000052713","sequential-stimulus-presentation-old","93","372732","0.0-23.0-1.1","SS1619205373323","trial","","40","500","947.6600000052713","images/stimuli/spore_stims/simple_09_A_b.gif","images/stimuli/spore_stims/simple_14_A_a.gif","forced_short","","7","simple_dissimilar","images/stimuli/spore_stims/simple_14_A_a.gif","","","","",""
"","null","html-keyboard-response","94","373645","0.0-23.0-0.2","SS1619205373323","","","null","","","","","","<p><img src= images/blank.png width =""600"" height = ""600"" style=""position:fixed;top:50%; left:50%; transform: translate(-50%, -50%); border:5px solid black"">","","","","","","","",""
"","1048.685000045225","sequential-stimulus-presentation-old","95","375214","0.0-23.0-1.2","SS1619205373323","trial","","40","500","1548.685000045225","images/stimuli/spore_stims/simple_09_A_b.gif","images/stimuli/spore_stims/simple_14_A_a.gif","forced_short","","7","simple_dissimilar","images/stimuli/spore_stims/simple_09_A_b.gif","","","","",""
"","null","html-keyboard-response","96","376095","0.0-23.0-0.3","SS1619205373323","","","null","","","","","","<p><img src= images/blank.png width =""600"" height = ""600"" style=""position:fixed;top:50%; left:50%; transform: translate(-50%, -50%); border:5px solid black"">","","","","","","","",""
"","377.7400000253692","sequential-stimulus-presentation-old","97","376987","0.0-23.0-1.3","SS1619205373323","trial","","40","500","877.7400000253692","images/stimuli/spore_stims/simple_09_A_b.gif","images/stimuli/spore_stims/simple_14_A_a.gif","forced_short","","7","simple_dissimilar","images/stimuli/spore_stims/simple_09_A_b.gif","","","","",""
"","null","html-keyboard-response","98","377810","0.0-23.0-0.4","SS1619205373323","","","null","","","","","","<p><img src= images/blank.png width =""600"" height = ""600"" style=""position:fixed;top:50%; left:50%; transform: translate(-50%, -50%); border:5px solid black"">","","","","","","","",""
"","422.28500003693625","sequential-stimulus-presentation-old","99","378751","0.0-23.0-1.4","SS1619205373323","trial","","40","500","922.2850000369363","images/stimuli/spore_stims/simple_09_A_b.gif","images/stimuli/spore_stims/simple_14_A_a.gif","forced_short","","7","simple_dissimilar","images/stimuli/spore_stims/simple_14_A_a.gif","","","","",""
"","2321.745000022929","survey-multi-choice","100","381076","0.0-24.0","SS1619205373323","math_question","","","","","","","","","","","","{""Q0"":""12""}","[0]","12","",""
"","null","html-keyboard-response","101","382026","0.0-25.0-0.0","SS1619205373323","","","null","","","","","","<p><img src= images/blank.png width =""600"" height = ""600"" style=""position:fixed;top:50%; left:50%; transform: translate(-50%, -50%); border:5px solid black"">","","","","","","","",""
"","3664.7349999984726","sequential-stimulus-presentation-old","102","386197","0.0-25.0-1.0","SS1619205373323","trial","","40","500","4164.734999998473","images/stimuli/spore_stims/complex_02_A_a.gif","images/stimuli/spore_stims/complex_16_A_b.gif","self_paced","","8","complex_dissimilar","images/stimuli/spore_stims/complex_16_A_b.gif","","","","",""
"","null","html-keyboard-response","103","387143","0.0-25.0-0.1","SS1619205373323","","","null","","","","","","<p><img src= images/blank.png width =""600"" height = ""600"" style=""position:fixed;top:50%; left:50%; transform: translate(-50%, -50%); border:5px solid black"">","","","","","","","",""
"","2177.720000036061","sequential-stimulus-presentation-old","104","389837","0.0-25.0-1.1","SS1619205373323","trial","","40","500","2677.720000036061","images/stimuli/spore_stims/complex_02_A_a.gif","images/stimuli/spore_stims/complex_16_A_b.gif","self_paced","","8","complex_dissimilar","images/stimuli/spore_stims/complex_02_A_a.gif","","","","",""
"","null","html-keyboard-response","105","390685","0.0-25.0-0.2","SS1619205373323","","","null","","","","","","<p><img src= images/blank.png width =""600"" height = ""600"" style=""position:fixed;top:50%; left:50%; transform: translate(-50%, -50%); border:5px solid black"">","","","","","","","",""
"","374.9050000333227","sequential-stimulus-presentation-old","106","391567","0.0-25.0-1.2","SS1619205373323","trial","","40","500","874.9050000333227","images/stimuli/spore_stims/complex_02_A_a.gif","images/stimuli/spore_stims/complex_16_A_b.gif","self_paced","","8","complex_dissimilar","images/stimuli/spore_stims/complex_16_A_b.gif","","","","",""
"","null","html-keyboard-response","107","392847","0.0-25.0-0.3","SS1619205373323","","","null","","","","","","<p><img src= images/blank.png width =""600"" height = ""600"" style=""position:fixed;top:50%; left:50%; transform: translate(-50%, -50%); border:5px solid black"">","","","","","","","",""
"","413.8950000051409","sequential-stimulus-presentation-old","108","393777","0.0-25.0-1.3","SS1619205373323","trial","","40","500","913.8950000051409","images/stimuli/spore_stims/complex_02_A_a.gif","images/stimuli/spore_stims/complex_16_A_b.gif","self_paced","","8","complex_dissimilar","images/stimuli/spore_stims/complex_16_A_b.gif","","","","",""
"","null","html-keyboard-response","109","394834","0.0-25.0-0.4","SS1619205373323","","","null","","","","","","<p><img src= images/blank.png width =""600"" height = ""600"" style=""position:fixed;top:50%; left:50%; transform: translate(-50%, -50%); border:5px solid black"">","","","","","","","",""
"","374.32499998249114","sequential-stimulus-presentation-old","110","395723","0.0-25.0-1.4","SS1619205373323","trial","","40","500","874.3249999824911","images/stimuli/spore_stims/complex_02_A_a.gif","images/stimuli/spore_stims/complex_16_A_b.gif","self_paced","","8","complex_dissimilar","images/stimuli/spore_stims/complex_02_A_a.gif","","","","",""
"","3234.500000020489","survey-multi-choice","111","398962","0.0-26.0","SS1619205373323","math_question","","","","","","","","","","","","{""Q0"":""7""}","[0]","7","",""
"","null","html-keyboard-response","112","400173","0.0-27.0-0.0","SS1619205373323","","","null","","","","","","<p><img src= images/blank.png width =""600"" height = ""600"" style=""position:fixed;top:50%; left:50%; transform: translate(-50%, -50%); border:5px solid black"">","","","","","","","",""
"","105.11500004213303","sequential-stimulus-presentation-old","113","410290","0.0-27.0-1.0","SS1619205373323","trial","","40","500","605.115000042133","images/stimuli/spore_stims/simple_11_A_b.gif","images/stimuli/spore_stims/simple_20_A_a.gif","forced_long","","9","simple_dissimilar","images/stimuli/spore_stims/simple_20_A_a.gif","","","","",""
"","null","html-keyboard-response","114","411390","0.0-27.0-0.1","SS1619205373323","","","null","","","","","","<p><img src= images/blank.png width =""600"" height = ""600"" style=""position:fixed;top:50%; left:50%; transform: translate(-50%, -50%); border:5px solid black"">","","","","","","","",""
"","998.7899999832734","sequential-stimulus-presentation-old","115","412900","0.0-27.0-1.1","SS1619205373323","trial","","40","500","1498.7899999832734","images/stimuli/spore_stims/simple_11_A_b.gif","images/stimuli/spore_stims/simple_20_A_a.gif","forced_long","","9","simple_dissimilar","images/stimuli/spore_stims/simple_20_A_a.gif","","","","",""
"","null","html-keyboard-response","116","413790","0.0-27.0-0.2","SS1619205373323","","","null","","","","","","<p><img src= images/blank.png width =""600"" height = ""600"" style=""position:fixed;top:50%; left:50%; transform: translate(-50%, -50%); border:5px solid black"">","","","","","","","",""
"","133.09999997727573","sequential-stimulus-presentation-old","117","414438","0.0-27.0-1.2","SS1619205373323","trial","","40","500","633.0999999772757","images/stimuli/spore_stims/simple_11_A_b.gif","images/stimuli/spore_stims/simple_20_A_a.gif","forced_long","","9","simple_dissimilar","images/stimuli/spore_stims/simple_11_A_b.gif","","","","",""
"","null","html-keyboard-response","118","415572","0.0-27.0-0.3","SS1619205373323","","","null","","","","","","<p><img src= images/blank.png width =""600"" height = ""600"" style=""position:fixed;top:50%; left:50%; transform: translate(-50%, -50%); border:5px solid black"">","","","","","","","",""
"","377.93499999679625","sequential-stimulus-presentation-old","119","416468","0.0-27.0-1.3","SS1619205373323","trial","","40","500","877.9349999967963","images/stimuli/spore_stims/simple_11_A_b.gif","images/stimuli/spore_stims/simple_20_A_a.gif","forced_long","","9","simple_dissimilar","images/stimuli/spore_stims/simple_20_A_a.gif","","","","",""
"","null","html-keyboard-response","120","417307","0.0-27.0-0.4","SS1619205373323","","","null","","","","","","<p><img src= images/blank.png width =""600"" height = ""600"" style=""position:fixed;top:50%; left:50%; transform: translate(-50%, -50%); border:5px solid black"">","","","","","","","",""
"","49.73500000778586","sequential-stimulus-presentation-old","121","417875","0.0-27.0-1.4","SS1619205373323","trial","","40","500","549.7350000077859","images/stimuli/spore_stims/simple_11_A_b.gif","images/stimuli/spore_stims/simple_20_A_a.gif","forced_long","","9","simple_dissimilar","images/stimuli/spore_stims/simple_20_A_a.gif","","","","",""
"","2981.1350000090897","survey-multi-choice","122","420862","0.0-28.0","SS1619205373323","math_question","","","","","","","","","","","","{""Q0"":""11""}","[0]","11","",""
"","null","html-keyboard-response","123","421969","0.0-29.0-0.0","SS1619205373323","","","null","","","","","","<p><img src= images/blank.png width =""600"" height = ""600"" style=""position:fixed;top:50%; left:50%; transform: translate(-50%, -50%); border:5px solid black"">","","","","","","","",""
"","3175.7399999769405","sequential-stimulus-presentation-old","124","435862","0.0-29.0-1.0","SS1619205373323","trial","","40","500","3675.7399999769405","images/stimuli/spore_stims/complex_19_A_b.gif","images/stimuli/spore_stims/complex_11_A_a.gif","forced_long","","10","complex_dissimilar","images/stimuli/spore_stims/complex_11_A_a.gif","","","","",""
"","null","html-keyboard-response","125","436814","0.0-29.0-0.1","SS1619205373323","","","null","","","","","","<p><img src= images/blank.png width =""600"" height = ""600"" style=""position:fixed;top:50%; left:50%; transform: translate(-50%, -50%); border:5px solid black"">","","","","","","","",""
"","294.38500001560897","sequential-stimulus-presentation-old","126","437622","0.0-29.0-1.1","SS1619205373323","trial","","40","500","794.385000015609","images/stimuli/spore_stims/complex_19_A_b.gif","images/stimuli/spore_stims/complex_11_A_a.gif","forced_long","","10","complex_dissimilar","images/stimuli/spore_stims/complex_11_A_a.gif","","","","",""
"","null","html-keyboard-response","127","438680","0.0-29.0-0.2","SS1619205373323","","","null","","","","","","<p><img src= images/blank.png width =""600"" height = ""600"" style=""position:fixed;top:50%; left:50%; transform: translate(-50%, -50%); border:5px solid black"">","","","","","","","",""
"","586.0699999611825","sequential-stimulus-presentation-old","128","439898","0.0-29.0-1.2","SS1619205373323","trial","","40","500","1086.0699999611825","images/stimuli/spore_stims/complex_19_A_b.gif","images/stimuli/spore_stims/complex_11_A_a.gif","forced_long","","10","complex_dissimilar","images/stimuli/spore_stims/complex_11_A_a.gif","","","","",""
"","null","html-keyboard-response","129","440727","0.0-29.0-0.3","SS1619205373323","","","null","","","","","","<p><img src= images/blank.png width =""600"" height = ""600"" style=""position:fixed;top:50%; left:50%; transform: translate(-50%, -50%); border:5px solid black"">","","","","","","","",""
"","276.9749999861233","sequential-stimulus-presentation-old","130","441518","0.0-29.0-1.3","SS1619205373323","trial","","40","500","776.9749999861233","images/stimuli/spore_stims/complex_19_A_b.gif","images/stimuli/spore_stims/complex_11_A_a.gif","forced_long","","10","complex_dissimilar","images/stimuli/spore_stims/complex_11_A_a.gif","","","","",""
"","null","html-keyboard-response","131","442629","0.0-29.0-0.4","SS1619205373323","","","null","","","","","","<p><img src= images/blank.png width =""600"" height = ""600"" style=""position:fixed;top:50%; left:50%; transform: translate(-50%, -50%); border:5px solid black"">","","","","","","","",""
"","496.5100000263192","sequential-stimulus-presentation-old","132","443646","0.0-29.0-1.4","SS1619205373323","trial","","40","500","996.5100000263192","images/stimuli/spore_stims/complex_19_A_b.gif","images/stimuli/spore_stims/complex_11_A_a.gif","forced_long","","10","complex_dissimilar","images/stimuli/spore_stims/complex_11_A_a.gif","","","","",""
"","null","html-keyboard-response","133","444706","0.0-29.0-0.5","SS1619205373323","","","null","","","","","","<p><img src= images/blank.png width =""600"" height = ""600"" style=""position:fixed;top:50%; left:50%; transform: translate(-50%, -50%); border:5px solid black"">","","","","","","","",""
"","188.23500000871718","sequential-stimulus-presentation-old","134","445412","0.0-29.0-1.5","SS1619205373323","trial","","40","500","688.2350000087172","images/stimuli/spore_stims/complex_19_A_b.gif","images/stimuli/spore_stims/complex_11_A_a.gif","forced_long","","10","complex_dissimilar","images/stimuli/spore_stims/complex_11_A_a.gif","","","","",""
"","2442.250000021886","survey-multi-choice","135","447858","0.0-30.0","SS1619205373323","math_question","","","","","","","","","","","","{""Q0"":""5""}","[0]","5","",""
"","null","html-keyboard-response","136","449623","0.0-31.0-0.0","SS1619205373323","","","null","","","","","","<p><img src= images/blank.png width =""600"" height = ""600"" style=""position:fixed;top:50%; left:50%; transform: translate(-50%, -50%); border:5px solid black"">","","","","","","","",""
"","21433.78500000108","sequential-stimulus-presentation-old","137","471176","0.0-31.0-1.0","SS1619205373323","trial","","40","500","21933.78500000108","images/stimuli/spore_stims/complex_14_A_a.gif","images/stimuli/spore_stims/complex_11_A_b.gif","forced_short","","11","complex_dissimilar","images/stimuli/spore_stims/complex_11_A_b.gif","","","","",""
"","null","html-keyboard-response","138","472388","0.0-31.0-0.1","SS1619205373323","","","null","","","","","","<p><img src= images/blank.png width =""600"" height = ""600"" style=""position:fixed;top:50%; left:50%; transform: translate(-50%, -50%); border:5px solid black"">","","","","","","","",""
"","807.219999958761","sequential-stimulus-presentation-old","139","473712","0.0-31.0-1.1","SS1619205373323","trial","","40","500","1307.219999958761","images/stimuli/spore_stims/complex_14_A_a.gif","images/stimuli/spore_stims/complex_11_A_b.gif","forced_short","","11","complex_dissimilar","images/stimuli/spore_stims/complex_14_A_a.gif","","","","",""
"","null","html-keyboard-response","140","474871","0.0-31.0-0.2","SS1619205373323","","","null","","","","","","<p><img src= images/blank.png width =""600"" height = ""600"" style=""position:fixed;top:50%; left:50%; transform: translate(-50%, -50%); border:5px solid black"">","","","","","","","",""
"","174.59499998949468","sequential-stimulus-presentation-old","141","475559","0.0-31.0-1.2","SS1619205373323","trial","","40","500","674.5949999894947","images/stimuli/spore_stims/complex_14_A_a.gif","images/stimuli/spore_stims/complex_11_A_b.gif","forced_short","","11","complex_dissimilar","images/stimuli/spore_stims/complex_11_A_b.gif","","","","",""
"","null","html-keyboard-response","142","476798","0.0-31.0-0.3","SS1619205373323","","","null","","","","","","<p><img src= images/blank.png width =""600"" height = ""600"" style=""position:fixed;top:50%; left:50%; transform: translate(-50%, -50%); border:5px solid black"">","","","","","","","",""
"","39.114999992307276","sequential-stimulus-presentation-old","143","477357","0.0-31.0-1.3","SS1619205373323","trial","","40","500","539.1149999923073","images/stimuli/spore_stims/complex_14_A_a.gif","images/stimuli/spore_stims/complex_11_A_b.gif","forced_short","","11","complex_dissimilar","images/stimuli/spore_stims/complex_14_A_a.gif","","","","",""
"","null","html-keyboard-response","144","478600","0.0-31.0-0.4","SS1619205373323","","","null","","","","","","<p><img src= images/blank.png width =""600"" height = ""600"" style=""position:fixed;top:50%; left:50%; transform: translate(-50%, -50%); border:5px solid black"">","","","","","","","",""
"","314.1850000247359","sequential-stimulus-presentation-old","145","479423","0.0-31.0-1.4","SS1619205373323","trial","","40","500","814.1850000247359","images/stimuli/spore_stims/complex_14_A_a.gif","images/stimuli/spore_stims/complex_11_A_b.gif","forced_short","","11","complex_dissimilar","images/stimuli/spore_stims/complex_11_A_b.gif","","","","",""
"[{""page_index"":0,""viewing_time"":9892.655000032391}]","9894.060000020545","instructions","146","489323","0.0-32.0","SS1619205373323","instructions","","","","","","","","","","","","","","","",""
"","4882.089999970049","survey-likert","147","494212","0.0-33.0","SS1619205373323","similarity_question","","","","","","","","","","","","{""Q0"":4}","[0]","","images/stimuli/spore_stims/complex_02_A_a.gif","images/stimuli/spore_stims/complex_16_A_b.gif"
"","3443.1299999705516","survey-likert","148","497674","0.0-34.0","SS1619205373323","similarity_question","","","","","","","","","","","","{""Q0"":5}","[0]","","images/stimuli/spore_stims/simple_11_A_b.gif","images/stimuli/spore_stims/simple_20_A_a.gif"
"","5235.444999998435","survey-likert","149","502924","0.0-35.0","SS1619205373323","similarity_question","","","","","","","","","","","","{""Q0"":2}","[0]","","images/stimuli/spore_stims/simple_01_A_b.gif","images/stimuli/spore_stims/simple_10_A_a.gif"
"","4741.664999979548","survey-likert","150","507682","0.0-36.0","SS1619205373323","similarity_question","","","","","","","","","","","","{""Q0"":5}","[0]","","images/stimuli/spore_stims/complex_11_A_b.gif","images/stimuli/spore_stims/complex_14_A_a.gif"
"","2779.43499997491","survey-likert","151","510477","0.0-37.0","SS1619205373323","similarity_question","","","","","","","","","","","","{""Q0"":4}","[0]","","images/stimuli/spore_stims/complex_12_A_b.gif","images/stimuli/spore_stims/complex_05_A_a.gif"
"","6867.324999999255","survey-likert","152","517363","0.0-38.0","SS1619205373323","similarity_question","","","","","","","","","","","","{""Q0"":1}","[0]","","images/stimuli/spore_stims/simple_10_A_b.gif","images/stimuli/spore_stims/simple_07_A_a.gif"
"","3620.5750000081025","survey-likert","153","520996","0.0-39.0","SS1619205373323","similarity_question","","","","","","","","","","","","{""Q0"":6}","[0]","","images/stimuli/spore_stims/complex_17_A_b.gif","images/stimuli/spore_stims/complex_13_A_a.gif"
"","2531.6949999541976","survey-likert","154","523540","0.0-40.0","SS1619205373323","similarity_question","","","","","","","","","","","","{""Q0"":5}","[0]","","images/stimuli/spore_stims/simple_14_A_a.gif","images/stimuli/spore_stims/simple_09_A_b.gif"
"","2306.955000036396","survey-likert","155","525858","0.0-41.0","SS1619205373323","similarity_question","","","","","","","","","","","","{""Q0"":5}","[0]","","images/stimuli/spore_stims/simple_13_A_b.gif","images/stimuli/spore_stims/simple_02_A_a.gif"
"","1690.5299999634735","survey-likert","156","527563","0.0-42.0","SS1619205373323","similarity_question","","","","","","","","","","","","{""Q0"":4}","[0]","","images/stimuli/spore_stims/complex_11_A_a.gif","images/stimuli/spore_stims/complex_19_A_b.gif"
"","1834.389999974519","survey-likert","157","529419","0.0-43.0","SS1619205373323","similarity_question","","","","","","","","","","","","{""Q0"":4}","[0]","","images/stimuli/spore_stims/simple_16_A_b.gif","images/stimuli/spore_stims/simple_09_A_a.gif"
"","11363.86499996297","survey-likert","158","540795","0.0-44.0","SS1619205373323","similarity_question","","","","","","","","","","","","{""Q0"":4}","[0]","","images/stimuli/spore_stims/complex_05_A_b.gif","images/stimuli/spore_stims/complex_04_A_a.gif"
"[{""page_index"":0,""viewing_time"":4914.569999964442}]","4914.874999958556","instructions","159","545722","0.0-45.0","SS1619205373323","instructions","","","","","","","","","","","","","","","",""
"","2562.5250000157394","survey-likert","160","548292","0.0-46.0","SS1619205373323","","","","","","","","","images/stimuli/spore_stims/simple_10_A_b.gif","","","","{""Q0"":0}","[0]","","",""
"","2448.404999973718","survey-likert","161","550755","0.0-47.0","SS1619205373323","","","","","","","","","images/stimuli/spore_stims/complex_02_A_a.gif","","","","{""Q0"":6}","[0]","","",""
"","3352.3649999988265","survey-likert","162","554123","0.0-48.0","SS1619205373323","","","","","","","","","images/stimuli/spore_stims/complex_05_A_b.gif","","","","{""Q0"":5}","[0]","","",""
"","2644.269999989774","survey-likert","163","556786","0.0-49.0","SS1619205373323","","","","","","","","","images/stimuli/spore_stims/simple_14_A_a.gif","","","","{""Q0"":0}","[0]","","",""
"","2069.374999962747","survey-likert","164","558868","0.0-50.0","SS1619205373323","","","","","","","","","images/stimuli/spore_stims/simple_01_A_b.gif","","","","{""Q0"":0}","[0]","","",""
"","1967.594999994617","survey-likert","165","560851","0.0-51.0","SS1619205373323","","","","","","","","","images/stimuli/spore_stims/simple_16_A_b.gif","","","","{""Q0"":0}","[0]","","",""
"","2579.2099999962375","survey-likert","166","563442","0.0-52.0","SS1619205373323","","","","","","","","","images/stimuli/spore_stims/complex_12_A_b.gif","","","","{""Q0"":6}","[0]","","",""
"","1980.4299999959767","survey-likert","167","565435","0.0-53.0","SS1619205373323","","","","","","","","","images/stimuli/spore_stims/simple_13_A_b.gif","","","","{""Q0"":0}","[0]","","",""
"","2231.4149999874644","survey-likert","168","567684","0.0-54.0","SS1619205373323","","","","","","","","","images/stimuli/spore_stims/complex_14_A_a.gif","","","","{""Q0"":5}","[0]","","",""
"","2108.1949999788776","survey-likert","169","569811","0.0-55.0","SS1619205373323","","","","","","","","","images/stimuli/spore_stims/simple_20_A_a.gif","","","","{""Q0"":0}","[0]","","",""
"","2002.6300000026822","survey-likert","170","571827","0.0-56.0","SS1619205373323","","","","","","","","","images/stimuli/spore_stims/complex_11_A_a.gif","","","","{""Q0"":5}","[0]","","",""
"","1626.3850000104867","survey-likert","171","573466","0.0-57.0","SS1619205373323","","","","","","","","","images/stimuli/spore_stims/complex_13_A_a.gif","","","","{""Q0"":5}","[0]","","",""
"[{""page_index"":0,""viewing_time"":1539.7749999538064}]","1540.1549999951385","instructions","172","575018","0.0-58.0","SS1619205373323","instructions","","","","","","","","","","","","","","","",""
"","4081.2049999949522","demog-age","173","579109","0.0-59.0","SS1619205373323","","","","","","","","","","","","","{""age"":""20""}","","","",""
"","2562.149999954272","demog-ethnic-US","174","581683","0.0-60.0","SS1619205373323","","","","","","","","","","","","","{""ethnicity"":[""White""]}","[0]","","",""
"","9217.70000003744","demog-gender-and-education","175","590923","0.0-61.0","SS1619205373323","","","","","","","","","","","","","{""gender"":""Male"",""education"":""Some high school""}","[0,1]","","",""
"","50200.07999998052","survey-text","176","641138","0.0-62.0","SS1619205373323","feedback","","","","","","","","","","","","{""Q0"":""nope""}","","","",""
"[{""page_index"":0,""viewing_time"":1001.4049999881536}]","1001.639999973122","instructions","177","642146","0.0-63.0","SS1619205373323","instructions","","","","","","","","","","","","","","","",""
