"view_history","rt","trial_type","trial_index","time_elapsed","internal_node_id","subject","stimulus_type","trial_stimulus","key_press","minimum_viewing_duration","trial_looking_time","block_deviant","block_background","exposure_type","stimulus","block_number","block_type","stimulus_displayed","responses","question_order","math_correct_answer","stimulus_left","stimulus_right"
"[{""page_index"":0,""viewing_time"":26106.019999999262}]","26107.750000002852","instructions","0","26110","0.0-0.0","SS1619205955626","","","","","","","","","","","","","","","","",""
"[{""page_index"":0,""viewing_time"":20120.999999999185},{""page_index"":1,""viewing_time"":9817.280000002938}]","29939.05000000086","instructions","1","58052","0.0-1.0","SS1619205955626","instructions","","","","","","","","","","","","","","","",""
"","10508.92500000191","sequential-stimulus-presentation-old","2","69072","0.0-2.0","SS1619205955626","","","40","500","11008.92500000191","null","null","self_paced","","","","","","","","",""
"","8720.274999999674","sequential-stimulus-presentation-old","3","78297","0.0-3.0","SS1619205955626","","","40","500","9220.274999999674","null","null","self_paced","","","","","","","","",""
"[{""page_index"":0,""viewing_time"":21341.254999999364}]","21341.639999998733","instructions","4","99640","0.0-4.0","SS1619205955626","instructions","","","","","","","","","","","","","","","",""
"","4689.815000005183","sequential-stimulus-presentation-old","5","114341","0.0-5.0","SS1619205955626","","","40","500","5189.815000005183","null","null","forced_long","","","","","","","","",""
"","7936.220000003232","sequential-stimulus-presentation-old","6","122382","0.0-6.0","SS1619205955626","","","40","500","8436.220000003232","null","null","forced_long","","","","","","","","",""
"[{""page_index"":0,""viewing_time"":5910.360000001674}]","5911.119999997027","instructions","7","128295","0.0-7.0","SS1619205955626","instructions","","","","","","","","","","","","","","","",""
"[{""page_index"":0,""viewing_time"":7076.500000002852},{""page_index"":1,""viewing_time"":12847.69000000233},{""page_index"":2,""viewing_time"":6823.974999999336},{""page_index"":3,""viewing_time"":1679.8849999977392},{""page_index"":4,""viewing_time"":1752.3799999980838},{""page_index"":3,""viewing_time"":9416.975000000093},{""page_index"":4,""viewing_time"":1030.7549999997718}]","40628.86000000435","instructions","8","168926","0.0-8.0","SS1619205955626","instructions","","","","","","","","","","","","","","","",""
"","null","html-keyboard-response","9","170034","0.0-9.0-0.0","SS1619205955626","","","null","","","","","","<p><img src= images/blank.png width =""600"" height = ""600"" style=""position:fixed;top:50%; left:50%; transform: translate(-50%, -50%); border:5px solid black"">","","","","","","","",""
"","3256.5900000045076","sequential-stimulus-presentation-old","10","173799","0.0-9.0-1.0","SS1619205955626","trial","","40","500","3756.5900000045076","images/stimuli/spore_stims/complex_15_A_b.gif","images/stimuli/spore_stims/complex_18_A_a.gif","self_paced","","0","complex_dissimilar","images/stimuli/spore_stims/complex_18_A_a.gif","","","","",""
"","null","html-keyboard-response","11","174686","0.0-9.0-0.1","SS1619205955626","","","null","","","","","","<p><img src= images/blank.png width =""600"" height = ""600"" style=""position:fixed;top:50%; left:50%; transform: translate(-50%, -50%); border:5px solid black"">","","","","","","","",""
"","6358.565000002272","sequential-stimulus-presentation-old","12","181553","0.0-9.0-1.1","SS1619205955626","trial","","40","500","6858.565000002272","images/stimuli/spore_stims/complex_15_A_b.gif","images/stimuli/spore_stims/complex_18_A_a.gif","self_paced","","0","complex_dissimilar","images/stimuli/spore_stims/complex_18_A_a.gif","","","","",""
"","null","html-keyboard-response","13","182823","0.0-9.0-0.2","SS1619205955626","","","null","","","","","","<p><img src= images/blank.png width =""600"" height = ""600"" style=""position:fixed;top:50%; left:50%; transform: translate(-50%, -50%); border:5px solid black"">","","","","","","","",""
"","6042.055000005348","sequential-stimulus-presentation-old","14","189371","0.0-9.0-1.2","SS1619205955626","trial","","40","500","6542.055000005348","images/stimuli/spore_stims/complex_15_A_b.gif","images/stimuli/spore_stims/complex_18_A_a.gif","self_paced","","0","complex_dissimilar","images/stimuli/spore_stims/complex_18_A_a.gif","","","","",""
"","null","html-keyboard-response","15","190417","0.0-9.0-0.3","SS1619205955626","","","null","","","","","","<p><img src= images/blank.png width =""600"" height = ""600"" style=""position:fixed;top:50%; left:50%; transform: translate(-50%, -50%); border:5px solid black"">","","","","","","","",""
"","6080.774999994901","sequential-stimulus-presentation-old","16","197005","0.0-9.0-1.3","SS1619205955626","trial","","40","500","6580.774999994901","images/stimuli/spore_stims/complex_15_A_b.gif","images/stimuli/spore_stims/complex_18_A_a.gif","self_paced","","0","complex_dissimilar","images/stimuli/spore_stims/complex_15_A_b.gif","","","","",""
"","3292.3749999972642","survey-multi-choice","17","200303","0.0-10.0","SS1619205955626","math_question","","","","","","","","","","","","{""Q0"":""12""}","[0]","12","",""
"","null","html-keyboard-response","18","201274","0.0-11.0-0.0","SS1619205955626","","","null","","","","","","<p><img src= images/blank.png width =""600"" height = ""600"" style=""position:fixed;top:50%; left:50%; transform: translate(-50%, -50%); border:5px solid black"">","","","","","","","",""
"","5328.739999997197","sequential-stimulus-presentation-old","19","207113","0.0-11.0-1.0","SS1619205955626","trial","","40","500","5828.739999997197","images/stimuli/spore_stims/simple_18_A_b.gif","images/stimuli/spore_stims/simple_01_A_a.gif","self_paced","","1","simple_dissimilar","images/stimuli/spore_stims/simple_01_A_a.gif","","","","",""
"","null","html-keyboard-response","20","208060","0.0-11.0-0.1","SS1619205955626","","","null","","","","","","<p><img src= images/blank.png width =""600"" height = ""600"" style=""position:fixed;top:50%; left:50%; transform: translate(-50%, -50%); border:5px solid black"">","","","","","","","",""
"","4021.469999999681","sequential-stimulus-presentation-old","21","212589","0.0-11.0-1.1","SS1619205955626","trial","","40","500","4521.469999999681","images/stimuli/spore_stims/simple_18_A_b.gif","images/stimuli/spore_stims/simple_01_A_a.gif","self_paced","","1","simple_dissimilar","images/stimuli/spore_stims/simple_18_A_b.gif","","","","",""
"","null","html-keyboard-response","22","213644","0.0-11.0-0.2","SS1619205955626","","","null","","","","","","<p><img src= images/blank.png width =""600"" height = ""600"" style=""position:fixed;top:50%; left:50%; transform: translate(-50%, -50%); border:5px solid black"">","","","","","","","",""
"","4027.2249999979977","sequential-stimulus-presentation-old","23","218183","0.0-11.0-1.2","SS1619205955626","trial","","40","500","4527.224999997998","images/stimuli/spore_stims/simple_18_A_b.gif","images/stimuli/spore_stims/simple_01_A_a.gif","self_paced","","1","simple_dissimilar","images/stimuli/spore_stims/simple_01_A_a.gif","","","","",""
"","null","html-keyboard-response","24","219232","0.0-11.0-0.3","SS1619205955626","","","null","","","","","","<p><img src= images/blank.png width =""600"" height = ""600"" style=""position:fixed;top:50%; left:50%; transform: translate(-50%, -50%); border:5px solid black"">","","","","","","","",""
"","1108.5000000020955","sequential-stimulus-presentation-old","25","220847","0.0-11.0-1.3","SS1619205955626","trial","","40","500","1608.5000000020955","images/stimuli/spore_stims/simple_18_A_b.gif","images/stimuli/spore_stims/simple_01_A_a.gif","self_paced","","1","simple_dissimilar","images/stimuli/spore_stims/simple_01_A_a.gif","","","","",""
"","null","html-keyboard-response","26","221959","0.0-11.0-0.4","SS1619205955626","","","null","","","","","","<p><img src= images/blank.png width =""600"" height = ""600"" style=""position:fixed;top:50%; left:50%; transform: translate(-50%, -50%); border:5px solid black"">","","","","","","","",""
"","1688.479999997071","sequential-stimulus-presentation-old","27","224154","0.0-11.0-1.4","SS1619205955626","trial","","40","500","2188.479999997071","images/stimuli/spore_stims/simple_18_A_b.gif","images/stimuli/spore_stims/simple_01_A_a.gif","self_paced","","1","simple_dissimilar","images/stimuli/spore_stims/simple_18_A_b.gif","","","","",""
"","6408.784999999625","survey-multi-choice","28","230566","0.0-12.0","SS1619205955626","math_question","","","","","","","","","","","","{""Q0"":""12""}","[0]","12","",""
"","null","html-keyboard-response","29","231542","0.0-13.0-0.0","SS1619205955626","","","null","","","","","","<p><img src= images/blank.png width =""600"" height = ""600"" style=""position:fixed;top:50%; left:50%; transform: translate(-50%, -50%); border:5px solid black"">","","","","","","","",""
"","3113.7549999984913","sequential-stimulus-presentation-old","30","244665","0.0-13.0-1.0","SS1619205955626","trial","","40","500","3613.7549999984913","images/stimuli/spore_stims/simple_10_A_a.gif","images/stimuli/spore_stims/simple_12_A_b.gif","forced_long","","2","simple_dissimilar","images/stimuli/spore_stims/simple_12_A_b.gif","","","","",""
"","null","html-keyboard-response","31","245963","0.0-13.0-0.1","SS1619205955626","","","null","","","","","","<p><img src= images/blank.png width =""600"" height = ""600"" style=""position:fixed;top:50%; left:50%; transform: translate(-50%, -50%); border:5px solid black"">","","","","","","","",""
"","1375.9900000004563","sequential-stimulus-presentation-old","32","247849","0.0-13.0-1.1","SS1619205955626","trial","","40","500","1875.9900000004563","images/stimuli/spore_stims/simple_10_A_a.gif","images/stimuli/spore_stims/simple_12_A_b.gif","forced_long","","2","simple_dissimilar","images/stimuli/spore_stims/simple_12_A_b.gif","","","","",""
"","null","html-keyboard-response","33","249030","0.0-13.0-0.2","SS1619205955626","","","null","","","","","","<p><img src= images/blank.png width =""600"" height = ""600"" style=""position:fixed;top:50%; left:50%; transform: translate(-50%, -50%); border:5px solid black"">","","","","","","","",""
"","3266.7750000036904","sequential-stimulus-presentation-old","34","252805","0.0-13.0-1.2","SS1619205955626","trial","","40","500","3766.7750000036904","images/stimuli/spore_stims/simple_10_A_a.gif","images/stimuli/spore_stims/simple_12_A_b.gif","forced_long","","2","simple_dissimilar","images/stimuli/spore_stims/simple_12_A_b.gif","","","","",""
"","null","html-keyboard-response","35","253927","0.0-13.0-0.3","SS1619205955626","","","null","","","","","","<p><img src= images/blank.png width =""600"" height = ""600"" style=""position:fixed;top:50%; left:50%; transform: translate(-50%, -50%); border:5px solid black"">","","","","","","","",""
"","5589.274999998452","sequential-stimulus-presentation-old","36","260023","0.0-13.0-1.3","SS1619205955626","trial","","40","500","6089.274999998452","images/stimuli/spore_stims/simple_10_A_a.gif","images/stimuli/spore_stims/simple_12_A_b.gif","forced_long","","2","simple_dissimilar","images/stimuli/spore_stims/simple_12_A_b.gif","","","","",""
"","null","html-keyboard-response","37","261095","0.0-13.0-0.4","SS1619205955626","","","null","","","","","","<p><img src= images/blank.png width =""600"" height = ""600"" style=""position:fixed;top:50%; left:50%; transform: translate(-50%, -50%); border:5px solid black"">","","","","","","","",""
"","3610.704999999143","sequential-stimulus-presentation-old","38","265212","0.0-13.0-1.4","SS1619205955626","trial","","40","500","4110.704999999143","images/stimuli/spore_stims/simple_10_A_a.gif","images/stimuli/spore_stims/simple_12_A_b.gif","forced_long","","2","simple_dissimilar","images/stimuli/spore_stims/simple_10_A_a.gif","","","","",""
"","2638.3049999931245","survey-multi-choice","39","267855","0.0-14.0","SS1619205955626","math_question","","","","","","","","","","","","{""Q0"":""12""}","[0]","12","",""
"","null","html-keyboard-response","40","268663","0.0-15.0-0.0","SS1619205955626","","","null","","","","","","<p><img src= images/blank.png width =""600"" height = ""600"" style=""position:fixed;top:50%; left:50%; transform: translate(-50%, -50%); border:5px solid black"">","","","","","","","",""
"","3717.464999994263","sequential-stimulus-presentation-old","41","272487","0.0-15.0-1.0","SS1619205955626","trial","","40","500","4217.464999994263","images/stimuli/spore_stims/simple_03_A_a.gif","images/stimuli/spore_stims/simple_10_A_b.gif","forced_short","","3","simple_dissimilar","images/stimuli/spore_stims/simple_10_A_b.gif","","","","",""
"","null","html-keyboard-response","42","273527","0.0-15.0-0.1","SS1619205955626","","","null","","","","","","<p><img src= images/blank.png width =""600"" height = ""600"" style=""position:fixed;top:50%; left:50%; transform: translate(-50%, -50%); border:5px solid black"">","","","","","","","",""
"","4537.605000004987","sequential-stimulus-presentation-old","43","278575","0.0-15.0-1.1","SS1619205955626","trial","","40","500","5037.605000004987","images/stimuli/spore_stims/simple_03_A_a.gif","images/stimuli/spore_stims/simple_10_A_b.gif","forced_short","","3","simple_dissimilar","images/stimuli/spore_stims/simple_10_A_b.gif","","","","",""
"","null","html-keyboard-response","44","279768","0.0-15.0-0.2","SS1619205955626","","","null","","","","","","<p><img src= images/blank.png width =""600"" height = ""600"" style=""position:fixed;top:50%; left:50%; transform: translate(-50%, -50%); border:5px solid black"">","","","","","","","",""
"","2005.1299999977346","sequential-stimulus-presentation-old","45","282281","0.0-15.0-1.2","SS1619205955626","trial","","40","500","2505.1299999977346","images/stimuli/spore_stims/simple_03_A_a.gif","images/stimuli/spore_stims/simple_10_A_b.gif","forced_short","","3","simple_dissimilar","images/stimuli/spore_stims/simple_10_A_b.gif","","","","",""
"","null","html-keyboard-response","46","283468","0.0-15.0-0.3","SS1619205955626","","","null","","","","","","<p><img src= images/blank.png width =""600"" height = ""600"" style=""position:fixed;top:50%; left:50%; transform: translate(-50%, -50%); border:5px solid black"">","","","","","","","",""
"","647.7349999986473","sequential-stimulus-presentation-old","47","284624","0.0-15.0-1.3","SS1619205955626","trial","","40","500","1147.7349999986473","images/stimuli/spore_stims/simple_03_A_a.gif","images/stimuli/spore_stims/simple_10_A_b.gif","forced_short","","3","simple_dissimilar","images/stimuli/spore_stims/simple_10_A_b.gif","","","","",""
"","null","html-keyboard-response","48","285705","0.0-15.0-0.4","SS1619205955626","","","null","","","","","","<p><img src= images/blank.png width =""600"" height = ""600"" style=""position:fixed;top:50%; left:50%; transform: translate(-50%, -50%); border:5px solid black"">","","","","","","","",""
"","2027.9049999953713","sequential-stimulus-presentation-old","49","288245","0.0-15.0-1.4","SS1619205955626","trial","","40","500","2527.9049999953713","images/stimuli/spore_stims/simple_03_A_a.gif","images/stimuli/spore_stims/simple_10_A_b.gif","forced_short","","3","simple_dissimilar","images/stimuli/spore_stims/simple_10_A_b.gif","","","","",""
"","null","html-keyboard-response","50","289453","0.0-15.0-0.5","SS1619205955626","","","null","","","","","","<p><img src= images/blank.png width =""600"" height = ""600"" style=""position:fixed;top:50%; left:50%; transform: translate(-50%, -50%); border:5px solid black"">","","","","","","","",""
"","2538.300000000163","sequential-stimulus-presentation-old","51","292498","0.0-15.0-1.5","SS1619205955626","trial","","40","500","3038.300000000163","images/stimuli/spore_stims/simple_03_A_a.gif","images/stimuli/spore_stims/simple_10_A_b.gif","forced_short","","3","simple_dissimilar","images/stimuli/spore_stims/simple_10_A_b.gif","","","","",""
"","3279.9599999998463","survey-multi-choice","52","295783","0.0-16.0","SS1619205955626","math_question","","","","","","","","","","","","{""Q0"":""3""}","[0]","3","",""
"","null","html-keyboard-response","53","296589","0.0-17.0-0.0","SS1619205955626","","","null","","","","","","<p><img src= images/blank.png width =""600"" height = ""600"" style=""position:fixed;top:50%; left:50%; transform: translate(-50%, -50%); border:5px solid black"">","","","","","","","",""
"","1394.5049999965704","sequential-stimulus-presentation-old","54","298492","0.0-17.0-1.0","SS1619205955626","trial","","40","500","1894.5049999965704","images/stimuli/spore_stims/simple_11_A_a.gif","images/stimuli/spore_stims/simple_09_A_b.gif","self_paced","","4","simple_dissimilar","images/stimuli/spore_stims/simple_09_A_b.gif","","","","",""
"","null","html-keyboard-response","55","299796","0.0-17.0-0.1","SS1619205955626","","","null","","","","","","<p><img src= images/blank.png width =""600"" height = ""600"" style=""position:fixed;top:50%; left:50%; transform: translate(-50%, -50%); border:5px solid black"">","","","","","","","",""
"","1582.6799999995274","sequential-stimulus-presentation-old","56","301888","0.0-17.0-1.1","SS1619205955626","trial","","40","500","2082.6799999995274","images/stimuli/spore_stims/simple_11_A_a.gif","images/stimuli/spore_stims/simple_09_A_b.gif","self_paced","","4","simple_dissimilar","images/stimuli/spore_stims/simple_11_A_a.gif","","","","",""
"","null","html-keyboard-response","57","303109","0.0-17.0-0.2","SS1619205955626","","","null","","","","","","<p><img src= images/blank.png width =""600"" height = ""600"" style=""position:fixed;top:50%; left:50%; transform: translate(-50%, -50%); border:5px solid black"">","","","","","","","",""
"","10669.060000000172","sequential-stimulus-presentation-old","58","314292","0.0-17.0-1.2","SS1619205955626","trial","","40","500","11169.060000000172","images/stimuli/spore_stims/simple_11_A_a.gif","images/stimuli/spore_stims/simple_09_A_b.gif","self_paced","","4","simple_dissimilar","images/stimuli/spore_stims/simple_11_A_a.gif","","","","",""
"","null","html-keyboard-response","59","315399","0.0-17.0-0.3","SS1619205955626","","","null","","","","","","<p><img src= images/blank.png width =""600"" height = ""600"" style=""position:fixed;top:50%; left:50%; transform: translate(-50%, -50%); border:5px solid black"">","","","","","","","",""
"","694.5850000047358","sequential-stimulus-presentation-old","60","316607","0.0-17.0-1.3","SS1619205955626","trial","","40","500","1194.5850000047358","images/stimuli/spore_stims/simple_11_A_a.gif","images/stimuli/spore_stims/simple_09_A_b.gif","self_paced","","4","simple_dissimilar","images/stimuli/spore_stims/simple_09_A_b.gif","","","","",""
"","null","html-keyboard-response","61","317808","0.0-17.0-0.4","SS1619205955626","","","null","","","","","","<p><img src= images/blank.png width =""600"" height = ""600"" style=""position:fixed;top:50%; left:50%; transform: translate(-50%, -50%); border:5px solid black"">","","","","","","","",""
"","1499.7000000003027","sequential-stimulus-presentation-old","62","319814","0.0-17.0-1.4","SS1619205955626","trial","","40","500","1999.7000000003027","images/stimuli/spore_stims/simple_11_A_a.gif","images/stimuli/spore_stims/simple_09_A_b.gif","self_paced","","4","simple_dissimilar","images/stimuli/spore_stims/simple_09_A_b.gif","","","","",""
"","null","html-keyboard-response","63","320842","0.0-17.0-0.5","SS1619205955626","","","null","","","","","","<p><img src= images/blank.png width =""600"" height = ""600"" style=""position:fixed;top:50%; left:50%; transform: translate(-50%, -50%); border:5px solid black"">","","","","","","","",""
"","46.24999999941792","sequential-stimulus-presentation-old","64","321398","0.0-17.0-1.5","SS1619205955626","trial","","40","500","546.2499999994179","images/stimuli/spore_stims/simple_11_A_a.gif","images/stimuli/spore_stims/simple_09_A_b.gif","self_paced","","4","simple_dissimilar","images/stimuli/spore_stims/simple_09_A_b.gif","","","","",""
"","2363.884999998845","survey-multi-choice","65","323766","0.0-18.0","SS1619205955626","math_question","","","","","","","","","","","","{""Q0"":""7""}","[0]","7","",""
"","null","html-keyboard-response","66","324862","0.0-19.0-0.0","SS1619205955626","","","null","","","","","","<p><img src= images/blank.png width =""600"" height = ""600"" style=""position:fixed;top:50%; left:50%; transform: translate(-50%, -50%); border:5px solid black"">","","","","","","","",""
"","3779.58000000217","sequential-stimulus-presentation-old","67","338663","0.0-19.0-1.0","SS1619205955626","trial","","40","500","4279.58000000217","images/stimuli/spore_stims/complex_04_A_a.gif","images/stimuli/spore_stims/complex_13_A_b.gif","forced_long","","5","complex_dissimilar","images/stimuli/spore_stims/complex_13_A_b.gif","","","","",""
"","null","html-keyboard-response","68","339833","0.0-19.0-0.1","SS1619205955626","","","null","","","","","","<p><img src= images/blank.png width =""600"" height = ""600"" style=""position:fixed;top:50%; left:50%; transform: translate(-50%, -50%); border:5px solid black"">","","","","","","","",""
"","781.795000002603","sequential-stimulus-presentation-old","69","341127","0.0-19.0-1.1","SS1619205955626","trial","","40","500","1281.795000002603","images/stimuli/spore_stims/complex_04_A_a.gif","images/stimuli/spore_stims/complex_13_A_b.gif","forced_long","","5","complex_dissimilar","images/stimuli/spore_stims/complex_13_A_b.gif","","","","",""
"","null","html-keyboard-response","70","342392","0.0-19.0-0.2","SS1619205955626","","","null","","","","","","<p><img src= images/blank.png width =""600"" height = ""600"" style=""position:fixed;top:50%; left:50%; transform: translate(-50%, -50%); border:5px solid black"">","","","","","","","",""
"","274.59499999531545","sequential-stimulus-presentation-old","71","343173","0.0-19.0-1.2","SS1619205955626","trial","","40","500","774.5949999953154","images/stimuli/spore_stims/complex_04_A_a.gif","images/stimuli/spore_stims/complex_13_A_b.gif","forced_long","","5","complex_dissimilar","images/stimuli/spore_stims/complex_13_A_b.gif","","","","",""
"","null","html-keyboard-response","72","344414","0.0-19.0-0.3","SS1619205955626","","","null","","","","","","<p><img src= images/blank.png width =""600"" height = ""600"" style=""position:fixed;top:50%; left:50%; transform: translate(-50%, -50%); border:5px solid black"">","","","","","","","",""
"","1082.734999996319","sequential-stimulus-presentation-old","73","346005","0.0-19.0-1.3","SS1619205955626","trial","","40","500","1582.734999996319","images/stimuli/spore_stims/complex_04_A_a.gif","images/stimuli/spore_stims/complex_13_A_b.gif","forced_long","","5","complex_dissimilar","images/stimuli/spore_stims/complex_13_A_b.gif","","","","",""
"","2420.9350000019185","survey-multi-choice","74","348430","0.0-20.0","SS1619205955626","math_question","","","","","","","","","","","","{""Q0"":""9""}","[0]","9","",""
"","null","html-keyboard-response","75","349325","0.0-21.0-0.0","SS1619205955626","","","null","","","","","","<p><img src= images/blank.png width =""600"" height = ""600"" style=""position:fixed;top:50%; left:50%; transform: translate(-50%, -50%); border:5px solid black"">","","","","","","","",""
"","121.03999999817461","sequential-stimulus-presentation-old","76","359456","0.0-21.0-1.0","SS1619205955626","trial","","40","500","621.0399999981746","images/stimuli/spore_stims/complex_12_A_b.gif","images/stimuli/spore_stims/complex_17_A_a.gif","forced_long","","6","complex_dissimilar","images/stimuli/spore_stims/complex_17_A_a.gif","","","","",""
"","null","html-keyboard-response","77","360382","0.0-21.0-0.1","SS1619205955626","","","null","","","","","","<p><img src= images/blank.png width =""600"" height = ""600"" style=""position:fixed;top:50%; left:50%; transform: translate(-50%, -50%); border:5px solid black"">","","","","","","","",""
"","528.0399999974179","sequential-stimulus-presentation-old","78","361418","0.0-21.0-1.1","SS1619205955626","trial","","40","500","1028.039999997418","images/stimuli/spore_stims/complex_12_A_b.gif","images/stimuli/spore_stims/complex_17_A_a.gif","forced_long","","6","complex_dissimilar","images/stimuli/spore_stims/complex_17_A_a.gif","","","","",""
"","null","html-keyboard-response","79","362432","0.0-21.0-0.2","SS1619205955626","","","null","","","","","","<p><img src= images/blank.png width =""600"" height = ""600"" style=""position:fixed;top:50%; left:50%; transform: translate(-50%, -50%); border:5px solid black"">","","","","","","","",""
"","1166.5549999961513","sequential-stimulus-presentation-old","80","364111","0.0-21.0-1.2","SS1619205955626","trial","","40","500","1666.5549999961513","images/stimuli/spore_stims/complex_12_A_b.gif","images/stimuli/spore_stims/complex_17_A_a.gif","forced_long","","6","complex_dissimilar","images/stimuli/spore_stims/complex_17_A_a.gif","","","","",""
"","null","html-keyboard-response","81","365119","0.0-21.0-0.3","SS1619205955626","","","null","","","","","","<p><img src= images/blank.png width =""600"" height = ""600"" style=""position:fixed;top:50%; left:50%; transform: translate(-50%, -50%); border:5px solid black"">","","","","","","","",""
"","537.5599999970291","sequential-stimulus-presentation-old","82","366163","0.0-21.0-1.3","SS1619205955626","trial","","40","500","1037.559999997029","images/stimuli/spore_stims/complex_12_A_b.gif","images/stimuli/spore_stims/complex_17_A_a.gif","forced_long","","6","complex_dissimilar","images/stimuli/spore_stims/complex_17_A_a.gif","","","","",""
"","2101.2550000014016","survey-multi-choice","83","368270","0.0-22.0","SS1619205955626","math_question","","","","","","","","","","","","{""Q0"":""10""}","[0]","10","",""
"","null","html-keyboard-response","84","369185","0.0-23.0-0.0","SS1619205955626","","","null","","","","","","<p><img src= images/blank.png width =""600"" height = ""600"" style=""position:fixed;top:50%; left:50%; transform: translate(-50%, -50%); border:5px solid black"">","","","","","","","",""
"","1623.4299999996438","sequential-stimulus-presentation-old","85","371315","0.0-23.0-1.0","SS1619205955626","trial","","40","500","2123.4299999996438","images/stimuli/spore_stims/complex_01_A_a.gif","images/stimuli/spore_stims/complex_19_A_b.gif","self_paced","","7","complex_dissimilar","images/stimuli/spore_stims/complex_19_A_b.gif","","","","",""
"","null","html-keyboard-response","86","372490","0.0-23.0-0.1","SS1619205955626","","","null","","","","","","<p><img src= images/blank.png width =""600"" height = ""600"" style=""position:fixed;top:50%; left:50%; transform: translate(-50%, -50%); border:5px solid black"">","","","","","","","",""
"","275.64999999594875","sequential-stimulus-presentation-old","87","373274","0.0-23.0-1.1","SS1619205955626","trial","","40","500","775.6499999959487","images/stimuli/spore_stims/complex_01_A_a.gif","images/stimuli/spore_stims/complex_19_A_b.gif","self_paced","","7","complex_dissimilar","images/stimuli/spore_stims/complex_01_A_a.gif","","","","",""
"","null","html-keyboard-response","88","374506","0.0-23.0-0.2","SS1619205955626","","","null","","","","","","<p><img src= images/blank.png width =""600"" height = ""600"" style=""position:fixed;top:50%; left:50%; transform: translate(-50%, -50%); border:5px solid black"">","","","","","","","",""
"","1071.5549999949872","sequential-stimulus-presentation-old","89","376089","0.0-23.0-1.2","SS1619205955626","trial","","40","500","1571.5549999949872","images/stimuli/spore_stims/complex_01_A_a.gif","images/stimuli/spore_stims/complex_19_A_b.gif","self_paced","","7","complex_dissimilar","images/stimuli/spore_stims/complex_19_A_b.gif","","","","",""
"","null","html-keyboard-response","90","377365","0.0-23.0-0.3","SS1619205955626","","","null","","","","","","<p><img src= images/blank.png width =""600"" height = ""600"" style=""position:fixed;top:50%; left:50%; transform: translate(-50%, -50%); border:5px solid black"">","","","","","","","",""
"","416.5849999990314","sequential-stimulus-presentation-old","91","378290","0.0-23.0-1.3","SS1619205955626","trial","","40","500","916.5849999990314","images/stimuli/spore_stims/complex_01_A_a.gif","images/stimuli/spore_stims/complex_19_A_b.gif","self_paced","","7","complex_dissimilar","images/stimuli/spore_stims/complex_19_A_b.gif","","","","",""
"","null","html-keyboard-response","92","379400","0.0-23.0-0.4","SS1619205955626","","","null","","","","","","<p><img src= images/blank.png width =""600"" height = ""600"" style=""position:fixed;top:50%; left:50%; transform: translate(-50%, -50%); border:5px solid black"">","","","","","","","",""
"","319.55500000185566","sequential-stimulus-presentation-old","93","380227","0.0-23.0-1.4","SS1619205955626","trial","","40","500","819.5550000018557","images/stimuli/spore_stims/complex_01_A_a.gif","images/stimuli/spore_stims/complex_19_A_b.gif","self_paced","","7","complex_dissimilar","images/stimuli/spore_stims/complex_01_A_a.gif","","","","",""
"","2150.0750000050175","survey-multi-choice","94","382383","0.0-24.0","SS1619205955626","math_question","","","","","","","","","","","","{""Q0"":""9""}","[0]","9","",""
"","null","html-keyboard-response","95","383578","0.0-25.0-0.0","SS1619205955626","","","null","","","","","","<p><img src= images/blank.png width =""600"" height = ""600"" style=""position:fixed;top:50%; left:50%; transform: translate(-50%, -50%); border:5px solid black"">","","","","","","","",""
"","1811.2200000032317","sequential-stimulus-presentation-old","96","385501","0.0-25.0-1.0","SS1619205955626","trial","","40","500","2311.2200000032317","images/stimuli/spore_stims/simple_19_A_b.gif","images/stimuli/spore_stims/simple_08_A_a.gif","forced_short","","8","simple_dissimilar","images/stimuli/spore_stims/simple_08_A_a.gif","","","","",""
"","null","html-keyboard-response","97","386524","0.0-25.0-0.1","SS1619205955626","","","null","","","","","","<p><img src= images/blank.png width =""600"" height = ""600"" style=""position:fixed;top:50%; left:50%; transform: translate(-50%, -50%); border:5px solid black"">","","","","","","","",""
"","3066.3750000021537","sequential-stimulus-presentation-old","98","390099","0.0-25.0-1.1","SS1619205955626","trial","","40","500","3566.3750000021537","images/stimuli/spore_stims/simple_19_A_b.gif","images/stimuli/spore_stims/simple_08_A_a.gif","forced_short","","8","simple_dissimilar","images/stimuli/spore_stims/simple_19_A_b.gif","","","","",""
"","null","html-keyboard-response","99","390910","0.0-25.0-0.2","SS1619205955626","","","null","","","","","","<p><img src= images/blank.png width =""600"" height = ""600"" style=""position:fixed;top:50%; left:50%; transform: translate(-50%, -50%); border:5px solid black"">","","","","","","","",""
"","2963.165000001027","sequential-stimulus-presentation-old","100","394387","0.0-25.0-1.2","SS1619205955626","trial","","40","500","3463.165000001027","images/stimuli/spore_stims/simple_19_A_b.gif","images/stimuli/spore_stims/simple_08_A_a.gif","forced_short","","8","simple_dissimilar","images/stimuli/spore_stims/simple_08_A_a.gif","","","","",""
"","null","html-keyboard-response","101","395259","0.0-25.0-0.3","SS1619205955626","","","null","","","","","","<p><img src= images/blank.png width =""600"" height = ""600"" style=""position:fixed;top:50%; left:50%; transform: translate(-50%, -50%); border:5px solid black"">","","","","","","","",""
"","5178.814999999304","sequential-stimulus-presentation-old","102","400948","0.0-25.0-1.3","SS1619205955626","trial","","40","500","5678.814999999304","images/stimuli/spore_stims/simple_19_A_b.gif","images/stimuli/spore_stims/simple_08_A_a.gif","forced_short","","8","simple_dissimilar","images/stimuli/spore_stims/simple_08_A_a.gif","","","","",""
"","null","html-keyboard-response","103","401826","0.0-25.0-0.4","SS1619205955626","","","null","","","","","","<p><img src= images/blank.png width =""600"" height = ""600"" style=""position:fixed;top:50%; left:50%; transform: translate(-50%, -50%); border:5px solid black"">","","","","","","","",""
"","269.85500000591855","sequential-stimulus-presentation-old","104","402604","0.0-25.0-1.4","SS1619205955626","trial","","40","500","769.8550000059186","images/stimuli/spore_stims/simple_19_A_b.gif","images/stimuli/spore_stims/simple_08_A_a.gif","forced_short","","8","simple_dissimilar","images/stimuli/spore_stims/simple_08_A_a.gif","","","","",""
"","null","html-keyboard-response","105","403749","0.0-25.0-0.5","SS1619205955626","","","null","","","","","","<p><img src= images/blank.png width =""600"" height = ""600"" style=""position:fixed;top:50%; left:50%; transform: translate(-50%, -50%); border:5px solid black"">","","","","","","","",""
"","3367.725000003702","sequential-stimulus-presentation-old","106","407624","0.0-25.0-1.5","SS1619205955626","trial","","40","500","3867.725000003702","images/stimuli/spore_stims/simple_19_A_b.gif","images/stimuli/spore_stims/simple_08_A_a.gif","forced_short","","8","simple_dissimilar","images/stimuli/spore_stims/simple_19_A_b.gif","","","","",""
"","2015.690000000177","survey-multi-choice","107","409647","0.0-26.0","SS1619205955626","math_question","","","","","","","","","","","","{""Q0"":""4""}","[0]","4","",""
"","null","html-keyboard-response","108","410788","0.0-27.0-0.0","SS1619205955626","","","null","","","","","","<p><img src= images/blank.png width =""600"" height = ""600"" style=""position:fixed;top:50%; left:50%; transform: translate(-50%, -50%); border:5px solid black"">","","","","","","","",""
"","11103.739999998652","sequential-stimulus-presentation-old","109","431899","0.0-27.0-1.0","SS1619205955626","trial","","40","500","11603.739999998652","images/stimuli/spore_stims/simple_04_A_b.gif","images/stimuli/spore_stims/simple_09_A_a.gif","forced_long","","9","simple_dissimilar","images/stimuli/spore_stims/simple_09_A_a.gif","","","","",""
"","null","html-keyboard-response","110","433200","0.0-27.0-0.1","SS1619205955626","","","null","","","","","","<p><img src= images/blank.png width =""600"" height = ""600"" style=""position:fixed;top:50%; left:50%; transform: translate(-50%, -50%); border:5px solid black"">","","","","","","","",""
"","181.87500000203727","sequential-stimulus-presentation-old","111","433891","0.0-27.0-1.1","SS1619205955626","trial","","40","500","681.8750000020373","images/stimuli/spore_stims/simple_04_A_b.gif","images/stimuli/spore_stims/simple_09_A_a.gif","forced_long","","9","simple_dissimilar","images/stimuli/spore_stims/simple_09_A_a.gif","","","","",""
"","null","html-keyboard-response","112","434731","0.0-27.0-0.2","SS1619205955626","","","null","","","","","","<p><img src= images/blank.png width =""600"" height = ""600"" style=""position:fixed;top:50%; left:50%; transform: translate(-50%, -50%); border:5px solid black"">","","","","","","","",""
"","149.5950000025914","sequential-stimulus-presentation-old","113","435388","0.0-27.0-1.2","SS1619205955626","trial","","40","500","649.5950000025914","images/stimuli/spore_stims/simple_04_A_b.gif","images/stimuli/spore_stims/simple_09_A_a.gif","forced_long","","9","simple_dissimilar","images/stimuli/spore_stims/simple_04_A_b.gif","","","","",""
"","null","html-keyboard-response","114","436651","0.0-27.0-0.3","SS1619205955626","","","null","","","","","","<p><img src= images/blank.png width =""600"" height = ""600"" style=""position:fixed;top:50%; left:50%; transform: translate(-50%, -50%); border:5px solid black"">","","","","","","","",""
"","1736.445000002277","sequential-stimulus-presentation-old","115","438902","0.0-27.0-1.3","SS1619205955626","trial","","40","500","2236.445000002277","images/stimuli/spore_stims/simple_04_A_b.gif","images/stimuli/spore_stims/simple_09_A_a.gif","forced_long","","9","simple_dissimilar","images/stimuli/spore_stims/simple_09_A_a.gif","","","","",""
"","null","html-keyboard-response","116","439745","0.0-27.0-0.4","SS1619205955626","","","null","","","","","","<p><img src= images/blank.png width =""600"" height = ""600"" style=""position:fixed;top:50%; left:50%; transform: translate(-50%, -50%); border:5px solid black"">","","","","","","","",""
"","1590.8300000010058","sequential-stimulus-presentation-old","117","441846","0.0-27.0-1.4","SS1619205955626","trial","","40","500","2090.830000001006","images/stimuli/spore_stims/simple_04_A_b.gif","images/stimuli/spore_stims/simple_09_A_a.gif","forced_long","","9","simple_dissimilar","images/stimuli/spore_stims/simple_09_A_a.gif","","","","",""
"","2345.8600000012666","survey-multi-choice","118","444199","0.0-28.0","SS1619205955626","math_question","","","","","","","","","","","","{""Q0"":""4""}","[0]","4","",""
"","null","html-keyboard-response","119","445195","0.0-29.0-0.0","SS1619205955626","","","null","","","","","","<p><img src= images/blank.png width =""600"" height = ""600"" style=""position:fixed;top:50%; left:50%; transform: translate(-50%, -50%); border:5px solid black"">","","","","","","","",""
"","4696.885000004841","sequential-stimulus-presentation-old","120","450000","0.0-29.0-1.0","SS1619205955626","trial","","40","500","5196.885000004841","images/stimuli/spore_stims/complex_09_A_b.gif","images/stimuli/spore_stims/complex_03_A_a.gif","forced_short","","10","complex_dissimilar","images/stimuli/spore_stims/complex_03_A_a.gif","","","","",""
"","null","html-keyboard-response","121","451064","0.0-29.0-0.1","SS1619205955626","","","null","","","","","","<p><img src= images/blank.png width =""600"" height = ""600"" style=""position:fixed;top:50%; left:50%; transform: translate(-50%, -50%); border:5px solid black"">","","","","","","","",""
"","7841.5100000056555","sequential-stimulus-presentation-old","122","459419","0.0-29.0-1.1","SS1619205955626","trial","","40","500","8341.510000005655","images/stimuli/spore_stims/complex_09_A_b.gif","images/stimuli/spore_stims/complex_03_A_a.gif","forced_short","","10","complex_dissimilar","images/stimuli/spore_stims/complex_03_A_a.gif","","","","",""
"","null","html-keyboard-response","123","460641","0.0-29.0-0.2","SS1619205955626","","","null","","","","","","<p><img src= images/blank.png width =""600"" height = ""600"" style=""position:fixed;top:50%; left:50%; transform: translate(-50%, -50%); border:5px solid black"">","","","","","","","",""
"","825.9699999980512","sequential-stimulus-presentation-old","124","461980","0.0-29.0-1.2","SS1619205955626","trial","","40","500","1325.9699999980512","images/stimuli/spore_stims/complex_09_A_b.gif","images/stimuli/spore_stims/complex_03_A_a.gif","forced_short","","10","complex_dissimilar","images/stimuli/spore_stims/complex_09_A_b.gif","","","","",""
"","null","html-keyboard-response","125","463146","0.0-29.0-0.3","SS1619205955626","","","null","","","","","","<p><img src= images/blank.png width =""600"" height = ""600"" style=""position:fixed;top:50%; left:50%; transform: translate(-50%, -50%); border:5px solid black"">","","","","","","","",""
"","1793.1600000010803","sequential-stimulus-presentation-old","126","465448","0.0-29.0-1.3","SS1619205955626","trial","","40","500","2293.1600000010803","images/stimuli/spore_stims/complex_09_A_b.gif","images/stimuli/spore_stims/complex_03_A_a.gif","forced_short","","10","complex_dissimilar","images/stimuli/spore_stims/complex_03_A_a.gif","","","","",""
"","null","html-keyboard-response","127","466306","0.0-29.0-0.4","SS1619205955626","","","null","","","","","","<p><img src= images/blank.png width =""600"" height = ""600"" style=""position:fixed;top:50%; left:50%; transform: translate(-50%, -50%); border:5px solid black"">","","","","","","","",""
"","750.8649999945192","sequential-stimulus-presentation-old","128","467565","0.0-29.0-1.4","SS1619205955626","trial","","40","500","1250.8649999945192","images/stimuli/spore_stims/complex_09_A_b.gif","images/stimuli/spore_stims/complex_03_A_a.gif","forced_short","","10","complex_dissimilar","images/stimuli/spore_stims/complex_03_A_a.gif","","","","",""
"","null","html-keyboard-response","129","468736","0.0-29.0-0.5","SS1619205955626","","","null","","","","","","<p><img src= images/blank.png width =""600"" height = ""600"" style=""position:fixed;top:50%; left:50%; transform: translate(-50%, -50%); border:5px solid black"">","","","","","","","",""
"","6909.970000000612","sequential-stimulus-presentation-old","130","476155","0.0-29.0-1.5","SS1619205955626","trial","","40","500","7409.970000000612","images/stimuli/spore_stims/complex_09_A_b.gif","images/stimuli/spore_stims/complex_03_A_a.gif","forced_short","","10","complex_dissimilar","images/stimuli/spore_stims/complex_03_A_a.gif","","","","",""
"","2942.330000005313","survey-multi-choice","131","479103","0.0-30.0","SS1619205955626","math_question","","","","","","","","","","","","{""Q0"":""15""}","[0]","15","",""
"","null","html-keyboard-response","132","480270","0.0-31.0-0.0","SS1619205955626","","","null","","","","","","<p><img src= images/blank.png width =""600"" height = ""600"" style=""position:fixed;top:50%; left:50%; transform: translate(-50%, -50%); border:5px solid black"">","","","","","","","",""
"","3426.4750000002095","sequential-stimulus-presentation-old","133","483804","0.0-31.0-1.0","SS1619205955626","trial","","40","500","3926.4750000002095","images/stimuli/spore_stims/complex_05_A_a.gif","images/stimuli/spore_stims/complex_20_A_b.gif","forced_short","","11","complex_dissimilar","images/stimuli/spore_stims/complex_20_A_b.gif","","","","",""
"","null","html-keyboard-response","134","484822","0.0-31.0-0.1","SS1619205955626","","","null","","","","","","<p><img src= images/blank.png width =""600"" height = ""600"" style=""position:fixed;top:50%; left:50%; transform: translate(-50%, -50%); border:5px solid black"">","","","","","","","",""
"","4637.924999995448","sequential-stimulus-presentation-old","135","489969","0.0-31.0-1.1","SS1619205955626","trial","","40","500","5137.924999995448","images/stimuli/spore_stims/complex_05_A_a.gif","images/stimuli/spore_stims/complex_20_A_b.gif","forced_short","","11","complex_dissimilar","images/stimuli/spore_stims/complex_20_A_b.gif","","","","",""
"","null","html-keyboard-response","136","490986","0.0-31.0-0.2","SS1619205955626","","","null","","","","","","<p><img src= images/blank.png width =""600"" height = ""600"" style=""position:fixed;top:50%; left:50%; transform: translate(-50%, -50%); border:5px solid black"">","","","","","","","",""
"","8492.605000006792","sequential-stimulus-presentation-old","137","499988","0.0-31.0-1.2","SS1619205955626","trial","","40","500","8992.605000006792","images/stimuli/spore_stims/complex_05_A_a.gif","images/stimuli/spore_stims/complex_20_A_b.gif","forced_short","","11","complex_dissimilar","images/stimuli/spore_stims/complex_20_A_b.gif","","","","",""
"","null","html-keyboard-response","138","500974","0.0-31.0-0.3","SS1619205955626","","","null","","","","","","<p><img src= images/blank.png width =""600"" height = ""600"" style=""position:fixed;top:50%; left:50%; transform: translate(-50%, -50%); border:5px solid black"">","","","","","","","",""
"","3027.630000004079","sequential-stimulus-presentation-old","139","504514","0.0-31.0-1.3","SS1619205955626","trial","","40","500","3527.630000004079","images/stimuli/spore_stims/complex_05_A_a.gif","images/stimuli/spore_stims/complex_20_A_b.gif","forced_short","","11","complex_dissimilar","images/stimuli/spore_stims/complex_20_A_b.gif","","","","",""
"","null","html-keyboard-response","140","505549","0.0-31.0-0.4","SS1619205955626","","","null","","","","","","<p><img src= images/blank.png width =""600"" height = ""600"" style=""position:fixed;top:50%; left:50%; transform: translate(-50%, -50%); border:5px solid black"">","","","","","","","",""
"","503.3899999980349","sequential-stimulus-presentation-old","141","506565","0.0-31.0-1.4","SS1619205955626","trial","","40","500","1003.3899999980349","images/stimuli/spore_stims/complex_05_A_a.gif","images/stimuli/spore_stims/complex_20_A_b.gif","forced_short","","11","complex_dissimilar","images/stimuli/spore_stims/complex_05_A_a.gif","","","","",""
"","null","html-keyboard-response","142","507853","0.0-31.0-0.5","SS1619205955626","","","null","","","","","","<p><img src= images/blank.png width =""600"" height = ""600"" style=""position:fixed;top:50%; left:50%; transform: translate(-50%, -50%); border:5px solid black"">","","","","","","","",""
"","3422.890000001644","sequential-stimulus-presentation-old","143","511790","0.0-31.0-1.5","SS1619205955626","trial","","40","500","3922.890000001644","images/stimuli/spore_stims/complex_05_A_a.gif","images/stimuli/spore_stims/complex_20_A_b.gif","forced_short","","11","complex_dissimilar","images/stimuli/spore_stims/complex_05_A_a.gif","","","","",""
"[{""page_index"":0,""viewing_time"":10241.0200000013}]","10242.505000001984","instructions","144","522039","0.0-32.0","SS1619205955626","instructions","","","","","","","","","","","","","","","",""
"","15377.399999997579","survey-likert","145","537424","0.0-33.0","SS1619205955626","similarity_question","","","","","","","","","","","","{""Q0"":2}","[0]","","images/stimuli/spore_stims/complex_18_A_a.gif","images/stimuli/spore_stims/complex_15_A_b.gif"
"","5406.709999995655","survey-likert","146","542840","0.0-34.0","SS1619205955626","similarity_question","","","","","","","","","","","","{""Q0"":4}","[0]","","images/stimuli/spore_stims/simple_12_A_b.gif","images/stimuli/spore_stims/simple_10_A_a.gif"
"","8863.555000003544","survey-likert","147","551711","0.0-35.0","SS1619205955626","similarity_question","","","","","","","","","","","","{""Q0"":5}","[0]","","images/stimuli/spore_stims/complex_12_A_b.gif","images/stimuli/spore_stims/complex_17_A_a.gif"
"","3062.2099999964703","survey-likert","148","554782","0.0-36.0","SS1619205955626","similarity_question","","","","","","","","","","","","{""Q0"":2}","[0]","","images/stimuli/spore_stims/complex_04_A_a.gif","images/stimuli/spore_stims/complex_13_A_b.gif"
"","4847.959999999031","survey-likert","149","559639","0.0-37.0","SS1619205955626","similarity_question","","","","","","","","","","","","{""Q0"":5}","[0]","","images/stimuli/spore_stims/simple_10_A_b.gif","images/stimuli/spore_stims/simple_03_A_a.gif"
"","2982.114999998943","survey-likert","150","562630","0.0-38.0","SS1619205955626","similarity_question","","","","","","","","","","","","{""Q0"":4}","[0]","","images/stimuli/spore_stims/simple_09_A_b.gif","images/stimuli/spore_stims/simple_11_A_a.gif"
"","7256.60500000231","survey-likert","151","569894","0.0-39.0","SS1619205955626","similarity_question","","","","","","","","","","","","{""Q0"":1}","[0]","","images/stimuli/spore_stims/simple_01_A_a.gif","images/stimuli/spore_stims/simple_18_A_b.gif"
"","4776.980000002426","survey-likert","152","574678","0.0-40.0","SS1619205955626","similarity_question","","","","","","","","","","","","{""Q0"":4}","[0]","","images/stimuli/spore_stims/complex_01_A_a.gif","images/stimuli/spore_stims/complex_19_A_b.gif"
"","5030.474999999511","survey-likert","153","579718","0.0-41.0","SS1619205955626","similarity_question","","","","","","","","","","","","{""Q0"":1}","[0]","","images/stimuli/spore_stims/complex_05_A_a.gif","images/stimuli/spore_stims/complex_20_A_b.gif"
"","2969.5549999959767","survey-likert","154","582695","0.0-42.0","SS1619205955626","similarity_question","","","","","","","","","","","","{""Q0"":4}","[0]","","images/stimuli/spore_stims/simple_09_A_a.gif","images/stimuli/spore_stims/simple_04_A_b.gif"
"","5510.334999999031","survey-likert","155","588214","0.0-43.0","SS1619205955626","similarity_question","","","","","","","","","","","","{""Q0"":5}","[0]","","images/stimuli/spore_stims/simple_19_A_b.gif","images/stimuli/spore_stims/simple_08_A_a.gif"
"","6614.744999998948","survey-likert","156","594838","0.0-44.0","SS1619205955626","similarity_question","","","","","","","","","","","","{""Q0"":1}","[0]","","images/stimuli/spore_stims/complex_09_A_b.gif","images/stimuli/spore_stims/complex_03_A_a.gif"
"[{""page_index"":0,""viewing_time"":3945.429999999702}]","3946.3599999945145","instructions","157","598789","0.0-45.0","SS1619205955626","instructions","","","","","","","","","","","","","","","",""
"","4312.96499999729","survey-likert","158","603110","0.0-46.0","SS1619205955626","","","","","","","","","images/stimuli/spore_stims/simple_10_A_a.gif","","","","{""Q0"":1}","[0]","","",""
"","5655.670000000042","survey-likert","159","608774","0.0-47.0","SS1619205955626","","","","","","","","","images/stimuli/spore_stims/complex_12_A_b.gif","","","","{""Q0"":4}","[0]","","",""
"","5311.6050000025425","survey-likert","160","614094","0.0-48.0","SS1619205955626","","","","","","","","","images/stimuli/spore_stims/simple_03_A_a.gif","","","","{""Q0"":1}","[0]","","",""
"","3648.9999999975553","survey-likert","161","617751","0.0-49.0","SS1619205955626","","","","","","","","","images/stimuli/spore_stims/simple_09_A_a.gif","","","","{""Q0"":0}","[0]","","",""
"","4318.989999999758","survey-likert","162","622078","0.0-50.0","SS1619205955626","","","","","","","","","images/stimuli/spore_stims/complex_04_A_a.gif","","","","{""Q0"":4}","[0]","","",""
"","6047.969999999506","survey-likert","163","628134","0.0-51.0","SS1619205955626","","","","","","","","","images/stimuli/spore_stims/simple_11_A_a.gif","","","","{""Q0"":2}","[0]","","",""
"","4288.340000006487","survey-likert","164","632430","0.0-52.0","SS1619205955626","","","","","","","","","images/stimuli/spore_stims/complex_03_A_a.gif","","","","{""Q0"":2}","[0]","","",""
"","3183.8950000019977","survey-likert","165","635622","0.0-53.0","SS1619205955626","","","","","","","","","images/stimuli/spore_stims/simple_01_A_a.gif","","","","{""Q0"":1}","[0]","","",""
"","5727.115000001504","survey-likert","166","641358","0.0-54.0","SS1619205955626","","","","","","","","","images/stimuli/spore_stims/simple_19_A_b.gif","","","","{""Q0"":4}","[0]","","",""
"","3840.664999996079","survey-likert","167","645207","0.0-55.0","SS1619205955626","","","","","","","","","images/stimuli/spore_stims/complex_05_A_a.gif","","","","{""Q0"":2}","[0]","","",""
"","2863.1200000017416","survey-likert","168","648078","0.0-56.0","SS1619205955626","","","","","","","","","images/stimuli/spore_stims/complex_19_A_b.gif","","","","{""Q0"":2}","[0]","","",""
"","3904.695000004722","survey-likert","169","651991","0.0-57.0","SS1619205955626","","","","","","","","","images/stimuli/spore_stims/complex_18_A_a.gif","","","","{""Q0"":4}","[0]","","",""
"[{""page_index"":0,""viewing_time"":2039.8600000044098}]","2040.56000000122","instructions","170","654037","0.0-58.0","SS1619205955626","instructions","","","","","","","","","","","","","","","",""
"","3405.4949999991804","demog-age","171","657455","0.0-59.0","SS1619205955626","","","","","","","","","","","","","{""age"":""20""}","","","",""
"","6979.415000001667","demog-ethnic-US","172","664447","0.0-60.0","SS1619205955626","","","","","","","","","","","","","{""ethnicity"":[""White""]}","[0]","","",""
"","88665.18500000518","demog-gender-and-education","173","753121","0.0-61.0","SS1619205955626","","","","","","","","","","","","","{""gender"":""Male"",""education"":""High school diploma""}","[0,1]","","",""
"","45921.52499999781","survey-text","174","799057","0.0-62.0","SS1619205955626","feedback","","","","","","","","","","","","{""Q0"":""I didn't have any problems. The research was simple and I will gladly participate in the next ones :)""}","","","",""
"[{""page_index"":0,""viewing_time"":1782.064999999362}]","1782.9200000051642","instructions","175","800847","0.0-63.0","SS1619205955626","instructions","","","","","","","","","","","","","","","",""
