"view_history","rt","trial_type","trial_index","time_elapsed","internal_node_id","subject","stimulus_type","trial_stimulus","key_press","minimum_viewing_duration","trial_looking_time","block_deviant","block_background","exposure_type","stimulus","block_number","block_type","stimulus_displayed","responses","question_order","math_correct_answer","stimulus_left","stimulus_right"
"[{""page_index"":0,""viewing_time"":1818}]","1818","instructions","0","1820","0.0-0.0","SS1619205748764","","","","","","","","","","","","","","","","",""
"[{""page_index"":0,""viewing_time"":6726},{""page_index"":1,""viewing_time"":6224}]","12950","instructions","1","16778","0.0-1.0","SS1619205748764","instructions","","","","","","","","","","","","","","","",""
"","6290","sequential-stimulus-presentation-old","2","23573","0.0-2.0","SS1619205748764","","","40","500","6790","null","null","self_paced","","","","","","","","",""
"","2693","sequential-stimulus-presentation-old","3","26771","0.0-3.0","SS1619205748764","","","40","500","3193","null","null","self_paced","","","","","","","","",""
"[{""page_index"":0,""viewing_time"":13209}]","13209","instructions","4","39980","0.0-4.0","SS1619205748764","instructions","","","","","","","","","","","","","","","",""
"","554","sequential-stimulus-presentation-old","5","50539","0.0-5.0","SS1619205748764","","","40","500","1054","null","null","forced_long","","","","","","","","",""
"","3309","sequential-stimulus-presentation-old","6","53950","0.0-6.0","SS1619205748764","","","40","500","3809","null","null","forced_long","","","","","","","","",""
"[{""page_index"":0,""viewing_time"":2547}]","2548","instructions","7","56499","0.0-7.0","SS1619205748764","instructions","","","","","","","","","","","","","","","",""
"[{""page_index"":0,""viewing_time"":5925},{""page_index"":1,""viewing_time"":4679},{""page_index"":2,""viewing_time"":4711},{""page_index"":3,""viewing_time"":1456},{""page_index"":4,""viewing_time"":1245}]","18017","instructions","8","74519","0.0-8.0","SS1619205748764","instructions","","","","","","","","","","","","","","","",""
"","null","html-keyboard-response","9","75571","0.0-9.0-0.0","SS1619205748764","","","null","","","","","","<p><img src= images/blank.png width =""600"" height = ""600"" style=""position:fixed;top:50%; left:50%; transform: translate(-50%, -50%); border:5px solid black"">","","","","","","","",""
"","674","sequential-stimulus-presentation-old","10","86255","0.0-9.0-1.0","SS1619205748764","trial","","40","500","1174","images/stimuli/spore_stims/complex_17_A_b.gif","images/stimuli/spore_stims/complex_03_A_a.gif","forced_long","","0","complex_dissimilar","images/stimuli/spore_stims/complex_03_A_a.gif","","","","",""
"","null","html-keyboard-response","11","87519","0.0-9.0-0.1","SS1619205748764","","","null","","","","","","<p><img src= images/blank.png width =""600"" height = ""600"" style=""position:fixed;top:50%; left:50%; transform: translate(-50%, -50%); border:5px solid black"">","","","","","","","",""
"","32632","sequential-stimulus-presentation-old","12","120657","0.0-9.0-1.1","SS1619205748764","trial","","40","500","33132","images/stimuli/spore_stims/complex_17_A_b.gif","images/stimuli/spore_stims/complex_03_A_a.gif","forced_long","","0","complex_dissimilar","images/stimuli/spore_stims/complex_03_A_a.gif","","","","",""
"","null","html-keyboard-response","13","121794","0.0-9.0-0.2","SS1619205748764","","","null","","","","","","<p><img src= images/blank.png width =""600"" height = ""600"" style=""position:fixed;top:50%; left:50%; transform: translate(-50%, -50%); border:5px solid black"">","","","","","","","",""
"","31178","sequential-stimulus-presentation-old","14","153479","0.0-9.0-1.2","SS1619205748764","trial","","40","500","31678","images/stimuli/spore_stims/complex_17_A_b.gif","images/stimuli/spore_stims/complex_03_A_a.gif","forced_long","","0","complex_dissimilar","images/stimuli/spore_stims/complex_03_A_a.gif","","","","",""
"","null","html-keyboard-response","15","154429","0.0-9.0-0.3","SS1619205748764","","","null","","","","","","<p><img src= images/blank.png width =""600"" height = ""600"" style=""position:fixed;top:50%; left:50%; transform: translate(-50%, -50%); border:5px solid black"">","","","","","","","",""
"","54505","sequential-stimulus-presentation-old","16","209440","0.0-9.0-1.3","SS1619205748764","trial","","40","500","55005","images/stimuli/spore_stims/complex_17_A_b.gif","images/stimuli/spore_stims/complex_03_A_a.gif","forced_long","","0","complex_dissimilar","images/stimuli/spore_stims/complex_03_A_a.gif","","","","",""
"","3294","survey-multi-choice","17","212738","0.0-10.0","SS1619205748764","math_question","","","","","","","","","","","","{""Q0"":""15""}","[0]","15","",""
"","null","html-keyboard-response","18","213604","0.0-11.0-0.0","SS1619205748764","","","null","","","","","","<p><img src= images/blank.png width =""600"" height = ""600"" style=""position:fixed;top:50%; left:50%; transform: translate(-50%, -50%); border:5px solid black"">","","","","","","","",""
"","926","sequential-stimulus-presentation-old","19","224533","0.0-11.0-1.0","SS1619205748764","trial","","40","500","1426","images/stimuli/spore_stims/simple_01_A_b.gif","images/stimuli/spore_stims/simple_06_A_a.gif","forced_long","","1","simple_dissimilar","images/stimuli/spore_stims/simple_06_A_a.gif","","","","",""
"","null","html-keyboard-response","20","225390","0.0-11.0-0.1","SS1619205748764","","","null","","","","","","<p><img src= images/blank.png width =""600"" height = ""600"" style=""position:fixed;top:50%; left:50%; transform: translate(-50%, -50%); border:5px solid black"">","","","","","","","",""
"","67890","sequential-stimulus-presentation-old","21","293786","0.0-11.0-1.1","SS1619205748764","trial","","40","500","68390","images/stimuli/spore_stims/simple_01_A_b.gif","images/stimuli/spore_stims/simple_06_A_a.gif","forced_long","","1","simple_dissimilar","images/stimuli/spore_stims/simple_06_A_a.gif","","","","",""
"","null","html-keyboard-response","22","294896","0.0-11.0-0.2","SS1619205748764","","","null","","","","","","<p><img src= images/blank.png width =""600"" height = ""600"" style=""position:fixed;top:50%; left:50%; transform: translate(-50%, -50%); border:5px solid black"">","","","","","","","",""
"","26250","sequential-stimulus-presentation-old","23","321649","0.0-11.0-1.2","SS1619205748764","trial","","40","500","26750","images/stimuli/spore_stims/simple_01_A_b.gif","images/stimuli/spore_stims/simple_06_A_a.gif","forced_long","","1","simple_dissimilar","images/stimuli/spore_stims/simple_06_A_a.gif","","","","",""
"","null","html-keyboard-response","24","322842","0.0-11.0-0.3","SS1619205748764","","","null","","","","","","<p><img src= images/blank.png width =""600"" height = ""600"" style=""position:fixed;top:50%; left:50%; transform: translate(-50%, -50%); border:5px solid black"">","","","","","","","",""
"","27188","sequential-stimulus-presentation-old","25","350536","0.0-11.0-1.3","SS1619205748764","trial","","40","500","27688","images/stimuli/spore_stims/simple_01_A_b.gif","images/stimuli/spore_stims/simple_06_A_a.gif","forced_long","","1","simple_dissimilar","images/stimuli/spore_stims/simple_01_A_b.gif","","","","",""
"","null","html-keyboard-response","26","351714","0.0-11.0-0.4","SS1619205748764","","","null","","","","","","<p><img src= images/blank.png width =""600"" height = ""600"" style=""position:fixed;top:50%; left:50%; transform: translate(-50%, -50%); border:5px solid black"">","","","","","","","",""
"","12515","sequential-stimulus-presentation-old","27","364736","0.0-11.0-1.4","SS1619205748764","trial","","40","500","13015","images/stimuli/spore_stims/simple_01_A_b.gif","images/stimuli/spore_stims/simple_06_A_a.gif","forced_long","","1","simple_dissimilar","images/stimuli/spore_stims/simple_06_A_a.gif","","","","",""
"","2413","survey-multi-choice","28","367148","0.0-12.0","SS1619205748764","math_question","","","","","","","","","","","","{""Q0"":""14""}","[0]","14","",""
"","null","html-keyboard-response","29","368263","0.0-13.0-0.0","SS1619205748764","","","null","","","","","","<p><img src= images/blank.png width =""600"" height = ""600"" style=""position:fixed;top:50%; left:50%; transform: translate(-50%, -50%); border:5px solid black"">","","","","","","","",""
"","12092","sequential-stimulus-presentation-old","30","380859","0.0-13.0-1.0","SS1619205748764","trial","","40","500","12592","images/stimuli/spore_stims/complex_17_A_a.gif","images/stimuli/spore_stims/complex_10_A_b.gif","self_paced","","2","complex_dissimilar","images/stimuli/spore_stims/complex_10_A_b.gif","","","","",""
"","null","html-keyboard-response","31","382069","0.0-13.0-0.1","SS1619205748764","","","null","","","","","","<p><img src= images/blank.png width =""600"" height = ""600"" style=""position:fixed;top:50%; left:50%; transform: translate(-50%, -50%); border:5px solid black"">","","","","","","","",""
"","8794","sequential-stimulus-presentation-old","32","391368","0.0-13.0-1.1","SS1619205748764","trial","","40","500","9294","images/stimuli/spore_stims/complex_17_A_a.gif","images/stimuli/spore_stims/complex_10_A_b.gif","self_paced","","2","complex_dissimilar","images/stimuli/spore_stims/complex_10_A_b.gif","","","","",""
"","null","html-keyboard-response","33","392562","0.0-13.0-0.2","SS1619205748764","","","null","","","","","","<p><img src= images/blank.png width =""600"" height = ""600"" style=""position:fixed;top:50%; left:50%; transform: translate(-50%, -50%); border:5px solid black"">","","","","","","","",""
"","6412","sequential-stimulus-presentation-old","34","399477","0.0-13.0-1.2","SS1619205748764","trial","","40","500","6912","images/stimuli/spore_stims/complex_17_A_a.gif","images/stimuli/spore_stims/complex_10_A_b.gif","self_paced","","2","complex_dissimilar","images/stimuli/spore_stims/complex_10_A_b.gif","","","","",""
"","null","html-keyboard-response","35","400348","0.0-13.0-0.3","SS1619205748764","","","null","","","","","","<p><img src= images/blank.png width =""600"" height = ""600"" style=""position:fixed;top:50%; left:50%; transform: translate(-50%, -50%); border:5px solid black"">","","","","","","","",""
"","4560","sequential-stimulus-presentation-old","36","405412","0.0-13.0-1.3","SS1619205748764","trial","","40","500","5060","images/stimuli/spore_stims/complex_17_A_a.gif","images/stimuli/spore_stims/complex_10_A_b.gif","self_paced","","2","complex_dissimilar","images/stimuli/spore_stims/complex_10_A_b.gif","","","","",""
"","2397","survey-multi-choice","37","407811","0.0-14.0","SS1619205748764","math_question","","","","","","","","","","","","{""Q0"":""11""}","[0]","11","",""
"","null","html-keyboard-response","38","409061","0.0-15.0-0.0","SS1619205748764","","","null","","","","","","<p><img src= images/blank.png width =""600"" height = ""600"" style=""position:fixed;top:50%; left:50%; transform: translate(-50%, -50%); border:5px solid black"">","","","","","","","",""
"","1072","sequential-stimulus-presentation-old","39","410237","0.0-15.0-1.0","SS1619205748764","trial","","40","500","1572","images/stimuli/spore_stims/simple_04_A_b.gif","images/stimuli/spore_stims/simple_20_A_a.gif","forced_short","","3","simple_dissimilar","images/stimuli/spore_stims/simple_20_A_a.gif","","","","",""
"","null","html-keyboard-response","40","411069","0.0-15.0-0.1","SS1619205748764","","","null","","","","","","<p><img src= images/blank.png width =""600"" height = ""600"" style=""position:fixed;top:50%; left:50%; transform: translate(-50%, -50%); border:5px solid black"">","","","","","","","",""
"","5386","sequential-stimulus-presentation-old","41","416960","0.0-15.0-1.1","SS1619205748764","trial","","40","500","5886","images/stimuli/spore_stims/simple_04_A_b.gif","images/stimuli/spore_stims/simple_20_A_a.gif","forced_short","","3","simple_dissimilar","images/stimuli/spore_stims/simple_20_A_a.gif","","","","",""
"","null","html-keyboard-response","42","418096","0.0-15.0-0.2","SS1619205748764","","","null","","","","","","<p><img src= images/blank.png width =""600"" height = ""600"" style=""position:fixed;top:50%; left:50%; transform: translate(-50%, -50%); border:5px solid black"">","","","","","","","",""
"","5839","sequential-stimulus-presentation-old","43","424438","0.0-15.0-1.2","SS1619205748764","trial","","40","500","6339","images/stimuli/spore_stims/simple_04_A_b.gif","images/stimuli/spore_stims/simple_20_A_a.gif","forced_short","","3","simple_dissimilar","images/stimuli/spore_stims/simple_20_A_a.gif","","","","",""
"","null","html-keyboard-response","44","425303","0.0-15.0-0.3","SS1619205748764","","","null","","","","","","<p><img src= images/blank.png width =""600"" height = ""600"" style=""position:fixed;top:50%; left:50%; transform: translate(-50%, -50%); border:5px solid black"">","","","","","","","",""
"","3930","sequential-stimulus-presentation-old","45","429738","0.0-15.0-1.3","SS1619205748764","trial","","40","500","4430","images/stimuli/spore_stims/simple_04_A_b.gif","images/stimuli/spore_stims/simple_20_A_a.gif","forced_short","","3","simple_dissimilar","images/stimuli/spore_stims/simple_20_A_a.gif","","","","",""
"","null","html-keyboard-response","46","430872","0.0-15.0-0.4","SS1619205748764","","","null","","","","","","<p><img src= images/blank.png width =""600"" height = ""600"" style=""position:fixed;top:50%; left:50%; transform: translate(-50%, -50%); border:5px solid black"">","","","","","","","",""
"","4121","sequential-stimulus-presentation-old","47","435497","0.0-15.0-1.4","SS1619205748764","trial","","40","500","4621","images/stimuli/spore_stims/simple_04_A_b.gif","images/stimuli/spore_stims/simple_20_A_a.gif","forced_short","","3","simple_dissimilar","images/stimuli/spore_stims/simple_20_A_a.gif","","","","",""
"","null","html-keyboard-response","48","436575","0.0-15.0-0.5","SS1619205748764","","","null","","","","","","<p><img src= images/blank.png width =""600"" height = ""600"" style=""position:fixed;top:50%; left:50%; transform: translate(-50%, -50%); border:5px solid black"">","","","","","","","",""
"","2847","sequential-stimulus-presentation-old","49","439928","0.0-15.0-1.5","SS1619205748764","trial","","40","500","3347","images/stimuli/spore_stims/simple_04_A_b.gif","images/stimuli/spore_stims/simple_20_A_a.gif","forced_short","","3","simple_dissimilar","images/stimuli/spore_stims/simple_04_A_b.gif","","","","",""
"","2655","survey-multi-choice","50","442586","0.0-16.0","SS1619205748764","math_question","","","","","","","","","","","","{""Q0"":""9""}","[0]","9","",""
"","null","html-keyboard-response","51","443493","0.0-17.0-0.0","SS1619205748764","","","null","","","","","","<p><img src= images/blank.png width =""600"" height = ""600"" style=""position:fixed;top:50%; left:50%; transform: translate(-50%, -50%); border:5px solid black"">","","","","","","","",""
"","1193","sequential-stimulus-presentation-old","52","445192","0.0-17.0-1.0","SS1619205748764","trial","","40","500","1693","images/stimuli/spore_stims/simple_01_A_a.gif","images/stimuli/spore_stims/simple_15_A_b.gif","self_paced","","4","simple_dissimilar","images/stimuli/spore_stims/simple_15_A_b.gif","","","","",""
"","null","html-keyboard-response","53","446338","0.0-17.0-0.1","SS1619205748764","","","null","","","","","","<p><img src= images/blank.png width =""600"" height = ""600"" style=""position:fixed;top:50%; left:50%; transform: translate(-50%, -50%); border:5px solid black"">","","","","","","","",""
"","3735","sequential-stimulus-presentation-old","54","450576","0.0-17.0-1.1","SS1619205748764","trial","","40","500","4235","images/stimuli/spore_stims/simple_01_A_a.gif","images/stimuli/spore_stims/simple_15_A_b.gif","self_paced","","4","simple_dissimilar","images/stimuli/spore_stims/simple_15_A_b.gif","","","","",""
"","null","html-keyboard-response","55","451762","0.0-17.0-0.2","SS1619205748764","","","null","","","","","","<p><img src= images/blank.png width =""600"" height = ""600"" style=""position:fixed;top:50%; left:50%; transform: translate(-50%, -50%); border:5px solid black"">","","","","","","","",""
"","2780","sequential-stimulus-presentation-old","56","455046","0.0-17.0-1.2","SS1619205748764","trial","","40","500","3280","images/stimuli/spore_stims/simple_01_A_a.gif","images/stimuli/spore_stims/simple_15_A_b.gif","self_paced","","4","simple_dissimilar","images/stimuli/spore_stims/simple_15_A_b.gif","","","","",""
"","null","html-keyboard-response","57","455997","0.0-17.0-0.3","SS1619205748764","","","null","","","","","","<p><img src= images/blank.png width =""600"" height = ""600"" style=""position:fixed;top:50%; left:50%; transform: translate(-50%, -50%); border:5px solid black"">","","","","","","","",""
"","2921","sequential-stimulus-presentation-old","58","459425","0.0-17.0-1.3","SS1619205748764","trial","","40","500","3421","images/stimuli/spore_stims/simple_01_A_a.gif","images/stimuli/spore_stims/simple_15_A_b.gif","self_paced","","4","simple_dissimilar","images/stimuli/spore_stims/simple_15_A_b.gif","","","","",""
"","null","html-keyboard-response","59","460509","0.0-17.0-0.4","SS1619205748764","","","null","","","","","","<p><img src= images/blank.png width =""600"" height = ""600"" style=""position:fixed;top:50%; left:50%; transform: translate(-50%, -50%); border:5px solid black"">","","","","","","","",""
"","3761","sequential-stimulus-presentation-old","60","464777","0.0-17.0-1.4","SS1619205748764","trial","","40","500","4261","images/stimuli/spore_stims/simple_01_A_a.gif","images/stimuli/spore_stims/simple_15_A_b.gif","self_paced","","4","simple_dissimilar","images/stimuli/spore_stims/simple_15_A_b.gif","","","","",""
"","null","html-keyboard-response","61","465597","0.0-17.0-0.5","SS1619205748764","","","null","","","","","","<p><img src= images/blank.png width =""600"" height = ""600"" style=""position:fixed;top:50%; left:50%; transform: translate(-50%, -50%); border:5px solid black"">","","","","","","","",""
"","2887","sequential-stimulus-presentation-old","62","468990","0.0-17.0-1.5","SS1619205748764","trial","","40","500","3387","images/stimuli/spore_stims/simple_01_A_a.gif","images/stimuli/spore_stims/simple_15_A_b.gif","self_paced","","4","simple_dissimilar","images/stimuli/spore_stims/simple_01_A_a.gif","","","","",""
"","2616","survey-multi-choice","63","471609","0.0-18.0","SS1619205748764","math_question","","","","","","","","","","","","{""Q0"":""8""}","[0]","8","",""
"","null","html-keyboard-response","64","472643","0.0-19.0-0.0","SS1619205748764","","","null","","","","","","<p><img src= images/blank.png width =""600"" height = ""600"" style=""position:fixed;top:50%; left:50%; transform: translate(-50%, -50%); border:5px solid black"">","","","","","","","",""
"","2396","sequential-stimulus-presentation-old","65","485045","0.0-19.0-1.0","SS1619205748764","trial","","40","500","2896","images/stimuli/spore_stims/complex_16_A_a.gif","images/stimuli/spore_stims/complex_19_A_b.gif","forced_long","","5","complex_dissimilar","images/stimuli/spore_stims/complex_19_A_b.gif","","","","",""
"","null","html-keyboard-response","66","486185","0.0-19.0-0.1","SS1619205748764","","","null","","","","","","<p><img src= images/blank.png width =""600"" height = ""600"" style=""position:fixed;top:50%; left:50%; transform: translate(-50%, -50%); border:5px solid black"">","","","","","","","",""
"","2789","sequential-stimulus-presentation-old","67","489478","0.0-19.0-1.1","SS1619205748764","trial","","40","500","3289","images/stimuli/spore_stims/complex_16_A_a.gif","images/stimuli/spore_stims/complex_19_A_b.gif","forced_long","","5","complex_dissimilar","images/stimuli/spore_stims/complex_19_A_b.gif","","","","",""
"","null","html-keyboard-response","68","490773","0.0-19.0-0.2","SS1619205748764","","","null","","","","","","<p><img src= images/blank.png width =""600"" height = ""600"" style=""position:fixed;top:50%; left:50%; transform: translate(-50%, -50%); border:5px solid black"">","","","","","","","",""
"","3898","sequential-stimulus-presentation-old","69","495178","0.0-19.0-1.2","SS1619205748764","trial","","40","500","4398","images/stimuli/spore_stims/complex_16_A_a.gif","images/stimuli/spore_stims/complex_19_A_b.gif","forced_long","","5","complex_dissimilar","images/stimuli/spore_stims/complex_19_A_b.gif","","","","",""
"","null","html-keyboard-response","70","496358","0.0-19.0-0.3","SS1619205748764","","","null","","","","","","<p><img src= images/blank.png width =""600"" height = ""600"" style=""position:fixed;top:50%; left:50%; transform: translate(-50%, -50%); border:5px solid black"">","","","","","","","",""
"","2794","sequential-stimulus-presentation-old","71","499657","0.0-19.0-1.3","SS1619205748764","trial","","40","500","3294","images/stimuli/spore_stims/complex_16_A_a.gif","images/stimuli/spore_stims/complex_19_A_b.gif","forced_long","","5","complex_dissimilar","images/stimuli/spore_stims/complex_19_A_b.gif","","","","",""
"","null","html-keyboard-response","72","500702","0.0-19.0-0.4","SS1619205748764","","","null","","","","","","<p><img src= images/blank.png width =""600"" height = ""600"" style=""position:fixed;top:50%; left:50%; transform: translate(-50%, -50%); border:5px solid black"">","","","","","","","",""
"","3132","sequential-stimulus-presentation-old","73","504340","0.0-19.0-1.4","SS1619205748764","trial","","40","500","3632","images/stimuli/spore_stims/complex_16_A_a.gif","images/stimuli/spore_stims/complex_19_A_b.gif","forced_long","","5","complex_dissimilar","images/stimuli/spore_stims/complex_19_A_b.gif","","","","",""
"","2338","survey-multi-choice","74","506682","0.0-20.0","SS1619205748764","math_question","","","","","","","","","","","","{""Q0"":""11""}","[0]","11","",""
"","null","html-keyboard-response","75","507696","0.0-21.0-0.0","SS1619205748764","","","null","","","","","","<p><img src= images/blank.png width =""600"" height = ""600"" style=""position:fixed;top:50%; left:50%; transform: translate(-50%, -50%); border:5px solid black"">","","","","","","","",""
"","1012","sequential-stimulus-presentation-old","76","508812","0.0-21.0-1.0","SS1619205748764","trial","","40","500","1512","images/stimuli/spore_stims/complex_11_A_b.gif","images/stimuli/spore_stims/complex_15_A_a.gif","forced_short","","6","complex_dissimilar","images/stimuli/spore_stims/complex_15_A_a.gif","","","","",""
"","null","html-keyboard-response","77","509914","0.0-21.0-0.1","SS1619205748764","","","null","","","","","","<p><img src= images/blank.png width =""600"" height = ""600"" style=""position:fixed;top:50%; left:50%; transform: translate(-50%, -50%); border:5px solid black"">","","","","","","","",""
"","3436","sequential-stimulus-presentation-old","78","513852","0.0-21.0-1.1","SS1619205748764","trial","","40","500","3936","images/stimuli/spore_stims/complex_11_A_b.gif","images/stimuli/spore_stims/complex_15_A_a.gif","forced_short","","6","complex_dissimilar","images/stimuli/spore_stims/complex_15_A_a.gif","","","","",""
"","null","html-keyboard-response","79","514909","0.0-21.0-0.2","SS1619205748764","","","null","","","","","","<p><img src= images/blank.png width =""600"" height = ""600"" style=""position:fixed;top:50%; left:50%; transform: translate(-50%, -50%); border:5px solid black"">","","","","","","","",""
"","2807","sequential-stimulus-presentation-old","80","518223","0.0-21.0-1.2","SS1619205748764","trial","","40","500","3307","images/stimuli/spore_stims/complex_11_A_b.gif","images/stimuli/spore_stims/complex_15_A_a.gif","forced_short","","6","complex_dissimilar","images/stimuli/spore_stims/complex_15_A_a.gif","","","","",""
"","null","html-keyboard-response","81","519396","0.0-21.0-0.3","SS1619205748764","","","null","","","","","","<p><img src= images/blank.png width =""600"" height = ""600"" style=""position:fixed;top:50%; left:50%; transform: translate(-50%, -50%); border:5px solid black"">","","","","","","","",""
"","3118","sequential-stimulus-presentation-old","82","523019","0.0-21.0-1.3","SS1619205748764","trial","","40","500","3618","images/stimuli/spore_stims/complex_11_A_b.gif","images/stimuli/spore_stims/complex_15_A_a.gif","forced_short","","6","complex_dissimilar","images/stimuli/spore_stims/complex_15_A_a.gif","","","","",""
"","null","html-keyboard-response","83","524059","0.0-21.0-0.4","SS1619205748764","","","null","","","","","","<p><img src= images/blank.png width =""600"" height = ""600"" style=""position:fixed;top:50%; left:50%; transform: translate(-50%, -50%); border:5px solid black"">","","","","","","","",""
"","3750","sequential-stimulus-presentation-old","84","528312","0.0-21.0-1.4","SS1619205748764","trial","","40","500","4250","images/stimuli/spore_stims/complex_11_A_b.gif","images/stimuli/spore_stims/complex_15_A_a.gif","forced_short","","6","complex_dissimilar","images/stimuli/spore_stims/complex_15_A_a.gif","","","","",""
"","null","html-keyboard-response","85","529488","0.0-21.0-0.5","SS1619205748764","","","null","","","","","","<p><img src= images/blank.png width =""600"" height = ""600"" style=""position:fixed;top:50%; left:50%; transform: translate(-50%, -50%); border:5px solid black"">","","","","","","","",""
"","1762","sequential-stimulus-presentation-old","86","531755","0.0-21.0-1.5","SS1619205748764","trial","","40","500","2262","images/stimuli/spore_stims/complex_11_A_b.gif","images/stimuli/spore_stims/complex_15_A_a.gif","forced_short","","6","complex_dissimilar","images/stimuli/spore_stims/complex_11_A_b.gif","","","","",""
"","2763","survey-multi-choice","87","534520","0.0-22.0","SS1619205748764","math_question","","","","","","","","","","","","{""Q0"":""12""}","[0]","12","",""
"","null","html-keyboard-response","88","535506","0.0-23.0-0.0","SS1619205748764","","","null","","","","","","<p><img src= images/blank.png width =""600"" height = ""600"" style=""position:fixed;top:50%; left:50%; transform: translate(-50%, -50%); border:5px solid black"">","","","","","","","",""
"","1257","sequential-stimulus-presentation-old","89","537270","0.0-23.0-1.0","SS1619205748764","trial","","40","500","1757","images/stimuli/spore_stims/simple_04_A_a.gif","images/stimuli/spore_stims/simple_17_A_b.gif","self_paced","","7","simple_dissimilar","images/stimuli/spore_stims/simple_17_A_b.gif","","","","",""
"","null","html-keyboard-response","90","538355","0.0-23.0-0.1","SS1619205748764","","","null","","","","","","<p><img src= images/blank.png width =""600"" height = ""600"" style=""position:fixed;top:50%; left:50%; transform: translate(-50%, -50%); border:5px solid black"">","","","","","","","",""
"","862","sequential-stimulus-presentation-old","91","539721","0.0-23.0-1.1","SS1619205748764","trial","","40","500","1362","images/stimuli/spore_stims/simple_04_A_a.gif","images/stimuli/spore_stims/simple_17_A_b.gif","self_paced","","7","simple_dissimilar","images/stimuli/spore_stims/simple_17_A_b.gif","","","","",""
"","null","html-keyboard-response","92","540728","0.0-23.0-0.2","SS1619205748764","","","null","","","","","","<p><img src= images/blank.png width =""600"" height = ""600"" style=""position:fixed;top:50%; left:50%; transform: translate(-50%, -50%); border:5px solid black"">","","","","","","","",""
"","546","sequential-stimulus-presentation-old","93","541779","0.0-23.0-1.2","SS1619205748764","trial","","40","500","1046","images/stimuli/spore_stims/simple_04_A_a.gif","images/stimuli/spore_stims/simple_17_A_b.gif","self_paced","","7","simple_dissimilar","images/stimuli/spore_stims/simple_17_A_b.gif","","","","",""
"","null","html-keyboard-response","94","542847","0.0-23.0-0.3","SS1619205748764","","","null","","","","","","<p><img src= images/blank.png width =""600"" height = ""600"" style=""position:fixed;top:50%; left:50%; transform: translate(-50%, -50%); border:5px solid black"">","","","","","","","",""
"","751","sequential-stimulus-presentation-old","95","544103","0.0-23.0-1.3","SS1619205748764","trial","","40","500","1251","images/stimuli/spore_stims/simple_04_A_a.gif","images/stimuli/spore_stims/simple_17_A_b.gif","self_paced","","7","simple_dissimilar","images/stimuli/spore_stims/simple_17_A_b.gif","","","","",""
"","null","html-keyboard-response","96","545063","0.0-23.0-0.4","SS1619205748764","","","null","","","","","","<p><img src= images/blank.png width =""600"" height = ""600"" style=""position:fixed;top:50%; left:50%; transform: translate(-50%, -50%); border:5px solid black"">","","","","","","","",""
"","975","sequential-stimulus-presentation-old","97","546542","0.0-23.0-1.4","SS1619205748764","trial","","40","500","1475","images/stimuli/spore_stims/simple_04_A_a.gif","images/stimuli/spore_stims/simple_17_A_b.gif","self_paced","","7","simple_dissimilar","images/stimuli/spore_stims/simple_17_A_b.gif","","","","",""
"","null","html-keyboard-response","98","547816","0.0-23.0-0.5","SS1619205748764","","","null","","","","","","<p><img src= images/blank.png width =""600"" height = ""600"" style=""position:fixed;top:50%; left:50%; transform: translate(-50%, -50%); border:5px solid black"">","","","","","","","",""
"","1262","sequential-stimulus-presentation-old","99","549585","0.0-23.0-1.5","SS1619205748764","trial","","40","500","1762","images/stimuli/spore_stims/simple_04_A_a.gif","images/stimuli/spore_stims/simple_17_A_b.gif","self_paced","","7","simple_dissimilar","images/stimuli/spore_stims/simple_17_A_b.gif","","","","",""
"","2210","survey-multi-choice","100","551798","0.0-24.0","SS1619205748764","math_question","","","","","","","","","","","","{""Q0"":""12""}","[0]","12","",""
"","null","html-keyboard-response","101","553020","0.0-25.0-0.0","SS1619205748764","","","null","","","","","","<p><img src= images/blank.png width =""600"" height = ""600"" style=""position:fixed;top:50%; left:50%; transform: translate(-50%, -50%); border:5px solid black"">","","","","","","","",""
"","716","sequential-stimulus-presentation-old","102","553838","0.0-25.0-1.0","SS1619205748764","trial","","40","500","1216","images/stimuli/spore_stims/simple_05_A_b.gif","images/stimuli/spore_stims/simple_12_A_a.gif","forced_short","","8","simple_dissimilar","images/stimuli/spore_stims/simple_12_A_a.gif","","","","",""
"","null","html-keyboard-response","103","554816","0.0-25.0-0.1","SS1619205748764","","","null","","","","","","<p><img src= images/blank.png width =""600"" height = ""600"" style=""position:fixed;top:50%; left:50%; transform: translate(-50%, -50%); border:5px solid black"">","","","","","","","",""
"","1747","sequential-stimulus-presentation-old","104","557068","0.0-25.0-1.1","SS1619205748764","trial","","40","500","2247","images/stimuli/spore_stims/simple_05_A_b.gif","images/stimuli/spore_stims/simple_12_A_a.gif","forced_short","","8","simple_dissimilar","images/stimuli/spore_stims/simple_12_A_a.gif","","","","",""
"","null","html-keyboard-response","105","557981","0.0-25.0-0.2","SS1619205748764","","","null","","","","","","<p><img src= images/blank.png width =""600"" height = ""600"" style=""position:fixed;top:50%; left:50%; transform: translate(-50%, -50%); border:5px solid black"">","","","","","","","",""
"","1567","sequential-stimulus-presentation-old","106","560051","0.0-25.0-1.2","SS1619205748764","trial","","40","500","2067","images/stimuli/spore_stims/simple_05_A_b.gif","images/stimuli/spore_stims/simple_12_A_a.gif","forced_short","","8","simple_dissimilar","images/stimuli/spore_stims/simple_12_A_a.gif","","","","",""
"","null","html-keyboard-response","107","561261","0.0-25.0-0.3","SS1619205748764","","","null","","","","","","<p><img src= images/blank.png width =""600"" height = ""600"" style=""position:fixed;top:50%; left:50%; transform: translate(-50%, -50%); border:5px solid black"">","","","","","","","",""
"","886","sequential-stimulus-presentation-old","108","562651","0.0-25.0-1.3","SS1619205748764","trial","","40","500","1386","images/stimuli/spore_stims/simple_05_A_b.gif","images/stimuli/spore_stims/simple_12_A_a.gif","forced_short","","8","simple_dissimilar","images/stimuli/spore_stims/simple_12_A_a.gif","","","","",""
"","null","html-keyboard-response","109","563661","0.0-25.0-0.4","SS1619205748764","","","null","","","","","","<p><img src= images/blank.png width =""600"" height = ""600"" style=""position:fixed;top:50%; left:50%; transform: translate(-50%, -50%); border:5px solid black"">","","","","","","","",""
"","818","sequential-stimulus-presentation-old","110","564988","0.0-25.0-1.4","SS1619205748764","trial","","40","500","1318","images/stimuli/spore_stims/simple_05_A_b.gif","images/stimuli/spore_stims/simple_12_A_a.gif","forced_short","","8","simple_dissimilar","images/stimuli/spore_stims/simple_05_A_b.gif","","","","",""
"","null","html-keyboard-response","111","566276","0.0-25.0-0.5","SS1619205748764","","","null","","","","","","<p><img src= images/blank.png width =""600"" height = ""600"" style=""position:fixed;top:50%; left:50%; transform: translate(-50%, -50%); border:5px solid black"">","","","","","","","",""
"","1491","sequential-stimulus-presentation-old","112","568274","0.0-25.0-1.5","SS1619205748764","trial","","40","500","1991","images/stimuli/spore_stims/simple_05_A_b.gif","images/stimuli/spore_stims/simple_12_A_a.gif","forced_short","","8","simple_dissimilar","images/stimuli/spore_stims/simple_05_A_b.gif","","","","",""
"","2376","survey-multi-choice","113","570655","0.0-26.0","SS1619205748764","math_question","","","","","","","","","","","","{""Q0"":""4""}","[0]","4","",""
"","null","html-keyboard-response","114","571704","0.0-27.0-0.0","SS1619205748764","","","null","","","","","","<p><img src= images/blank.png width =""600"" height = ""600"" style=""position:fixed;top:50%; left:50%; transform: translate(-50%, -50%); border:5px solid black"">","","","","","","","",""
"","67","sequential-stimulus-presentation-old","115","581774","0.0-27.0-1.0","SS1619205748764","trial","","40","500","567","images/stimuli/spore_stims/simple_06_A_b.gif","images/stimuli/spore_stims/simple_14_A_a.gif","forced_long","","9","simple_dissimilar","images/stimuli/spore_stims/simple_14_A_a.gif","","","","",""
"","null","html-keyboard-response","116","582859","0.0-27.0-0.1","SS1619205748764","","","null","","","","","","<p><img src= images/blank.png width =""600"" height = ""600"" style=""position:fixed;top:50%; left:50%; transform: translate(-50%, -50%); border:5px solid black"">","","","","","","","",""
"","949","sequential-stimulus-presentation-old","117","584313","0.0-27.0-1.1","SS1619205748764","trial","","40","500","1449","images/stimuli/spore_stims/simple_06_A_b.gif","images/stimuli/spore_stims/simple_14_A_a.gif","forced_long","","9","simple_dissimilar","images/stimuli/spore_stims/simple_14_A_a.gif","","","","",""
"","null","html-keyboard-response","118","585363","0.0-27.0-0.2","SS1619205748764","","","null","","","","","","<p><img src= images/blank.png width =""600"" height = ""600"" style=""position:fixed;top:50%; left:50%; transform: translate(-50%, -50%); border:5px solid black"">","","","","","","","",""
"","628","sequential-stimulus-presentation-old","119","586497","0.0-27.0-1.2","SS1619205748764","trial","","40","500","1128","images/stimuli/spore_stims/simple_06_A_b.gif","images/stimuli/spore_stims/simple_14_A_a.gif","forced_long","","9","simple_dissimilar","images/stimuli/spore_stims/simple_14_A_a.gif","","","","",""
"","null","html-keyboard-response","120","587512","0.0-27.0-0.3","SS1619205748764","","","null","","","","","","<p><img src= images/blank.png width =""600"" height = ""600"" style=""position:fixed;top:50%; left:50%; transform: translate(-50%, -50%); border:5px solid black"">","","","","","","","",""
"","673","sequential-stimulus-presentation-old","121","588694","0.0-27.0-1.3","SS1619205748764","trial","","40","500","1173","images/stimuli/spore_stims/simple_06_A_b.gif","images/stimuli/spore_stims/simple_14_A_a.gif","forced_long","","9","simple_dissimilar","images/stimuli/spore_stims/simple_14_A_a.gif","","","","",""
"","null","html-keyboard-response","122","589522","0.0-27.0-0.4","SS1619205748764","","","null","","","","","","<p><img src= images/blank.png width =""600"" height = ""600"" style=""position:fixed;top:50%; left:50%; transform: translate(-50%, -50%); border:5px solid black"">","","","","","","","",""
"","1073","sequential-stimulus-presentation-old","123","591103","0.0-27.0-1.4","SS1619205748764","trial","","40","500","1573","images/stimuli/spore_stims/simple_06_A_b.gif","images/stimuli/spore_stims/simple_14_A_a.gif","forced_long","","9","simple_dissimilar","images/stimuli/spore_stims/simple_14_A_a.gif","","","","",""
"","null","html-keyboard-response","124","591917","0.0-27.0-0.5","SS1619205748764","","","null","","","","","","<p><img src= images/blank.png width =""600"" height = ""600"" style=""position:fixed;top:50%; left:50%; transform: translate(-50%, -50%); border:5px solid black"">","","","","","","","",""
"","1152","sequential-stimulus-presentation-old","125","593574","0.0-27.0-1.5","SS1619205748764","trial","","40","500","1652","images/stimuli/spore_stims/simple_06_A_b.gif","images/stimuli/spore_stims/simple_14_A_a.gif","forced_long","","9","simple_dissimilar","images/stimuli/spore_stims/simple_06_A_b.gif","","","","",""
"","2357","survey-multi-choice","126","595933","0.0-28.0","SS1619205748764","math_question","","","","","","","","","","","","{""Q0"":""14""}","[0]","14","",""
"","null","html-keyboard-response","127","597214","0.0-29.0-0.0","SS1619205748764","","","null","","","","","","<p><img src= images/blank.png width =""600"" height = ""600"" style=""position:fixed;top:50%; left:50%; transform: translate(-50%, -50%); border:5px solid black"">","","","","","","","",""
"","873","sequential-stimulus-presentation-old","128","598193","0.0-29.0-1.0","SS1619205748764","trial","","40","500","1373","images/stimuli/spore_stims/complex_10_A_a.gif","images/stimuli/spore_stims/complex_02_A_b.gif","forced_short","","10","complex_dissimilar","images/stimuli/spore_stims/complex_02_A_b.gif","","","","",""
"","null","html-keyboard-response","129","599060","0.0-29.0-0.1","SS1619205748764","","","null","","","","","","<p><img src= images/blank.png width =""600"" height = ""600"" style=""position:fixed;top:50%; left:50%; transform: translate(-50%, -50%); border:5px solid black"">","","","","","","","",""
"","1404","sequential-stimulus-presentation-old","130","600967","0.0-29.0-1.1","SS1619205748764","trial","","40","500","1904","images/stimuli/spore_stims/complex_10_A_a.gif","images/stimuli/spore_stims/complex_02_A_b.gif","forced_short","","10","complex_dissimilar","images/stimuli/spore_stims/complex_10_A_a.gif","","","","",""
"","null","html-keyboard-response","131","602228","0.0-29.0-0.2","SS1619205748764","","","null","","","","","","<p><img src= images/blank.png width =""600"" height = ""600"" style=""position:fixed;top:50%; left:50%; transform: translate(-50%, -50%); border:5px solid black"">","","","","","","","",""
"","259","sequential-stimulus-presentation-old","132","602992","0.0-29.0-1.2","SS1619205748764","trial","","40","500","759","images/stimuli/spore_stims/complex_10_A_a.gif","images/stimuli/spore_stims/complex_02_A_b.gif","forced_short","","10","complex_dissimilar","images/stimuli/spore_stims/complex_02_A_b.gif","","","","",""
"","null","html-keyboard-response","133","603880","0.0-29.0-0.3","SS1619205748764","","","null","","","","","","<p><img src= images/blank.png width =""600"" height = ""600"" style=""position:fixed;top:50%; left:50%; transform: translate(-50%, -50%); border:5px solid black"">","","","","","","","",""
"","1269","sequential-stimulus-presentation-old","134","605655","0.0-29.0-1.3","SS1619205748764","trial","","40","500","1769","images/stimuli/spore_stims/complex_10_A_a.gif","images/stimuli/spore_stims/complex_02_A_b.gif","forced_short","","10","complex_dissimilar","images/stimuli/spore_stims/complex_10_A_a.gif","","","","",""
"","null","html-keyboard-response","135","606630","0.0-29.0-0.4","SS1619205748764","","","null","","","","","","<p><img src= images/blank.png width =""600"" height = ""600"" style=""position:fixed;top:50%; left:50%; transform: translate(-50%, -50%); border:5px solid black"">","","","","","","","",""
"","844","sequential-stimulus-presentation-old","136","607980","0.0-29.0-1.4","SS1619205748764","trial","","40","500","1344","images/stimuli/spore_stims/complex_10_A_a.gif","images/stimuli/spore_stims/complex_02_A_b.gif","forced_short","","10","complex_dissimilar","images/stimuli/spore_stims/complex_02_A_b.gif","","","","",""
"","null","html-keyboard-response","137","609283","0.0-29.0-0.5","SS1619205748764","","","null","","","","","","<p><img src= images/blank.png width =""600"" height = ""600"" style=""position:fixed;top:50%; left:50%; transform: translate(-50%, -50%); border:5px solid black"">","","","","","","","",""
"","2219","sequential-stimulus-presentation-old","138","612007","0.0-29.0-1.5","SS1619205748764","trial","","40","500","2719","images/stimuli/spore_stims/complex_10_A_a.gif","images/stimuli/spore_stims/complex_02_A_b.gif","forced_short","","10","complex_dissimilar","images/stimuli/spore_stims/complex_02_A_b.gif","","","","",""
"","2272","survey-multi-choice","139","614282","0.0-30.0","SS1619205748764","math_question","","","","","","","","","","","","{""Q0"":""9""}","[0]","9","",""
"","null","html-keyboard-response","140","615425","0.0-31.0-0.0","SS1619205748764","","","null","","","","","","<p><img src= images/blank.png width =""600"" height = ""600"" style=""position:fixed;top:50%; left:50%; transform: translate(-50%, -50%); border:5px solid black"">","","","","","","","",""
"","756","sequential-stimulus-presentation-old","141","616687","0.0-31.0-1.0","SS1619205748764","trial","","40","500","1256","images/stimuli/spore_stims/complex_04_A_b.gif","images/stimuli/spore_stims/complex_13_A_a.gif","self_paced","","11","complex_dissimilar","images/stimuli/spore_stims/complex_13_A_a.gif","","","","",""
"","null","html-keyboard-response","142","617721","0.0-31.0-0.1","SS1619205748764","","","null","","","","","","<p><img src= images/blank.png width =""600"" height = ""600"" style=""position:fixed;top:50%; left:50%; transform: translate(-50%, -50%); border:5px solid black"">","","","","","","","",""
"","1115","sequential-stimulus-presentation-old","143","619340","0.0-31.0-1.1","SS1619205748764","trial","","40","500","1615","images/stimuli/spore_stims/complex_04_A_b.gif","images/stimuli/spore_stims/complex_13_A_a.gif","self_paced","","11","complex_dissimilar","images/stimuli/spore_stims/complex_13_A_a.gif","","","","",""
"","null","html-keyboard-response","144","620289","0.0-31.0-0.2","SS1619205748764","","","null","","","","","","<p><img src= images/blank.png width =""600"" height = ""600"" style=""position:fixed;top:50%; left:50%; transform: translate(-50%, -50%); border:5px solid black"">","","","","","","","",""
"","1321","sequential-stimulus-presentation-old","145","622116","0.0-31.0-1.2","SS1619205748764","trial","","40","500","1821","images/stimuli/spore_stims/complex_04_A_b.gif","images/stimuli/spore_stims/complex_13_A_a.gif","self_paced","","11","complex_dissimilar","images/stimuli/spore_stims/complex_13_A_a.gif","","","","",""
"","null","html-keyboard-response","146","623155","0.0-31.0-0.3","SS1619205748764","","","null","","","","","","<p><img src= images/blank.png width =""600"" height = ""600"" style=""position:fixed;top:50%; left:50%; transform: translate(-50%, -50%); border:5px solid black"">","","","","","","","",""
"","961","sequential-stimulus-presentation-old","147","624620","0.0-31.0-1.3","SS1619205748764","trial","","40","500","1461","images/stimuli/spore_stims/complex_04_A_b.gif","images/stimuli/spore_stims/complex_13_A_a.gif","self_paced","","11","complex_dissimilar","images/stimuli/spore_stims/complex_04_A_b.gif","","","","",""
"","null","html-keyboard-response","148","625894","0.0-31.0-0.4","SS1619205748764","","","null","","","","","","<p><img src= images/blank.png width =""600"" height = ""600"" style=""position:fixed;top:50%; left:50%; transform: translate(-50%, -50%); border:5px solid black"">","","","","","","","",""
"","749","sequential-stimulus-presentation-old","149","627149","0.0-31.0-1.4","SS1619205748764","trial","","40","500","1249","images/stimuli/spore_stims/complex_04_A_b.gif","images/stimuli/spore_stims/complex_13_A_a.gif","self_paced","","11","complex_dissimilar","images/stimuli/spore_stims/complex_13_A_a.gif","","","","",""
"[{""page_index"":0,""viewing_time"":2944}]","2944","instructions","150","630096","0.0-32.0","SS1619205748764","instructions","","","","","","","","","","","","","","","",""
"","4301","survey-likert","151","634404","0.0-33.0","SS1619205748764","similarity_question","","","","","","","","","","","","{""Q0"":5}","[0]","","images/stimuli/spore_stims/simple_14_A_a.gif","images/stimuli/spore_stims/simple_06_A_b.gif"
"","3090","survey-likert","152","637499","0.0-34.0","SS1619205748764","similarity_question","","","","","","","","","","","","{""Q0"":5}","[0]","","images/stimuli/spore_stims/simple_05_A_b.gif","images/stimuli/spore_stims/simple_12_A_a.gif"
"","2810","survey-likert","153","640313","0.0-35.0","SS1619205748764","similarity_question","","","","","","","","","","","","{""Q0"":4}","[0]","","images/stimuli/spore_stims/simple_20_A_a.gif","images/stimuli/spore_stims/simple_04_A_b.gif"
"","3723","survey-likert","154","644040","0.0-36.0","SS1619205748764","similarity_question","","","","","","","","","","","","{""Q0"":2}","[0]","","images/stimuli/spore_stims/simple_17_A_b.gif","images/stimuli/spore_stims/simple_04_A_a.gif"
"","3188","survey-likert","155","647232","0.0-37.0","SS1619205748764","similarity_question","","","","","","","","","","","","{""Q0"":2}","[0]","","images/stimuli/spore_stims/complex_02_A_b.gif","images/stimuli/spore_stims/complex_10_A_a.gif"
"","3076","survey-likert","156","650313","0.0-38.0","SS1619205748764","similarity_question","","","","","","","","","","","","{""Q0"":4}","[0]","","images/stimuli/spore_stims/complex_10_A_b.gif","images/stimuli/spore_stims/complex_17_A_a.gif"
"","3924","survey-likert","157","654241","0.0-39.0","SS1619205748764","similarity_question","","","","","","","","","","","","{""Q0"":2}","[0]","","images/stimuli/spore_stims/complex_11_A_b.gif","images/stimuli/spore_stims/complex_15_A_a.gif"
"","3545","survey-likert","158","657789","0.0-40.0","SS1619205748764","similarity_question","","","","","","","","","","","","{""Q0"":1}","[0]","","images/stimuli/spore_stims/complex_17_A_b.gif","images/stimuli/spore_stims/complex_03_A_a.gif"
"","2413","survey-likert","159","660207","0.0-41.0","SS1619205748764","similarity_question","","","","","","","","","","","","{""Q0"":5}","[0]","","images/stimuli/spore_stims/simple_01_A_a.gif","images/stimuli/spore_stims/simple_15_A_b.gif"
"","5177","survey-likert","160","665389","0.0-42.0","SS1619205748764","similarity_question","","","","","","","","","","","","{""Q0"":4}","[0]","","images/stimuli/spore_stims/complex_19_A_b.gif","images/stimuli/spore_stims/complex_16_A_a.gif"
"","2330","survey-likert","161","667725","0.0-43.0","SS1619205748764","similarity_question","","","","","","","","","","","","{""Q0"":6}","[0]","","images/stimuli/spore_stims/simple_01_A_b.gif","images/stimuli/spore_stims/simple_06_A_a.gif"
"","4507","survey-likert","162","672238","0.0-44.0","SS1619205748764","similarity_question","","","","","","","","","","","","{""Q0"":2}","[0]","","images/stimuli/spore_stims/complex_13_A_a.gif","images/stimuli/spore_stims/complex_04_A_b.gif"
"[{""page_index"":0,""viewing_time"":2266}]","2266","instructions","163","674508","0.0-45.0","SS1619205748764","instructions","","","","","","","","","","","","","","","",""
"","3578","survey-likert","164","678090","0.0-46.0","SS1619205748764","","","","","","","","","images/stimuli/spore_stims/complex_13_A_a.gif","","","","{""Q0"":5}","[0]","","",""
"","1838","survey-likert","165","679933","0.0-47.0","SS1619205748764","","","","","","","","","images/stimuli/spore_stims/simple_20_A_a.gif","","","","{""Q0"":1}","[0]","","",""
"","1764","survey-likert","166","681703","0.0-48.0","SS1619205748764","","","","","","","","","images/stimuli/spore_stims/simple_15_A_b.gif","","","","{""Q0"":0}","[0]","","",""
"","1547","survey-likert","167","683258","0.0-49.0","SS1619205748764","","","","","","","","","images/stimuli/spore_stims/simple_05_A_b.gif","","","","{""Q0"":0}","[0]","","",""
"","2120","survey-likert","168","685382","0.0-50.0","SS1619205748764","","","","","","","","","images/stimuli/spore_stims/simple_01_A_b.gif","","","","{""Q0"":0}","[0]","","",""
"","2210","survey-likert","169","687598","0.0-51.0","SS1619205748764","","","","","","","","","images/stimuli/spore_stims/complex_10_A_a.gif","","","","{""Q0"":4}","[0]","","",""
"","3300","survey-likert","170","690904","0.0-52.0","SS1619205748764","","","","","","","","","images/stimuli/spore_stims/simple_14_A_a.gif","","","","{""Q0"":1}","[0]","","",""
"","2018","survey-likert","171","692926","0.0-53.0","SS1619205748764","","","","","","","","","images/stimuli/spore_stims/complex_15_A_a.gif","","","","{""Q0"":6}","[0]","","",""
"","3154","survey-likert","172","696086","0.0-54.0","SS1619205748764","","","","","","","","","images/stimuli/spore_stims/complex_17_A_a.gif","","","","{""Q0"":6}","[0]","","",""
"","2833","survey-likert","173","698930","0.0-55.0","SS1619205748764","","","","","","","","","images/stimuli/spore_stims/simple_17_A_b.gif","","","","{""Q0"":1}","[0]","","",""
"","2502","survey-likert","174","701448","0.0-56.0","SS1619205748764","","","","","","","","","images/stimuli/spore_stims/complex_16_A_a.gif","","","","{""Q0"":5}","[0]","","",""
"","3178","survey-likert","175","704638","0.0-57.0","SS1619205748764","","","","","","","","","images/stimuli/spore_stims/complex_03_A_a.gif","","","","{""Q0"":5}","[0]","","",""
"[{""page_index"":0,""viewing_time"":1258}]","1258","instructions","176","705901","0.0-58.0","SS1619205748764","instructions","","","","","","","","","","","","","","","",""
"","2497","demog-age","177","708408","0.0-59.0","SS1619205748764","","","","","","","","","","","","","{""age"":""27""}","","","",""
"","1914","demog-ethnic-US","178","710331","0.0-60.0","SS1619205748764","","","","","","","","","","","","","{""ethnicity"":[""Hispanic or Latino""]}","[0]","","",""
"","3940","demog-gender-and-education","179","714278","0.0-61.0","SS1619205748764","","","","","","","","","","","","","{""gender"":""Male"",""education"":""Bachelor's Degree""}","[0,1]","","",""
"","5149","survey-text","180","719434","0.0-62.0","SS1619205748764","feedback","","","","","","","","","","","","{""Q0"":""na""}","","","",""
"[{""page_index"":0,""viewing_time"":964}]","965","instructions","181","720404","0.0-63.0","SS1619205748764","instructions","","","","","","","","","","","","","","","",""
