"view_history","rt","trial_type","trial_index","time_elapsed","internal_node_id","subject","stimulus_type","trial_stimulus","key_press","minimum_viewing_duration","trial_looking_time","block_deviant","block_background","exposure_type","stimulus","block_number","block_type","stimulus_displayed","responses","question_order","math_correct_answer","stimulus_left","stimulus_right"
"[{""page_index"":0,""viewing_time"":26183.61999999979}]","26184.140000001207","instructions","0","26186","0.0-0.0","SS1619205544508","","","","","","","","","","","","","","","","",""
"[{""page_index"":0,""viewing_time"":9749.345000000176},{""page_index"":1,""viewing_time"":4661.874999999782}]","14411.53999999915","instructions","1","42601","0.0-1.0","SS1619205544508","instructions","","","","","","","","","","","","","","","",""
"","4421.905000001061","sequential-stimulus-presentation-old","2","47527","0.0-2.0","SS1619205544508","","","40","500","4921.905000001061","null","null","self_paced","","","","","","","","",""
"","3507.4449999992794","sequential-stimulus-presentation-old","3","51538","0.0-3.0","SS1619205544508","","","40","500","4007.4449999992794","null","null","self_paced","","","","","","","","",""
"[{""page_index"":0,""viewing_time"":13453.434999999445}]","13453.740000000835","instructions","4","64993","0.0-4.0","SS1619205544508","instructions","","","","","","","","","","","","","","","",""
"","1135.2900000001682","sequential-stimulus-presentation-old","5","76131","0.0-5.0","SS1619205544508","","","40","500","1635.2900000001682","null","null","forced_long","","","","","","","","",""
"","4199.959999999919","sequential-stimulus-presentation-old","6","80433","0.0-6.0","SS1619205544508","","","40","500","4699.959999999919","null","null","forced_long","","","","","","","","",""
"[{""page_index"":0,""viewing_time"":8060.354999999618}]","8060.675000000629","instructions","7","88495","0.0-7.0","SS1619205544508","instructions","","","","","","","","","","","","","","","",""
"[{""page_index"":0,""viewing_time"":8038.220000000365},{""page_index"":1,""viewing_time"":7880.080000000817},{""page_index"":2,""viewing_time"":5552.185000000463},{""page_index"":3,""viewing_time"":937.7999999996973},{""page_index"":4,""viewing_time"":1229.9549999988812}]","23638.550000001487","instructions","8","112134","0.0-8.0","SS1619205544508","instructions","","","","","","","","","","","","","","","",""
"","null","html-keyboard-response","9","113239","0.0-9.0-0.0","SS1619205544508","","","null","","","","","","<p><img src= images/blank.png width =""600"" height = ""600"" style=""position:fixed;top:50%; left:50%; transform: translate(-50%, -50%); border:5px solid black"">","","","","","","","",""
"","7627.885000001697","sequential-stimulus-presentation-old","10","121372","0.0-9.0-1.0","SS1619205544508","trial","","40","500","8127.885000001697","images/stimuli/spore_stims/complex_03_A_b.gif","images/stimuli/spore_stims/complex_14_A_a.gif","self_paced","","0","complex_dissimilar","images/stimuli/spore_stims/complex_14_A_a.gif","","","","",""
"","null","html-keyboard-response","11","122373","0.0-9.0-0.1","SS1619205544508","","","null","","","","","","<p><img src= images/blank.png width =""600"" height = ""600"" style=""position:fixed;top:50%; left:50%; transform: translate(-50%, -50%); border:5px solid black"">","","","","","","","",""
"","17767.050000000367","sequential-stimulus-presentation-old","12","140643","0.0-9.0-1.1","SS1619205544508","trial","","40","500","18267.050000000367","images/stimuli/spore_stims/complex_03_A_b.gif","images/stimuli/spore_stims/complex_14_A_a.gif","self_paced","","0","complex_dissimilar","images/stimuli/spore_stims/complex_14_A_a.gif","","","","",""
"","null","html-keyboard-response","13","141934","0.0-9.0-0.2","SS1619205544508","","","null","","","","","","<p><img src= images/blank.png width =""600"" height = ""600"" style=""position:fixed;top:50%; left:50%; transform: translate(-50%, -50%); border:5px solid black"">","","","","","","","",""
"","1758.1150000005146","sequential-stimulus-presentation-old","14","144195","0.0-9.0-1.2","SS1619205544508","trial","","40","500","2258.1150000005146","images/stimuli/spore_stims/complex_03_A_b.gif","images/stimuli/spore_stims/complex_14_A_a.gif","self_paced","","0","complex_dissimilar","images/stimuli/spore_stims/complex_14_A_a.gif","","","","",""
"","null","html-keyboard-response","15","145219","0.0-9.0-0.3","SS1619205544508","","","null","","","","","","<p><img src= images/blank.png width =""600"" height = ""600"" style=""position:fixed;top:50%; left:50%; transform: translate(-50%, -50%); border:5px solid black"">","","","","","","","",""
"","17967.614999999554","sequential-stimulus-presentation-old","16","163690","0.0-9.0-1.3","SS1619205544508","trial","","40","500","18467.614999999554","images/stimuli/spore_stims/complex_03_A_b.gif","images/stimuli/spore_stims/complex_14_A_a.gif","self_paced","","0","complex_dissimilar","images/stimuli/spore_stims/complex_14_A_a.gif","","","","",""
"","null","html-keyboard-response","17","164585","0.0-9.0-0.4","SS1619205544508","","","null","","","","","","<p><img src= images/blank.png width =""600"" height = ""600"" style=""position:fixed;top:50%; left:50%; transform: translate(-50%, -50%); border:5px solid black"">","","","","","","","",""
"","9568.865000001097","sequential-stimulus-presentation-old","18","174658","0.0-9.0-1.4","SS1619205544508","trial","","40","500","10068.865000001097","images/stimuli/spore_stims/complex_03_A_b.gif","images/stimuli/spore_stims/complex_14_A_a.gif","self_paced","","0","complex_dissimilar","images/stimuli/spore_stims/complex_14_A_a.gif","","","","",""
"","3431.135000000708","survey-multi-choice","19","178095","0.0-10.0","SS1619205544508","math_question","","","","","","","","","","","","{""Q0"":""10""}","[0]","10","",""
"","null","html-keyboard-response","20","178985","0.0-11.0-0.0","SS1619205544508","","","null","","","","","","<p><img src= images/blank.png width =""600"" height = ""600"" style=""position:fixed;top:50%; left:50%; transform: translate(-50%, -50%); border:5px solid black"">","","","","","","","",""
"","10364.73999999906","sequential-stimulus-presentation-old","21","189854","0.0-11.0-1.0","SS1619205544508","trial","","40","500","10864.73999999906","images/stimuli/spore_stims/complex_13_A_b.gif","images/stimuli/spore_stims/complex_20_A_a.gif","self_paced","","1","complex_dissimilar","images/stimuli/spore_stims/complex_20_A_a.gif","","","","",""
"","null","html-keyboard-response","22","191147","0.0-11.0-0.1","SS1619205544508","","","null","","","","","","<p><img src= images/blank.png width =""600"" height = ""600"" style=""position:fixed;top:50%; left:50%; transform: translate(-50%, -50%); border:5px solid black"">","","","","","","","",""
"","7429.5600000005215","sequential-stimulus-presentation-old","23","199081","0.0-11.0-1.1","SS1619205544508","trial","","40","500","7929.5600000005215","images/stimuli/spore_stims/complex_13_A_b.gif","images/stimuli/spore_stims/complex_20_A_a.gif","self_paced","","1","complex_dissimilar","images/stimuli/spore_stims/complex_13_A_b.gif","","","","",""
"","null","html-keyboard-response","24","200378","0.0-11.0-0.2","SS1619205544508","","","null","","","","","","<p><img src= images/blank.png width =""600"" height = ""600"" style=""position:fixed;top:50%; left:50%; transform: translate(-50%, -50%); border:5px solid black"">","","","","","","","",""
"","7039.615000001504","sequential-stimulus-presentation-old","25","207922","0.0-11.0-1.2","SS1619205544508","trial","","40","500","7539.615000001504","images/stimuli/spore_stims/complex_13_A_b.gif","images/stimuli/spore_stims/complex_20_A_a.gif","self_paced","","1","complex_dissimilar","images/stimuli/spore_stims/complex_20_A_a.gif","","","","",""
"","null","html-keyboard-response","26","208937","0.0-11.0-0.3","SS1619205544508","","","null","","","","","","<p><img src= images/blank.png width =""600"" height = ""600"" style=""position:fixed;top:50%; left:50%; transform: translate(-50%, -50%); border:5px solid black"">","","","","","","","",""
"","3339.8100000012782","sequential-stimulus-presentation-old","27","212794","0.0-11.0-1.3","SS1619205544508","trial","","40","500","3839.8100000012782","images/stimuli/spore_stims/complex_13_A_b.gif","images/stimuli/spore_stims/complex_20_A_a.gif","self_paced","","1","complex_dissimilar","images/stimuli/spore_stims/complex_20_A_a.gif","","","","",""
"","null","html-keyboard-response","28","213966","0.0-11.0-0.4","SS1619205544508","","","null","","","","","","<p><img src= images/blank.png width =""600"" height = ""600"" style=""position:fixed;top:50%; left:50%; transform: translate(-50%, -50%); border:5px solid black"">","","","","","","","",""
"","4124.644999999873","sequential-stimulus-presentation-old","29","218596","0.0-11.0-1.4","SS1619205544508","trial","","40","500","4624.644999999873","images/stimuli/spore_stims/complex_13_A_b.gif","images/stimuli/spore_stims/complex_20_A_a.gif","self_paced","","1","complex_dissimilar","images/stimuli/spore_stims/complex_20_A_a.gif","","","","",""
"","null","html-keyboard-response","30","219709","0.0-11.0-0.5","SS1619205544508","","","null","","","","","","<p><img src= images/blank.png width =""600"" height = ""600"" style=""position:fixed;top:50%; left:50%; transform: translate(-50%, -50%); border:5px solid black"">","","","","","","","",""
"","7216.060000000667","sequential-stimulus-presentation-old","31","227429","0.0-11.0-1.5","SS1619205544508","trial","","40","500","7716.060000000667","images/stimuli/spore_stims/complex_13_A_b.gif","images/stimuli/spore_stims/complex_20_A_a.gif","self_paced","","1","complex_dissimilar","images/stimuli/spore_stims/complex_13_A_b.gif","","","","",""
"","2925.54999999993","survey-multi-choice","32","230357","0.0-12.0","SS1619205544508","math_question","","","","","","","","","","","","{""Q0"":""7""}","[0]","7","",""
"","null","html-keyboard-response","33","231342","0.0-13.0-0.0","SS1619205544508","","","null","","","","","","<p><img src= images/blank.png width =""600"" height = ""600"" style=""position:fixed;top:50%; left:50%; transform: translate(-50%, -50%); border:5px solid black"">","","","","","","","",""
"","2765.2700000017066","sequential-stimulus-presentation-old","34","234212","0.0-13.0-1.0","SS1619205544508","trial","","40","500","3265.2700000017066","images/stimuli/spore_stims/simple_17_A_a.gif","images/stimuli/spore_stims/simple_07_A_b.gif","forced_short","","2","simple_dissimilar","images/stimuli/spore_stims/simple_07_A_b.gif","","","","",""
"","null","html-keyboard-response","35","235288","0.0-13.0-0.1","SS1619205544508","","","null","","","","","","<p><img src= images/blank.png width =""600"" height = ""600"" style=""position:fixed;top:50%; left:50%; transform: translate(-50%, -50%); border:5px solid black"">","","","","","","","",""
"","4111.955000000307","sequential-stimulus-presentation-old","36","239904","0.0-13.0-1.1","SS1619205544508","trial","","40","500","4611.955000000307","images/stimuli/spore_stims/simple_17_A_a.gif","images/stimuli/spore_stims/simple_07_A_b.gif","forced_short","","2","simple_dissimilar","images/stimuli/spore_stims/simple_07_A_b.gif","","","","",""
"","null","html-keyboard-response","37","240741","0.0-13.0-0.2","SS1619205544508","","","null","","","","","","<p><img src= images/blank.png width =""600"" height = ""600"" style=""position:fixed;top:50%; left:50%; transform: translate(-50%, -50%); border:5px solid black"">","","","","","","","",""
"","3259.679999999207","sequential-stimulus-presentation-old","38","244505","0.0-13.0-1.2","SS1619205544508","trial","","40","500","3759.679999999207","images/stimuli/spore_stims/simple_17_A_a.gif","images/stimuli/spore_stims/simple_07_A_b.gif","forced_short","","2","simple_dissimilar","images/stimuli/spore_stims/simple_17_A_a.gif","","","","",""
"","null","html-keyboard-response","39","245382","0.0-13.0-0.3","SS1619205544508","","","null","","","","","","<p><img src= images/blank.png width =""600"" height = ""600"" style=""position:fixed;top:50%; left:50%; transform: translate(-50%, -50%); border:5px solid black"">","","","","","","","",""
"","3553.1549999996205","sequential-stimulus-presentation-old","40","249451","0.0-13.0-1.3","SS1619205544508","trial","","40","500","4053.1549999996205","images/stimuli/spore_stims/simple_17_A_a.gif","images/stimuli/spore_stims/simple_07_A_b.gif","forced_short","","2","simple_dissimilar","images/stimuli/spore_stims/simple_07_A_b.gif","","","","",""
"","null","html-keyboard-response","41","250424","0.0-13.0-0.4","SS1619205544508","","","null","","","","","","<p><img src= images/blank.png width =""600"" height = ""600"" style=""position:fixed;top:50%; left:50%; transform: translate(-50%, -50%); border:5px solid black"">","","","","","","","",""
"","3204.1399999998393","sequential-stimulus-presentation-old","42","254133","0.0-13.0-1.4","SS1619205544508","trial","","40","500","3704.1399999998393","images/stimuli/spore_stims/simple_17_A_a.gif","images/stimuli/spore_stims/simple_07_A_b.gif","forced_short","","2","simple_dissimilar","images/stimuli/spore_stims/simple_17_A_a.gif","","","","",""
"","null","html-keyboard-response","43","255061","0.0-13.0-0.5","SS1619205544508","","","null","","","","","","<p><img src= images/blank.png width =""600"" height = ""600"" style=""position:fixed;top:50%; left:50%; transform: translate(-50%, -50%); border:5px solid black"">","","","","","","","",""
"","4871.365000000864","sequential-stimulus-presentation-old","44","260443","0.0-13.0-1.5","SS1619205544508","trial","","40","500","5371.365000000864","images/stimuli/spore_stims/simple_17_A_a.gif","images/stimuli/spore_stims/simple_07_A_b.gif","forced_short","","2","simple_dissimilar","images/stimuli/spore_stims/simple_07_A_b.gif","","","","",""
"","3010.6349999987287","survey-multi-choice","45","263457","0.0-14.0","SS1619205544508","math_question","","","","","","","","","","","","{""Q0"":""4""}","[0]","4","",""
"","null","html-keyboard-response","46","264341","0.0-15.0-0.0","SS1619205544508","","","null","","","","","","<p><img src= images/blank.png width =""600"" height = ""600"" style=""position:fixed;top:50%; left:50%; transform: translate(-50%, -50%); border:5px solid black"">","","","","","","","",""
"","576.8049999988289","sequential-stimulus-presentation-old","47","274923","0.0-15.0-1.0","SS1619205544508","trial","","40","500","1076.8049999988289","images/stimuli/spore_stims/complex_11_A_a.gif","images/stimuli/spore_stims/complex_12_A_b.gif","forced_long","","3","complex_dissimilar","images/stimuli/spore_stims/complex_12_A_b.gif","","","","",""
"","null","html-keyboard-response","48","276143","0.0-15.0-0.1","SS1619205544508","","","null","","","","","","<p><img src= images/blank.png width =""600"" height = ""600"" style=""position:fixed;top:50%; left:50%; transform: translate(-50%, -50%); border:5px solid black"">","","","","","","","",""
"","10759.405000000726","sequential-stimulus-presentation-old","49","287407","0.0-15.0-1.1","SS1619205544508","trial","","40","500","11259.405000000726","images/stimuli/spore_stims/complex_11_A_a.gif","images/stimuli/spore_stims/complex_12_A_b.gif","forced_long","","3","complex_dissimilar","images/stimuli/spore_stims/complex_12_A_b.gif","","","","",""
"","null","html-keyboard-response","50","288648","0.0-15.0-0.2","SS1619205544508","","","null","","","","","","<p><img src= images/blank.png width =""600"" height = ""600"" style=""position:fixed;top:50%; left:50%; transform: translate(-50%, -50%); border:5px solid black"">","","","","","","","",""
"","6335.759999999951","sequential-stimulus-presentation-old","51","295488","0.0-15.0-1.2","SS1619205544508","trial","","40","500","6835.759999999951","images/stimuli/spore_stims/complex_11_A_a.gif","images/stimuli/spore_stims/complex_12_A_b.gif","forced_long","","3","complex_dissimilar","images/stimuli/spore_stims/complex_12_A_b.gif","","","","",""
"","null","html-keyboard-response","52","296379","0.0-15.0-0.3","SS1619205544508","","","null","","","","","","<p><img src= images/blank.png width =""600"" height = ""600"" style=""position:fixed;top:50%; left:50%; transform: translate(-50%, -50%); border:5px solid black"">","","","","","","","",""
"","6916.8749999990105","sequential-stimulus-presentation-old","53","303800","0.0-15.0-1.3","SS1619205544508","trial","","40","500","7416.8749999990105","images/stimuli/spore_stims/complex_11_A_a.gif","images/stimuli/spore_stims/complex_12_A_b.gif","forced_long","","3","complex_dissimilar","images/stimuli/spore_stims/complex_11_A_a.gif","","","","",""
"","null","html-keyboard-response","54","305083","0.0-15.0-0.4","SS1619205544508","","","null","","","","","","<p><img src= images/blank.png width =""600"" height = ""600"" style=""position:fixed;top:50%; left:50%; transform: translate(-50%, -50%); border:5px solid black"">","","","","","","","",""
"","4719.744999998482","sequential-stimulus-presentation-old","55","310307","0.0-15.0-1.4","SS1619205544508","trial","","40","500","5219.744999998482","images/stimuli/spore_stims/complex_11_A_a.gif","images/stimuli/spore_stims/complex_12_A_b.gif","forced_long","","3","complex_dissimilar","images/stimuli/spore_stims/complex_12_A_b.gif","","","","",""
"","5450.69999999943","survey-multi-choice","56","315761","0.0-16.0","SS1619205544508","math_question","","","","","","","","","","","","{""Q0"":""10""}","[0]","10","",""
"","null","html-keyboard-response","57","316641","0.0-17.0-0.0","SS1619205544508","","","null","","","","","","<p><img src= images/blank.png width =""600"" height = ""600"" style=""position:fixed;top:50%; left:50%; transform: translate(-50%, -50%); border:5px solid black"">","","","","","","","",""
"","4572.290000000037","sequential-stimulus-presentation-old","58","321318","0.0-17.0-1.0","SS1619205544508","trial","","40","500","5072.290000000037","images/stimuli/spore_stims/complex_10_A_a.gif","images/stimuli/spore_stims/complex_14_A_b.gif","forced_short","","4","complex_dissimilar","images/stimuli/spore_stims/complex_14_A_b.gif","","","","",""
"","null","html-keyboard-response","59","322156","0.0-17.0-0.1","SS1619205544508","","","null","","","","","","<p><img src= images/blank.png width =""600"" height = ""600"" style=""position:fixed;top:50%; left:50%; transform: translate(-50%, -50%); border:5px solid black"">","","","","","","","",""
"","2810.820000000589","sequential-stimulus-presentation-old","60","325470","0.0-17.0-1.1","SS1619205544508","trial","","40","500","3310.820000000589","images/stimuli/spore_stims/complex_10_A_a.gif","images/stimuli/spore_stims/complex_14_A_b.gif","forced_short","","4","complex_dissimilar","images/stimuli/spore_stims/complex_14_A_b.gif","","","","",""
"","null","html-keyboard-response","61","326769","0.0-17.0-0.2","SS1619205544508","","","null","","","","","","<p><img src= images/blank.png width =""600"" height = ""600"" style=""position:fixed;top:50%; left:50%; transform: translate(-50%, -50%); border:5px solid black"">","","","","","","","",""
"","3562.7100000001374","sequential-stimulus-presentation-old","62","330836","0.0-17.0-1.2","SS1619205544508","trial","","40","500","4062.7100000001374","images/stimuli/spore_stims/complex_10_A_a.gif","images/stimuli/spore_stims/complex_14_A_b.gif","forced_short","","4","complex_dissimilar","images/stimuli/spore_stims/complex_14_A_b.gif","","","","",""
"","null","html-keyboard-response","63","332095","0.0-17.0-0.3","SS1619205544508","","","null","","","","","","<p><img src= images/blank.png width =""600"" height = ""600"" style=""position:fixed;top:50%; left:50%; transform: translate(-50%, -50%); border:5px solid black"">","","","","","","","",""
"","3298.930000000808","sequential-stimulus-presentation-old","64","335905","0.0-17.0-1.3","SS1619205544508","trial","","40","500","3798.930000000808","images/stimuli/spore_stims/complex_10_A_a.gif","images/stimuli/spore_stims/complex_14_A_b.gif","forced_short","","4","complex_dissimilar","images/stimuli/spore_stims/complex_14_A_b.gif","","","","",""
"","null","html-keyboard-response","65","336863","0.0-17.0-0.4","SS1619205544508","","","null","","","","","","<p><img src= images/blank.png width =""600"" height = ""600"" style=""position:fixed;top:50%; left:50%; transform: translate(-50%, -50%); border:5px solid black"">","","","","","","","",""
"","3597.8199999990175","sequential-stimulus-presentation-old","66","340965","0.0-17.0-1.4","SS1619205544508","trial","","40","500","4097.819999999017","images/stimuli/spore_stims/complex_10_A_a.gif","images/stimuli/spore_stims/complex_14_A_b.gif","forced_short","","4","complex_dissimilar","images/stimuli/spore_stims/complex_14_A_b.gif","","","","",""
"","null","html-keyboard-response","67","342180","0.0-17.0-0.5","SS1619205544508","","","null","","","","","","<p><img src= images/blank.png width =""600"" height = ""600"" style=""position:fixed;top:50%; left:50%; transform: translate(-50%, -50%); border:5px solid black"">","","","","","","","",""
"","3284.090000001015","sequential-stimulus-presentation-old","68","345968","0.0-17.0-1.5","SS1619205544508","trial","","40","500","3784.090000001015","images/stimuli/spore_stims/complex_10_A_a.gif","images/stimuli/spore_stims/complex_14_A_b.gif","forced_short","","4","complex_dissimilar","images/stimuli/spore_stims/complex_14_A_b.gif","","","","",""
"","3964.8699999997625","survey-multi-choice","69","349935","0.0-18.0","SS1619205544508","math_question","","","","","","","","","","","","{""Q0"":""7""}","[0]","7","",""
"","null","html-keyboard-response","70","351106","0.0-19.0-0.0","SS1619205544508","","","null","","","","","","<p><img src= images/blank.png width =""600"" height = ""600"" style=""position:fixed;top:50%; left:50%; transform: translate(-50%, -50%); border:5px solid black"">","","","","","","","",""
"","3283.7350000009174","sequential-stimulus-presentation-old","71","364394","0.0-19.0-1.0","SS1619205544508","trial","","40","500","3783.7350000009174","images/stimuli/spore_stims/complex_04_A_a.gif","images/stimuli/spore_stims/complex_15_A_b.gif","forced_long","","5","complex_dissimilar","images/stimuli/spore_stims/complex_15_A_b.gif","","","","",""
"","null","html-keyboard-response","72","365685","0.0-19.0-0.1","SS1619205544508","","","null","","","","","","<p><img src= images/blank.png width =""600"" height = ""600"" style=""position:fixed;top:50%; left:50%; transform: translate(-50%, -50%); border:5px solid black"">","","","","","","","",""
"","6259.995000000345","sequential-stimulus-presentation-old","73","372450","0.0-19.0-1.1","SS1619205544508","trial","","40","500","6759.995000000345","images/stimuli/spore_stims/complex_04_A_a.gif","images/stimuli/spore_stims/complex_15_A_b.gif","forced_long","","5","complex_dissimilar","images/stimuli/spore_stims/complex_15_A_b.gif","","","","",""
"","null","html-keyboard-response","74","373578","0.0-19.0-0.2","SS1619205544508","","","null","","","","","","<p><img src= images/blank.png width =""600"" height = ""600"" style=""position:fixed;top:50%; left:50%; transform: translate(-50%, -50%); border:5px solid black"">","","","","","","","",""
"","5174.2100000010105","sequential-stimulus-presentation-old","75","379264","0.0-19.0-1.2","SS1619205544508","trial","","40","500","5674.2100000010105","images/stimuli/spore_stims/complex_04_A_a.gif","images/stimuli/spore_stims/complex_15_A_b.gif","forced_long","","5","complex_dissimilar","images/stimuli/spore_stims/complex_15_A_b.gif","","","","",""
"","null","html-keyboard-response","76","380297","0.0-19.0-0.3","SS1619205544508","","","null","","","","","","<p><img src= images/blank.png width =""600"" height = ""600"" style=""position:fixed;top:50%; left:50%; transform: translate(-50%, -50%); border:5px solid black"">","","","","","","","",""
"","4183.680000000051","sequential-stimulus-presentation-old","77","384995","0.0-19.0-1.3","SS1619205544508","trial","","40","500","4683.680000000051","images/stimuli/spore_stims/complex_04_A_a.gif","images/stimuli/spore_stims/complex_15_A_b.gif","forced_long","","5","complex_dissimilar","images/stimuli/spore_stims/complex_15_A_b.gif","","","","",""
"","3293.270000000135","survey-multi-choice","78","388291","0.0-20.0","SS1619205544508","math_question","","","","","","","","","","","","{""Q0"":""6""}","[0]","6","",""
"","null","html-keyboard-response","79","389439","0.0-21.0-0.0","SS1619205544508","","","null","","","","","","<p><img src= images/blank.png width =""600"" height = ""600"" style=""position:fixed;top:50%; left:50%; transform: translate(-50%, -50%); border:5px solid black"">","","","","","","","",""
"","1689.6450000003679","sequential-stimulus-presentation-old","80","391634","0.0-21.0-1.0","SS1619205544508","trial","","40","500","2189.645000000368","images/stimuli/spore_stims/simple_14_A_b.gif","images/stimuli/spore_stims/simple_01_A_a.gif","self_paced","","6","simple_dissimilar","images/stimuli/spore_stims/simple_01_A_a.gif","","","","",""
"","null","html-keyboard-response","81","392719","0.0-21.0-0.1","SS1619205544508","","","null","","","","","","<p><img src= images/blank.png width =""600"" height = ""600"" style=""position:fixed;top:50%; left:50%; transform: translate(-50%, -50%); border:5px solid black"">","","","","","","","",""
"","2002.6800000014482","sequential-stimulus-presentation-old","82","395227","0.0-21.0-1.1","SS1619205544508","trial","","40","500","2502.680000001448","images/stimuli/spore_stims/simple_14_A_b.gif","images/stimuli/spore_stims/simple_01_A_a.gif","self_paced","","6","simple_dissimilar","images/stimuli/spore_stims/simple_01_A_a.gif","","","","",""
"","null","html-keyboard-response","83","396372","0.0-21.0-0.2","SS1619205544508","","","null","","","","","","<p><img src= images/blank.png width =""600"" height = ""600"" style=""position:fixed;top:50%; left:50%; transform: translate(-50%, -50%); border:5px solid black"">","","","","","","","",""
"","2088.644999999786","sequential-stimulus-presentation-old","84","398972","0.0-21.0-1.2","SS1619205544508","trial","","40","500","2588.644999999786","images/stimuli/spore_stims/simple_14_A_b.gif","images/stimuli/spore_stims/simple_01_A_a.gif","self_paced","","6","simple_dissimilar","images/stimuli/spore_stims/simple_01_A_a.gif","","","","",""
"","null","html-keyboard-response","85","400167","0.0-21.0-0.3","SS1619205544508","","","null","","","","","","<p><img src= images/blank.png width =""600"" height = ""600"" style=""position:fixed;top:50%; left:50%; transform: translate(-50%, -50%); border:5px solid black"">","","","","","","","",""
"","4211.240000000573","sequential-stimulus-presentation-old","86","404884","0.0-21.0-1.3","SS1619205544508","trial","","40","500","4711.240000000573","images/stimuli/spore_stims/simple_14_A_b.gif","images/stimuli/spore_stims/simple_01_A_a.gif","self_paced","","6","simple_dissimilar","images/stimuli/spore_stims/simple_01_A_a.gif","","","","",""
"","null","html-keyboard-response","87","405718","0.0-21.0-0.4","SS1619205544508","","","null","","","","","","<p><img src= images/blank.png width =""600"" height = ""600"" style=""position:fixed;top:50%; left:50%; transform: translate(-50%, -50%); border:5px solid black"">","","","","","","","",""
"","6173.349999999104","sequential-stimulus-presentation-old","88","412401","0.0-21.0-1.4","SS1619205544508","trial","","40","500","6673.349999999104","images/stimuli/spore_stims/simple_14_A_b.gif","images/stimuli/spore_stims/simple_01_A_a.gif","self_paced","","6","simple_dissimilar","images/stimuli/spore_stims/simple_01_A_a.gif","","","","",""
"","null","html-keyboard-response","89","413282","0.0-21.0-0.5","SS1619205544508","","","null","","","","","","<p><img src= images/blank.png width =""600"" height = ""600"" style=""position:fixed;top:50%; left:50%; transform: translate(-50%, -50%); border:5px solid black"">","","","","","","","",""
"","3807.415000001143","sequential-stimulus-presentation-old","90","417598","0.0-21.0-1.5","SS1619205544508","trial","","40","500","4307.415000001143","images/stimuli/spore_stims/simple_14_A_b.gif","images/stimuli/spore_stims/simple_01_A_a.gif","self_paced","","6","simple_dissimilar","images/stimuli/spore_stims/simple_01_A_a.gif","","","","",""
"","5626.009999999951","survey-multi-choice","91","423227","0.0-22.0","SS1619205544508","math_question","","","","","","","","","","","","{""Q0"":""10""}","[0]","10","",""
"","null","html-keyboard-response","92","424341","0.0-23.0-0.0","SS1619205544508","","","null","","","","","","<p><img src= images/blank.png width =""600"" height = ""600"" style=""position:fixed;top:50%; left:50%; transform: translate(-50%, -50%); border:5px solid black"">","","","","","","","",""
"","17901.619999998773","sequential-stimulus-presentation-old","93","442347","0.0-23.0-1.0","SS1619205544508","trial","","40","500","18401.619999998773","images/stimuli/spore_stims/complex_06_A_a.gif","images/stimuli/spore_stims/complex_04_A_b.gif","forced_short","","7","complex_dissimilar","images/stimuli/spore_stims/complex_04_A_b.gif","","","","",""
"","null","html-keyboard-response","94","443546","0.0-23.0-0.1","SS1619205544508","","","null","","","","","","<p><img src= images/blank.png width =""600"" height = ""600"" style=""position:fixed;top:50%; left:50%; transform: translate(-50%, -50%); border:5px solid black"">","","","","","","","",""
"","2894.360000000219","sequential-stimulus-presentation-old","95","446946","0.0-23.0-1.1","SS1619205544508","trial","","40","500","3394.360000000219","images/stimuli/spore_stims/complex_06_A_a.gif","images/stimuli/spore_stims/complex_04_A_b.gif","forced_short","","7","complex_dissimilar","images/stimuli/spore_stims/complex_04_A_b.gif","","","","",""
"","null","html-keyboard-response","96","447969","0.0-23.0-0.2","SS1619205544508","","","null","","","","","","<p><img src= images/blank.png width =""600"" height = ""600"" style=""position:fixed;top:50%; left:50%; transform: translate(-50%, -50%); border:5px solid black"">","","","","","","","",""
"","1106.374999999418","sequential-stimulus-presentation-old","97","449580","0.0-23.0-1.2","SS1619205544508","trial","","40","500","1606.374999999418","images/stimuli/spore_stims/complex_06_A_a.gif","images/stimuli/spore_stims/complex_04_A_b.gif","forced_short","","7","complex_dissimilar","images/stimuli/spore_stims/complex_04_A_b.gif","","","","",""
"","null","html-keyboard-response","98","450668","0.0-23.0-0.3","SS1619205544508","","","null","","","","","","<p><img src= images/blank.png width =""600"" height = ""600"" style=""position:fixed;top:50%; left:50%; transform: translate(-50%, -50%); border:5px solid black"">","","","","","","","",""
"","2243.984999999171","sequential-stimulus-presentation-old","99","453417","0.0-23.0-1.3","SS1619205544508","trial","","40","500","2743.984999999171","images/stimuli/spore_stims/complex_06_A_a.gif","images/stimuli/spore_stims/complex_04_A_b.gif","forced_short","","7","complex_dissimilar","images/stimuli/spore_stims/complex_06_A_a.gif","","","","",""
"","null","html-keyboard-response","100","454698","0.0-23.0-0.4","SS1619205544508","","","null","","","","","","<p><img src= images/blank.png width =""600"" height = ""600"" style=""position:fixed;top:50%; left:50%; transform: translate(-50%, -50%); border:5px solid black"">","","","","","","","",""
"","1392.165000001085","sequential-stimulus-presentation-old","101","456594","0.0-23.0-1.4","SS1619205544508","trial","","40","500","1892.165000001085","images/stimuli/spore_stims/complex_06_A_a.gif","images/stimuli/spore_stims/complex_04_A_b.gif","forced_short","","7","complex_dissimilar","images/stimuli/spore_stims/complex_06_A_a.gif","","","","",""
"","4853.1199999997625","survey-multi-choice","102","461450","0.0-24.0","SS1619205544508","math_question","","","","","","","","","","","","{""Q0"":""5""}","[0]","5","",""
"","null","html-keyboard-response","103","462358","0.0-25.0-0.0","SS1619205544508","","","null","","","","","","<p><img src= images/blank.png width =""600"" height = ""600"" style=""position:fixed;top:50%; left:50%; transform: translate(-50%, -50%); border:5px solid black"">","","","","","","","",""
"","10489.240000000806","sequential-stimulus-presentation-old","104","472952","0.0-25.0-1.0","SS1619205544508","trial","","40","500","10989.240000000806","images/stimuli/spore_stims/simple_05_A_b.gif","images/stimuli/spore_stims/simple_10_A_a.gif","forced_short","","8","simple_dissimilar","images/stimuli/spore_stims/simple_10_A_a.gif","","","","",""
"","null","html-keyboard-response","105","474137","0.0-25.0-0.1","SS1619205544508","","","null","","","","","","<p><img src= images/blank.png width =""600"" height = ""600"" style=""position:fixed;top:50%; left:50%; transform: translate(-50%, -50%); border:5px solid black"">","","","","","","","",""
"","6266.315000000759","sequential-stimulus-presentation-old","106","480910","0.0-25.0-1.1","SS1619205544508","trial","","40","500","6766.315000000759","images/stimuli/spore_stims/simple_05_A_b.gif","images/stimuli/spore_stims/simple_10_A_a.gif","forced_short","","8","simple_dissimilar","images/stimuli/spore_stims/simple_10_A_a.gif","","","","",""
"","null","html-keyboard-response","107","481827","0.0-25.0-0.2","SS1619205544508","","","null","","","","","","<p><img src= images/blank.png width =""600"" height = ""600"" style=""position:fixed;top:50%; left:50%; transform: translate(-50%, -50%); border:5px solid black"">","","","","","","","",""
"","4576.844999999565","sequential-stimulus-presentation-old","108","486909","0.0-25.0-1.2","SS1619205544508","trial","","40","500","5076.844999999565","images/stimuli/spore_stims/simple_05_A_b.gif","images/stimuli/spore_stims/simple_10_A_a.gif","forced_short","","8","simple_dissimilar","images/stimuli/spore_stims/simple_05_A_b.gif","","","","",""
"","null","html-keyboard-response","109","488212","0.0-25.0-0.3","SS1619205544508","","","null","","","","","","<p><img src= images/blank.png width =""600"" height = ""600"" style=""position:fixed;top:50%; left:50%; transform: translate(-50%, -50%); border:5px solid black"">","","","","","","","",""
"","3344.4550000003655","sequential-stimulus-presentation-old","110","492061","0.0-25.0-1.3","SS1619205544508","trial","","40","500","3844.4550000003655","images/stimuli/spore_stims/simple_05_A_b.gif","images/stimuli/spore_stims/simple_10_A_a.gif","forced_short","","8","simple_dissimilar","images/stimuli/spore_stims/simple_10_A_a.gif","","","","",""
"","6051.865000001271","survey-multi-choice","111","498116","0.0-26.0","SS1619205544508","math_question","","","","","","","","","","","","{""Q0"":""15""}","[0]","15","",""
"","null","html-keyboard-response","112","499310","0.0-27.0-0.0","SS1619205544508","","","null","","","","","","<p><img src= images/blank.png width =""600"" height = ""600"" style=""position:fixed;top:50%; left:50%; transform: translate(-50%, -50%); border:5px solid black"">","","","","","","","",""
"","1646.445000000298","sequential-stimulus-presentation-old","113","501475","0.0-27.0-1.0","SS1619205544508","trial","","40","500","2146.445000000298","images/stimuli/spore_stims/simple_19_A_a.gif","images/stimuli/spore_stims/simple_09_A_b.gif","self_paced","","9","simple_dissimilar","images/stimuli/spore_stims/simple_09_A_b.gif","","","","",""
"","null","html-keyboard-response","114","502507","0.0-27.0-0.1","SS1619205544508","","","null","","","","","","<p><img src= images/blank.png width =""600"" height = ""600"" style=""position:fixed;top:50%; left:50%; transform: translate(-50%, -50%); border:5px solid black"">","","","","","","","",""
"","2184.670000000566","sequential-stimulus-presentation-old","115","505197","0.0-27.0-1.1","SS1619205544508","trial","","40","500","2684.670000000566","images/stimuli/spore_stims/simple_19_A_a.gif","images/stimuli/spore_stims/simple_09_A_b.gif","self_paced","","9","simple_dissimilar","images/stimuli/spore_stims/simple_09_A_b.gif","","","","",""
"","null","html-keyboard-response","116","506429","0.0-27.0-0.2","SS1619205544508","","","null","","","","","","<p><img src= images/blank.png width =""600"" height = ""600"" style=""position:fixed;top:50%; left:50%; transform: translate(-50%, -50%); border:5px solid black"">","","","","","","","",""
"","2300.839999999851","sequential-stimulus-presentation-old","117","509242","0.0-27.0-1.2","SS1619205544508","trial","","40","500","2800.839999999851","images/stimuli/spore_stims/simple_19_A_a.gif","images/stimuli/spore_stims/simple_09_A_b.gif","self_paced","","9","simple_dissimilar","images/stimuli/spore_stims/simple_09_A_b.gif","","","","",""
"","null","html-keyboard-response","118","510061","0.0-27.0-0.3","SS1619205544508","","","null","","","","","","<p><img src= images/blank.png width =""600"" height = ""600"" style=""position:fixed;top:50%; left:50%; transform: translate(-50%, -50%); border:5px solid black"">","","","","","","","",""
"","2838.9599999990896","sequential-stimulus-presentation-old","119","513413","0.0-27.0-1.3","SS1619205544508","trial","","40","500","3338.9599999990896","images/stimuli/spore_stims/simple_19_A_a.gif","images/stimuli/spore_stims/simple_09_A_b.gif","self_paced","","9","simple_dissimilar","images/stimuli/spore_stims/simple_09_A_b.gif","","","","",""
"","null","html-keyboard-response","120","514453","0.0-27.0-0.4","SS1619205544508","","","null","","","","","","<p><img src= images/blank.png width =""600"" height = ""600"" style=""position:fixed;top:50%; left:50%; transform: translate(-50%, -50%); border:5px solid black"">","","","","","","","",""
"","3882.055000000051","sequential-stimulus-presentation-old","121","518839","0.0-27.0-1.4","SS1619205544508","trial","","40","500","4382.055000000051","images/stimuli/spore_stims/simple_19_A_a.gif","images/stimuli/spore_stims/simple_09_A_b.gif","self_paced","","9","simple_dissimilar","images/stimuli/spore_stims/simple_19_A_a.gif","","","","",""
"","null","html-keyboard-response","122","520133","0.0-27.0-0.5","SS1619205544508","","","null","","","","","","<p><img src= images/blank.png width =""600"" height = ""600"" style=""position:fixed;top:50%; left:50%; transform: translate(-50%, -50%); border:5px solid black"">","","","","","","","",""
"","2656.659999998752","sequential-stimulus-presentation-old","123","523294","0.0-27.0-1.5","SS1619205544508","trial","","40","500","3156.659999998752","images/stimuli/spore_stims/simple_19_A_a.gif","images/stimuli/spore_stims/simple_09_A_b.gif","self_paced","","9","simple_dissimilar","images/stimuli/spore_stims/simple_19_A_a.gif","","","","",""
"","3328.6549999993294","survey-multi-choice","124","526626","0.0-28.0","SS1619205544508","math_question","","","","","","","","","","","","{""Q0"":""2""}","[0]","2","",""
"","null","html-keyboard-response","125","527714","0.0-29.0-0.0","SS1619205544508","","","null","","","","","","<p><img src= images/blank.png width =""600"" height = ""600"" style=""position:fixed;top:50%; left:50%; transform: translate(-50%, -50%); border:5px solid black"">","","","","","","","",""
"","3152.465000001015","sequential-stimulus-presentation-old","126","540872","0.0-29.0-1.0","SS1619205544508","trial","","40","500","3652.465000001015","images/stimuli/spore_stims/simple_10_A_b.gif","images/stimuli/spore_stims/simple_13_A_a.gif","forced_long","","10","simple_dissimilar","images/stimuli/spore_stims/simple_13_A_a.gif","","","","",""
"","null","html-keyboard-response","127","541982","0.0-29.0-0.1","SS1619205544508","","","null","","","","","","<p><img src= images/blank.png width =""600"" height = ""600"" style=""position:fixed;top:50%; left:50%; transform: translate(-50%, -50%); border:5px solid black"">","","","","","","","",""
"","6471.230000001029","sequential-stimulus-presentation-old","128","548959","0.0-29.0-1.1","SS1619205544508","trial","","40","500","6971.230000001029","images/stimuli/spore_stims/simple_10_A_b.gif","images/stimuli/spore_stims/simple_13_A_a.gif","forced_long","","10","simple_dissimilar","images/stimuli/spore_stims/simple_13_A_a.gif","","","","",""
"","null","html-keyboard-response","129","549925","0.0-29.0-0.2","SS1619205544508","","","null","","","","","","<p><img src= images/blank.png width =""600"" height = ""600"" style=""position:fixed;top:50%; left:50%; transform: translate(-50%, -50%); border:5px solid black"">","","","","","","","",""
"","982.015000001411","sequential-stimulus-presentation-old","130","551413","0.0-29.0-1.2","SS1619205544508","trial","","40","500","1482.015000001411","images/stimuli/spore_stims/simple_10_A_b.gif","images/stimuli/spore_stims/simple_13_A_a.gif","forced_long","","10","simple_dissimilar","images/stimuli/spore_stims/simple_13_A_a.gif","","","","",""
"","null","html-keyboard-response","131","552301","0.0-29.0-0.3","SS1619205544508","","","null","","","","","","<p><img src= images/blank.png width =""600"" height = ""600"" style=""position:fixed;top:50%; left:50%; transform: translate(-50%, -50%); border:5px solid black"">","","","","","","","",""
"","481.7600000005914","sequential-stimulus-presentation-old","132","553288","0.0-29.0-1.3","SS1619205544508","trial","","40","500","981.7600000005914","images/stimuli/spore_stims/simple_10_A_b.gif","images/stimuli/spore_stims/simple_13_A_a.gif","forced_long","","10","simple_dissimilar","images/stimuli/spore_stims/simple_10_A_b.gif","","","","",""
"","null","html-keyboard-response","133","554146","0.0-29.0-0.4","SS1619205544508","","","null","","","","","","<p><img src= images/blank.png width =""600"" height = ""600"" style=""position:fixed;top:50%; left:50%; transform: translate(-50%, -50%); border:5px solid black"">","","","","","","","",""
"","145.81999999971595","sequential-stimulus-presentation-old","134","554797","0.0-29.0-1.4","SS1619205544508","trial","","40","500","645.819999999716","images/stimuli/spore_stims/simple_10_A_b.gif","images/stimuli/spore_stims/simple_13_A_a.gif","forced_long","","10","simple_dissimilar","images/stimuli/spore_stims/simple_13_A_a.gif","","","","",""
"","2507.4749999985797","survey-multi-choice","135","557308","0.0-30.0","SS1619205544508","math_question","","","","","","","","","","","","{""Q0"":""5""}","[0]","5","",""
"","null","html-keyboard-response","136","558416","0.0-31.0-0.0","SS1619205544508","","","null","","","","","","<p><img src= images/blank.png width =""600"" height = ""600"" style=""position:fixed;top:50%; left:50%; transform: translate(-50%, -50%); border:5px solid black"">","","","","","","","",""
"","980.8749999993015","sequential-stimulus-presentation-old","137","569404","0.0-31.0-1.0","SS1619205544508","trial","","40","500","1480.8749999993015","images/stimuli/spore_stims/simple_13_A_b.gif","images/stimuli/spore_stims/simple_18_A_a.gif","forced_long","","11","simple_dissimilar","images/stimuli/spore_stims/simple_18_A_a.gif","","","","",""
"","null","html-keyboard-response","138","570620","0.0-31.0-0.1","SS1619205544508","","","null","","","","","","<p><img src= images/blank.png width =""600"" height = ""600"" style=""position:fixed;top:50%; left:50%; transform: translate(-50%, -50%); border:5px solid black"">","","","","","","","",""
"","500.86000000010245","sequential-stimulus-presentation-old","139","571632","0.0-31.0-1.1","SS1619205544508","trial","","40","500","1000.8600000001024","images/stimuli/spore_stims/simple_13_A_b.gif","images/stimuli/spore_stims/simple_18_A_a.gif","forced_long","","11","simple_dissimilar","images/stimuli/spore_stims/simple_18_A_a.gif","","","","",""
"","null","html-keyboard-response","140","572789","0.0-31.0-0.2","SS1619205544508","","","null","","","","","","<p><img src= images/blank.png width =""600"" height = ""600"" style=""position:fixed;top:50%; left:50%; transform: translate(-50%, -50%); border:5px solid black"">","","","","","","","",""
"","1636.500000000582","sequential-stimulus-presentation-old","141","574930","0.0-31.0-1.2","SS1619205544508","trial","","40","500","2136.500000000582","images/stimuli/spore_stims/simple_13_A_b.gif","images/stimuli/spore_stims/simple_18_A_a.gif","forced_long","","11","simple_dissimilar","images/stimuli/spore_stims/simple_18_A_a.gif","","","","",""
"","null","html-keyboard-response","142","576229","0.0-31.0-0.3","SS1619205544508","","","null","","","","","","<p><img src= images/blank.png width =""600"" height = ""600"" style=""position:fixed;top:50%; left:50%; transform: translate(-50%, -50%); border:5px solid black"">","","","","","","","",""
"","2839.605000001029","sequential-stimulus-presentation-old","143","579574","0.0-31.0-1.3","SS1619205544508","trial","","40","500","3339.605000001029","images/stimuli/spore_stims/simple_13_A_b.gif","images/stimuli/spore_stims/simple_18_A_a.gif","forced_long","","11","simple_dissimilar","images/stimuli/spore_stims/simple_18_A_a.gif","","","","",""
"","null","html-keyboard-response","144","580471","0.0-31.0-0.4","SS1619205544508","","","null","","","","","","<p><img src= images/blank.png width =""600"" height = ""600"" style=""position:fixed;top:50%; left:50%; transform: translate(-50%, -50%); border:5px solid black"">","","","","","","","",""
"","3052.220000001369","sequential-stimulus-presentation-old","145","584028","0.0-31.0-1.4","SS1619205544508","trial","","40","500","3552.220000001369","images/stimuli/spore_stims/simple_13_A_b.gif","images/stimuli/spore_stims/simple_18_A_a.gif","forced_long","","11","simple_dissimilar","images/stimuli/spore_stims/simple_13_A_b.gif","","","","",""
"[{""page_index"":0,""viewing_time"":3205.769999998738}]","3206.0899999997346","instructions","146","587238","0.0-32.0","SS1619205544508","instructions","","","","","","","","","","","","","","","",""
"","2969.485000001383","survey-likert","147","590213","0.0-33.0","SS1619205544508","similarity_question","","","","","","","","","","","","{""Q0"":4}","[0]","","images/stimuli/spore_stims/simple_17_A_a.gif","images/stimuli/spore_stims/simple_07_A_b.gif"
"","2678.9499999994878","survey-likert","148","592902","0.0-34.0","SS1619205544508","similarity_question","","","","","","","","","","","","{""Q0"":6}","[0]","","images/stimuli/spore_stims/simple_10_A_a.gif","images/stimuli/spore_stims/simple_05_A_b.gif"
"","4860.889999999898","survey-likert","149","597774","0.0-35.0","SS1619205544508","similarity_question","","","","","","","","","","","","{""Q0"":1}","[0]","","images/stimuli/spore_stims/complex_06_A_a.gif","images/stimuli/spore_stims/complex_04_A_b.gif"
"","3400.2700000000186","survey-likert","150","601186","0.0-36.0","SS1619205544508","similarity_question","","","","","","","","","","","","{""Q0"":2}","[0]","","images/stimuli/spore_stims/complex_14_A_a.gif","images/stimuli/spore_stims/complex_03_A_b.gif"
"","2341.95999999973","survey-likert","151","603541","0.0-37.0","SS1619205544508","similarity_question","","","","","","","","","","","","{""Q0"":5}","[0]","","images/stimuli/spore_stims/simple_10_A_b.gif","images/stimuli/spore_stims/simple_13_A_a.gif"
"","2908.274999999674","survey-likert","152","606462","0.0-38.0","SS1619205544508","similarity_question","","","","","","","","","","","","{""Q0"":2}","[0]","","images/stimuli/spore_stims/simple_09_A_b.gif","images/stimuli/spore_stims/simple_19_A_a.gif"
"","3001.16999999946","survey-likert","153","609475","0.0-39.0","SS1619205544508","similarity_question","","","","","","","","","","","","{""Q0"":0}","[0]","","images/stimuli/spore_stims/complex_11_A_a.gif","images/stimuli/spore_stims/complex_12_A_b.gif"
"","2420.0349999992177","survey-likert","154","611907","0.0-40.0","SS1619205544508","similarity_question","","","","","","","","","","","","{""Q0"":1}","[0]","","images/stimuli/spore_stims/complex_14_A_b.gif","images/stimuli/spore_stims/complex_10_A_a.gif"
"","3898.704999999609","survey-likert","155","615817","0.0-41.0","SS1619205544508","similarity_question","","","","","","","","","","","","{""Q0"":5}","[0]","","images/stimuli/spore_stims/simple_14_A_b.gif","images/stimuli/spore_stims/simple_01_A_a.gif"
"","2349.879999999772","survey-likert","156","618177","0.0-42.0","SS1619205544508","similarity_question","","","","","","","","","","","","{""Q0"":2}","[0]","","images/stimuli/spore_stims/simple_18_A_a.gif","images/stimuli/spore_stims/simple_13_A_b.gif"
"","3556.2200000003213","survey-likert","157","621747","0.0-43.0","SS1619205544508","similarity_question","","","","","","","","","","","","{""Q0"":4}","[0]","","images/stimuli/spore_stims/complex_15_A_b.gif","images/stimuli/spore_stims/complex_04_A_a.gif"
"","2275.9599999990314","survey-likert","158","624033","0.0-44.0","SS1619205544508","similarity_question","","","","","","","","","","","","{""Q0"":4}","[0]","","images/stimuli/spore_stims/complex_13_A_b.gif","images/stimuli/spore_stims/complex_20_A_a.gif"
"[{""page_index"":0,""viewing_time"":2401.099999999162}]","2401.434999999823","instructions","159","626444","0.0-45.0","SS1619205544508","instructions","","","","","","","","","","","","","","","",""
"","3915.134999999311","survey-likert","160","630365","0.0-46.0","SS1619205544508","","","","","","","","","images/stimuli/spore_stims/simple_13_A_b.gif","","","","{""Q0"":1}","[0]","","",""
"","2256.4849999998696","survey-likert","161","632633","0.0-47.0","SS1619205544508","","","","","","","","","images/stimuli/spore_stims/simple_10_A_b.gif","","","","{""Q0"":1}","[0]","","",""
"","1863.8800000008196","survey-likert","162","634507","0.0-48.0","SS1619205544508","","","","","","","","","images/stimuli/spore_stims/simple_05_A_b.gif","","","","{""Q0"":1}","[0]","","",""
"","1890.2400000006892","survey-likert","163","636409","0.0-49.0","SS1619205544508","","","","","","","","","images/stimuli/spore_stims/simple_19_A_a.gif","","","","{""Q0"":1}","[0]","","",""
"","1962.4700000003213","survey-likert","164","638383","0.0-50.0","SS1619205544508","","","","","","","","","images/stimuli/spore_stims/simple_01_A_a.gif","","","","{""Q0"":1}","[0]","","",""
"","2323.8000000000466","survey-likert","165","640717","0.0-51.0","SS1619205544508","","","","","","","","","images/stimuli/spore_stims/complex_13_A_b.gif","","","","{""Q0"":5}","[0]","","",""
"","1960.165000000503","survey-likert","166","642687","0.0-52.0","SS1619205544508","","","","","","","","","images/stimuli/spore_stims/complex_04_A_b.gif","","","","{""Q0"":5}","[0]","","",""
"","1518.6899999988964","survey-likert","167","644217","0.0-53.0","SS1619205544508","","","","","","","","","images/stimuli/spore_stims/complex_11_A_a.gif","","","","{""Q0"":5}","[0]","","",""
"","2718.4499999985565","survey-likert","168","646947","0.0-54.0","SS1619205544508","","","","","","","","","images/stimuli/spore_stims/complex_03_A_b.gif","","","","{""Q0"":4}","[0]","","",""
"","2057.534999999916","survey-likert","169","649015","0.0-55.0","SS1619205544508","","","","","","","","","images/stimuli/spore_stims/simple_17_A_a.gif","","","","{""Q0"":1}","[0]","","",""
"","3470.5849999990314","survey-likert","170","652497","0.0-56.0","SS1619205544508","","","","","","","","","images/stimuli/spore_stims/complex_14_A_b.gif","","","","{""Q0"":4}","[0]","","",""
"","3305.3749999998836","survey-likert","171","655813","0.0-57.0","SS1619205544508","","","","","","","","","images/stimuli/spore_stims/complex_04_A_a.gif","","","","{""Q0"":4}","[0]","","",""
"[{""page_index"":0,""viewing_time"":1794.6350000002421}]","1794.9499999994878","instructions","172","657620","0.0-58.0","SS1619205544508","instructions","","","","","","","","","","","","","","","",""
"","2832.3299999992596","demog-age","173","660463","0.0-59.0","SS1619205544508","","","","","","","","","","","","","{""age"":""18""}","","","",""
"","4186.324999998789","demog-ethnic-US","174","664660","0.0-60.0","SS1619205544508","","","","","","","","","","","","","{""ethnicity"":[""White""]}","[0]","","",""
"","4594.8000000008615","demog-gender-and-education","175","669267","0.0-61.0","SS1619205544508","","","","","","","","","","","","","{""gender"":""Male"",""education"":""High school diploma""}","[0,1]","","",""
"","5915.129999999306","survey-text","176","675198","0.0-62.0","SS1619205544508","feedback","","","","","","","","","","","","{""Q0"":""No""}","","","",""
"[{""page_index"":0,""viewing_time"":1717.350000000908}]","1717.585000000312","instructions","177","676920","0.0-63.0","SS1619205544508","instructions","","","","","","","","","","","","","","","",""
