success,trial_type,trial_index,time_elapsed,internal_node_id,subject,rt,responses,stimulus,key_press,view_history,stimulus_type,subject_num,condition_num,block_number,block_type,fam_duration,stimulus_displayed,response,question_order
TRUE,fullscreen,0,2330,0.0-0.0,SS1654095835525,,,,,,,,,,,,,,
,survey-text,1,4596,0.0-1.0,SS1654095835525,2263.5,"{""Age"":""275"",""Gender"":""F""}",,,,,,,,,,,,
,audio-keyboard-response,2,10914,0.0-2.0,SS1654095835525,6317.4,,stimuli/audio/music_intro.wav,40,,,,,,,,,,
,html-keyboard-response,3,13097,0.0-3.0,SS1654095835525,2181.3,,<p><img src=stimuli/intro/intro2.jpeg width ='1200' height = '667'></p>,93,,,,,,,,,,
,html-keyboard-response,4,13238,0.0-4.0,SS1654095835525,140.4000001,,<p><img src=stimuli/intro/intro3.jpeg width ='1200' height = '667'></p>,189,,,,,,,,,,
,html-keyboard-response,5,60101,0.0-5.0,SS1654095835525,46858.6,,<p><img src=stimuli/intro/intro4.jpeg width ='1200' height = '667'></p>,40,,,,,,,,,,
,html-keyboard-response,6,69517,0.0-6.0,SS1654095835525,9396.7,,<p><img src=stimuli/intro/intro5.jpeg width ='1200' height = '667'></p>,39,,,,,,,,,,
,html-keyboard-response,7,69569,0.0-7.0,SS1654095835525,51.39999998,,<p><img src=stimuli/intro/intro6.jpeg width ='1200' height = '667'></p>,40,,,,,,,,,,
,html-keyboard-response,8,72325,0.0-8.0,SS1654095835525,2751.6,,<p><img src=stimuli/intro/intro7.jpeg width ='1200' height = '667'></p>,40,,,,,,,,,,
,html-keyboard-response,9,78754,0.0-9.0,SS1654095835525,6422.5,,<p><img src=stimuli/intro/intro8.jpeg width ='1200' height = '667'></p>,40,,,,,,,,,,
,instructions,10,112254,0.0-10.0,SS1654095835525,33488.6,,,,"[{""page_index"":0,""viewing_time"":33488.39999997616}]",,,,,,,,,
,video-keyboard-response,11,130478,0.0-11.0,SS1654095835525,null,,"[""stimuli/images/calibration.mp4""]",null,,calibration,,,,,,,,
,video-keyboard-response,12,135142,0.0-12.0,SS1654095835525,null,,"[""stimuli/images/attngetter_quiet.mp4""]",null,,attention_getter,,,,,,,,
,video-keyboard-response,13,223472,0.0-13.0,SS1654095835525,88327.8,,"[""stimuli/images/unity_stims/unitystims_004_Left_8fam_deviant_2_withmusic_new.mp4""]",40,,trial,6,6,1,deviant,8,stimuli/images/unity_stims/unitystims_004_Left_8fam_deviant_2_withmusic_new.mp4,,
,html-keyboard-response,14,223726,0.0-14.0,SS1654095835525,253.9,,"<p><img src=""stimuli/images/attngetter_blank.png""></p>",40,,between_block,,,,,,,,
,video-keyboard-response,15,228400,0.0-15.0,SS1654095835525,null,,"[""stimuli/images/attngetter_quiet.mp4""]",null,,attention_getter,,,,,,,,
,video-keyboard-response,16,254672,0.0-16.0,SS1654095835525,26270.7,,"[""stimuli/images/unity_stims/unitystims_005_Right_0fam_background_1_withmusic_new.mp4""]",40,,trial,6,6,2,background,0,stimuli/images/unity_stims/unitystims_005_Right_0fam_background_1_withmusic_new.mp4,,
,html-keyboard-response,17,255806,0.0-17.0,SS1654095835525,1133.9,,"<p><img src=""stimuli/images/attngetter_blank.png""></p>",40,,between_block,,,,,,,,
,video-keyboard-response,18,260429,0.0-18.0,SS1654095835525,null,,"[""stimuli/images/attngetter_quiet.mp4""]",null,,attention_getter,,,,,,,,
,video-keyboard-response,19,307267,0.0-19.0,SS1654095835525,46830,,"[""stimuli/images/unity_stims/unitystims_003_Right_8fam_background_1_withmusic_new.mp4""]",40,,trial,6,6,3,background,8,stimuli/images/unity_stims/unitystims_003_Right_8fam_background_1_withmusic_new.mp4,,
,html-keyboard-response,20,312975,0.0-20.0,SS1654095835525,5706.8,,"<p><img src=""stimuli/images/attngetter_blank.png""></p>",40,,between_block,,,,,,,,
,video-keyboard-response,21,317622,0.0-21.0,SS1654095835525,null,,"[""stimuli/images/attngetter_quiet.mp4""]",null,,attention_getter,,,,,,,,
,video-keyboard-response,22,335383,0.0-22.0,SS1654095835525,17759.6,,"[""stimuli/images/unity_stims/unitystims_002_Right_0fam_deviant_2_withmusic_new.mp4""]",40,,trial,6,6,4,deviant,0,stimuli/images/unity_stims/unitystims_002_Right_0fam_deviant_2_withmusic_new.mp4,,
,html-keyboard-response,23,336451,0.0-23.0,SS1654095835525,1067.4,,"<p><img src=""stimuli/images/attngetter_blank.png""></p>",40,,between_block,,,,,,,,
,video-keyboard-response,24,341052,0.0-24.0,SS1654095835525,null,,"[""stimuli/images/attngetter_quiet.mp4""]",null,,attention_getter,,,,,,,,
,video-keyboard-response,25,358101,0.0-25.0,SS1654095835525,17044.3,,"[""stimuli/images/unity_stims/unitystims_006_Left_4fam_deviant_2_withmusic_new.mp4""]",40,,trial,6,6,5,deviant,4,stimuli/images/unity_stims/unitystims_006_Left_4fam_deviant_2_withmusic_new.mp4,,
,html-keyboard-response,26,389032,0.0-26.0,SS1654095835525,30930.2,,"<p><img src=""stimuli/images/attngetter_blank.png""></p>",40,,between_block,,,,,,,,
,video-keyboard-response,27,393646,0.0-27.0,SS1654095835525,null,,"[""stimuli/images/attngetter_quiet.mp4""]",null,,attention_getter,,,,,,,,
,video-keyboard-response,28,426514,0.0-28.0,SS1654095835525,32865.8,,"[""stimuli/images/unity_stims/unitystims_001_Left_4fam_background_1_withmusic_new.mp4""]",40,,trial,6,6,6,background,4,stimuli/images/unity_stims/unitystims_001_Left_4fam_background_1_withmusic_new.mp4,,
,video-keyboard-response,29,449654,0.0-29.0,SS1654095835525,null,,"[""stimuli/images/calibration_end.mp4""]",null,,calibration_end,,,,,,,,
,html-keyboard-response,30,493672,0.0-30.0,SS1654095835525,44017.4,,"<p><span style=""font-family: arial, helvetica, sans-serif; font-size: 48px; color: #993300;""> That's it! Thank you so much for your participation! </span></p>",40,,,,,,,,,,
,survey-multi-choice,31,541204,0.0-31.0,SS1654095835525,47530.1,,,,,,,,,,,,[object Object],0