"success","trial_type","trial_index","time_elapsed","internal_node_id","subject","rt","responses","stimulus","key_press","view_history","stimulus_type","subject_num","condition_num","block_number","block_type","fam_duration","stimulus_displayed","response","question_order"
"true","fullscreen","0","501698","0.0-0.0","SS1660082376527","","","","","","","","","","","","","",""
"","survey-text","1","520962","0.0-1.0","SS1660082376527","19261.5","{""Age"":""329"",""Gender"":""M""}","","","","","","","","","","","",""
"","audio-keyboard-response","2","525315","0.0-2.0","SS1660082376527","4350.70000000298","","stimuli/audio/music_intro.wav","39","","","","","","","","","",""
"","html-keyboard-response","3","527842","0.0-3.0","SS1660082376527","2526.1000000089407","","<p><img src=stimuli/intro/intro2.jpeg width ='1200' height = '667'></p>","39","","","","","","","","","",""
"","html-keyboard-response","4","609561","0.0-4.0","SS1660082376527","81718.5","","<p><img src=stimuli/intro/intro3.jpeg width ='1200' height = '667'></p>","16","","","","","","","","","",""
"","html-keyboard-response","5","628221","0.0-5.0","SS1660082376527","18660.10000000894","","<p><img src=stimuli/intro/intro4.jpeg width ='1200' height = '667'></p>","39","","","","","","","","","",""
"","html-keyboard-response","6","645468","0.0-6.0","SS1660082376527","17246","","<p><img src=stimuli/intro/intro5.jpeg width ='1200' height = '667'></p>","39","","","","","","","","","",""
"","html-keyboard-response","7","657320","0.0-7.0","SS1660082376527","11851.40000000596","","<p><img src=stimuli/intro/intro6.jpeg width ='1200' height = '667'></p>","39","","","","","","","","","",""
"","html-keyboard-response","8","658470","0.0-8.0","SS1660082376527","1149.5","","<p><img src=stimuli/intro/intro7.jpeg width ='1200' height = '667'></p>","39","","","","","","","","","",""
"","html-keyboard-response","9","675364","0.0-9.0","SS1660082376527","16893.40000000596","","<p><img src=stimuli/intro/intro8.jpeg width ='1200' height = '667'></p>","39","","","","","","","","","",""
"","instructions","10","701643","0.0-10.0","SS1660082376527","26278.39999999106","","","","[{""page_index"":0,""viewing_time"":26278}]","","","","","","","","",""
"","video-keyboard-response","11","719901","0.0-11.0","SS1660082376527","null","","[""stimuli/images/calibration.mp4""]","null","","calibration","","","","","","","",""
"","video-keyboard-response","12","724532","0.0-12.0","SS1660082376527","null","","[""stimuli/images/attngetter_quiet.mp4""]","null","","attention_getter","","","","","","","",""
"","video-keyboard-response","13","776760","0.0-13.0","SS1660082376527","52225.39999999106","","[""stimuli/images/unity_stims/unitystims_006_Left_8fam_background_2_withmusic_new.mp4""]","40","","trial","25","5","1","background","8","stimuli/images/unity_stims/unitystims_006_Left_8fam_background_2_withmusic_new.mp4","",""
"","html-keyboard-response","14","777289","0.0-14.0","SS1660082376527","528.7999999970198","","<p><img src=""stimuli/images/attngetter_blank.png""></p>","40","","between_block","","","","","","","",""
"","video-keyboard-response","15","781927","0.0-15.0","SS1660082376527","null","","[""stimuli/images/attngetter_quiet.mp4""]","null","","attention_getter","","","","","","","",""
"","video-keyboard-response","16","853058","0.0-16.0","SS1660082376527","71129.39999999106","","[""stimuli/images/unity_stims/unitystims_002_Left_8fam_deviant_2_withmusic_new.mp4""]","39","","trial","25","5","2","deviant","8","stimuli/images/unity_stims/unitystims_002_Left_8fam_deviant_2_withmusic_new.mp4","",""
"","html-keyboard-response","17","857506","0.0-17.0","SS1660082376527","4447.0999999940395","","<p><img src=""stimuli/images/attngetter_blank.png""></p>","32","","between_block","","","","","","","",""
"","video-keyboard-response","18","862118","0.0-18.0","SS1660082376527","null","","[""stimuli/images/attngetter_quiet.mp4""]","null","","attention_getter","","","","","","","",""
"","video-keyboard-response","19","899310","0.0-19.0","SS1660082376527","37187.5","","[""stimuli/images/unity_stims/unitystims_003_Right_4fam_deviant_1_withmusic_new.mp4""]","32","","trial","25","5","3","deviant","4","stimuli/images/unity_stims/unitystims_003_Right_4fam_deviant_1_withmusic_new.mp4","",""
"","html-keyboard-response","20","907937","0.0-20.0","SS1660082376527","8626.199999988079","","<p><img src=""stimuli/images/attngetter_blank.png""></p>","39","","between_block","","","","","","","",""
"","video-keyboard-response","21","907970","0.0-21.0","SS1660082376527","31.899999991059303","","[""stimuli/images/attngetter_quiet.mp4""]","38","","attention_getter","","","","","","","",""
"","video-keyboard-response","22","958539","0.0-22.0","SS1660082376527","50567.69999998808","","[""stimuli/images/unity_stims/unitystims_001_Left_0fam_background_1_withmusic_new.mp4""]","32","","trial","25","5","4","background","0","stimuli/images/unity_stims/unitystims_001_Left_0fam_background_1_withmusic_new.mp4","",""
"","html-keyboard-response","23","959291","0.0-23.0","SS1660082376527","752.5","","<p><img src=""stimuli/images/attngetter_blank.png""></p>","32","","between_block","","","","","","","",""
"","video-keyboard-response","24","963908","0.0-24.0","SS1660082376527","null","","[""stimuli/images/attngetter_quiet.mp4""]","null","","attention_getter","","","","","","","",""
"","video-keyboard-response","25","999494","0.0-25.0","SS1660082376527","35584.20000000298","","[""stimuli/images/unity_stims/unitystims_005_Right_4fam_background_1_withmusic_new.mp4""]","32","","trial","25","5","5","background","4","stimuli/images/unity_stims/unitystims_005_Right_4fam_background_1_withmusic_new.mp4","",""
"","html-keyboard-response","26","1000562","0.0-26.0","SS1660082376527","1067.699999988079","","<p><img src=""stimuli/images/attngetter_blank.png""></p>","32","","between_block","","","","","","","",""
"","video-keyboard-response","27","1005171","0.0-27.0","SS1660082376527","null","","[""stimuli/images/attngetter_quiet.mp4""]","null","","attention_getter","","","","","","","",""
"","video-keyboard-response","28","1022448","0.0-28.0","SS1660082376527","17275.89999999106","","[""stimuli/images/unity_stims/unitystims_004_Right_0fam_deviant_2_withmusic_new.mp4""]","32","","trial","25","5","6","deviant","0","stimuli/images/unity_stims/unitystims_004_Right_0fam_deviant_2_withmusic_new.mp4","",""
"","video-keyboard-response","29","1045565","0.0-29.0","SS1660082376527","null","","[""stimuli/images/calibration_end.mp4""]","null","","calibration_end","","","","","","","",""
"","html-keyboard-response","30","1063349","0.0-30.0","SS1660082376527","17784.10000000894","","<p><span style=""font-family: arial, helvetica, sans-serif; font-size: 48px; color: #993300;""> That's it! Thank you so much for your participation! </span></p>","39","","","","","","","","","",""
"","survey-multi-choice","31","1099803","0.0-31.0","SS1660082376527","36452.20000000298","","","","","","","","","","","","[object Object]","0"
