"view_history","rt","trial_type","trial_index","time_elapsed","internal_node_id","subject","stimulus_type","trial_stimulus","key_press","minimum_viewing_duration","trial_looking_time","block_deviant","block_background","stimulus","wall_pref","location","location_percent","block_number","block_type","stimulus_displayed","position_displayed","stim_type_selected"
"[{""page_index"":0,""viewing_time"":13772.88000000408}]","13774.564999999711","instructions","0","13779","0.0-0.0","SS1613098749454","","","","","","","","","","","","","","","",""
"[{""page_index"":0,""viewing_time"":25757.54500000039},{""page_index"":1,""viewing_time"":10159.080000012182}]","35917.27999999421","instructions","1","51702","0.0-1.0","SS1613098749454","instructions","","","","","","","","","","","","","","",""
"","9427.584999997634","sequential-stimulus-presentation","2","61939","0.0-2.0","SS1613098749454","","","40","800","10227.584999997634","null","null","","","","","","","","",""
"","4395.3050000127405","sequential-stimulus-presentation","3","67151","0.0-3.0","SS1613098749454","","","40","800","5195.3050000127405","null","null","","","","","","","","",""
"[{""page_index"":0,""viewing_time"":7102.190000005066}]","7102.899999998044","instructions","4","74256","0.0-4.0","SS1613098749454","instructions","","","","","","","","","","","","","","",""
"","20564.540000021225","html-keyboard-response","5","94827","0.0-5.0","SS1613098749454","instructions","","50","","","","","<video width ='960' height = '540' autoplay muted><source src='images/stimuli/wall_pref.mp4' type='video/mp4'></video>","2","middle","45%","","","","",""
"","3041.4400000008754","sequential-stimulus-presentation","6","98678","0.0-6.0","SS1613098749454","pref_reveal","","40","800","3841.4400000008754","null","null","","","","","","","","",""
"[{""page_index"":0,""viewing_time"":11099.649999989197},{""page_index"":1,""viewing_time"":5777.925000002142},{""page_index"":2,""viewing_time"":1672.0800000184681},{""page_index"":3,""viewing_time"":1253.724999987753}]","19804.035000008298","instructions","7","118484","0.0-7.0","SS1613098749454","instructions","","","","","","","","","","","","","","",""
"","null","html-keyboard-response","8","119745","0.0-8.0-0.0","SS1613098749454","","","null","","","","","<p><img src= images/blank.png width =""200"" height = ""200"" style = ""float:right""></p><p><img src=images/blank.png width =""800"" height = ""200""></p>","","","","","","","",""
"","6001.344999996945","sequential-stimulus-presentation","9","126565","0.0-8.0-1.0","SS1613098749454","trial","","40","800","6801.344999996945","images/stimuli/spore_stims/complex_17_B_a.gif","images/stimuli/spore_stims/complex_17_A_a.gif","","","","","0","complex_similar","images/stimuli/spore_stims/complex_17_A_a.gif","right",""
"","null","html-keyboard-response","10","127801","0.0-8.0-0.1","SS1613098749454","","","null","","","","","<p><img src= images/blank.png width =""200"" height = ""200"" style = ""float:right""></p><p><img src=images/blank.png width =""800"" height = ""200""></p>","","","","","","","",""
"","4068.72999999905","sequential-stimulus-presentation","11","132682","0.0-8.0-1.1","SS1613098749454","trial","","40","800","4868.72999999905","images/stimuli/spore_stims/complex_17_B_a.gif","images/stimuli/spore_stims/complex_17_A_a.gif","","","","","0","complex_similar","images/stimuli/spore_stims/complex_17_A_a.gif","right",""
"","null","html-keyboard-response","12","133591","0.0-8.0-0.2","SS1613098749454","","","null","","","","","<p><img src= images/blank.png width =""200"" height = ""200"" style = ""float:right""></p><p><img src=images/blank.png width =""800"" height = ""200""></p>","","","","","","","",""
"","5977.29999999865","sequential-stimulus-presentation","13","140381","0.0-8.0-1.2","SS1613098749454","trial","","40","800","6777.29999999865","images/stimuli/spore_stims/complex_17_B_a.gif","images/stimuli/spore_stims/complex_17_A_a.gif","","","","","0","complex_similar","images/stimuli/spore_stims/complex_17_A_a.gif","right",""
"","null","html-keyboard-response","14","141470","0.0-8.0-0.3","SS1613098749454","","","null","","","","","<p><img src= images/blank.png width =""200"" height = ""200"" style = ""float:right""></p><p><img src=images/blank.png width =""800"" height = ""200""></p>","","","","","","","",""
"","5636.350000015227","sequential-stimulus-presentation","15","147914","0.0-8.0-1.3","SS1613098749454","trial","","40","800","6436.350000015227","images/stimuli/spore_stims/complex_17_B_a.gif","images/stimuli/spore_stims/complex_17_A_a.gif","","","","","0","complex_similar","images/stimuli/spore_stims/complex_17_B_a.gif","middle",""
"","null","html-keyboard-response","16","149213","0.0-8.0-0.4","SS1613098749454","","","null","","","","","<p><img src= images/blank.png width =""200"" height = ""200"" style = ""float:right""></p><p><img src=images/blank.png width =""800"" height = ""200""></p>","","","","","","","",""
"","4387.000000016997","sequential-stimulus-presentation","17","154417","0.0-8.0-1.4","SS1613098749454","trial","","40","800","5187.000000016997","images/stimuli/spore_stims/complex_17_B_a.gif","images/stimuli/spore_stims/complex_17_A_a.gif","","","","","0","complex_similar","images/stimuli/spore_stims/complex_17_A_a.gif","right",""
"","null","html-keyboard-response","18","155267","0.0-8.0-0.5","SS1613098749454","","","null","","","","","<p><img src= images/blank.png width =""200"" height = ""200"" style = ""float:right""></p><p><img src=images/blank.png width =""800"" height = ""200""></p>","","","","","","","",""
"","1206.449999997858","sequential-stimulus-presentation","19","157287","0.0-8.0-1.5","SS1613098749454","trial","","40","800","2006.449999997858","images/stimuli/spore_stims/complex_17_B_a.gif","images/stimuli/spore_stims/complex_17_A_a.gif","","","","","0","complex_similar","images/stimuli/spore_stims/complex_17_A_a.gif","right",""
"","null","html-keyboard-response","20","158168","0.0-8.0-0.6","SS1613098749454","","","null","","","","","<p><img src= images/blank.png width =""200"" height = ""200"" style = ""float:right""></p><p><img src=images/blank.png width =""800"" height = ""200""></p>","","","","","","","",""
"","1144.6699999796692","sequential-stimulus-presentation","21","160130","0.0-8.0-1.6","SS1613098749454","trial","","40","800","1944.6699999796692","images/stimuli/spore_stims/complex_17_B_a.gif","images/stimuli/spore_stims/complex_17_A_a.gif","","","","","0","complex_similar","images/stimuli/spore_stims/complex_17_A_a.gif","right",""
"","null","html-keyboard-response","22","161419","0.0-8.0-0.7","SS1613098749454","","","null","","","","","<p><img src= images/blank.png width =""200"" height = ""200"" style = ""float:right""></p><p><img src=images/blank.png width =""800"" height = ""200""></p>","","","","","","","",""
"","4194.799999997485","sequential-stimulus-presentation","23","166427","0.0-8.0-1.7","SS1613098749454","trial","","40","800","4994.799999997485","images/stimuli/spore_stims/complex_17_B_a.gif","images/stimuli/spore_stims/complex_17_A_a.gif","","","","","0","complex_similar","images/stimuli/spore_stims/complex_17_A_a.gif","right",""
"","1815.9400000004098","html-keyboard-response","24","168250","0.0-9.0","SS1613098749454","pref_question","","49","","","","","<video width ='960' height = '540' style='padding-top:8%' autoplay muted><source src='images/stimuli/wall_pref.mp4' type='video/mp4'></video>","1","left","25%","0","","","",""
"","7991.780000011204","sequential-stimulus-presentation","25","177050","0.0-10.0","SS1613098749454","pref_reveal","","40","800","8791.780000011204","null","null","","","","","0","","","","novel"
"","null","html-keyboard-response","26","177937","0.0-11.0-0.0","SS1613098749454","","","null","","","","","<p><img src= images/blank.png width =""200"" height = ""200"" style = ""float:right""></p><p><img src=images/blank.png width =""800"" height = ""200""></p>","","","","","","","",""
"","5525.930000003427","sequential-stimulus-presentation","27","184282","0.0-11.0-1.0","SS1613098749454","trial","","40","800","6325.930000003427","images/stimuli/spore_stims/complex_12_A_a.gif","images/stimuli/spore_stims/complex_06_B_a.gif","","","","","1","complex_dissimilar","images/stimuli/spore_stims/complex_06_B_a.gif","left",""
"","null","html-keyboard-response","28","185099","0.0-11.0-0.1","SS1613098749454","","","null","","","","","<p><img src= images/blank.png width =""200"" height = ""200"" style = ""float:right""></p><p><img src=images/blank.png width =""800"" height = ""200""></p>","","","","","","","",""
"","3040.739999996731","sequential-stimulus-presentation","29","188954","0.0-11.0-1.1","SS1613098749454","trial","","40","800","3840.739999996731","images/stimuli/spore_stims/complex_12_A_a.gif","images/stimuli/spore_stims/complex_06_B_a.gif","","","","","1","complex_dissimilar","images/stimuli/spore_stims/complex_06_B_a.gif","left",""
"","null","html-keyboard-response","30","189852","0.0-11.0-0.2","SS1613098749454","","","null","","","","","<p><img src= images/blank.png width =""200"" height = ""200"" style = ""float:right""></p><p><img src=images/blank.png width =""800"" height = ""200""></p>","","","","","","","",""
"","1367.419999995036","sequential-stimulus-presentation","31","192035","0.0-11.0-1.2","SS1613098749454","trial","","40","800","2167.419999995036","images/stimuli/spore_stims/complex_12_A_a.gif","images/stimuli/spore_stims/complex_06_B_a.gif","","","","","1","complex_dissimilar","images/stimuli/spore_stims/complex_06_B_a.gif","left",""
"","null","html-keyboard-response","32","193193","0.0-11.0-0.3","SS1613098749454","","","null","","","","","<p><img src= images/blank.png width =""200"" height = ""200"" style = ""float:right""></p><p><img src=images/blank.png width =""800"" height = ""200""></p>","","","","","","","",""
"","6988.949999999022","sequential-stimulus-presentation","33","200994","0.0-11.0-1.3","SS1613098749454","trial","","40","800","7788.949999999022","images/stimuli/spore_stims/complex_12_A_a.gif","images/stimuli/spore_stims/complex_06_B_a.gif","","","","","1","complex_dissimilar","images/stimuli/spore_stims/complex_12_A_a.gif","right",""
"","null","html-keyboard-response","34","201932","0.0-11.0-0.4","SS1613098749454","","","null","","","","","<p><img src= images/blank.png width =""200"" height = ""200"" style = ""float:right""></p><p><img src=images/blank.png width =""800"" height = ""200""></p>","","","","","","","",""
"","3075.2299999876413","sequential-stimulus-presentation","35","205821","0.0-11.0-1.4","SS1613098749454","trial","","40","800","3875.2299999876413","images/stimuli/spore_stims/complex_12_A_a.gif","images/stimuli/spore_stims/complex_06_B_a.gif","","","","","1","complex_dissimilar","images/stimuli/spore_stims/complex_06_B_a.gif","left",""
"","null","html-keyboard-response","36","206685","0.0-11.0-0.5","SS1613098749454","","","null","","","","","<p><img src= images/blank.png width =""200"" height = ""200"" style = ""float:right""></p><p><img src=images/blank.png width =""800"" height = ""200""></p>","","","","","","","",""
"","1397.7449999947567","sequential-stimulus-presentation","37","208898","0.0-11.0-1.5","SS1613098749454","trial","","40","800","2197.7449999947567","images/stimuli/spore_stims/complex_12_A_a.gif","images/stimuli/spore_stims/complex_06_B_a.gif","","","","","1","complex_dissimilar","images/stimuli/spore_stims/complex_06_B_a.gif","left",""
"","null","html-keyboard-response","38","209715","0.0-11.0-0.6","SS1613098749454","","","null","","","","","<p><img src= images/blank.png width =""200"" height = ""200"" style = ""float:right""></p><p><img src=images/blank.png width =""800"" height = ""200""></p>","","","","","","","",""
"","1241.6399999929126","sequential-stimulus-presentation","39","211770","0.0-11.0-1.6","SS1613098749454","trial","","40","800","2041.6399999929126","images/stimuli/spore_stims/complex_12_A_a.gif","images/stimuli/spore_stims/complex_06_B_a.gif","","","","","1","complex_dissimilar","images/stimuli/spore_stims/complex_06_B_a.gif","left",""
"","null","html-keyboard-response","40","212968","0.0-11.0-0.7","SS1613098749454","","","null","","","","","<p><img src= images/blank.png width =""200"" height = ""200"" style = ""float:right""></p><p><img src=images/blank.png width =""800"" height = ""200""></p>","","","","","","","",""
"","586.6099999984726","sequential-stimulus-presentation","41","214369","0.0-11.0-1.7","SS1613098749454","trial","","40","800","1386.6099999984726","images/stimuli/spore_stims/complex_12_A_a.gif","images/stimuli/spore_stims/complex_06_B_a.gif","","","","","1","complex_dissimilar","images/stimuli/spore_stims/complex_06_B_a.gif","left",""
"","1459.3000000168104","html-keyboard-response","42","215835","0.0-12.0","SS1613098749454","pref_question","","50","","","","","<video width ='960' height = '540' style='padding-top:8%' autoplay muted><source src='images/stimuli/wall_pref.mp4' type='video/mp4'></video>","2","middle","45%","1","","","",""
"","6099.029999983031","sequential-stimulus-presentation","43","222743","0.0-13.0","SS1613098749454","pref_reveal","","40","800","6899.029999983031","null","null","","","","","1","","","","novel"
"","null","html-keyboard-response","44","223687","0.0-14.0-0.0","SS1613098749454","","","null","","","","","<p><img src= images/blank.png width =""200"" height = ""200"" style = ""float:right""></p><p><img src=images/blank.png width =""800"" height = ""200""></p>","","","","","","","",""
"","3768.3299999916926","sequential-stimulus-presentation","45","228271","0.0-14.0-1.0","SS1613098749454","trial","","40","800","4568.329999991693","images/stimuli/spore_stims/simple_14_A_a.gif","images/stimuli/spore_stims/simple_14_B_a.gif","","","","","2","simple_similar","images/stimuli/spore_stims/simple_14_B_a.gif","right",""
"","null","html-keyboard-response","46","229323","0.0-14.0-0.1","SS1613098749454","","","null","","","","","<p><img src= images/blank.png width =""200"" height = ""200"" style = ""float:right""></p><p><img src=images/blank.png width =""800"" height = ""200""></p>","","","","","","","",""
"","3407.4649999965914","sequential-stimulus-presentation","47","233539","0.0-14.0-1.1","SS1613098749454","trial","","40","800","4207.464999996591","images/stimuli/spore_stims/simple_14_A_a.gif","images/stimuli/spore_stims/simple_14_B_a.gif","","","","","2","simple_similar","images/stimuli/spore_stims/simple_14_B_a.gif","right",""
"","null","html-keyboard-response","48","234367","0.0-14.0-0.2","SS1613098749454","","","null","","","","","<p><img src= images/blank.png width =""200"" height = ""200"" style = ""float:right""></p><p><img src=images/blank.png width =""800"" height = ""200""></p>","","","","","","","",""
"","4444.38000000082","sequential-stimulus-presentation","49","239628","0.0-14.0-1.2","SS1613098749454","trial","","40","800","5244.38000000082","images/stimuli/spore_stims/simple_14_A_a.gif","images/stimuli/spore_stims/simple_14_B_a.gif","","","","","2","simple_similar","images/stimuli/spore_stims/simple_14_B_a.gif","right",""
"","null","html-keyboard-response","50","240465","0.0-14.0-0.3","SS1613098749454","","","null","","","","","<p><img src= images/blank.png width =""200"" height = ""200"" style = ""float:right""></p><p><img src=images/blank.png width =""800"" height = ""200""></p>","","","","","","","",""
"","2163.510000013048","sequential-stimulus-presentation","51","243443","0.0-14.0-1.3","SS1613098749454","trial","","40","800","2963.510000013048","images/stimuli/spore_stims/simple_14_A_a.gif","images/stimuli/spore_stims/simple_14_B_a.gif","","","","","2","simple_similar","images/stimuli/spore_stims/simple_14_B_a.gif","right",""
"","null","html-keyboard-response","52","244735","0.0-14.0-0.4","SS1613098749454","","","null","","","","","<p><img src= images/blank.png width =""200"" height = ""200"" style = ""float:right""></p><p><img src=images/blank.png width =""800"" height = ""200""></p>","","","","","","","",""
"","532.2849999938626","sequential-stimulus-presentation","53","246083","0.0-14.0-1.4","SS1613098749454","trial","","40","800","1332.2849999938626","images/stimuli/spore_stims/simple_14_A_a.gif","images/stimuli/spore_stims/simple_14_B_a.gif","","","","","2","simple_similar","images/stimuli/spore_stims/simple_14_B_a.gif","right",""
"","null","html-keyboard-response","54","247353","0.0-14.0-0.5","SS1613098749454","","","null","","","","","<p><img src= images/blank.png width =""200"" height = ""200"" style = ""float:right""></p><p><img src=images/blank.png width =""800"" height = ""200""></p>","","","","","","","",""
"","540.7800000102725","sequential-stimulus-presentation","55","248710","0.0-14.0-1.5","SS1613098749454","trial","","40","800","1340.7800000102725","images/stimuli/spore_stims/simple_14_A_a.gif","images/stimuli/spore_stims/simple_14_B_a.gif","","","","","2","simple_similar","images/stimuli/spore_stims/simple_14_A_a.gif","left",""
"","null","html-keyboard-response","56","249539","0.0-14.0-0.6","SS1613098749454","","","null","","","","","<p><img src= images/blank.png width =""200"" height = ""200"" style = ""float:right""></p><p><img src=images/blank.png width =""800"" height = ""200""></p>","","","","","","","",""
"","3160.21499998169","sequential-stimulus-presentation","57","253508","0.0-14.0-1.6","SS1613098749454","trial","","40","800","3960.21499998169","images/stimuli/spore_stims/simple_14_A_a.gif","images/stimuli/spore_stims/simple_14_B_a.gif","","","","","2","simple_similar","images/stimuli/spore_stims/simple_14_B_a.gif","right",""
"","null","html-keyboard-response","58","254345","0.0-14.0-0.7","SS1613098749454","","","null","","","","","<p><img src= images/blank.png width =""200"" height = ""200"" style = ""float:right""></p><p><img src=images/blank.png width =""800"" height = ""200""></p>","","","","","","","",""
"","1218.7050000065938","sequential-stimulus-presentation","59","256379","0.0-14.0-1.7","SS1613098749454","trial","","40","800","2018.7050000065938","images/stimuli/spore_stims/simple_14_A_a.gif","images/stimuli/spore_stims/simple_14_B_a.gif","","","","","2","simple_similar","images/stimuli/spore_stims/simple_14_B_a.gif","right",""
"","2326.0750000190455","html-keyboard-response","60","258713","0.0-15.0","SS1613098749454","pref_question","","51","","","","","<video width ='960' height = '540' style='padding-top:8%' autoplay muted><source src='images/stimuli/wall_pref.mp4' type='video/mp4'></video>","3","right","66%","2","","","",""
"","1868.9350000058766","sequential-stimulus-presentation","61","261390","0.0-16.0","SS1613098749454","pref_reveal","","40","800","2668.9350000058766","null","null","","","","","2","","","","background"
"","null","html-keyboard-response","62","262329","0.0-17.0-0.0","SS1613098749454","","","null","","","","","<p><img src= images/blank.png width =""200"" height = ""200"" style = ""float:right""></p><p><img src=images/blank.png width =""800"" height = ""200""></p>","","","","","","","",""
"","2855.119999992894","sequential-stimulus-presentation","63","266001","0.0-17.0-1.0","SS1613098749454","trial","","40","800","3655.119999992894","images/stimuli/spore_stims/simple_08_B_d.gif","images/stimuli/spore_stims/simple_16_B_b.gif","","","","","3","simple_dissimilar","images/stimuli/spore_stims/simple_16_B_b.gif","middle",""
"","null","html-keyboard-response","64","267099","0.0-17.0-0.1","SS1613098749454","","","null","","","","","<p><img src= images/blank.png width =""200"" height = ""200"" style = ""float:right""></p><p><img src=images/blank.png width =""800"" height = ""200""></p>","","","","","","","",""
"","1695.6699999864213","sequential-stimulus-presentation","65","269610","0.0-17.0-1.1","SS1613098749454","trial","","40","800","2495.6699999864213","images/stimuli/spore_stims/simple_08_B_d.gif","images/stimuli/spore_stims/simple_16_B_b.gif","","","","","3","simple_dissimilar","images/stimuli/spore_stims/simple_16_B_b.gif","middle",""
"","null","html-keyboard-response","66","270580","0.0-17.0-0.2","SS1613098749454","","","null","","","","","<p><img src= images/blank.png width =""200"" height = ""200"" style = ""float:right""></p><p><img src=images/blank.png width =""800"" height = ""200""></p>","","","","","","","",""
"","749.2250000068452","sequential-stimulus-presentation","67","272145","0.0-17.0-1.2","SS1613098749454","trial","","40","800","1549.2250000068452","images/stimuli/spore_stims/simple_08_B_d.gif","images/stimuli/spore_stims/simple_16_B_b.gif","","","","","3","simple_dissimilar","images/stimuli/spore_stims/simple_16_B_b.gif","middle",""
"","null","html-keyboard-response","68","273145","0.0-17.0-0.3","SS1613098749454","","","null","","","","","<p><img src= images/blank.png width =""200"" height = ""200"" style = ""float:right""></p><p><img src=images/blank.png width =""800"" height = ""200""></p>","","","","","","","",""
"","483.03499998291954","sequential-stimulus-presentation","69","274444","0.0-17.0-1.3","SS1613098749454","trial","","40","800","1283.0349999829195","images/stimuli/spore_stims/simple_08_B_d.gif","images/stimuli/spore_stims/simple_16_B_b.gif","","","","","3","simple_dissimilar","images/stimuli/spore_stims/simple_16_B_b.gif","middle",""
"","null","html-keyboard-response","70","275302","0.0-17.0-0.4","SS1613098749454","","","null","","","","","<p><img src= images/blank.png width =""200"" height = ""200"" style = ""float:right""></p><p><img src=images/blank.png width =""800"" height = ""200""></p>","","","","","","","",""
"","606.5949999901932","sequential-stimulus-presentation","71","276727","0.0-17.0-1.4","SS1613098749454","trial","","40","800","1406.5949999901932","images/stimuli/spore_stims/simple_08_B_d.gif","images/stimuli/spore_stims/simple_16_B_b.gif","","","","","3","simple_dissimilar","images/stimuli/spore_stims/simple_16_B_b.gif","middle",""
"","null","html-keyboard-response","72","278023","0.0-17.0-0.5","SS1613098749454","","","null","","","","","<p><img src= images/blank.png width =""200"" height = ""200"" style = ""float:right""></p><p><img src=images/blank.png width =""800"" height = ""200""></p>","","","","","","","",""
"","4308.264999999665","sequential-stimulus-presentation","73","283150","0.0-17.0-1.5","SS1613098749454","trial","","40","800","5108.264999999665","images/stimuli/spore_stims/simple_08_B_d.gif","images/stimuli/spore_stims/simple_16_B_b.gif","","","","","3","simple_dissimilar","images/stimuli/spore_stims/simple_08_B_d.gif","left",""
"","null","html-keyboard-response","74","284364","0.0-17.0-0.6","SS1613098749454","","","null","","","","","<p><img src= images/blank.png width =""200"" height = ""200"" style = ""float:right""></p><p><img src=images/blank.png width =""800"" height = ""200""></p>","","","","","","","",""
"","1772.1799999999348","sequential-stimulus-presentation","75","286954","0.0-17.0-1.6","SS1613098749454","trial","","40","800","2572.179999999935","images/stimuli/spore_stims/simple_08_B_d.gif","images/stimuli/spore_stims/simple_16_B_b.gif","","","","","3","simple_dissimilar","images/stimuli/spore_stims/simple_16_B_b.gif","middle",""
"","null","html-keyboard-response","76","287842","0.0-17.0-0.7","SS1613098749454","","","null","","","","","<p><img src= images/blank.png width =""200"" height = ""200"" style = ""float:right""></p><p><img src=images/blank.png width =""800"" height = ""200""></p>","","","","","","","",""
"","707.0499999972526","sequential-stimulus-presentation","77","289368","0.0-17.0-1.7","SS1613098749454","trial","","40","800","1507.0499999972526","images/stimuli/spore_stims/simple_08_B_d.gif","images/stimuli/spore_stims/simple_16_B_b.gif","","","","","3","simple_dissimilar","images/stimuli/spore_stims/simple_16_B_b.gif","middle",""
"","2799.155000015162","html-keyboard-response","78","292233","0.0-18.0","SS1613098749454","pref_question","","49","","","","","<video width ='960' height = '540' style='padding-top:8%' autoplay muted><source src='images/stimuli/wall_pref.mp4' type='video/mp4'></video>","1","left","25%","3","","","",""
"","1164.8799999966286","sequential-stimulus-presentation","79","294206","0.0-19.0","SS1613098749454","pref_reveal","","40","800","1964.8799999966286","null","null","","","","","3","","","","deviant"
"","null","html-keyboard-response","80","295034","0.0-20.0-0.0","SS1613098749454","","","null","","","","","<p><img src= images/blank.png width =""200"" height = ""200"" style = ""float:right""></p><p><img src=images/blank.png width =""800"" height = ""200""></p>","","","","","","","",""
"","4612.215000001015","sequential-stimulus-presentation","81","300463","0.0-20.0-1.0","SS1613098749454","trial","","40","800","5412.215000001015","images/stimuli/spore_stims/complex_05_A_a.gif","images/stimuli/spore_stims/complex_05_B_a.gif","","","","","4","complex_similar","images/stimuli/spore_stims/complex_05_B_a.gif","left",""
"","null","html-keyboard-response","82","301575","0.0-20.0-0.1","SS1613098749454","","","null","","","","","<p><img src= images/blank.png width =""200"" height = ""200"" style = ""float:right""></p><p><img src=images/blank.png width =""800"" height = ""200""></p>","","","","","","","",""
"","420.3799999959301","sequential-stimulus-presentation","83","302807","0.0-20.0-1.1","SS1613098749454","trial","","40","800","1220.3799999959301","images/stimuli/spore_stims/complex_05_A_a.gif","images/stimuli/spore_stims/complex_05_B_a.gif","","","","","4","complex_similar","images/stimuli/spore_stims/complex_05_B_a.gif","left",""
"","null","html-keyboard-response","84","303625","0.0-20.0-0.2","SS1613098749454","","","null","","","","","<p><img src= images/blank.png width =""200"" height = ""200"" style = ""float:right""></p><p><img src=images/blank.png width =""800"" height = ""200""></p>","","","","","","","",""
"","1677.8100000228733","sequential-stimulus-presentation","85","306117","0.0-20.0-1.2","SS1613098749454","trial","","40","800","2477.8100000228733","images/stimuli/spore_stims/complex_05_A_a.gif","images/stimuli/spore_stims/complex_05_B_a.gif","","","","","4","complex_similar","images/stimuli/spore_stims/complex_05_B_a.gif","left",""
"","null","html-keyboard-response","86","307142","0.0-20.0-0.3","SS1613098749454","","","null","","","","","<p><img src= images/blank.png width =""200"" height = ""200"" style = ""float:right""></p><p><img src=images/blank.png width =""800"" height = ""200""></p>","","","","","","","",""
"","526.9499999994878","sequential-stimulus-presentation","87","308486","0.0-20.0-1.3","SS1613098749454","trial","","40","800","1326.9499999994878","images/stimuli/spore_stims/complex_05_A_a.gif","images/stimuli/spore_stims/complex_05_B_a.gif","","","","","4","complex_similar","images/stimuli/spore_stims/complex_05_B_a.gif","left",""
"","null","html-keyboard-response","88","309547","0.0-20.0-0.4","SS1613098749454","","","null","","","","","<p><img src= images/blank.png width =""200"" height = ""200"" style = ""float:right""></p><p><img src=images/blank.png width =""800"" height = ""200""></p>","","","","","","","",""
"","421.7249999928754","sequential-stimulus-presentation","89","310785","0.0-20.0-1.4","SS1613098749454","trial","","40","800","1221.7249999928754","images/stimuli/spore_stims/complex_05_A_a.gif","images/stimuli/spore_stims/complex_05_B_a.gif","","","","","4","complex_similar","images/stimuli/spore_stims/complex_05_B_a.gif","left",""
"","null","html-keyboard-response","90","311687","0.0-20.0-0.5","SS1613098749454","","","null","","","","","<p><img src= images/blank.png width =""200"" height = ""200"" style = ""float:right""></p><p><img src=images/blank.png width =""800"" height = ""200""></p>","","","","","","","",""
"","602.4150000012014","sequential-stimulus-presentation","91","313110","0.0-20.0-1.5","SS1613098749454","trial","","40","800","1402.4150000012014","images/stimuli/spore_stims/complex_05_A_a.gif","images/stimuli/spore_stims/complex_05_B_a.gif","","","","","4","complex_similar","images/stimuli/spore_stims/complex_05_B_a.gif","left",""
"","null","html-keyboard-response","92","314285","0.0-20.0-0.6","SS1613098749454","","","null","","","","","<p><img src= images/blank.png width =""200"" height = ""200"" style = ""float:right""></p><p><img src=images/blank.png width =""800"" height = ""200""></p>","","","","","","","",""
"","3919.9399999924935","sequential-stimulus-presentation","93","319026","0.0-20.0-1.6","SS1613098749454","trial","","40","800","4719.9399999924935","images/stimuli/spore_stims/complex_05_A_a.gif","images/stimuli/spore_stims/complex_05_B_a.gif","","","","","4","complex_similar","images/stimuli/spore_stims/complex_05_B_a.gif","left",""
"","null","html-keyboard-response","94","319940","0.0-20.0-0.7","SS1613098749454","","","null","","","","","<p><img src= images/blank.png width =""200"" height = ""200"" style = ""float:right""></p><p><img src=images/blank.png width =""800"" height = ""200""></p>","","","","","","","",""
"","3814.600000012433","sequential-stimulus-presentation","95","324580","0.0-20.0-1.7","SS1613098749454","trial","","40","800","4614.600000012433","images/stimuli/spore_stims/complex_05_A_a.gif","images/stimuli/spore_stims/complex_05_B_a.gif","","","","","4","complex_similar","images/stimuli/spore_stims/complex_05_A_a.gif","middle",""
"","5890.259999985574","html-keyboard-response","96","330478","0.0-21.0","SS1613098749454","pref_question","","50","","","","","<video width ='960' height = '540' style='padding-top:8%' autoplay muted><source src='images/stimuli/wall_pref.mp4' type='video/mp4'></video>","2","middle","45%","4","","","",""
"","1158.224999991944","sequential-stimulus-presentation","97","332446","0.0-22.0","SS1613098749454","pref_reveal","","40","800","1958.224999991944","null","null","","","","","4","","","","deviant"
"","null","html-keyboard-response","98","333288","0.0-23.0-0.0","SS1613098749454","","","null","","","","","<p><img src= images/blank.png width =""200"" height = ""200"" style = ""float:right""></p><p><img src=images/blank.png width =""800"" height = ""200""></p>","","","","","","","",""
"","3114.0749999904074","sequential-stimulus-presentation","99","337221","0.0-23.0-1.0","SS1613098749454","trial","","40","800","3914.0749999904074","images/stimuli/spore_stims/complex_18_A_a.gif","images/stimuli/spore_stims/complex_18_B_a.gif","","","","","5","complex_similar","images/stimuli/spore_stims/complex_18_B_a.gif","right",""
"","null","html-keyboard-response","100","338520","0.0-23.0-0.1","SS1613098749454","","","null","","","","","<p><img src= images/blank.png width =""200"" height = ""200"" style = ""float:right""></p><p><img src=images/blank.png width =""800"" height = ""200""></p>","","","","","","","",""
"","1458.7500000197906","sequential-stimulus-presentation","101","340858","0.0-23.0-1.1","SS1613098749454","trial","","40","800","2258.7500000197906","images/stimuli/spore_stims/complex_18_A_a.gif","images/stimuli/spore_stims/complex_18_B_a.gif","","","","","5","complex_similar","images/stimuli/spore_stims/complex_18_B_a.gif","right",""
"","null","html-keyboard-response","102","342020","0.0-23.0-0.2","SS1613098749454","","","null","","","","","<p><img src= images/blank.png width =""200"" height = ""200"" style = ""float:right""></p><p><img src=images/blank.png width =""800"" height = ""200""></p>","","","","","","","",""
"","3881.6750000114553","sequential-stimulus-presentation","103","346721","0.0-23.0-1.2","SS1613098749454","trial","","40","800","4681.675000011455","images/stimuli/spore_stims/complex_18_A_a.gif","images/stimuli/spore_stims/complex_18_B_a.gif","","","","","5","complex_similar","images/stimuli/spore_stims/complex_18_B_a.gif","right",""
"","null","html-keyboard-response","104","347579","0.0-23.0-0.3","SS1613098749454","","","null","","","","","<p><img src= images/blank.png width =""200"" height = ""200"" style = ""float:right""></p><p><img src=images/blank.png width =""800"" height = ""200""></p>","","","","","","","",""
"","4445.79500000691","sequential-stimulus-presentation","105","352843","0.0-23.0-1.3","SS1613098749454","trial","","40","800","5245.79500000691","images/stimuli/spore_stims/complex_18_A_a.gif","images/stimuli/spore_stims/complex_18_B_a.gif","","","","","5","complex_similar","images/stimuli/spore_stims/complex_18_A_a.gif","middle",""
"","null","html-keyboard-response","106","353992","0.0-23.0-0.4","SS1613098749454","","","null","","","","","<p><img src= images/blank.png width =""200"" height = ""200"" style = ""float:right""></p><p><img src=images/blank.png width =""800"" height = ""200""></p>","","","","","","","",""
"","1373.0299999879207","sequential-stimulus-presentation","107","356185","0.0-23.0-1.4","SS1613098749454","trial","","40","800","2173.0299999879207","images/stimuli/spore_stims/complex_18_A_a.gif","images/stimuli/spore_stims/complex_18_B_a.gif","","","","","5","complex_similar","images/stimuli/spore_stims/complex_18_B_a.gif","right",""
"","null","html-keyboard-response","108","357074","0.0-23.0-0.5","SS1613098749454","","","null","","","","","<p><img src= images/blank.png width =""200"" height = ""200"" style = ""float:right""></p><p><img src=images/blank.png width =""800"" height = ""200""></p>","","","","","","","",""
"","769.8249999957625","sequential-stimulus-presentation","109","358669","0.0-23.0-1.5","SS1613098749454","trial","","40","800","1569.8249999957625","images/stimuli/spore_stims/complex_18_A_a.gif","images/stimuli/spore_stims/complex_18_B_a.gif","","","","","5","complex_similar","images/stimuli/spore_stims/complex_18_B_a.gif","right",""
"","null","html-keyboard-response","110","359487","0.0-23.0-0.6","SS1613098749454","","","null","","","","","<p><img src= images/blank.png width =""200"" height = ""200"" style = ""float:right""></p><p><img src=images/blank.png width =""800"" height = ""200""></p>","","","","","","","",""
"","693.1349999795202","sequential-stimulus-presentation","111","361002","0.0-23.0-1.6","SS1613098749454","trial","","40","800","1493.1349999795202","images/stimuli/spore_stims/complex_18_A_a.gif","images/stimuli/spore_stims/complex_18_B_a.gif","","","","","5","complex_similar","images/stimuli/spore_stims/complex_18_B_a.gif","right",""
"","null","html-keyboard-response","112","362112","0.0-23.0-0.7","SS1613098749454","","","null","","","","","<p><img src= images/blank.png width =""200"" height = ""200"" style = ""float:right""></p><p><img src=images/blank.png width =""800"" height = ""200""></p>","","","","","","","",""
"","672.3349999811035","sequential-stimulus-presentation","113","363599","0.0-23.0-1.7","SS1613098749454","trial","","40","800","1472.3349999811035","images/stimuli/spore_stims/complex_18_A_a.gif","images/stimuli/spore_stims/complex_18_B_a.gif","","","","","5","complex_similar","images/stimuli/spore_stims/complex_18_B_a.gif","right",""
"","2995.9099999978207","html-keyboard-response","114","366603","0.0-24.0","SS1613098749454","pref_question","","51","","","","","<video width ='960' height = '540' style='padding-top:8%' autoplay muted><source src='images/stimuli/wall_pref.mp4' type='video/mp4'></video>","3","right","66%","5","","","",""
"","1337.759999994887","sequential-stimulus-presentation","115","368755","0.0-25.0","SS1613098749454","pref_reveal","","40","800","2137.759999994887","null","null","","","","","5","","","","background"
"","null","html-keyboard-response","116","369579","0.0-26.0-0.0","SS1613098749454","","","null","","","","","<p><img src= images/blank.png width =""200"" height = ""200"" style = ""float:right""></p><p><img src=images/blank.png width =""800"" height = ""200""></p>","","","","","","","",""
"","6156.895000021905","sequential-stimulus-presentation","117","376557","0.0-26.0-1.0","SS1613098749454","trial","","40","800","6956.895000021905","images/stimuli/spore_stims/complex_03_A_b.gif","images/stimuli/spore_stims/complex_14_A_a.gif","","","","","6","complex_dissimilar","images/stimuli/spore_stims/complex_14_A_a.gif","middle",""
"","null","html-keyboard-response","118","377756","0.0-26.0-0.1","SS1613098749454","","","null","","","","","<p><img src= images/blank.png width =""200"" height = ""200"" style = ""float:right""></p><p><img src=images/blank.png width =""800"" height = ""200""></p>","","","","","","","",""
"","1695.145000005141","sequential-stimulus-presentation","119","380272","0.0-26.0-1.1","SS1613098749454","trial","","40","800","2495.145000005141","images/stimuli/spore_stims/complex_03_A_b.gif","images/stimuli/spore_stims/complex_14_A_a.gif","","","","","6","complex_dissimilar","images/stimuli/spore_stims/complex_14_A_a.gif","middle",""
"","null","html-keyboard-response","120","381343","0.0-26.0-0.2","SS1613098749454","","","null","","","","","<p><img src= images/blank.png width =""200"" height = ""200"" style = ""float:right""></p><p><img src=images/blank.png width =""800"" height = ""200""></p>","","","","","","","",""
"","5061.5299999772105","sequential-stimulus-presentation","121","387269","0.0-26.0-1.2","SS1613098749454","trial","","40","800","5861.5299999772105","images/stimuli/spore_stims/complex_03_A_b.gif","images/stimuli/spore_stims/complex_14_A_a.gif","","","","","6","complex_dissimilar","images/stimuli/spore_stims/complex_03_A_b.gif","right",""
"","null","html-keyboard-response","122","388271","0.0-26.0-0.3","SS1613098749454","","","null","","","","","<p><img src= images/blank.png width =""200"" height = ""200"" style = ""float:right""></p><p><img src=images/blank.png width =""800"" height = ""200""></p>","","","","","","","",""
"","1501.2949999945704","sequential-stimulus-presentation","123","390587","0.0-26.0-1.3","SS1613098749454","trial","","40","800","2301.2949999945704","images/stimuli/spore_stims/complex_03_A_b.gif","images/stimuli/spore_stims/complex_14_A_a.gif","","","","","6","complex_dissimilar","images/stimuli/spore_stims/complex_14_A_a.gif","middle",""
"","null","html-keyboard-response","124","391776","0.0-26.0-0.4","SS1613098749454","","","null","","","","","<p><img src= images/blank.png width =""200"" height = ""200"" style = ""float:right""></p><p><img src=images/blank.png width =""800"" height = ""200""></p>","","","","","","","",""
"","2170.545000000857","sequential-stimulus-presentation","125","394767","0.0-26.0-1.4","SS1613098749454","trial","","40","800","2970.545000000857","images/stimuli/spore_stims/complex_03_A_b.gif","images/stimuli/spore_stims/complex_14_A_a.gif","","","","","6","complex_dissimilar","images/stimuli/spore_stims/complex_14_A_a.gif","middle",""
"","null","html-keyboard-response","126","395836","0.0-26.0-0.5","SS1613098749454","","","null","","","","","<p><img src= images/blank.png width =""200"" height = ""200"" style = ""float:right""></p><p><img src=images/blank.png width =""800"" height = ""200""></p>","","","","","","","",""
"","1305.4699999920558","sequential-stimulus-presentation","127","397964","0.0-26.0-1.5","SS1613098749454","trial","","40","800","2105.469999992056","images/stimuli/spore_stims/complex_03_A_b.gif","images/stimuli/spore_stims/complex_14_A_a.gif","","","","","6","complex_dissimilar","images/stimuli/spore_stims/complex_14_A_a.gif","middle",""
"","null","html-keyboard-response","128","399233","0.0-26.0-0.6","SS1613098749454","","","null","","","","","<p><img src= images/blank.png width =""200"" height = ""200"" style = ""float:right""></p><p><img src=images/blank.png width =""800"" height = ""200""></p>","","","","","","","",""
"","1620.504999998957","sequential-stimulus-presentation","129","401675","0.0-26.0-1.6","SS1613098749454","trial","","40","800","2420.504999998957","images/stimuli/spore_stims/complex_03_A_b.gif","images/stimuli/spore_stims/complex_14_A_a.gif","","","","","6","complex_dissimilar","images/stimuli/spore_stims/complex_14_A_a.gif","middle",""
"","null","html-keyboard-response","130","402618","0.0-26.0-0.7","SS1613098749454","","","null","","","","","<p><img src= images/blank.png width =""200"" height = ""200"" style = ""float:right""></p><p><img src=images/blank.png width =""800"" height = ""200""></p>","","","","","","","",""
"","880.1899999962188","sequential-stimulus-presentation","131","404348","0.0-26.0-1.7","SS1613098749454","trial","","40","800","1680.1899999962188","images/stimuli/spore_stims/complex_03_A_b.gif","images/stimuli/spore_stims/complex_14_A_a.gif","","","","","6","complex_dissimilar","images/stimuli/spore_stims/complex_14_A_a.gif","middle",""
