"view_history","rt","trial_type","trial_index","time_elapsed","internal_node_id","subject","stimulus_type","trial_stimulus","key_press","minimum_viewing_duration","trial_looking_time","stimulus","wall_pref","location","location_percent","block_number","block_type","stimulus_displayed","position_displayed","stim_type_selected","responses","question_order","stimulus_left","stimulus_right"
"[{""page_index"":0,""viewing_time"":16210.99999999933}]","16211.999999999534","instructions","0","16213","0.0-0.0","SS1612925835791","","","","","","","","","","","","","","","","","",""
"[{""page_index"":0,""viewing_time"":2108.9999999967404},{""page_index"":1,""viewing_time"":2487.0000000009895}]","4595.99999999773","instructions","1","22812","0.0-1.0","SS1612925835791","instructions","","","","","","","","","","","","","","","","",""
"","4697.000000000116","sequential-stimulus-presentation","2","28317","0.0-2.0","SS1612925835791","","","40","800","5497.000000000116","","","","","","","","","","","","",""
"","5812.999999998283","sequential-stimulus-presentation","3","34940","0.0-3.0","SS1612925835791","","","40","800","6612.999999998283","","","","","","","","","","","","",""
"[{""page_index"":0,""viewing_time"":2341.0000000003492}]","2342.000000000553","instructions","4","37284","0.0-4.0","SS1612925835791","instructions","","","","","","","","","","","","","","","","",""
"","3395.9999999970023","html-keyboard-response","5","40684","0.0-5.0","SS1612925835791","instructions","","98","","","<video width ='960' height = '540' autoplay muted><source src='images/stimuli/wall_pref.mp4' type='video/mp4'></video>","2","middle","45%","","","","","","","","",""
"","1425.9999999994761","sequential-stimulus-presentation","6","42917","0.0-6.0","SS1612925835791","pref_reveal","","40","800","2225.999999999476","","","","","","","","","","","","",""
"[{""page_index"":0,""viewing_time"":2836.9999999995343},{""page_index"":1,""viewing_time"":11631.000000001222},{""page_index"":2,""viewing_time"":1640.9999999996217},{""page_index"":3,""viewing_time"":1279.9999999988358}]","17389.999999999418","instructions","7","60308","0.0-7.0","SS1612925835791","instructions","","","","","","","","","","","","","","","","",""
"","null","html-keyboard-response","8","61426","0.0-8.0-0.0","SS1612925835791","","","null","","","<p><img src= images/blank.png width =""200"" height = ""200"" style = ""float:right""></p><p><img src=images/blank.png width =""800"" height = ""200""></p>","","","","","","","","","","","",""
"","1993.9999999987776","sequential-stimulus-presentation","9","64227","0.0-8.0-1.0","SS1612925835791","trial","","40","800","2793.9999999987776","","","","","0","simple_dissimilar","images/stimuli/spore_stims/simple_10_B_d.gif","middle","","","","",""
"","null","html-keyboard-response","10","65362","0.0-8.0-0.1","SS1612925835791","","","null","","","<p><img src= images/blank.png width =""200"" height = ""200"" style = ""float:right""></p><p><img src=images/blank.png width =""800"" height = ""200""></p>","","","","","","","","","","","",""
"","700.0000000007276","sequential-stimulus-presentation","11","66868","0.0-8.0-1.1","SS1612925835791","trial","","40","800","1500.0000000007276","","","","","0","simple_dissimilar","images/stimuli/spore_stims/simple_10_B_d.gif","middle","","","","",""
"","null","html-keyboard-response","12","67723","0.0-8.0-0.2","SS1612925835791","","","null","","","<p><img src= images/blank.png width =""200"" height = ""200"" style = ""float:right""></p><p><img src=images/blank.png width =""800"" height = ""200""></p>","","","","","","","","","","","",""
"","182.0000000006985","sequential-stimulus-presentation","13","68711","0.0-8.0-1.2","SS1612925835791","trial","","40","800","982.0000000006985","","","","","0","simple_dissimilar","images/stimuli/spore_stims/simple_10_B_d.gif","middle","","","","",""
"","null","html-keyboard-response","14","69750","0.0-8.0-0.3","SS1612925835791","","","null","","","<p><img src= images/blank.png width =""200"" height = ""200"" style = ""float:right""></p><p><img src=images/blank.png width =""800"" height = ""200""></p>","","","","","","","","","","","",""
"","28495.00000000262","sequential-stimulus-presentation","15","99051","0.0-8.0-1.3","SS1612925835791","trial","","40","800","29295.00000000262","","","","","0","simple_dissimilar","images/stimuli/spore_stims/simple_16_B_b.gif","left","","","","",""
"","null","html-keyboard-response","16","99858","0.0-8.0-0.4","SS1612925835791","","","null","","","<p><img src= images/blank.png width =""200"" height = ""200"" style = ""float:right""></p><p><img src=images/blank.png width =""800"" height = ""200""></p>","","","","","","","","","","","",""
"","1137.0000000024447","sequential-stimulus-presentation","17","101803","0.0-8.0-1.4","SS1612925835791","trial","","40","800","1937.0000000024447","","","","","0","simple_dissimilar","images/stimuli/spore_stims/simple_10_B_d.gif","middle","","","","",""
"","null","html-keyboard-response","18","102838","0.0-8.0-0.5","SS1612925835791","","","null","","","<p><img src= images/blank.png width =""200"" height = ""200"" style = ""float:right""></p><p><img src=images/blank.png width =""800"" height = ""200""></p>","","","","","","","","","","","",""
"","19406.000000002678","sequential-stimulus-presentation","19","123051","0.0-8.0-1.5","SS1612925835791","trial","","40","800","20206.000000002678","","","","","0","simple_dissimilar","images/stimuli/spore_stims/simple_10_B_d.gif","middle","","","","",""
"","null","html-keyboard-response","20","124274","0.0-8.0-0.6","SS1612925835791","","","null","","","<p><img src= images/blank.png width =""200"" height = ""200"" style = ""float:right""></p><p><img src=images/blank.png width =""800"" height = ""200""></p>","","","","","","","","","","","",""
"","833.9999999989232","sequential-stimulus-presentation","21","125914","0.0-8.0-1.6","SS1612925835791","trial","","40","800","1633.9999999989232","","","","","0","simple_dissimilar","images/stimuli/spore_stims/simple_10_B_d.gif","middle","","","","",""
"","null","html-keyboard-response","22","126875","0.0-8.0-0.7","SS1612925835791","","","null","","","<p><img src= images/blank.png width =""200"" height = ""200"" style = ""float:right""></p><p><img src=images/blank.png width =""800"" height = ""200""></p>","","","","","","","","","","","",""
"","624226.9999999988","sequential-stimulus-presentation","23","751909","0.0-8.0-1.7","SS1612925835791","trial","","40","800","625026.9999999988","","","","","0","simple_dissimilar","images/stimuli/spore_stims/simple_10_B_d.gif","middle","","","","",""
"","1700.0000000044238","html-keyboard-response","24","753619","0.0-9.0","SS1612925835791","pref_question","","98","","","<video width ='960' height = '540' style='padding-top:8%' autoplay muted><source src='images/stimuli/wall_pref.mp4' type='video/mp4'></video>","2","middle","45%","0","","","","","","","",""
"","648.0000000010477","sequential-stimulus-presentation","25","755073","0.0-10.0","SS1612925835791","pref_reveal","","40","800","1448.0000000010477","","","","","0","","","","background","","","",""
"","null","html-keyboard-response","26","756163","0.0-11.0-0.0","SS1612925835791","","","null","","","<p><img src= images/blank.png width =""200"" height = ""200"" style = ""float:right""></p><p><img src=images/blank.png width =""800"" height = ""200""></p>","","","","","","","","","","","",""
"","97.99999999813735","sequential-stimulus-presentation","27","757067","0.0-11.0-1.0","SS1612925835791","trial","","40","800","897.9999999981374","","","","","1","simple_similar","images/stimuli/spore_stims/simple_04_B_c.gif","right","","","","",""
"","null","html-keyboard-response","28","757950","0.0-11.0-0.1","SS1612925835791","","","null","","","<p><img src= images/blank.png width =""200"" height = ""200"" style = ""float:right""></p><p><img src=images/blank.png width =""800"" height = ""200""></p>","","","","","","","","","","","",""
"","129.99999999732245","sequential-stimulus-presentation","29","758922","0.0-11.0-1.1","SS1612925835791","trial","","40","800","929.9999999973224","","","","","1","simple_similar","images/stimuli/spore_stims/simple_04_B_c.gif","right","","","","",""
"","null","html-keyboard-response","30","760194","0.0-11.0-0.2","SS1612925835791","","","null","","","<p><img src= images/blank.png width =""200"" height = ""200"" style = ""float:right""></p><p><img src=images/blank.png width =""800"" height = ""200""></p>","","","","","","","","","","","",""
"","1766.9999999997672","sequential-stimulus-presentation","31","763283","0.0-11.0-1.2","SS1612925835791","trial","","40","800","2566.999999999767","","","","","1","simple_similar","images/stimuli/spore_stims/simple_04_B_c.gif","right","","","","",""
"","null","html-keyboard-response","32","764531","0.0-11.0-0.3","SS1612925835791","","","null","","","<p><img src= images/blank.png width =""200"" height = ""200"" style = ""float:right""></p><p><img src=images/blank.png width =""800"" height = ""200""></p>","","","","","","","","","","","",""
"","258.0000000016298","sequential-stimulus-presentation","33","765594","0.0-11.0-1.3","SS1612925835791","trial","","40","800","1058.0000000016298","","","","","1","simple_similar","images/stimuli/spore_stims/simple_04_B_c.gif","right","","","","",""
"","null","html-keyboard-response","34","766495","0.0-11.0-0.4","SS1612925835791","","","null","","","<p><img src= images/blank.png width =""200"" height = ""200"" style = ""float:right""></p><p><img src=images/blank.png width =""800"" height = ""200""></p>","","","","","","","","","","","",""
"","11765.999999996042","sequential-stimulus-presentation","35","779066","0.0-11.0-1.4","SS1612925835791","trial","","40","800","12565.999999996042","","","","","1","simple_similar","images/stimuli/spore_stims/simple_04_B_c.gif","right","","","","",""
"","null","html-keyboard-response","36","779966","0.0-11.0-0.5","SS1612925835791","","","null","","","<p><img src= images/blank.png width =""200"" height = ""200"" style = ""float:right""></p><p><img src=images/blank.png width =""800"" height = ""200""></p>","","","","","","","","","","","",""
"","3036","sequential-stimulus-presentation","37","784551","0.0-11.0-1.5","SS1612925835791","trial","","40","800","3836","","","","","1","simple_similar","images/stimuli/spore_stims/simple_04_A_c.gif","left","","","","",""
"","null","html-keyboard-response","38","786523","0.0-11.0-0.6","SS1612925835791","","","null","","","<p><img src= images/blank.png width =""200"" height = ""200"" style = ""float:right""></p><p><img src=images/blank.png width =""800"" height = ""200""></p>","","","","","","","","","","","",""
"","6748.999999996158","sequential-stimulus-presentation","39","794269","0.0-11.0-1.6","SS1612925835791","trial","","40","800","7548.999999996158","","","","","1","simple_similar","images/stimuli/spore_stims/simple_04_B_c.gif","right","","","","",""
"","null","html-keyboard-response","40","795558","0.0-11.0-0.7","SS1612925835791","","","null","","","<p><img src= images/blank.png width =""200"" height = ""200"" style = ""float:right""></p><p><img src=images/blank.png width =""800"" height = ""200""></p>","","","","","","","","","","","",""
"","63.000000001862645","sequential-stimulus-presentation","41","796425","0.0-11.0-1.7","SS1612925835791","trial","","40","800","863.0000000018626","","","","","1","simple_similar","images/stimuli/spore_stims/simple_04_B_c.gif","right","","","","",""
"","1780.9999999954598","html-keyboard-response","42","798210","0.0-12.0","SS1612925835791","pref_question","","98","","","<video width ='960' height = '540' style='padding-top:8%' autoplay muted><source src='images/stimuli/wall_pref.mp4' type='video/mp4'></video>","2","middle","45%","1","","","","","","","",""
"","553.9999999963911","sequential-stimulus-presentation","43","799571","0.0-13.0","SS1612925835791","pref_reveal","","40","800","1353.9999999963911","","","","","1","","","","novel","","","",""
"","null","html-keyboard-response","44","800816","0.0-14.0-0.0","SS1612925835791","","","null","","","<p><img src= images/blank.png width =""200"" height = ""200"" style = ""float:right""></p><p><img src=images/blank.png width =""800"" height = ""200""></p>","","","","","","","","","","","",""
"","771.999999997206","sequential-stimulus-presentation","45","802394","0.0-14.0-1.0","SS1612925835791","trial","","40","800","1571.999999997206","","","","","2","simple_similar","images/stimuli/spore_stims/simple_07_A_d.gif","left","","","","",""
"","null","html-keyboard-response","46","803640","0.0-14.0-0.1","SS1612925835791","","","null","","","<p><img src= images/blank.png width =""200"" height = ""200"" style = ""float:right""></p><p><img src=images/blank.png width =""800"" height = ""200""></p>","","","","","","","","","","","",""
"","69.99999999976717","sequential-stimulus-presentation","47","804515","0.0-14.0-1.1","SS1612925835791","trial","","40","800","869.9999999997672","","","","","2","simple_similar","images/stimuli/spore_stims/simple_07_A_d.gif","left","","","","",""
"","null","html-keyboard-response","48","805389","0.0-14.0-0.2","SS1612925835791","","","null","","","<p><img src= images/blank.png width =""200"" height = ""200"" style = ""float:right""></p><p><img src=images/blank.png width =""800"" height = ""200""></p>","","","","","","","","","","","",""
"","821.0000000036089","sequential-stimulus-presentation","49","807017","0.0-14.0-1.2","SS1612925835791","trial","","40","800","1621.0000000036089","","","","","2","simple_similar","images/stimuli/spore_stims/simple_07_A_d.gif","left","","","","",""
"","null","html-keyboard-response","50","808031","0.0-14.0-0.3","SS1612925835791","","","null","","","<p><img src= images/blank.png width =""200"" height = ""200"" style = ""float:right""></p><p><img src=images/blank.png width =""800"" height = ""200""></p>","","","","","","","","","","","",""
"","528.9999999949941","sequential-stimulus-presentation","51","809395","0.0-14.0-1.3","SS1612925835791","trial","","40","800","1328.9999999949941","","","","","2","simple_similar","images/stimuli/spore_stims/simple_07_A_d.gif","left","","","","",""
"","null","html-keyboard-response","52","810321","0.0-14.0-0.4","SS1612925835791","","","null","","","<p><img src= images/blank.png width =""200"" height = ""200"" style = ""float:right""></p><p><img src=images/blank.png width =""800"" height = ""200""></p>","","","","","","","","","","","",""
"","220.00000000116415","sequential-stimulus-presentation","53","811346","0.0-14.0-1.4","SS1612925835791","trial","","40","800","1020.0000000011642","","","","","2","simple_similar","images/stimuli/spore_stims/simple_07_B_d.gif","right","","","","",""
"","null","html-keyboard-response","54","812168","0.0-14.0-0.5","SS1612925835791","","","null","","","<p><img src= images/blank.png width =""200"" height = ""200"" style = ""float:right""></p><p><img src=images/blank.png width =""800"" height = ""200""></p>","","","","","","","","","","","",""
"","203.00000000139698","sequential-stimulus-presentation","55","813179","0.0-14.0-1.5","SS1612925835791","trial","","40","800","1003.000000001397","","","","","2","simple_similar","images/stimuli/spore_stims/simple_07_A_d.gif","left","","","","",""
"","null","html-keyboard-response","56","814076","0.0-14.0-0.6","SS1612925835791","","","null","","","<p><img src= images/blank.png width =""200"" height = ""200"" style = ""float:right""></p><p><img src=images/blank.png width =""800"" height = ""200""></p>","","","","","","","","","","","",""
"","343.99999999720603","sequential-stimulus-presentation","57","815226","0.0-14.0-1.6","SS1612925835791","trial","","40","800","1143.999999997206","","","","","2","simple_similar","images/stimuli/spore_stims/simple_07_A_d.gif","left","","","","",""
"","null","html-keyboard-response","58","816386","0.0-14.0-0.7","SS1612925835791","","","null","","","<p><img src= images/blank.png width =""200"" height = ""200"" style = ""float:right""></p><p><img src=images/blank.png width =""800"" height = ""200""></p>","","","","","","","","","","","",""
"","80.99999999837019","sequential-stimulus-presentation","59","817274","0.0-14.0-1.7","SS1612925835791","trial","","40","800","880.9999999983702","","","","","2","simple_similar","images/stimuli/spore_stims/simple_07_A_d.gif","left","","","","",""
"","9551.999999996042","html-keyboard-response","60","826859","0.0-15.0","SS1612925835791","pref_question","","98","","","<video width ='960' height = '540' style='padding-top:8%' autoplay muted><source src='images/stimuli/wall_pref.mp4' type='video/mp4'></video>","2","middle","45%","2","","","","","","","",""
"","319.99999999965075","sequential-stimulus-presentation","61","827986","0.0-16.0","SS1612925835791","pref_reveal","","40","800","1119.9999999996508","","","","","2","","","","novel","","","",""
"","null","html-keyboard-response","62","828945","0.0-17.0-0.0","SS1612925835791","","","null","","","<p><img src= images/blank.png width =""200"" height = ""200"" style = ""float:right""></p><p><img src=images/blank.png width =""800"" height = ""200""></p>","","","","","","","","","","","",""
"","241.00000000186265","sequential-stimulus-presentation","63","829994","0.0-17.0-1.0","SS1612925835791","trial","","40","800","1041.0000000018626","","","","","3","complex_similar","images/stimuli/spore_stims/complex_19_A_a.gif","middle","","","","",""
"","null","html-keyboard-response","64","831515","0.0-17.0-0.1","SS1612925835791","","","null","","","<p><img src= images/blank.png width =""200"" height = ""200"" style = ""float:right""></p><p><img src=images/blank.png width =""800"" height = ""200""></p>","","","","","","","","","","","",""
"","1277.0000000018626","sequential-stimulus-presentation","65","833814","0.0-17.0-1.1","SS1612925835791","trial","","40","800","2077.0000000018626","","","","","3","complex_similar","images/stimuli/spore_stims/complex_19_A_a.gif","middle","","","","",""
"","null","html-keyboard-response","66","834867","0.0-17.0-0.2","SS1612925835791","","","null","","","<p><img src= images/blank.png width =""200"" height = ""200"" style = ""float:right""></p><p><img src=images/blank.png width =""800"" height = ""200""></p>","","","","","","","","","","","",""
"","18478.999999999418","sequential-stimulus-presentation","67","854996","0.0-17.0-1.2","SS1612925835791","trial","","40","800","19278.999999999418","","","","","3","complex_similar","images/stimuli/spore_stims/complex_19_A_a.gif","middle","","","","",""
"","null","html-keyboard-response","68","856518","0.0-17.0-0.3","SS1612925835791","","","null","","","<p><img src= images/blank.png width =""200"" height = ""200"" style = ""float:right""></p><p><img src=images/blank.png width =""800"" height = ""200""></p>","","","","","","","","","","","",""
"","2682.0000000006985","sequential-stimulus-presentation","69","860210","0.0-17.0-1.3","SS1612925835791","trial","","40","800","3482.0000000006985","","","","","3","complex_similar","images/stimuli/spore_stims/complex_19_A_a.gif","middle","","","","",""
"","null","html-keyboard-response","70","861296","0.0-17.0-0.4","SS1612925835791","","","null","","","<p><img src= images/blank.png width =""200"" height = ""200"" style = ""float:right""></p><p><img src=images/blank.png width =""800"" height = ""200""></p>","","","","","","","","","","","",""
"","28.00000000570435","sequential-stimulus-presentation","71","862131","0.0-17.0-1.4","SS1612925835791","trial","","40","800","828.0000000057044","","","","","3","complex_similar","images/stimuli/spore_stims/complex_19_A_a.gif","middle","","","","",""
"","null","html-keyboard-response","72","863254","0.0-17.0-0.5","SS1612925835791","","","null","","","<p><img src= images/blank.png width =""200"" height = ""200"" style = ""float:right""></p><p><img src=images/blank.png width =""800"" height = ""200""></p>","","","","","","","","","","","",""
"","141.99999999988358","sequential-stimulus-presentation","73","864201","0.0-17.0-1.5","SS1612925835791","trial","","40","800","941.9999999998836","","","","","3","complex_similar","images/stimuli/spore_stims/complex_19_A_a.gif","middle","","","","",""
"","null","html-keyboard-response","74","865500","0.0-17.0-0.6","SS1612925835791","","","null","","","<p><img src= images/blank.png width =""200"" height = ""200"" style = ""float:right""></p><p><img src=images/blank.png width =""800"" height = ""200""></p>","","","","","","","","","","","",""
"","25.0000000015134","sequential-stimulus-presentation","75","866332","0.0-17.0-1.6","SS1612925835791","trial","","40","800","825.0000000015134","","","","","3","complex_similar","images/stimuli/spore_stims/complex_19_A_a.gif","middle","","","","",""
"","null","html-keyboard-response","76","867328","0.0-17.0-0.7","SS1612925835791","","","null","","","<p><img src= images/blank.png width =""200"" height = ""200"" style = ""float:right""></p><p><img src=images/blank.png width =""800"" height = ""200""></p>","","","","","","","","","","","",""
"","1114.9999999979045","sequential-stimulus-presentation","77","869250","0.0-17.0-1.7","SS1612925835791","trial","","40","800","1914.9999999979045","","","","","3","complex_similar","images/stimuli/spore_stims/complex_19_B_a.gif","right","","","","",""
"","1651.9999999945285","html-keyboard-response","78","870906","0.0-18.0","SS1612925835791","pref_question","","98","","","<video width ='960' height = '540' style='padding-top:8%' autoplay muted><source src='images/stimuli/wall_pref.mp4' type='video/mp4'></video>","2","middle","45%","3","","","","","","","",""
"","41.00000000477303","sequential-stimulus-presentation","79","871754","0.0-19.0","SS1612925835791","pref_reveal","","40","800","841.000000004773","","","","","3","","","","background","","","",""
"","null","html-keyboard-response","80","872954","0.0-20.0-0.0","SS1612925835791","","","null","","","<p><img src= images/blank.png width =""200"" height = ""200"" style = ""float:right""></p><p><img src=images/blank.png width =""800"" height = ""200""></p>","","","","","","","","","","","",""
"","17.999999996391125","sequential-stimulus-presentation","81","873778","0.0-20.0-1.0","SS1612925835791","trial","","40","800","817.9999999963911","","","","","4","complex_dissimilar","images/stimuli/spore_stims/complex_03_B_a.gif","left","","","","",""
"","null","html-keyboard-response","82","874902","0.0-20.0-0.1","SS1612925835791","","","null","","","<p><img src= images/blank.png width =""200"" height = ""200"" style = ""float:right""></p><p><img src=images/blank.png width =""800"" height = ""200""></p>","","","","","","","","","","","",""
"","222.99999999813735","sequential-stimulus-presentation","83","875930","0.0-20.0-1.1","SS1612925835791","trial","","40","800","1022.9999999981374","","","","","4","complex_dissimilar","images/stimuli/spore_stims/complex_03_B_a.gif","left","","","","",""
"","null","html-keyboard-response","84","876810","0.0-20.0-0.2","SS1612925835791","","","null","","","<p><img src= images/blank.png width =""200"" height = ""200"" style = ""float:right""></p><p><img src=images/blank.png width =""800"" height = ""200""></p>","","","","","","","","","","","",""
"","1584.999999999185","sequential-stimulus-presentation","85","879202","0.0-20.0-1.2","SS1612925835791","trial","","40","800","2384.999999999185","","","","","4","complex_dissimilar","images/stimuli/spore_stims/complex_03_B_a.gif","left","","","","",""
"","null","html-keyboard-response","86","880072","0.0-20.0-0.3","SS1612925835791","","","null","","","<p><img src= images/blank.png width =""200"" height = ""200"" style = ""float:right""></p><p><img src=images/blank.png width =""800"" height = ""200""></p>","","","","","","","","","","","",""
"","3406.0000000026776","sequential-stimulus-presentation","87","884921","0.0-20.0-1.3","SS1612925835791","trial","","40","800","4206.000000002678","","","","","4","complex_dissimilar","images/stimuli/spore_stims/complex_03_B_a.gif","left","","","","",""
"","null","html-keyboard-response","88","886153","0.0-20.0-0.4","SS1612925835791","","","null","","","<p><img src= images/blank.png width =""200"" height = ""200"" style = ""float:right""></p><p><img src=images/blank.png width =""800"" height = ""200""></p>","","","","","","","","","","","",""
"","139.00000000291038","sequential-stimulus-presentation","89","887099","0.0-20.0-1.4","SS1612925835791","trial","","40","800","939.0000000029104","","","","","4","complex_dissimilar","images/stimuli/spore_stims/complex_07_A_d.gif","middle","","","","",""
"","null","html-keyboard-response","90","888155","0.0-20.0-0.5","SS1612925835791","","","null","","","<p><img src= images/blank.png width =""200"" height = ""200"" style = ""float:right""></p><p><img src=images/blank.png width =""800"" height = ""200""></p>","","","","","","","","","","","",""
"","16.999999999883585","sequential-stimulus-presentation","91","888977","0.0-20.0-1.5","SS1612925835791","trial","","40","800","816.9999999998836","","","","","4","complex_dissimilar","images/stimuli/spore_stims/complex_03_B_a.gif","left","","","","",""
"","null","html-keyboard-response","92","889972","0.0-20.0-0.6","SS1612925835791","","","null","","","<p><img src= images/blank.png width =""200"" height = ""200"" style = ""float:right""></p><p><img src=images/blank.png width =""800"" height = ""200""></p>","","","","","","","","","","","",""
"","120.00000000267755","sequential-stimulus-presentation","93","890908","0.0-20.0-1.6","SS1612925835791","trial","","40","800","920.0000000026776","","","","","4","complex_dissimilar","images/stimuli/spore_stims/complex_03_B_a.gif","left","","","","",""
"","null","html-keyboard-response","94","892517","0.0-20.0-0.7","SS1612925835791","","","null","","","<p><img src= images/blank.png width =""200"" height = ""200"" style = ""float:right""></p><p><img src=images/blank.png width =""800"" height = ""200""></p>","","","","","","","","","","","",""
"","438.00000000186265","sequential-stimulus-presentation","95","893770","0.0-20.0-1.7","SS1612925835791","trial","","40","800","1238.0000000018626","","","","","4","complex_dissimilar","images/stimuli/spore_stims/complex_03_B_a.gif","left","","","","",""
"","2105.999999999767","html-keyboard-response","96","895881","0.0-21.0","SS1612925835791","pref_question","","50","","","<video width ='960' height = '540' style='padding-top:8%' autoplay muted><source src='images/stimuli/wall_pref.mp4' type='video/mp4'></video>","2","middle","45%","4","","","","","","","",""
"","1262.9999999989523","sequential-stimulus-presentation","97","897961","0.0-22.0","SS1612925835791","pref_reveal","","40","800","2062.9999999989523","","","","","4","","","","deviant","","","",""
"","null","html-keyboard-response","98","899054","0.0-23.0-0.0","SS1612925835791","","","null","","","<p><img src= images/blank.png width =""200"" height = ""200"" style = ""float:right""></p><p><img src=images/blank.png width =""800"" height = ""200""></p>","","","","","","","","","","","",""
"","19692.9999999993","sequential-stimulus-presentation","99","920209","0.0-23.0-1.0","SS1612925835791","trial","","40","800","20492.9999999993","","","","","5","simple_similar","images/stimuli/spore_stims/simple_19_B_a.gif","middle","","","","",""
"","null","html-keyboard-response","100","921132","0.0-23.0-0.1","SS1612925835791","","","null","","","<p><img src= images/blank.png width =""200"" height = ""200"" style = ""float:right""></p><p><img src=images/blank.png width =""800"" height = ""200""></p>","","","","","","","","","","","",""
"","158.99999999953434","sequential-stimulus-presentation","101","922101","0.0-23.0-1.1","SS1612925835791","trial","","40","800","958.9999999995343","","","","","5","simple_similar","images/stimuli/spore_stims/simple_19_B_a.gif","middle","","","","",""
"","null","html-keyboard-response","102","923337","0.0-23.0-0.2","SS1612925835791","","","null","","","<p><img src= images/blank.png width =""200"" height = ""200"" style = ""float:right""></p><p><img src=images/blank.png width =""800"" height = ""200""></p>","","","","","","","","","","","",""
"","213.99999999988358","sequential-stimulus-presentation","103","924358","0.0-23.0-1.2","SS1612925835791","trial","","40","800","1013.9999999998836","","","","","5","simple_similar","images/stimuli/spore_stims/simple_19_B_a.gif","middle","","","","",""
"","null","html-keyboard-response","104","925301","0.0-23.0-0.3","SS1612925835791","","","null","","","<p><img src= images/blank.png width =""200"" height = ""200"" style = ""float:right""></p><p><img src=images/blank.png width =""800"" height = ""200""></p>","","","","","","","","","","","",""
"","86.99999999953434","sequential-stimulus-presentation","105","926194","0.0-23.0-1.3","SS1612925835791","trial","","40","800","886.9999999995343","","","","","5","simple_similar","images/stimuli/spore_stims/simple_19_B_a.gif","middle","","","","",""
"","null","html-keyboard-response","106","927455","0.0-23.0-0.4","SS1612925835791","","","null","","","<p><img src= images/blank.png width =""200"" height = ""200"" style = ""float:right""></p><p><img src=images/blank.png width =""800"" height = ""200""></p>","","","","","","","","","","","",""
"","14156.000000002678","sequential-stimulus-presentation","107","942418","0.0-23.0-1.4","SS1612925835791","trial","","40","800","14956.000000002678","","","","","5","simple_similar","images/stimuli/spore_stims/simple_19_B_a.gif","middle","","","","",""
"","null","html-keyboard-response","108","943392","0.0-23.0-0.5","SS1612925835791","","","null","","","<p><img src= images/blank.png width =""200"" height = ""200"" style = ""float:right""></p><p><img src=images/blank.png width =""800"" height = ""200""></p>","","","","","","","","","","","",""
"","2220.999999997788","sequential-stimulus-presentation","109","946420","0.0-23.0-1.5","SS1612925835791","trial","","40","800","3020.999999997788","","","","","5","simple_similar","images/stimuli/spore_stims/simple_19_B_a.gif","middle","","","","",""
"","null","html-keyboard-response","110","947352","0.0-23.0-0.6","SS1612925835791","","","null","","","<p><img src= images/blank.png width =""200"" height = ""200"" style = ""float:right""></p><p><img src=images/blank.png width =""800"" height = ""200""></p>","","","","","","","","","","","",""
"","1853.999999999418","sequential-stimulus-presentation","111","950371","0.0-23.0-1.6","SS1612925835791","trial","","40","800","2653.999999999418","","","","","5","simple_similar","images/stimuli/spore_stims/simple_19_B_a.gif","middle","","","","",""
"","null","html-keyboard-response","112","951232","0.0-23.0-0.7","SS1612925835791","","","null","","","<p><img src= images/blank.png width =""200"" height = ""200"" style = ""float:right""></p><p><img src=images/blank.png width =""800"" height = ""200""></p>","","","","","","","","","","","",""
"","12796.99999999872","sequential-stimulus-presentation","113","965314","0.0-23.0-1.7","SS1612925835791","trial","","40","800","13596.99999999872","","","","","5","simple_similar","images/stimuli/spore_stims/simple_19_A_a.gif","right","","","","",""
"","1915.0000000009313","html-keyboard-response","114","967235","0.0-24.0","SS1612925835791","pref_question","","50","","","<video width ='960' height = '540' style='padding-top:8%' autoplay muted><source src='images/stimuli/wall_pref.mp4' type='video/mp4'></video>","2","middle","45%","5","","","","","","","",""
"","1159.9999999961583","sequential-stimulus-presentation","115","969202","0.0-25.0","SS1612925835791","pref_reveal","","40","800","1959.9999999961583","","","","","5","","","","background","","","",""
"","null","html-keyboard-response","116","970071","0.0-26.0-0.0","SS1612925835791","","","null","","","<p><img src= images/blank.png width =""200"" height = ""200"" style = ""float:right""></p><p><img src=images/blank.png width =""800"" height = ""200""></p>","","","","","","","","","","","",""
"","887.9999999990687","sequential-stimulus-presentation","117","971787","0.0-26.0-1.0","SS1612925835791","trial","","40","800","1687.9999999990687","","","","","6","simple_dissimilar","images/stimuli/spore_stims/simple_10_A_b.gif","right","","","","",""
"","null","html-keyboard-response","118","972600","0.0-26.0-0.1","SS1612925835791","","","null","","","<p><img src= images/blank.png width =""200"" height = ""200"" style = ""float:right""></p><p><img src=images/blank.png width =""800"" height = ""200""></p>","","","","","","","","","","","",""
"","16324.999999997206","sequential-stimulus-presentation","119","989730","0.0-26.0-1.1","SS1612925835791","trial","","40","800","17124.999999997206","","","","","6","simple_dissimilar","images/stimuli/spore_stims/simple_10_A_b.gif","right","","","","",""
"","null","html-keyboard-response","120","990985","0.0-26.0-0.2","SS1612925835791","","","null","","","<p><img src= images/blank.png width =""200"" height = ""200"" style = ""float:right""></p><p><img src=images/blank.png width =""800"" height = ""200""></p>","","","","","","","","","","","",""
"","256.9999999976717","sequential-stimulus-presentation","121","992049","0.0-26.0-1.2","SS1612925835791","trial","","40","800","1056.9999999976717","","","","","6","simple_dissimilar","images/stimuli/spore_stims/simple_10_A_b.gif","right","","","","",""
"","null","html-keyboard-response","122","993072","0.0-26.0-0.3","SS1612925835791","","","null","","","<p><img src= images/blank.png width =""200"" height = ""200"" style = ""float:right""></p><p><img src=images/blank.png width =""800"" height = ""200""></p>","","","","","","","","","","","",""
"","273.00000000104774","sequential-stimulus-presentation","123","994153","0.0-26.0-1.3","SS1612925835791","trial","","40","800","1073.0000000010477","","","","","6","simple_dissimilar","images/stimuli/spore_stims/simple_10_A_b.gif","right","","","","",""
"","null","html-keyboard-response","124","995008","0.0-26.0-0.4","SS1612925835791","","","null","","","<p><img src= images/blank.png width =""200"" height = ""200"" style = ""float:right""></p><p><img src=images/blank.png width =""800"" height = ""200""></p>","","","","","","","","","","","",""
"","242.00000000558794","sequential-stimulus-presentation","125","996057","0.0-26.0-1.4","SS1612925835791","trial","","40","800","1042.000000005588","","","","","6","simple_dissimilar","images/stimuli/spore_stims/simple_10_A_b.gif","right","","","","",""
"","null","html-keyboard-response","126","997292","0.0-26.0-0.5","SS1612925835791","","","null","","","<p><img src= images/blank.png width =""200"" height = ""200"" style = ""float:right""></p><p><img src=images/blank.png width =""800"" height = ""200""></p>","","","","","","","","","","","",""
"","30.999999995343387","sequential-stimulus-presentation","127","998129","0.0-26.0-1.5","SS1612925835791","trial","","40","800","830.9999999953434","","","","","6","simple_dissimilar","images/stimuli/spore_stims/simple_10_A_b.gif","right","","","","",""
"","null","html-keyboard-response","128","999064","0.0-26.0-0.6","SS1612925835791","","","null","","","<p><img src= images/blank.png width =""200"" height = ""200"" style = ""float:right""></p><p><img src=images/blank.png width =""800"" height = ""200""></p>","","","","","","","","","","","",""
"","57.00000000069849","sequential-stimulus-presentation","129","999930","0.0-26.0-1.6","SS1612925835791","trial","","40","800","857.0000000006985","","","","","6","simple_dissimilar","images/stimuli/spore_stims/simple_10_A_b.gif","right","","","","",""
"","null","html-keyboard-response","130","1001153","0.0-26.0-0.7","SS1612925835791","","","null","","","<p><img src= images/blank.png width =""200"" height = ""200"" style = ""float:right""></p><p><img src=images/blank.png width =""800"" height = ""200""></p>","","","","","","","","","","","",""
"","11483.99999999674","sequential-stimulus-presentation","131","1013449","0.0-26.0-1.7","SS1612925835791","trial","","40","800","12283.99999999674","","","","","6","simple_dissimilar","images/stimuli/spore_stims/simple_07_B_b.gif","left","","","","",""
"","1993.000000002212","html-keyboard-response","132","1015449","0.0-27.0","SS1612925835791","pref_question","","49","","","<video width ='960' height = '540' style='padding-top:8%' autoplay muted><source src='images/stimuli/wall_pref.mp4' type='video/mp4'></video>","1","left","25%","6","","","","","","","",""
"","77.00000000477303","sequential-stimulus-presentation","133","1016332","0.0-28.0","SS1612925835791","pref_reveal","","40","800","877.000000004773","","","","","6","","","","deviant","","","",""
"","null","html-keyboard-response","134","1017211","0.0-29.0-0.0","SS1612925835791","","","null","","","<p><img src= images/blank.png width =""200"" height = ""200"" style = ""float:right""></p><p><img src=images/blank.png width =""800"" height = ""200""></p>","","","","","","","","","","","",""
"","677.9999999998836","sequential-stimulus-presentation","135","1018697","0.0-29.0-1.0","SS1612925835791","trial","","40","800","1477.9999999998836","","","","","7","simple_similar","images/stimuli/spore_stims/simple_12_B_a.gif","left","","","","",""
"","null","html-keyboard-response","136","1019967","0.0-29.0-0.1","SS1612925835791","","","null","","","<p><img src= images/blank.png width =""200"" height = ""200"" style = ""float:right""></p><p><img src=images/blank.png width =""800"" height = ""200""></p>","","","","","","","","","","","",""
"","105.99999999976717","sequential-stimulus-presentation","137","1020881","0.0-29.0-1.1","SS1612925835791","trial","","40","800","905.9999999997672","","","","","7","simple_similar","images/stimuli/spore_stims/simple_12_B_a.gif","left","","","","",""
"","null","html-keyboard-response","138","1022165","0.0-29.0-0.2","SS1612925835791","","","null","","","<p><img src= images/blank.png width =""200"" height = ""200"" style = ""float:right""></p><p><img src=images/blank.png width =""800"" height = ""200""></p>","","","","","","","","","","","",""
"","466.00000000046566","sequential-stimulus-presentation","139","1023473","0.0-29.0-1.2","SS1612925835791","trial","","40","800","1266.0000000004657","","","","","7","simple_similar","images/stimuli/spore_stims/simple_12_B_a.gif","left","","","","",""
"","null","html-keyboard-response","140","1024535","0.0-29.0-0.3","SS1612925835791","","","null","","","<p><img src= images/blank.png width =""200"" height = ""200"" style = ""float:right""></p><p><img src=images/blank.png width =""800"" height = ""200""></p>","","","","","","","","","","","",""
"","112.9999999976717","sequential-stimulus-presentation","141","1025458","0.0-29.0-1.3","SS1612925835791","trial","","40","800","912.9999999976717","","","","","7","simple_similar","images/stimuli/spore_stims/simple_12_B_a.gif","left","","","","",""
"","null","html-keyboard-response","142","1026268","0.0-29.0-0.4","SS1612925835791","","","null","","","<p><img src= images/blank.png width =""200"" height = ""200"" style = ""float:right""></p><p><img src=images/blank.png width =""800"" height = ""200""></p>","","","","","","","","","","","",""
"","8629.000000000815","sequential-stimulus-presentation","143","1036145","0.0-29.0-1.4","SS1612925835791","trial","","40","800","9429.000000000815","","","","","7","simple_similar","images/stimuli/spore_stims/simple_12_B_a.gif","left","","","","",""
"","null","html-keyboard-response","144","1037442","0.0-29.0-0.5","SS1612925835791","","","null","","","<p><img src= images/blank.png width =""200"" height = ""200"" style = ""float:right""></p><p><img src=images/blank.png width =""800"" height = ""200""></p>","","","","","","","","","","","",""
"","140.99999999604188","sequential-stimulus-presentation","145","1038393","0.0-29.0-1.5","SS1612925835791","trial","","40","800","940.9999999960419","","","","","7","simple_similar","images/stimuli/spore_stims/simple_12_A_a.gif","middle","","","","",""
"","null","html-keyboard-response","146","1039382","0.0-29.0-0.6","SS1612925835791","","","null","","","<p><img src= images/blank.png width =""200"" height = ""200"" style = ""float:right""></p><p><img src=images/blank.png width =""800"" height = ""200""></p>","","","","","","","","","","","",""
"","504.99999999743886","sequential-stimulus-presentation","147","1040698","0.0-29.0-1.6","SS1612925835791","trial","","40","800","1304.9999999974389","","","","","7","simple_similar","images/stimuli/spore_stims/simple_12_B_a.gif","left","","","","",""
"","null","html-keyboard-response","148","1041568","0.0-29.0-0.7","SS1612925835791","","","null","","","<p><img src= images/blank.png width =""200"" height = ""200"" style = ""float:right""></p><p><img src=images/blank.png width =""800"" height = ""200""></p>","","","","","","","","","","","",""
"","205.00000000186265","sequential-stimulus-presentation","149","1042585","0.0-29.0-1.7","SS1612925835791","trial","","40","800","1005.0000000018626","","","","","7","simple_similar","images/stimuli/spore_stims/simple_12_B_a.gif","left","","","","",""
"","1881.0000000011642","html-keyboard-response","150","1044473","0.0-30.0","SS1612925835791","pref_question","","50","","","<video width ='960' height = '540' style='padding-top:8%' autoplay muted><source src='images/stimuli/wall_pref.mp4' type='video/mp4'></video>","2","middle","45%","7","","","","","","","",""
"","10.000000002095476","sequential-stimulus-presentation","151","1045321","0.0-31.0","SS1612925835791","pref_reveal","","40","800","810.0000000020955","","","","","7","","","","deviant","","","",""
"","null","html-keyboard-response","152","1046472","0.0-32.0-0.0","SS1612925835791","","","null","","","<p><img src= images/blank.png width =""200"" height = ""200"" style = ""float:right""></p><p><img src=images/blank.png width =""800"" height = ""200""></p>","","","","","","","","","","","",""
"","31.000000002561137","sequential-stimulus-presentation","153","1047315","0.0-32.0-1.0","SS1612925835791","trial","","40","800","831.0000000025611","","","","","8","complex_dissimilar","images/stimuli/spore_stims/complex_16_A_a.gif","right","","","","",""
"","null","html-keyboard-response","154","1048265","0.0-32.0-0.1","SS1612925835791","","","null","","","<p><img src= images/blank.png width =""200"" height = ""200"" style = ""float:right""></p><p><img src=images/blank.png width =""800"" height = ""200""></p>","","","","","","","","","","","",""
"","21631.999999997905","sequential-stimulus-presentation","155","1071149","0.0-32.0-1.1","SS1612925835791","trial","","40","800","22431.999999997905","","","","","8","complex_dissimilar","images/stimuli/spore_stims/complex_16_A_a.gif","right","","","","",""
"","null","html-keyboard-response","156","1072533","0.0-32.0-0.2","SS1612925835791","","","null","","","<p><img src= images/blank.png width =""200"" height = ""200"" style = ""float:right""></p><p><img src=images/blank.png width =""800"" height = ""200""></p>","","","","","","","","","","","",""
"","6339.99999999674","sequential-stimulus-presentation","157","1079857","0.0-32.0-1.2","SS1612925835791","trial","","40","800","7139.99999999674","","","","","8","complex_dissimilar","images/stimuli/spore_stims/complex_16_A_a.gif","right","","","","",""
"","null","html-keyboard-response","158","1080939","0.0-32.0-0.3","SS1612925835791","","","null","","","<p><img src= images/blank.png width =""200"" height = ""200"" style = ""float:right""></p><p><img src=images/blank.png width =""800"" height = ""200""></p>","","","","","","","","","","","",""
"","10612.999999997672","sequential-stimulus-presentation","159","1093130","0.0-32.0-1.3","SS1612925835791","trial","","40","800","11412.999999997672","","","","","8","complex_dissimilar","images/stimuli/spore_stims/complex_16_A_a.gif","right","","","","",""
"","null","html-keyboard-response","160","1094123","0.0-32.0-0.4","SS1612925835791","","","null","","","<p><img src= images/blank.png width =""200"" height = ""200"" style = ""float:right""></p><p><img src=images/blank.png width =""800"" height = ""200""></p>","","","","","","","","","","","",""
"","29614.000000001397","sequential-stimulus-presentation","161","1125130","0.0-32.0-1.4","SS1612925835791","trial","","40","800","30414.000000001397","","","","","8","complex_dissimilar","images/stimuli/spore_stims/complex_16_A_a.gif","right","","","","",""
"","null","html-keyboard-response","162","1125989","0.0-32.0-0.5","SS1612925835791","","","null","","","<p><img src= images/blank.png width =""200"" height = ""200"" style = ""float:right""></p><p><img src=images/blank.png width =""800"" height = ""200""></p>","","","","","","","","","","","",""
"","12574.000000000466","sequential-stimulus-presentation","163","1140089","0.0-32.0-1.5","SS1612925835791","trial","","40","800","13374.000000000466","","","","","8","complex_dissimilar","images/stimuli/spore_stims/complex_16_A_a.gif","right","","","","",""
"","null","html-keyboard-response","164","1141269","0.0-32.0-0.6","SS1612925835791","","","null","","","<p><img src= images/blank.png width =""200"" height = ""200"" style = ""float:right""></p><p><img src=images/blank.png width =""800"" height = ""200""></p>","","","","","","","","","","","",""
"","12206.000000005588","sequential-stimulus-presentation","165","1154721","0.0-32.0-1.6","SS1612925835791","trial","","40","800","13006.000000005588","","","","","8","complex_dissimilar","images/stimuli/spore_stims/complex_13_B_b.gif","left","","","","",""
"","null","html-keyboard-response","166","1155768","0.0-32.0-0.7","SS1612925835791","","","null","","","<p><img src= images/blank.png width =""200"" height = ""200"" style = ""float:right""></p><p><img src=images/blank.png width =""800"" height = ""200""></p>","","","","","","","","","","","",""
"","5935.000000004889","sequential-stimulus-presentation","167","1163451","0.0-32.0-1.7","SS1612925835791","trial","","40","800","6735.000000004889","","","","","8","complex_dissimilar","images/stimuli/spore_stims/complex_16_A_a.gif","right","","","","",""
"","2152.0000000018626","html-keyboard-response","168","1165611","0.0-33.0","SS1612925835791","pref_question","","98","","","<video width ='960' height = '540' style='padding-top:8%' autoplay muted><source src='images/stimuli/wall_pref.mp4' type='video/mp4'></video>","2","middle","45%","8","","","","","","","",""
"","27200.000000004424","sequential-stimulus-presentation","169","1193618","0.0-34.0","SS1612925835791","pref_reveal","","40","800","28000.000000004424","","","","","8","","","","novel","","","",""
"","null","html-keyboard-response","170","1194743","0.0-35.0-0.0","SS1612925835791","","","null","","","<p><img src= images/blank.png width =""200"" height = ""200"" style = ""float:right""></p><p><img src=images/blank.png width =""800"" height = ""200""></p>","","","","","","","","","","","",""
"","1091.0000000004657","sequential-stimulus-presentation","171","1196646","0.0-35.0-1.0","SS1612925835791","trial","","40","800","1891.0000000004657","","","","","9","simple_similar","images/stimuli/spore_stims/simple_14_B_c.gif","left","","","","",""
"","null","html-keyboard-response","172","1197884","0.0-35.0-0.1","SS1612925835791","","","null","","","<p><img src= images/blank.png width =""200"" height = ""200"" style = ""float:right""></p><p><img src=images/blank.png width =""800"" height = ""200""></p>","","","","","","","","","","","",""
"","1287.0000000037253","sequential-stimulus-presentation","173","1199978","0.0-35.0-1.1","SS1612925835791","trial","","40","800","2087.0000000037253","","","","","9","simple_similar","images/stimuli/spore_stims/simple_14_B_c.gif","left","","","","",""
"","null","html-keyboard-response","174","1200987","0.0-35.0-0.2","SS1612925835791","","","null","","","<p><img src= images/blank.png width =""200"" height = ""200"" style = ""float:right""></p><p><img src=images/blank.png width =""800"" height = ""200""></p>","","","","","","","","","","","",""
"","12214","sequential-stimulus-presentation","175","1214730","0.0-35.0-1.2","SS1612925835791","trial","","40","800","13014","","","","","9","simple_similar","images/stimuli/spore_stims/simple_14_B_c.gif","left","","","","",""
"","null","html-keyboard-response","176","1215678","0.0-35.0-0.3","SS1612925835791","","","null","","","<p><img src= images/blank.png width =""200"" height = ""200"" style = ""float:right""></p><p><img src=images/blank.png width =""800"" height = ""200""></p>","","","","","","","","","","","",""
"","15670.000000005588","sequential-stimulus-presentation","177","1232185","0.0-35.0-1.3","SS1612925835791","trial","","40","800","16470.000000005588","","","","","9","simple_similar","images/stimuli/spore_stims/simple_14_A_c.gif","right","","","","",""
"","null","html-keyboard-response","178","1233182","0.0-35.0-0.4","SS1612925835791","","","null","","","<p><img src= images/blank.png width =""200"" height = ""200"" style = ""float:right""></p><p><img src=images/blank.png width =""800"" height = ""200""></p>","","","","","","","","","","","",""
"","1597.000000001397","sequential-stimulus-presentation","179","1235592","0.0-35.0-1.4","SS1612925835791","trial","","40","800","2397.000000001397","","","","","9","simple_similar","images/stimuli/spore_stims/simple_14_B_c.gif","left","","","","",""
"","null","html-keyboard-response","180","1236849","0.0-35.0-0.5","SS1612925835791","","","null","","","<p><img src= images/blank.png width =""200"" height = ""200"" style = ""float:right""></p><p><img src=images/blank.png width =""800"" height = ""200""></p>","","","","","","","","","","","",""
"","840.0000000039581","sequential-stimulus-presentation","181","1238497","0.0-35.0-1.5","SS1612925835791","trial","","40","800","1640.0000000039581","","","","","9","simple_similar","images/stimuli/spore_stims/simple_14_B_c.gif","left","","","","",""
"","null","html-keyboard-response","182","1239761","0.0-35.0-0.6","SS1612925835791","","","null","","","<p><img src= images/blank.png width =""200"" height = ""200"" style = ""float:right""></p><p><img src=images/blank.png width =""800"" height = ""200""></p>","","","","","","","","","","","",""
"","631.9999999976717","sequential-stimulus-presentation","183","1241202","0.0-35.0-1.6","SS1612925835791","trial","","40","800","1431.9999999976717","","","","","9","simple_similar","images/stimuli/spore_stims/simple_14_B_c.gif","left","","","","",""
"","null","html-keyboard-response","184","1242382","0.0-35.0-0.7","SS1612925835791","","","null","","","<p><img src= images/blank.png width =""200"" height = ""200"" style = ""float:right""></p><p><img src=images/blank.png width =""800"" height = ""200""></p>","","","","","","","","","","","",""
"","625","sequential-stimulus-presentation","185","1243816","0.0-35.0-1.7","SS1612925835791","trial","","40","800","1425","","","","","9","simple_similar","images/stimuli/spore_stims/simple_14_B_c.gif","left","","","","",""
"","1836.9999999995343","html-keyboard-response","186","1245661","0.0-36.0","SS1612925835791","pref_question","","98","","","<video width ='960' height = '540' style='padding-top:8%' autoplay muted><source src='images/stimuli/wall_pref.mp4' type='video/mp4'></video>","2","middle","45%","9","","","","","","","",""
"","1826.0000000009313","sequential-stimulus-presentation","187","1248296","0.0-37.0","SS1612925835791","pref_reveal","","40","800","2626.0000000009313","","","","","9","","","","novel","","","",""
"","null","html-keyboard-response","188","1249492","0.0-38.0-0.0","SS1612925835791","","","null","","","<p><img src= images/blank.png width =""200"" height = ""200"" style = ""float:right""></p><p><img src=images/blank.png width =""800"" height = ""200""></p>","","","","","","","","","","","",""
"","2866.99999999837","sequential-stimulus-presentation","189","1253169","0.0-38.0-1.0","SS1612925835791","trial","","40","800","3666.99999999837","","","","","10","simple_dissimilar","images/stimuli/spore_stims/simple_06_B_a.gif","middle","","","","",""
"","null","html-keyboard-response","190","1254393","0.0-38.0-0.1","SS1612925835791","","","null","","","<p><img src= images/blank.png width =""200"" height = ""200"" style = ""float:right""></p><p><img src=images/blank.png width =""800"" height = ""200""></p>","","","","","","","","","","","",""
"","715.0000000039581","sequential-stimulus-presentation","191","1255916","0.0-38.0-1.1","SS1612925835791","trial","","40","800","1515.0000000039581","","","","","10","simple_dissimilar","images/stimuli/spore_stims/simple_06_B_a.gif","middle","","","","",""
"","null","html-keyboard-response","192","1257122","0.0-38.0-0.2","SS1612925835791","","","null","","","<p><img src= images/blank.png width =""200"" height = ""200"" style = ""float:right""></p><p><img src=images/blank.png width =""800"" height = ""200""></p>","","","","","","","","","","","",""
"","798.9999999990687","sequential-stimulus-presentation","193","1258755","0.0-38.0-1.2","SS1612925835791","trial","","40","800","1598.9999999990687","","","","","10","simple_dissimilar","images/stimuli/spore_stims/simple_06_B_a.gif","middle","","","","",""
"","null","html-keyboard-response","194","1259638","0.0-38.0-0.3","SS1612925835791","","","null","","","<p><img src= images/blank.png width =""200"" height = ""200"" style = ""float:right""></p><p><img src=images/blank.png width =""800"" height = ""200""></p>","","","","","","","","","","","",""
"","311.0000000016298","sequential-stimulus-presentation","195","1260759","0.0-38.0-1.3","SS1612925835791","trial","","40","800","1111.0000000016298","","","","","10","simple_dissimilar","images/stimuli/spore_stims/simple_06_B_a.gif","middle","","","","",""
"","null","html-keyboard-response","196","1261844","0.0-38.0-0.4","SS1612925835791","","","null","","","<p><img src= images/blank.png width =""200"" height = ""200"" style = ""float:right""></p><p><img src=images/blank.png width =""800"" height = ""200""></p>","","","","","","","","","","","",""
"","273.0000000009313","sequential-stimulus-presentation","197","1262929","0.0-38.0-1.4","SS1612925835791","trial","","40","800","1073.0000000009313","","","","","10","simple_dissimilar","images/stimuli/spore_stims/simple_20_A_b.gif","left","","","","",""
"","null","html-keyboard-response","198","1264206","0.0-38.0-0.5","SS1612925835791","","","null","","","<p><img src= images/blank.png width =""200"" height = ""200"" style = ""float:right""></p><p><img src=images/blank.png width =""800"" height = ""200""></p>","","","","","","","","","","","",""
"","163.00000000046566","sequential-stimulus-presentation","199","1265177","0.0-38.0-1.5","SS1612925835791","trial","","40","800","963.0000000004657","","","","","10","simple_dissimilar","images/stimuli/spore_stims/simple_06_B_a.gif","middle","","","","",""
"","null","html-keyboard-response","200","1266182","0.0-38.0-0.6","SS1612925835791","","","null","","","<p><img src= images/blank.png width =""200"" height = ""200"" style = ""float:right""></p><p><img src=images/blank.png width =""800"" height = ""200""></p>","","","","","","","","","","","",""
"","118.99999999883585","sequential-stimulus-presentation","201","1267132","0.0-38.0-1.6","SS1612925835791","trial","","40","800","918.9999999988358","","","","","10","simple_dissimilar","images/stimuli/spore_stims/simple_06_B_a.gif","middle","","","","",""
"","null","html-keyboard-response","202","1268304","0.0-38.0-0.7","SS1612925835791","","","null","","","<p><img src= images/blank.png width =""200"" height = ""200"" style = ""float:right""></p><p><img src=images/blank.png width =""800"" height = ""200""></p>","","","","","","","","","","","",""
"","178","sequential-stimulus-presentation","203","1269292","0.0-38.0-1.7","SS1612925835791","trial","","40","800","978","","","","","10","simple_dissimilar","images/stimuli/spore_stims/simple_06_B_a.gif","middle","","","","",""
"","3237.9999999976717","html-keyboard-response","204","1272537","0.0-39.0","SS1612925835791","pref_question","","50","","","<video width ='960' height = '540' style='padding-top:8%' autoplay muted><source src='images/stimuli/wall_pref.mp4' type='video/mp4'></video>","2","middle","45%","10","","","","","","","",""
"","799.999999995809","sequential-stimulus-presentation","205","1274144","0.0-40.0","SS1612925835791","pref_reveal","","40","800","1599.999999995809","","","","","10","","","","background","","","",""
"","null","html-keyboard-response","206","1274995","0.0-41.0-0.0","SS1612925835791","","","null","","","<p><img src= images/blank.png width =""200"" height = ""200"" style = ""float:right""></p><p><img src=images/blank.png width =""800"" height = ""200""></p>","","","","","","","","","","","",""
"","751.0000000039581","sequential-stimulus-presentation","207","1276578","0.0-41.0-1.0","SS1612925835791","trial","","40","800","1551.0000000039581","","","","","11","simple_dissimilar","images/stimuli/spore_stims/simple_18_B_d.gif","middle","","","","",""
"","null","html-keyboard-response","208","1277806","0.0-41.0-0.1","SS1612925835791","","","null","","","<p><img src= images/blank.png width =""200"" height = ""200"" style = ""float:right""></p><p><img src=images/blank.png width =""800"" height = ""200""></p>","","","","","","","","","","","",""
"","338.00000000349246","sequential-stimulus-presentation","209","1278952","0.0-41.0-1.1","SS1612925835791","trial","","40","800","1138.0000000034925","","","","","11","simple_dissimilar","images/stimuli/spore_stims/simple_18_B_d.gif","middle","","","","",""
"","null","html-keyboard-response","210","1280141","0.0-41.0-0.2","SS1612925835791","","","null","","","<p><img src= images/blank.png width =""200"" height = ""200"" style = ""float:right""></p><p><img src=images/blank.png width =""800"" height = ""200""></p>","","","","","","","","","","","",""
"","1595.0000000011642","sequential-stimulus-presentation","211","1282543","0.0-41.0-1.2","SS1612925835791","trial","","40","800","2395.000000001164","","","","","11","simple_dissimilar","images/stimuli/spore_stims/simple_18_B_d.gif","middle","","","","",""
"","null","html-keyboard-response","212","1283752","0.0-41.0-0.3","SS1612925835791","","","null","","","<p><img src= images/blank.png width =""200"" height = ""200"" style = ""float:right""></p><p><img src=images/blank.png width =""800"" height = ""200""></p>","","","","","","","","","","","",""
"","629.9999999974389","sequential-stimulus-presentation","213","1285193","0.0-41.0-1.3","SS1612925835791","trial","","40","800","1429.9999999974389","","","","","11","simple_dissimilar","images/stimuli/spore_stims/simple_18_B_d.gif","middle","","","","",""
"","null","html-keyboard-response","214","1286159","0.0-41.0-0.4","SS1612925835791","","","null","","","<p><img src= images/blank.png width =""200"" height = ""200"" style = ""float:right""></p><p><img src=images/blank.png width =""800"" height = ""200""></p>","","","","","","","","","","","",""
"","1006.0000000011642","sequential-stimulus-presentation","215","1287979","0.0-41.0-1.4","SS1612925835791","trial","","40","800","1806.0000000011642","","","","","11","simple_dissimilar","images/stimuli/spore_stims/simple_18_B_d.gif","middle","","","","",""
"","null","html-keyboard-response","216","1289155","0.0-41.0-0.5","SS1612925835791","","","null","","","<p><img src= images/blank.png width =""200"" height = ""200"" style = ""float:right""></p><p><img src=images/blank.png width =""800"" height = ""200""></p>","","","","","","","","","","","",""
"","549.9999999955762","sequential-stimulus-presentation","217","1290514","0.0-41.0-1.5","SS1612925835791","trial","","40","800","1349.9999999955762","","","","","11","simple_dissimilar","images/stimuli/spore_stims/simple_08_A_b.gif","right","","","","",""
"","null","html-keyboard-response","218","1291485","0.0-41.0-0.6","SS1612925835791","","","null","","","<p><img src= images/blank.png width =""200"" height = ""200"" style = ""float:right""></p><p><img src=images/blank.png width =""800"" height = ""200""></p>","","","","","","","","","","","",""
"","137.99999999906868","sequential-stimulus-presentation","219","1292433","0.0-41.0-1.6","SS1612925835791","trial","","40","800","937.9999999990687","","","","","11","simple_dissimilar","images/stimuli/spore_stims/simple_18_B_d.gif","middle","","","","",""
"","null","html-keyboard-response","220","1293294","0.0-41.0-0.7","SS1612925835791","","","null","","","<p><img src= images/blank.png width =""200"" height = ""200"" style = ""float:right""></p><p><img src=images/blank.png width =""800"" height = ""200""></p>","","","","","","","","","","","",""
"","421.0000000020955","sequential-stimulus-presentation","221","1294523","0.0-41.0-1.7","SS1612925835791","trial","","40","800","1221.0000000020955","","","","","11","simple_dissimilar","images/stimuli/spore_stims/simple_18_B_d.gif","middle","","","","",""
"","2059.000000001164","html-keyboard-response","222","1296594","0.0-42.0","SS1612925835791","pref_question","","50","","","<video width ='960' height = '540' style='padding-top:8%' autoplay muted><source src='images/stimuli/wall_pref.mp4' type='video/mp4'></video>","2","middle","45%","11","","","","","","","",""
"","2080.99999999837","sequential-stimulus-presentation","223","1299483","0.0-43.0","SS1612925835791","pref_reveal","","40","800","2880.99999999837","","","","","11","","","","background","","","",""
"","null","html-keyboard-response","224","1300594","0.0-44.0-0.0","SS1612925835791","","","null","","","<p><img src= images/blank.png width =""200"" height = ""200"" style = ""float:right""></p><p><img src=images/blank.png width =""800"" height = ""200""></p>","","","","","","","","","","","",""
"","1372.0000000032596","sequential-stimulus-presentation","225","1302922","0.0-44.0-1.0","SS1612925835791","trial","","40","800","2172.0000000032596","","","","","12","complex_similar","images/stimuli/spore_stims/complex_14_B_d.gif","right","","","","",""
"","null","html-keyboard-response","226","1304065","0.0-44.0-0.1","SS1612925835791","","","null","","","<p><img src= images/blank.png width =""200"" height = ""200"" style = ""float:right""></p><p><img src=images/blank.png width =""800"" height = ""200""></p>","","","","","","","","","","","",""
"","81.00000000558794","sequential-stimulus-presentation","227","1304953","0.0-44.0-1.1","SS1612925835791","trial","","40","800","881.0000000055879","","","","","12","complex_similar","images/stimuli/spore_stims/complex_14_B_d.gif","right","","","","",""
"","null","html-keyboard-response","228","1306250","0.0-44.0-0.2","SS1612925835791","","","null","","","<p><img src= images/blank.png width =""200"" height = ""200"" style = ""float:right""></p><p><img src=images/blank.png width =""800"" height = ""200""></p>","","","","","","","","","","","",""
"","1158.9999999995343","sequential-stimulus-presentation","229","1308217","0.0-44.0-1.2","SS1612925835791","trial","","40","800","1958.9999999995343","","","","","12","complex_similar","images/stimuli/spore_stims/complex_14_B_d.gif","right","","","","",""
"","null","html-keyboard-response","230","1309300","0.0-44.0-0.3","SS1612925835791","","","null","","","<p><img src= images/blank.png width =""200"" height = ""200"" style = ""float:right""></p><p><img src=images/blank.png width =""800"" height = ""200""></p>","","","","","","","","","","","",""
"","12.000000002328306","sequential-stimulus-presentation","231","1310125","0.0-44.0-1.3","SS1612925835791","trial","","40","800","812.0000000023283","","","","","12","complex_similar","images/stimuli/spore_stims/complex_14_B_d.gif","right","","","","",""
"","null","html-keyboard-response","232","1310955","0.0-44.0-0.4","SS1612925835791","","","null","","","<p><img src= images/blank.png width =""200"" height = ""200"" style = ""float:right""></p><p><img src=images/blank.png width =""800"" height = ""200""></p>","","","","","","","","","","","",""
"","485.0000000006985","sequential-stimulus-presentation","233","1312249","0.0-44.0-1.4","SS1612925835791","trial","","40","800","1285.0000000006985","","","","","12","complex_similar","images/stimuli/spore_stims/complex_14_B_d.gif","right","","","","",""
"","null","html-keyboard-response","234","1313443","0.0-44.0-0.5","SS1612925835791","","","null","","","<p><img src= images/blank.png width =""200"" height = ""200"" style = ""float:right""></p><p><img src=images/blank.png width =""800"" height = ""200""></p>","","","","","","","","","","","",""
"","1129.0000000009313","sequential-stimulus-presentation","235","1315385","0.0-44.0-1.5","SS1612925835791","trial","","40","800","1929.0000000009313","","","","","12","complex_similar","images/stimuli/spore_stims/complex_14_A_d.gif","left","","","","",""
"","null","html-keyboard-response","236","1316494","0.0-44.0-0.6","SS1612925835791","","","null","","","<p><img src= images/blank.png width =""200"" height = ""200"" style = ""float:right""></p><p><img src=images/blank.png width =""800"" height = ""200""></p>","","","","","","","","","","","",""
"","673.9999999990687","sequential-stimulus-presentation","237","1317979","0.0-44.0-1.6","SS1612925835791","trial","","40","800","1473.9999999990687","","","","","12","complex_similar","images/stimuli/spore_stims/complex_14_B_d.gif","right","","","","",""
"","null","html-keyboard-response","238","1318877","0.0-44.0-0.7","SS1612925835791","","","null","","","<p><img src= images/blank.png width =""200"" height = ""200"" style = ""float:right""></p><p><img src=images/blank.png width =""800"" height = ""200""></p>","","","","","","","","","","","",""
"","173.99999999906868","sequential-stimulus-presentation","239","1319865","0.0-44.0-1.7","SS1612925835791","trial","","40","800","973.9999999990687","","","","","12","complex_similar","images/stimuli/spore_stims/complex_14_B_d.gif","right","","","","",""
"","2078.000000001397","html-keyboard-response","240","1321953","0.0-45.0","SS1612925835791","pref_question","","98","","","<video width ='960' height = '540' style='padding-top:8%' autoplay muted><source src='images/stimuli/wall_pref.mp4' type='video/mp4'></video>","2","middle","45%","12","","","","","","","",""
"","416.9999999939464","sequential-stimulus-presentation","241","1323177","0.0-46.0","SS1612925835791","pref_reveal","","40","800","1216.9999999939464","","","","","12","","","","novel","","","",""
"","null","html-keyboard-response","242","1324193","0.0-47.0-0.0","SS1612925835791","","","null","","","<p><img src= images/blank.png width =""200"" height = ""200"" style = ""float:right""></p><p><img src=images/blank.png width =""800"" height = ""200""></p>","","","","","","","","","","","",""
"","44.999999998137355","sequential-stimulus-presentation","243","1325050","0.0-47.0-1.0","SS1612925835791","trial","","40","800","844.9999999981374","","","","","13","simple_dissimilar","images/stimuli/spore_stims/simple_02_A_a.gif","left","","","","",""
"","null","html-keyboard-response","244","1326206","0.0-47.0-0.1","SS1612925835791","","","null","","","<p><img src= images/blank.png width =""200"" height = ""200"" style = ""float:right""></p><p><img src=images/blank.png width =""800"" height = ""200""></p>","","","","","","","","","","","",""
"","811.000000001397","sequential-stimulus-presentation","245","1327825","0.0-47.0-1.1","SS1612925835791","trial","","40","800","1611.000000001397","","","","","13","simple_dissimilar","images/stimuli/spore_stims/simple_02_A_a.gif","left","","","","",""
"","null","html-keyboard-response","246","1329080","0.0-47.0-0.2","SS1612925835791","","","null","","","<p><img src= images/blank.png width =""200"" height = ""200"" style = ""float:right""></p><p><img src=images/blank.png width =""800"" height = ""200""></p>","","","","","","","","","","","",""
"","190.99999999883585","sequential-stimulus-presentation","247","1330081","0.0-47.0-1.2","SS1612925835791","trial","","40","800","990.9999999988358","","","","","13","simple_dissimilar","images/stimuli/spore_stims/simple_02_A_a.gif","left","","","","",""
"","null","html-keyboard-response","248","1331194","0.0-47.0-0.3","SS1612925835791","","","null","","","<p><img src= images/blank.png width =""200"" height = ""200"" style = ""float:right""></p><p><img src=images/blank.png width =""800"" height = ""200""></p>","","","","","","","","","","","",""
"","644.9999999967404","sequential-stimulus-presentation","249","1332649","0.0-47.0-1.3","SS1612925835791","trial","","40","800","1444.9999999967404","","","","","13","simple_dissimilar","images/stimuli/spore_stims/simple_02_A_a.gif","left","","","","",""
"","null","html-keyboard-response","250","1333814","0.0-47.0-0.4","SS1612925835791","","","null","","","<p><img src= images/blank.png width =""200"" height = ""200"" style = ""float:right""></p><p><img src=images/blank.png width =""800"" height = ""200""></p>","","","","","","","","","","","",""
"","167.00000000139698","sequential-stimulus-presentation","251","1334792","0.0-47.0-1.4","SS1612925835791","trial","","40","800","967.000000001397","","","","","13","simple_dissimilar","images/stimuli/spore_stims/simple_02_A_a.gif","left","","","","",""
"","null","html-keyboard-response","252","1335637","0.0-47.0-0.5","SS1612925835791","","","null","","","<p><img src= images/blank.png width =""200"" height = ""200"" style = ""float:right""></p><p><img src=images/blank.png width =""800"" height = ""200""></p>","","","","","","","","","","","",""
"","642.9999999962747","sequential-stimulus-presentation","253","1337090","0.0-47.0-1.5","SS1612925835791","trial","","40","800","1442.9999999962747","","","","","13","simple_dissimilar","images/stimuli/spore_stims/simple_02_A_a.gif","left","","","","",""
"","null","html-keyboard-response","254","1338018","0.0-47.0-0.6","SS1612925835791","","","null","","","<p><img src= images/blank.png width =""200"" height = ""200"" style = ""float:right""></p><p><img src=images/blank.png width =""800"" height = ""200""></p>","","","","","","","","","","","",""
"","406.00000000256114","sequential-stimulus-presentation","255","1339241","0.0-47.0-1.6","SS1612925835791","trial","","40","800","1206.0000000025611","","","","","13","simple_dissimilar","images/stimuli/spore_stims/simple_02_A_a.gif","left","","","","",""
"","null","html-keyboard-response","256","1340387","0.0-47.0-0.7","SS1612925835791","","","null","","","<p><img src= images/blank.png width =""200"" height = ""200"" style = ""float:right""></p><p><img src=images/blank.png width =""800"" height = ""200""></p>","","","","","","","","","","","",""
"","300.99999999953434","sequential-stimulus-presentation","257","1341497","0.0-47.0-1.7","SS1612925835791","trial","","40","800","1100.9999999995343","","","","","13","simple_dissimilar","images/stimuli/spore_stims/simple_11_B_d.gif","right","","","","",""
"","1936.9999999981374","html-keyboard-response","258","1343442","0.0-48.0","SS1612925835791","pref_question","","50","","","<video width ='960' height = '540' style='padding-top:8%' autoplay muted><source src='images/stimuli/wall_pref.mp4' type='video/mp4'></video>","2","middle","45%","13","","","","","","","",""
"","668.0000000051223","sequential-stimulus-presentation","259","1344921","0.0-49.0","SS1612925835791","pref_reveal","","40","800","1468.0000000051223","","","","","13","","","","novel","","","",""
"","null","html-keyboard-response","260","1345795","0.0-50.0-0.0","SS1612925835791","","","null","","","<p><img src= images/blank.png width =""200"" height = ""200"" style = ""float:right""></p><p><img src=images/blank.png width =""800"" height = ""200""></p>","","","","","","","","","","","",""
"","93.00000000069849","sequential-stimulus-presentation","261","1346699","0.0-50.0-1.0","SS1612925835791","trial","","40","800","893.0000000006985","","","","","14","complex_similar","images/stimuli/spore_stims/complex_12_A_d.gif","left","","","","",""
"","null","html-keyboard-response","262","1347512","0.0-50.0-0.1","SS1612925835791","","","null","","","<p><img src= images/blank.png width =""200"" height = ""200"" style = ""float:right""></p><p><img src=images/blank.png width =""800"" height = ""200""></p>","","","","","","","","","","","",""
"","771.0000000006985","sequential-stimulus-presentation","263","1349097","0.0-50.0-1.1","SS1612925835791","trial","","40","800","1571.0000000006985","","","","","14","complex_similar","images/stimuli/spore_stims/complex_12_A_d.gif","left","","","","",""
"","null","html-keyboard-response","264","1350124","0.0-50.0-0.2","SS1612925835791","","","null","","","<p><img src= images/blank.png width =""200"" height = ""200"" style = ""float:right""></p><p><img src=images/blank.png width =""800"" height = ""200""></p>","","","","","","","","","","","",""
"","828.9999999979045","sequential-stimulus-presentation","265","1351769","0.0-50.0-1.2","SS1612925835791","trial","","40","800","1628.9999999979045","","","","","14","complex_similar","images/stimuli/spore_stims/complex_12_A_d.gif","left","","","","",""
"","null","html-keyboard-response","266","1352653","0.0-50.0-0.3","SS1612925835791","","","null","","","<p><img src= images/blank.png width =""200"" height = ""200"" style = ""float:right""></p><p><img src=images/blank.png width =""800"" height = ""200""></p>","","","","","","","","","","","",""
"","819.0000000032596","sequential-stimulus-presentation","267","1354282","0.0-50.0-1.3","SS1612925835791","trial","","40","800","1619.0000000032596","","","","","14","complex_similar","images/stimuli/spore_stims/complex_12_A_d.gif","left","","","","",""
"","null","html-keyboard-response","268","1355552","0.0-50.0-0.4","SS1612925835791","","","null","","","<p><img src= images/blank.png width =""200"" height = ""200"" style = ""float:right""></p><p><img src=images/blank.png width =""800"" height = ""200""></p>","","","","","","","","","","","",""
"","964","sequential-stimulus-presentation","269","1357353","0.0-50.0-1.4","SS1612925835791","trial","","40","800","1764","","","","","14","complex_similar","images/stimuli/spore_stims/complex_12_A_d.gif","left","","","","",""
"","null","html-keyboard-response","270","1358229","0.0-50.0-0.5","SS1612925835791","","","null","","","<p><img src= images/blank.png width =""200"" height = ""200"" style = ""float:right""></p><p><img src=images/blank.png width =""800"" height = ""200""></p>","","","","","","","","","","","",""
"","1180.0000000002328","sequential-stimulus-presentation","271","1360217","0.0-50.0-1.5","SS1612925835791","trial","","40","800","1980.0000000002328","","","","","14","complex_similar","images/stimuli/spore_stims/complex_12_A_d.gif","left","","","","",""
"","null","html-keyboard-response","272","1361172","0.0-50.0-0.6","SS1612925835791","","","null","","","<p><img src= images/blank.png width =""200"" height = ""200"" style = ""float:right""></p><p><img src=images/blank.png width =""800"" height = ""200""></p>","","","","","","","","","","","",""
"","21.000000000698492","sequential-stimulus-presentation","273","1362003","0.0-50.0-1.6","SS1612925835791","trial","","40","800","821.0000000006985","","","","","14","complex_similar","images/stimuli/spore_stims/complex_12_A_d.gif","left","","","","",""
"","null","html-keyboard-response","274","1363211","0.0-50.0-0.7","SS1612925835791","","","null","","","<p><img src= images/blank.png width =""200"" height = ""200"" style = ""float:right""></p><p><img src=images/blank.png width =""800"" height = ""200""></p>","","","","","","","","","","","",""
"","254.00000000093132","sequential-stimulus-presentation","275","1364275","0.0-50.0-1.7","SS1612925835791","trial","","40","800","1054.0000000009313","","","","","14","complex_similar","images/stimuli/spore_stims/complex_12_B_d.gif","middle","","","","",""
"","2506.000000001164","html-keyboard-response","276","1366793","0.0-51.0","SS1612925835791","pref_question","","50","","","<video width ='960' height = '540' style='padding-top:8%' autoplay muted><source src='images/stimuli/wall_pref.mp4' type='video/mp4'></video>","2","middle","45%","14","","","","","","","",""
"","1943.999999995809","sequential-stimulus-presentation","277","1369554","0.0-52.0","SS1612925835791","pref_reveal","","40","800","2743.999999995809","","","","","14","","","","deviant","","","",""
"","null","html-keyboard-response","278","1370503","0.0-53.0-0.0","SS1612925835791","","","null","","","<p><img src= images/blank.png width =""200"" height = ""200"" style = ""float:right""></p><p><img src=images/blank.png width =""800"" height = ""200""></p>","","","","","","","","","","","",""
"","1819.0000000030268","sequential-stimulus-presentation","279","1373133","0.0-53.0-1.0","SS1612925835791","trial","","40","800","2619.000000003027","","","","","15","complex_similar","images/stimuli/spore_stims/complex_18_A_a.gif","middle","","","","",""
"","null","html-keyboard-response","280","1374444","0.0-53.0-0.1","SS1612925835791","","","null","","","<p><img src= images/blank.png width =""200"" height = ""200"" style = ""float:right""></p><p><img src=images/blank.png width =""800"" height = ""200""></p>","","","","","","","","","","","",""
"","405.9999999953434","sequential-stimulus-presentation","281","1375660","0.0-53.0-1.1","SS1612925835791","trial","","40","800","1205.9999999953434","","","","","15","complex_similar","images/stimuli/spore_stims/complex_18_A_a.gif","middle","","","","",""
"","null","html-keyboard-response","282","1376586","0.0-53.0-0.2","SS1612925835791","","","null","","","<p><img src= images/blank.png width =""200"" height = ""200"" style = ""float:right""></p><p><img src=images/blank.png width =""800"" height = ""200""></p>","","","","","","","","","","","",""
"","779.0000000023283","sequential-stimulus-presentation","283","1378177","0.0-53.0-1.2","SS1612925835791","trial","","40","800","1579.0000000023283","","","","","15","complex_similar","images/stimuli/spore_stims/complex_18_B_a.gif","right","","","","",""
"","null","html-keyboard-response","284","1379050","0.0-53.0-0.3","SS1612925835791","","","null","","","<p><img src= images/blank.png width =""200"" height = ""200"" style = ""float:right""></p><p><img src=images/blank.png width =""800"" height = ""200""></p>","","","","","","","","","","","",""
"","1241.9999999983702","sequential-stimulus-presentation","285","1381101","0.0-53.0-1.3","SS1612925835791","trial","","40","800","2041.9999999983702","","","","","15","complex_similar","images/stimuli/spore_stims/complex_18_A_a.gif","middle","","","","",""
"","null","html-keyboard-response","286","1382254","0.0-53.0-0.4","SS1612925835791","","","null","","","<p><img src= images/blank.png width =""200"" height = ""200"" style = ""float:right""></p><p><img src=images/blank.png width =""800"" height = ""200""></p>","","","","","","","","","","","",""
"","1821.0000000034925","sequential-stimulus-presentation","287","1384889","0.0-53.0-1.4","SS1612925835791","trial","","40","800","2621.0000000034925","","","","","15","complex_similar","images/stimuli/spore_stims/complex_18_A_a.gif","middle","","","","",""
"","null","html-keyboard-response","288","1386181","0.0-53.0-0.5","SS1612925835791","","","null","","","<p><img src= images/blank.png width =""200"" height = ""200"" style = ""float:right""></p><p><img src=images/blank.png width =""800"" height = ""200""></p>","","","","","","","","","","","",""
"","214","sequential-stimulus-presentation","289","1387204","0.0-53.0-1.5","SS1612925835791","trial","","40","800","1014","","","","","15","complex_similar","images/stimuli/spore_stims/complex_18_A_a.gif","middle","","","","",""
"","null","html-keyboard-response","290","1388254","0.0-53.0-0.6","SS1612925835791","","","null","","","<p><img src= images/blank.png width =""200"" height = ""200"" style = ""float:right""></p><p><img src=images/blank.png width =""800"" height = ""200""></p>","","","","","","","","","","","",""
"","1221.0000000048894","sequential-stimulus-presentation","291","1390290","0.0-53.0-1.6","SS1612925835791","trial","","40","800","2021.0000000048894","","","","","15","complex_similar","images/stimuli/spore_stims/complex_18_A_a.gif","middle","","","","",""
"","null","html-keyboard-response","292","1391271","0.0-53.0-0.7","SS1612925835791","","","null","","","<p><img src= images/blank.png width =""200"" height = ""200"" style = ""float:right""></p><p><img src=images/blank.png width =""800"" height = ""200""></p>","","","","","","","","","","","",""
"","493.0000000020955","sequential-stimulus-presentation","293","1392600","0.0-53.0-1.7","SS1612925835791","trial","","40","800","1293.0000000020955","","","","","15","complex_similar","images/stimuli/spore_stims/complex_18_A_a.gif","middle","","","","",""
"","3416.0000000048894","html-keyboard-response","294","1396024","0.0-54.0","SS1612925835791","pref_question","","50","","","<video width ='960' height = '540' style='padding-top:8%' autoplay muted><source src='images/stimuli/wall_pref.mp4' type='video/mp4'></video>","2","middle","45%","15","","","","","","","",""
"","367.00000000558794","sequential-stimulus-presentation","295","1397201","0.0-55.0","SS1612925835791","pref_reveal","","40","800","1167.000000005588","","","","","15","","","","background","","","",""
"","null","html-keyboard-response","296","1398132","0.0-56.0-0.0","SS1612925835791","","","null","","","<p><img src= images/blank.png width =""200"" height = ""200"" style = ""float:right""></p><p><img src=images/blank.png width =""800"" height = ""200""></p>","","","","","","","","","","","",""
"","379.0000000009313","sequential-stimulus-presentation","297","1399321","0.0-56.0-1.0","SS1612925835791","trial","","40","800","1179.0000000009313","","","","","16","complex_dissimilar","images/stimuli/spore_stims/complex_17_A_d.gif","middle","","","","",""
"","null","html-keyboard-response","298","1400544","0.0-56.0-0.1","SS1612925835791","","","null","","","<p><img src= images/blank.png width =""200"" height = ""200"" style = ""float:right""></p><p><img src=images/blank.png width =""800"" height = ""200""></p>","","","","","","","","","","","",""
"","311.0000000016298","sequential-stimulus-presentation","299","1401665","0.0-56.0-1.1","SS1612925835791","trial","","40","800","1111.0000000016298","","","","","16","complex_dissimilar","images/stimuli/spore_stims/complex_17_A_d.gif","middle","","","","",""
"","null","html-keyboard-response","300","1402866","0.0-56.0-0.2","SS1612925835791","","","null","","","<p><img src= images/blank.png width =""200"" height = ""200"" style = ""float:right""></p><p><img src=images/blank.png width =""800"" height = ""200""></p>","","","","","","","","","","","",""
"","792.9999999979045","sequential-stimulus-presentation","301","1404469","0.0-56.0-1.2","SS1612925835791","trial","","40","800","1592.9999999979045","","","","","16","complex_dissimilar","images/stimuli/spore_stims/complex_02_A_a.gif","left","","","","",""
"","null","html-keyboard-response","302","1405375","0.0-56.0-0.3","SS1612925835791","","","null","","","<p><img src= images/blank.png width =""200"" height = ""200"" style = ""float:right""></p><p><img src=images/blank.png width =""800"" height = ""200""></p>","","","","","","","","","","","",""
"","295.9999999948777","sequential-stimulus-presentation","303","1406479","0.0-56.0-1.3","SS1612925835791","trial","","40","800","1095.9999999948777","","","","","16","complex_dissimilar","images/stimuli/spore_stims/complex_17_A_d.gif","middle","","","","",""
"","null","html-keyboard-response","304","1407541","0.0-56.0-0.4","SS1612925835791","","","null","","","<p><img src= images/blank.png width =""200"" height = ""200"" style = ""float:right""></p><p><img src=images/blank.png width =""800"" height = ""200""></p>","","","","","","","","","","","",""
"","7458.000000006054","sequential-stimulus-presentation","305","1415808","0.0-56.0-1.4","SS1612925835791","trial","","40","800","8258.000000006054","","","","","16","complex_dissimilar","images/stimuli/spore_stims/complex_17_A_d.gif","middle","","","","",""
"","null","html-keyboard-response","306","1416662","0.0-56.0-0.5","SS1612925835791","","","null","","","<p><img src= images/blank.png width =""200"" height = ""200"" style = ""float:right""></p><p><img src=images/blank.png width =""800"" height = ""200""></p>","","","","","","","","","","","",""
"","640.9999999960419","sequential-stimulus-presentation","307","1418112","0.0-56.0-1.5","SS1612925835791","trial","","40","800","1440.9999999960419","","","","","16","complex_dissimilar","images/stimuli/spore_stims/complex_17_A_d.gif","middle","","","","",""
"","null","html-keyboard-response","308","1419372","0.0-56.0-0.6","SS1612925835791","","","null","","","<p><img src= images/blank.png width =""200"" height = ""200"" style = ""float:right""></p><p><img src=images/blank.png width =""800"" height = ""200""></p>","","","","","","","","","","","",""
"","1175.9999999995343","sequential-stimulus-presentation","309","1421357","0.0-56.0-1.6","SS1612925835791","trial","","40","800","1975.9999999995343","","","","","16","complex_dissimilar","images/stimuli/spore_stims/complex_17_A_d.gif","middle","","","","",""
"","null","html-keyboard-response","310","1422400","0.0-56.0-0.7","SS1612925835791","","","null","","","<p><img src= images/blank.png width =""200"" height = ""200"" style = ""float:right""></p><p><img src=images/blank.png width =""800"" height = ""200""></p>","","","","","","","","","","","",""
"","449.00000000046566","sequential-stimulus-presentation","311","1423659","0.0-56.0-1.7","SS1612925835791","trial","","40","800","1249.0000000004657","","","","","16","complex_dissimilar","images/stimuli/spore_stims/complex_17_A_d.gif","middle","","","","",""
"","1756.0000000011642","html-keyboard-response","312","1425425","0.0-57.0","SS1612925835791","pref_question","","50","","","<video width ='960' height = '540' style='padding-top:8%' autoplay muted><source src='images/stimuli/wall_pref.mp4' type='video/mp4'></video>","2","middle","45%","16","","","","","","","",""
"","126.00000000395812","sequential-stimulus-presentation","313","1426362","0.0-58.0","SS1612925835791","pref_reveal","","40","800","926.0000000039581","","","","","16","","","","background","","","",""
"","null","html-keyboard-response","314","1427318","0.0-59.0-0.0","SS1612925835791","","","null","","","<p><img src= images/blank.png width =""200"" height = ""200"" style = ""float:right""></p><p><img src=images/blank.png width =""800"" height = ""200""></p>","","","","","","","","","","","",""
"","3273.000000001164","sequential-stimulus-presentation","315","1431400","0.0-59.0-1.0","SS1612925835791","trial","","40","800","4073.000000001164","","","","","17","complex_dissimilar","images/stimuli/spore_stims/complex_10_B_c.gif","left","","","","",""
"","null","html-keyboard-response","316","1432375","0.0-59.0-0.1","SS1612925835791","","","null","","","<p><img src= images/blank.png width =""200"" height = ""200"" style = ""float:right""></p><p><img src=images/blank.png width =""800"" height = ""200""></p>","","","","","","","","","","","",""
"","1756.0000000011642","sequential-stimulus-presentation","317","1434945","0.0-59.0-1.1","SS1612925835791","trial","","40","800","2556.000000001164","","","","","17","complex_dissimilar","images/stimuli/spore_stims/complex_10_B_c.gif","left","","","","",""
"","null","html-keyboard-response","318","1436065","0.0-59.0-0.2","SS1612925835791","","","null","","","<p><img src= images/blank.png width =""200"" height = ""200"" style = ""float:right""></p><p><img src=images/blank.png width =""800"" height = ""200""></p>","","","","","","","","","","","",""
"","3075.000000004424","sequential-stimulus-presentation","319","1439953","0.0-59.0-1.2","SS1612925835791","trial","","40","800","3875.000000004424","","","","","17","complex_dissimilar","images/stimuli/spore_stims/complex_10_B_c.gif","left","","","","",""
"","null","html-keyboard-response","320","1440954","0.0-59.0-0.3","SS1612925835791","","","null","","","<p><img src= images/blank.png width =""200"" height = ""200"" style = ""float:right""></p><p><img src=images/blank.png width =""800"" height = ""200""></p>","","","","","","","","","","","",""
"","127.00000000046566","sequential-stimulus-presentation","321","1441898","0.0-59.0-1.3","SS1612925835791","trial","","40","800","927.0000000004657","","","","","17","complex_dissimilar","images/stimuli/spore_stims/complex_09_B_b.gif","middle","","","","",""
"","null","html-keyboard-response","322","1442903","0.0-59.0-0.4","SS1612925835791","","","null","","","<p><img src= images/blank.png width =""200"" height = ""200"" style = ""float:right""></p><p><img src=images/blank.png width =""800"" height = ""200""></p>","","","","","","","","","","","",""
"","1015.9999999960419","sequential-stimulus-presentation","323","1444730","0.0-59.0-1.4","SS1612925835791","trial","","40","800","1815.9999999960419","","","","","17","complex_dissimilar","images/stimuli/spore_stims/complex_10_B_c.gif","left","","","","",""
"","null","html-keyboard-response","324","1445595","0.0-59.0-0.5","SS1612925835791","","","null","","","<p><img src= images/blank.png width =""200"" height = ""200"" style = ""float:right""></p><p><img src=images/blank.png width =""800"" height = ""200""></p>","","","","","","","","","","","",""
"","4675.000000003027","sequential-stimulus-presentation","325","1451088","0.0-59.0-1.5","SS1612925835791","trial","","40","800","5475.000000003027","","","","","17","complex_dissimilar","images/stimuli/spore_stims/complex_10_B_c.gif","left","","","","",""
"","null","html-keyboard-response","326","1452262","0.0-59.0-0.6","SS1612925835791","","","null","","","<p><img src= images/blank.png width =""200"" height = ""200"" style = ""float:right""></p><p><img src=images/blank.png width =""800"" height = ""200""></p>","","","","","","","","","","","",""
"","824.9999999969732","sequential-stimulus-presentation","327","1453896","0.0-59.0-1.6","SS1612925835791","trial","","40","800","1624.9999999969732","","","","","17","complex_dissimilar","images/stimuli/spore_stims/complex_10_B_c.gif","left","","","","",""
"","null","html-keyboard-response","328","1454787","0.0-59.0-0.7","SS1612925835791","","","null","","","<p><img src= images/blank.png width =""200"" height = ""200"" style = ""float:right""></p><p><img src=images/blank.png width =""800"" height = ""200""></p>","","","","","","","","","","","",""
"","771.999999997206","sequential-stimulus-presentation","329","1456370","0.0-59.0-1.7","SS1612925835791","trial","","40","800","1571.999999997206","","","","","17","complex_dissimilar","images/stimuli/spore_stims/complex_10_B_c.gif","left","","","","",""
"","1813.0000000018626","html-keyboard-response","330","1458193","0.0-60.0","SS1612925835791","pref_question","","51","","","<video width ='960' height = '540' style='padding-top:8%' autoplay muted><source src='images/stimuli/wall_pref.mp4' type='video/mp4'></video>","3","right","66%","17","","","","","","","",""
"","20589.999999996508","sequential-stimulus-presentation","331","1479593","0.0-61.0","SS1612925835791","pref_reveal","","40","800","21389.999999996508","","","","","17","","","","novel","","","",""
"","null","html-keyboard-response","332","1480647","0.0-62.0-0.0","SS1612925835791","","","null","","","<p><img src= images/blank.png width =""200"" height = ""200"" style = ""float:right""></p><p><img src=images/blank.png width =""800"" height = ""200""></p>","","","","","","","","","","","",""
"","1588.9999999997672","sequential-stimulus-presentation","333","1483049","0.0-62.0-1.0","SS1612925835791","trial","","40","800","2388.999999999767","","","","","18","complex_dissimilar","images/stimuli/spore_stims/complex_16_B_d.gif","middle","","","","",""
"","null","html-keyboard-response","334","1484158","0.0-62.0-0.1","SS1612925835791","","","null","","","<p><img src= images/blank.png width =""200"" height = ""200"" style = ""float:right""></p><p><img src=images/blank.png width =""800"" height = ""200""></p>","","","","","","","","","","","",""
"","301.9999999960419","sequential-stimulus-presentation","335","1485274","0.0-62.0-1.1","SS1612925835791","trial","","40","800","1101.9999999960419","","","","","18","complex_dissimilar","images/stimuli/spore_stims/complex_16_B_d.gif","middle","","","","",""
"","null","html-keyboard-response","336","1486559","0.0-62.0-0.2","SS1612925835791","","","null","","","<p><img src= images/blank.png width =""200"" height = ""200"" style = ""float:right""></p><p><img src=images/blank.png width =""800"" height = ""200""></p>","","","","","","","","","","","",""
"","223.9999999946449","sequential-stimulus-presentation","337","1487639","0.0-62.0-1.2","SS1612925835791","trial","","40","800","1023.9999999946449","","","","","18","complex_dissimilar","images/stimuli/spore_stims/complex_16_B_d.gif","middle","","","","",""
"","null","html-keyboard-response","338","1488641","0.0-62.0-0.3","SS1612925835791","","","null","","","<p><img src= images/blank.png width =""200"" height = ""200"" style = ""float:right""></p><p><img src=images/blank.png width =""800"" height = ""200""></p>","","","","","","","","","","","",""
"","347.99999999813735","sequential-stimulus-presentation","339","1489801","0.0-62.0-1.3","SS1612925835791","trial","","40","800","1147.9999999981374","","","","","18","complex_dissimilar","images/stimuli/spore_stims/complex_14_A_d.gif","left","","","","",""
"","null","html-keyboard-response","340","1491042","0.0-62.0-0.4","SS1612925835791","","","null","","","<p><img src= images/blank.png width =""200"" height = ""200"" style = ""float:right""></p><p><img src=images/blank.png width =""800"" height = ""200""></p>","","","","","","","","","","","",""
"","341.9999999969732","sequential-stimulus-presentation","341","1492209","0.0-62.0-1.4","SS1612925835791","trial","","40","800","1141.9999999969732","","","","","18","complex_dissimilar","images/stimuli/spore_stims/complex_16_B_d.gif","middle","","","","",""
"","null","html-keyboard-response","342","1493073","0.0-62.0-0.5","SS1612925835791","","","null","","","<p><img src= images/blank.png width =""200"" height = ""200"" style = ""float:right""></p><p><img src=images/blank.png width =""800"" height = ""200""></p>","","","","","","","","","","","",""
"","845.9999999976717","sequential-stimulus-presentation","343","1494729","0.0-62.0-1.5","SS1612925835791","trial","","40","800","1645.9999999976717","","","","","18","complex_dissimilar","images/stimuli/spore_stims/complex_16_B_d.gif","middle","","","","",""
"","null","html-keyboard-response","344","1495794","0.0-62.0-0.6","SS1612925835791","","","null","","","<p><img src= images/blank.png width =""200"" height = ""200"" style = ""float:right""></p><p><img src=images/blank.png width =""800"" height = ""200""></p>","","","","","","","","","","","",""
"","869.9999999953434","sequential-stimulus-presentation","345","1497475","0.0-62.0-1.6","SS1612925835791","trial","","40","800","1669.9999999953434","","","","","18","complex_dissimilar","images/stimuli/spore_stims/complex_16_B_d.gif","middle","","","","",""
"","null","html-keyboard-response","346","1498601","0.0-62.0-0.7","SS1612925835791","","","null","","","<p><img src= images/blank.png width =""200"" height = ""200"" style = ""float:right""></p><p><img src=images/blank.png width =""800"" height = ""200""></p>","","","","","","","","","","","",""
"","781.9999999993015","sequential-stimulus-presentation","347","1500194","0.0-62.0-1.7","SS1612925835791","trial","","40","800","1581.9999999993015","","","","","18","complex_dissimilar","images/stimuli/spore_stims/complex_16_B_d.gif","middle","","","","",""
"","1948.0000000039581","html-keyboard-response","348","1502153","0.0-63.0","SS1612925835791","pref_question","","98","","","<video width ='960' height = '540' style='padding-top:8%' autoplay muted><source src='images/stimuli/wall_pref.mp4' type='video/mp4'></video>","2","middle","45%","18","","","","","","","",""
"","2406.9999999993015","sequential-stimulus-presentation","349","1505381","0.0-64.0","SS1612925835791","pref_reveal","","40","800","3206.9999999993015","","","","","18","","","","background","","","",""
"","null","html-keyboard-response","350","1506522","0.0-65.0-0.0","SS1612925835791","","","null","","","<p><img src= images/blank.png width =""200"" height = ""200"" style = ""float:right""></p><p><img src=images/blank.png width =""800"" height = ""200""></p>","","","","","","","","","","","",""
"","1347.0000000016298","sequential-stimulus-presentation","351","1508682","0.0-65.0-1.0","SS1612925835791","trial","","40","800","2147.00000000163","","","","","19","complex_similar","images/stimuli/spore_stims/complex_15_A_d.gif","right","","","","",""
"","null","html-keyboard-response","352","1509947","0.0-65.0-0.1","SS1612925835791","","","null","","","<p><img src= images/blank.png width =""200"" height = ""200"" style = ""float:right""></p><p><img src=images/blank.png width =""800"" height = ""200""></p>","","","","","","","","","","","",""
"","153.00000000582077","sequential-stimulus-presentation","353","1510937","0.0-65.0-1.1","SS1612925835791","trial","","40","800","953.0000000058208","","","","","19","complex_similar","images/stimuli/spore_stims/complex_15_A_d.gif","right","","","","",""
"","null","html-keyboard-response","354","1512063","0.0-65.0-0.2","SS1612925835791","","","null","","","<p><img src= images/blank.png width =""200"" height = ""200"" style = ""float:right""></p><p><img src=images/blank.png width =""800"" height = ""200""></p>","","","","","","","","","","","",""
"","417.9999999979045","sequential-stimulus-presentation","355","1513297","0.0-65.0-1.2","SS1612925835791","trial","","40","800","1217.9999999979045","","","","","19","complex_similar","images/stimuli/spore_stims/complex_15_A_d.gif","right","","","","",""
"","null","html-keyboard-response","356","1514458","0.0-65.0-0.3","SS1612925835791","","","null","","","<p><img src= images/blank.png width =""200"" height = ""200"" style = ""float:right""></p><p><img src=images/blank.png width =""800"" height = ""200""></p>","","","","","","","","","","","",""
"","964.9999999965075","sequential-stimulus-presentation","357","1516233","0.0-65.0-1.3","SS1612925835791","trial","","40","800","1764.9999999965075","","","","","19","complex_similar","images/stimuli/spore_stims/complex_15_A_d.gif","right","","","","",""
"","null","html-keyboard-response","358","1517104","0.0-65.0-0.4","SS1612925835791","","","null","","","<p><img src= images/blank.png width =""200"" height = ""200"" style = ""float:right""></p><p><img src=images/blank.png width =""800"" height = ""200""></p>","","","","","","","","","","","",""
"","1264.9999999995343","sequential-stimulus-presentation","359","1519177","0.0-65.0-1.4","SS1612925835791","trial","","40","800","2064.9999999995343","","","","","19","complex_similar","images/stimuli/spore_stims/complex_15_A_d.gif","right","","","","",""
"","null","html-keyboard-response","360","1520170","0.0-65.0-0.5","SS1612925835791","","","null","","","<p><img src= images/blank.png width =""200"" height = ""200"" style = ""float:right""></p><p><img src=images/blank.png width =""800"" height = ""200""></p>","","","","","","","","","","","",""
"","20.00000000419095","sequential-stimulus-presentation","361","1521004","0.0-65.0-1.5","SS1612925835791","trial","","40","800","820.000000004191","","","","","19","complex_similar","images/stimuli/spore_stims/complex_15_A_d.gif","right","","","","",""
"","null","html-keyboard-response","362","1521882","0.0-65.0-0.6","SS1612925835791","","","null","","","<p><img src= images/blank.png width =""200"" height = ""200"" style = ""float:right""></p><p><img src=images/blank.png width =""800"" height = ""200""></p>","","","","","","","","","","","",""
"","889.9999999993015","sequential-stimulus-presentation","363","1523585","0.0-65.0-1.6","SS1612925835791","trial","","40","800","1689.9999999993015","","","","","19","complex_similar","images/stimuli/spore_stims/complex_15_B_d.gif","left","","","","",""
