"view_history","rt","trial_type","trial_index","time_elapsed","internal_node_id","subject","stimulus_type","trial_stimulus","key_press","minimum_viewing_duration","trial_looking_time","block_deviant","block_background","stimulus","wall_pref","location","location_percent","block_number","block_type","stimulus_displayed","position_displayed","stim_type_selected","responses","question_order","stimulus_left","stimulus_right"
"[{""page_index"":0,""viewing_time"":3193}]","3195","instructions","0","3199","0.0-0.0","SS1613079862584","","","","","","","","","","","","","","","","","","","",""
"[{""page_index"":0,""viewing_time"":13176},{""page_index"":1,""viewing_time"":9311}]","22487","instructions","1","27699","0.0-1.0","SS1613079862584","instructions","","","","","","","","","","","","","","","","","","",""
"","12649","sequential-stimulus-presentation","2","41461","0.0-2.0","SS1613079862584","","","40","800","13449","null","null","","","","","","","","","","","","",""
"","9277","sequential-stimulus-presentation","3","51555","0.0-3.0","SS1613079862584","","","40","800","10077","null","null","","","","","","","","","","","","",""
"[{""page_index"":0,""viewing_time"":6016}]","6016","instructions","4","57573","0.0-4.0","SS1613079862584","instructions","","","","","","","","","","","","","","","","","","",""
"","12563","html-keyboard-response","5","70144","0.0-5.0","SS1613079862584","instructions","","50","","","","","<video width ='960' height = '540' autoplay muted><source src='images/stimuli/wall_pref.mp4' type='video/mp4'></video>","2","middle","45%","","","","","","","","",""
"","3123","sequential-stimulus-presentation","6","74076","0.0-6.0","SS1613079862584","pref_reveal","","40","800","3923","null","null","","","","","","","","","","","","",""
"[{""page_index"":0,""viewing_time"":15174},{""page_index"":1,""viewing_time"":8937},{""page_index"":2,""viewing_time"":1950},{""page_index"":3,""viewing_time"":1232}]","27294","instructions","7","101373","0.0-7.0","SS1613079862584","instructions","","","","","","","","","","","","","","","","","","",""
"","null","html-keyboard-response","8","102326","0.0-8.0-0.0","SS1613079862584","","","null","","","","","<p><img src= images/blank.png width =""200"" height = ""200"" style = ""float:right""></p><p><img src=images/blank.png width =""800"" height = ""200""></p>","","","","","","","","","","","",""
"","4486","sequential-stimulus-presentation","9","107639","0.0-8.0-1.0","SS1613079862584","trial","","40","800","5286","images/stimuli/spore_stims/complex_10_B_d.gif","images/stimuli/spore_stims/complex_10_A_d.gif","","","","","0","complex_similar","images/stimuli/spore_stims/complex_10_A_d.gif","middle","","","","",""
"","null","html-keyboard-response","10","108832","0.0-8.0-0.1","SS1613079862584","","","null","","","","","<p><img src= images/blank.png width =""200"" height = ""200"" style = ""float:right""></p><p><img src=images/blank.png width =""800"" height = ""200""></p>","","","","","","","","","","","",""
"","1775","sequential-stimulus-presentation","11","111423","0.0-8.0-1.1","SS1613079862584","trial","","40","800","2575","images/stimuli/spore_stims/complex_10_B_d.gif","images/stimuli/spore_stims/complex_10_A_d.gif","","","","","0","complex_similar","images/stimuli/spore_stims/complex_10_A_d.gif","middle","","","","",""
"","null","html-keyboard-response","12","112736","0.0-8.0-0.2","SS1613079862584","","","null","","","","","<p><img src= images/blank.png width =""200"" height = ""200"" style = ""float:right""></p><p><img src=images/blank.png width =""800"" height = ""200""></p>","","","","","","","","","","","",""
"","5416","sequential-stimulus-presentation","13","118966","0.0-8.0-1.2","SS1613079862584","trial","","40","800","6216","images/stimuli/spore_stims/complex_10_B_d.gif","images/stimuli/spore_stims/complex_10_A_d.gif","","","","","0","complex_similar","images/stimuli/spore_stims/complex_10_A_d.gif","middle","","","","",""
"","null","html-keyboard-response","14","119901","0.0-8.0-0.3","SS1613079862584","","","null","","","","","<p><img src= images/blank.png width =""200"" height = ""200"" style = ""float:right""></p><p><img src=images/blank.png width =""800"" height = ""200""></p>","","","","","","","","","","","",""
"","5838","sequential-stimulus-presentation","15","126548","0.0-8.0-1.3","SS1613079862584","trial","","40","800","6638","images/stimuli/spore_stims/complex_10_B_d.gif","images/stimuli/spore_stims/complex_10_A_d.gif","","","","","0","complex_similar","images/stimuli/spore_stims/complex_10_A_d.gif","middle","","","","",""
"","null","html-keyboard-response","16","127701","0.0-8.0-0.4","SS1613079862584","","","null","","","","","<p><img src= images/blank.png width =""200"" height = ""200"" style = ""float:right""></p><p><img src=images/blank.png width =""800"" height = ""200""></p>","","","","","","","","","","","",""
"","2553","sequential-stimulus-presentation","17","131064","0.0-8.0-1.4","SS1613079862584","trial","","40","800","3353","images/stimuli/spore_stims/complex_10_B_d.gif","images/stimuli/spore_stims/complex_10_A_d.gif","","","","","0","complex_similar","images/stimuli/spore_stims/complex_10_A_d.gif","middle","","","","",""
"","null","html-keyboard-response","18","132325","0.0-8.0-0.5","SS1613079862584","","","null","","","","","<p><img src= images/blank.png width =""200"" height = ""200"" style = ""float:right""></p><p><img src=images/blank.png width =""800"" height = ""200""></p>","","","","","","","","","","","",""
"","3342","sequential-stimulus-presentation","19","136480","0.0-8.0-1.5","SS1613079862584","trial","","40","800","4142","images/stimuli/spore_stims/complex_10_B_d.gif","images/stimuli/spore_stims/complex_10_A_d.gif","","","","","0","complex_similar","images/stimuli/spore_stims/complex_10_A_d.gif","middle","","","","",""
"","null","html-keyboard-response","20","137370","0.0-8.0-0.6","SS1613079862584","","","null","","","","","<p><img src= images/blank.png width =""200"" height = ""200"" style = ""float:right""></p><p><img src=images/blank.png width =""800"" height = ""200""></p>","","","","","","","","","","","",""
"","6854","sequential-stimulus-presentation","21","145033","0.0-8.0-1.6","SS1613079862584","trial","","40","800","7654","images/stimuli/spore_stims/complex_10_B_d.gif","images/stimuli/spore_stims/complex_10_A_d.gif","","","","","0","complex_similar","images/stimuli/spore_stims/complex_10_B_d.gif","left","","","","",""
"","null","html-keyboard-response","22","146014","0.0-8.0-0.7","SS1613079862584","","","null","","","","","<p><img src= images/blank.png width =""200"" height = ""200"" style = ""float:right""></p><p><img src=images/blank.png width =""800"" height = ""200""></p>","","","","","","","","","","","",""
"","3058","sequential-stimulus-presentation","23","149883","0.0-8.0-1.7","SS1613079862584","trial","","40","800","3858","images/stimuli/spore_stims/complex_10_B_d.gif","images/stimuli/spore_stims/complex_10_A_d.gif","","","","","0","complex_similar","images/stimuli/spore_stims/complex_10_A_d.gif","middle","","","","",""
"","2259","html-keyboard-response","24","152146","0.0-9.0","SS1613079862584","pref_question","","51","","","","","<video width ='960' height = '540' style='padding-top:8%' autoplay muted><source src='images/stimuli/wall_pref.mp4' type='video/mp4'></video>","3","right","66%","0","","","","","","","",""
"","11832","sequential-stimulus-presentation","25","164799","0.0-10.0","SS1613079862584","pref_reveal","","40","800","12632","null","null","","","","","0","","","","novel","","","",""
"","null","html-keyboard-response","26","165618","0.0-11.0-0.0","SS1613079862584","","","null","","","","","<p><img src= images/blank.png width =""200"" height = ""200"" style = ""float:right""></p><p><img src=images/blank.png width =""800"" height = ""200""></p>","","","","","","","","","","","",""
"","4330","sequential-stimulus-presentation","27","170758","0.0-11.0-1.0","SS1613079862584","trial","","40","800","5130","images/stimuli/spore_stims/simple_11_B_d.gif","images/stimuli/spore_stims/simple_20_B_b.gif","","","","","1","simple_dissimilar","images/stimuli/spore_stims/simple_20_B_b.gif","right","","","","",""
"","null","html-keyboard-response","28","172034","0.0-11.0-0.1","SS1613079862584","","","null","","","","","<p><img src= images/blank.png width =""200"" height = ""200"" style = ""float:right""></p><p><img src=images/blank.png width =""800"" height = ""200""></p>","","","","","","","","","","","",""
"","4959","sequential-stimulus-presentation","29","177806","0.0-11.0-1.1","SS1613079862584","trial","","40","800","5759","images/stimuli/spore_stims/simple_11_B_d.gif","images/stimuli/spore_stims/simple_20_B_b.gif","","","","","1","simple_dissimilar","images/stimuli/spore_stims/simple_20_B_b.gif","right","","","","",""
"","null","html-keyboard-response","30","179001","0.0-11.0-0.2","SS1613079862584","","","null","","","","","<p><img src= images/blank.png width =""200"" height = ""200"" style = ""float:right""></p><p><img src=images/blank.png width =""800"" height = ""200""></p>","","","","","","","","","","","",""
"","4244","sequential-stimulus-presentation","31","184058","0.0-11.0-1.2","SS1613079862584","trial","","40","800","5044","images/stimuli/spore_stims/simple_11_B_d.gif","images/stimuli/spore_stims/simple_20_B_b.gif","","","","","1","simple_dissimilar","images/stimuli/spore_stims/simple_20_B_b.gif","right","","","","",""
"","null","html-keyboard-response","32","185020","0.0-11.0-0.3","SS1613079862584","","","null","","","","","<p><img src= images/blank.png width =""200"" height = ""200"" style = ""float:right""></p><p><img src=images/blank.png width =""800"" height = ""200""></p>","","","","","","","","","","","",""
"","3010","sequential-stimulus-presentation","33","188840","0.0-11.0-1.3","SS1613079862584","trial","","40","800","3810","images/stimuli/spore_stims/simple_11_B_d.gif","images/stimuli/spore_stims/simple_20_B_b.gif","","","","","1","simple_dissimilar","images/stimuli/spore_stims/simple_20_B_b.gif","right","","","","",""
"","null","html-keyboard-response","34","190006","0.0-11.0-0.4","SS1613079862584","","","null","","","","","<p><img src= images/blank.png width =""200"" height = ""200"" style = ""float:right""></p><p><img src=images/blank.png width =""800"" height = ""200""></p>","","","","","","","","","","","",""
"","1844","sequential-stimulus-presentation","35","192660","0.0-11.0-1.4","SS1613079862584","trial","","40","800","2644","images/stimuli/spore_stims/simple_11_B_d.gif","images/stimuli/spore_stims/simple_20_B_b.gif","","","","","1","simple_dissimilar","images/stimuli/spore_stims/simple_20_B_b.gif","right","","","","",""
"","null","html-keyboard-response","36","193859","0.0-11.0-0.5","SS1613079862584","","","null","","","","","<p><img src= images/blank.png width =""200"" height = ""200"" style = ""float:right""></p><p><img src=images/blank.png width =""800"" height = ""200""></p>","","","","","","","","","","","",""
"","2604","sequential-stimulus-presentation","37","197271","0.0-11.0-1.5","SS1613079862584","trial","","40","800","3404","images/stimuli/spore_stims/simple_11_B_d.gif","images/stimuli/spore_stims/simple_20_B_b.gif","","","","","1","simple_dissimilar","images/stimuli/spore_stims/simple_20_B_b.gif","right","","","","",""
"","null","html-keyboard-response","38","198096","0.0-11.0-0.6","SS1613079862584","","","null","","","","","<p><img src= images/blank.png width =""200"" height = ""200"" style = ""float:right""></p><p><img src=images/blank.png width =""800"" height = ""200""></p>","","","","","","","","","","","",""
"","21557","sequential-stimulus-presentation","39","220465","0.0-11.0-1.6","SS1613079862584","trial","","40","800","22357","images/stimuli/spore_stims/simple_11_B_d.gif","images/stimuli/spore_stims/simple_20_B_b.gif","","","","","1","simple_dissimilar","images/stimuli/spore_stims/simple_20_B_b.gif","right","","","","",""
"","null","html-keyboard-response","40","221432","0.0-11.0-0.7","SS1613079862584","","","null","","","","","<p><img src= images/blank.png width =""200"" height = ""200"" style = ""float:right""></p><p><img src=images/blank.png width =""800"" height = ""200""></p>","","","","","","","","","","","",""
"","8930","sequential-stimulus-presentation","41","231173","0.0-11.0-1.7","SS1613079862584","trial","","40","800","9730","images/stimuli/spore_stims/simple_11_B_d.gif","images/stimuli/spore_stims/simple_20_B_b.gif","","","","","1","simple_dissimilar","images/stimuli/spore_stims/simple_11_B_d.gif","middle","","","","",""
"","55266","html-keyboard-response","42","286446","0.0-12.0","SS1613079862584","pref_question","","49","","","","","<video width ='960' height = '540' style='padding-top:8%' autoplay muted><source src='images/stimuli/wall_pref.mp4' type='video/mp4'></video>","1","left","25%","1","","","","","","","",""
"","3392","sequential-stimulus-presentation","43","290665","0.0-13.0","SS1613079862584","pref_reveal","","40","800","4192","null","null","","","","","1","","","","novel","","","",""
"","null","html-keyboard-response","44","291546","0.0-14.0-0.0","SS1613079862584","","","null","","","","","<p><img src= images/blank.png width =""200"" height = ""200"" style = ""float:right""></p><p><img src=images/blank.png width =""800"" height = ""200""></p>","","","","","","","","","","","",""
"","7825","sequential-stimulus-presentation","45","300185","0.0-14.0-1.0","SS1613079862584","trial","","40","800","8625","images/stimuli/spore_stims/complex_01_B_d.gif","images/stimuli/spore_stims/complex_01_A_d.gif","","","","","2","complex_similar","images/stimuli/spore_stims/complex_01_A_d.gif","right","","","","",""
"","null","html-keyboard-response","46","301397","0.0-14.0-0.1","SS1613079862584","","","null","","","","","<p><img src= images/blank.png width =""200"" height = ""200"" style = ""float:right""></p><p><img src=images/blank.png width =""800"" height = ""200""></p>","","","","","","","","","","","",""
"","1622","sequential-stimulus-presentation","47","303844","0.0-14.0-1.1","SS1613079862584","trial","","40","800","2422","images/stimuli/spore_stims/complex_01_B_d.gif","images/stimuli/spore_stims/complex_01_A_d.gif","","","","","2","complex_similar","images/stimuli/spore_stims/complex_01_A_d.gif","right","","","","",""
"","null","html-keyboard-response","48","304826","0.0-14.0-0.2","SS1613079862584","","","null","","","","","<p><img src= images/blank.png width =""200"" height = ""200"" style = ""float:right""></p><p><img src=images/blank.png width =""800"" height = ""200""></p>","","","","","","","","","","","",""
"","2507","sequential-stimulus-presentation","49","308143","0.0-14.0-1.2","SS1613079862584","trial","","40","800","3307","images/stimuli/spore_stims/complex_01_B_d.gif","images/stimuli/spore_stims/complex_01_A_d.gif","","","","","2","complex_similar","images/stimuli/spore_stims/complex_01_A_d.gif","right","","","","",""
"","null","html-keyboard-response","50","309351","0.0-14.0-0.3","SS1613079862584","","","null","","","","","<p><img src= images/blank.png width =""200"" height = ""200"" style = ""float:right""></p><p><img src=images/blank.png width =""800"" height = ""200""></p>","","","","","","","","","","","",""
"","4156","sequential-stimulus-presentation","51","314323","0.0-14.0-1.3","SS1613079862584","trial","","40","800","4956","images/stimuli/spore_stims/complex_01_B_d.gif","images/stimuli/spore_stims/complex_01_A_d.gif","","","","","2","complex_similar","images/stimuli/spore_stims/complex_01_A_d.gif","right","","","","",""
"","null","html-keyboard-response","52","315632","0.0-14.0-0.4","SS1613079862584","","","null","","","","","<p><img src= images/blank.png width =""200"" height = ""200"" style = ""float:right""></p><p><img src=images/blank.png width =""800"" height = ""200""></p>","","","","","","","","","","","",""
"","3662","sequential-stimulus-presentation","53","320106","0.0-14.0-1.4","SS1613079862584","trial","","40","800","4462","images/stimuli/spore_stims/complex_01_B_d.gif","images/stimuli/spore_stims/complex_01_A_d.gif","","","","","2","complex_similar","images/stimuli/spore_stims/complex_01_A_d.gif","right","","","","",""
"","null","html-keyboard-response","54","321414","0.0-14.0-0.5","SS1613079862584","","","null","","","","","<p><img src= images/blank.png width =""200"" height = ""200"" style = ""float:right""></p><p><img src=images/blank.png width =""800"" height = ""200""></p>","","","","","","","","","","","",""
"","3787","sequential-stimulus-presentation","55","326012","0.0-14.0-1.5","SS1613079862584","trial","","40","800","4587","images/stimuli/spore_stims/complex_01_B_d.gif","images/stimuli/spore_stims/complex_01_A_d.gif","","","","","2","complex_similar","images/stimuli/spore_stims/complex_01_B_d.gif","middle","","","","",""
"","null","html-keyboard-response","56","326828","0.0-14.0-0.6","SS1613079862584","","","null","","","","","<p><img src= images/blank.png width =""200"" height = ""200"" style = ""float:right""></p><p><img src=images/blank.png width =""800"" height = ""200""></p>","","","","","","","","","","","",""
"","2590","sequential-stimulus-presentation","57","330227","0.0-14.0-1.6","SS1613079862584","trial","","40","800","3390","images/stimuli/spore_stims/complex_01_B_d.gif","images/stimuli/spore_stims/complex_01_A_d.gif","","","","","2","complex_similar","images/stimuli/spore_stims/complex_01_A_d.gif","right","","","","",""
"","null","html-keyboard-response","58","331538","0.0-14.0-0.7","SS1613079862584","","","null","","","","","<p><img src= images/blank.png width =""200"" height = ""200"" style = ""float:right""></p><p><img src=images/blank.png width =""800"" height = ""200""></p>","","","","","","","","","","","",""
"","1433","sequential-stimulus-presentation","59","333778","0.0-14.0-1.7","SS1613079862584","trial","","40","800","2233","images/stimuli/spore_stims/complex_01_B_d.gif","images/stimuli/spore_stims/complex_01_A_d.gif","","","","","2","complex_similar","images/stimuli/spore_stims/complex_01_A_d.gif","right","","","","",""
"","2258","html-keyboard-response","60","336041","0.0-15.0","SS1613079862584","pref_question","","50","","","","","<video width ='960' height = '540' style='padding-top:8%' autoplay muted><source src='images/stimuli/wall_pref.mp4' type='video/mp4'></video>","2","middle","45%","2","","","","","","","",""
"","4408","sequential-stimulus-presentation","61","341297","0.0-16.0","SS1613079862584","pref_reveal","","40","800","5208","null","null","","","","","2","","","","deviant","","","",""
"","null","html-keyboard-response","62","342222","0.0-17.0-0.0","SS1613079862584","","","null","","","","","<p><img src= images/blank.png width =""200"" height = ""200"" style = ""float:right""></p><p><img src=images/blank.png width =""800"" height = ""200""></p>","","","","","","","","","","","",""
"","4380","sequential-stimulus-presentation","63","347412","0.0-17.0-1.0","SS1613079862584","trial","","40","800","5180","images/stimuli/spore_stims/simple_12_B_a.gif","images/stimuli/spore_stims/simple_12_A_a.gif","","","","","3","simple_similar","images/stimuli/spore_stims/simple_12_A_a.gif","middle","","","","",""
"","null","html-keyboard-response","64","348571","0.0-17.0-0.1","SS1613079862584","","","null","","","","","<p><img src= images/blank.png width =""200"" height = ""200"" style = ""float:right""></p><p><img src=images/blank.png width =""800"" height = ""200""></p>","","","","","","","","","","","",""
"","549","sequential-stimulus-presentation","65","349963","0.0-17.0-1.1","SS1613079862584","trial","","40","800","1349","images/stimuli/spore_stims/simple_12_B_a.gif","images/stimuli/spore_stims/simple_12_A_a.gif","","","","","3","simple_similar","images/stimuli/spore_stims/simple_12_A_a.gif","middle","","","","",""
"","null","html-keyboard-response","66","350862","0.0-17.0-0.2","SS1613079862584","","","null","","","","","<p><img src= images/blank.png width =""200"" height = ""200"" style = ""float:right""></p><p><img src=images/blank.png width =""800"" height = ""200""></p>","","","","","","","","","","","",""
"","1497","sequential-stimulus-presentation","67","353170","0.0-17.0-1.2","SS1613079862584","trial","","40","800","2297","images/stimuli/spore_stims/simple_12_B_a.gif","images/stimuli/spore_stims/simple_12_A_a.gif","","","","","3","simple_similar","images/stimuli/spore_stims/simple_12_A_a.gif","middle","","","","",""
"","null","html-keyboard-response","68","354072","0.0-17.0-0.3","SS1613079862584","","","null","","","","","<p><img src= images/blank.png width =""200"" height = ""200"" style = ""float:right""></p><p><img src=images/blank.png width =""800"" height = ""200""></p>","","","","","","","","","","","",""
"","1667","sequential-stimulus-presentation","69","356567","0.0-17.0-1.3","SS1613079862584","trial","","40","800","2467","images/stimuli/spore_stims/simple_12_B_a.gif","images/stimuli/spore_stims/simple_12_A_a.gif","","","","","3","simple_similar","images/stimuli/spore_stims/simple_12_A_a.gif","middle","","","","",""
"","null","html-keyboard-response","70","357448","0.0-17.0-0.4","SS1613079862584","","","null","","","","","<p><img src= images/blank.png width =""200"" height = ""200"" style = ""float:right""></p><p><img src=images/blank.png width =""800"" height = ""200""></p>","","","","","","","","","","","",""
"","1714","sequential-stimulus-presentation","71","359974","0.0-17.0-1.4","SS1613079862584","trial","","40","800","2514","images/stimuli/spore_stims/simple_12_B_a.gif","images/stimuli/spore_stims/simple_12_A_a.gif","","","","","3","simple_similar","images/stimuli/spore_stims/simple_12_A_a.gif","middle","","","","",""
"","null","html-keyboard-response","72","360946","0.0-17.0-0.5","SS1613079862584","","","null","","","","","<p><img src= images/blank.png width =""200"" height = ""200"" style = ""float:right""></p><p><img src=images/blank.png width =""800"" height = ""200""></p>","","","","","","","","","","","",""
"","3663","sequential-stimulus-presentation","73","365416","0.0-17.0-1.5","SS1613079862584","trial","","40","800","4463","images/stimuli/spore_stims/simple_12_B_a.gif","images/stimuli/spore_stims/simple_12_A_a.gif","","","","","3","simple_similar","images/stimuli/spore_stims/simple_12_B_a.gif","right","","","","",""
"","null","html-keyboard-response","74","366552","0.0-17.0-0.6","SS1613079862584","","","null","","","","","<p><img src= images/blank.png width =""200"" height = ""200"" style = ""float:right""></p><p><img src=images/blank.png width =""800"" height = ""200""></p>","","","","","","","","","","","",""
"","2423","sequential-stimulus-presentation","75","369801","0.0-17.0-1.6","SS1613079862584","trial","","40","800","3223","images/stimuli/spore_stims/simple_12_B_a.gif","images/stimuli/spore_stims/simple_12_A_a.gif","","","","","3","simple_similar","images/stimuli/spore_stims/simple_12_A_a.gif","middle","","","","",""
"","null","html-keyboard-response","76","371026","0.0-17.0-0.7","SS1613079862584","","","null","","","","","<p><img src= images/blank.png width =""200"" height = ""200"" style = ""float:right""></p><p><img src=images/blank.png width =""800"" height = ""200""></p>","","","","","","","","","","","",""
"","801","sequential-stimulus-presentation","77","372639","0.0-17.0-1.7","SS1613079862584","trial","","40","800","1601","images/stimuli/spore_stims/simple_12_B_a.gif","images/stimuli/spore_stims/simple_12_A_a.gif","","","","","3","simple_similar","images/stimuli/spore_stims/simple_12_A_a.gif","middle","","","","",""
"","2064","html-keyboard-response","78","374713","0.0-18.0","SS1613079862584","pref_question","","51","","","","","<video width ='960' height = '540' style='padding-top:8%' autoplay muted><source src='images/stimuli/wall_pref.mp4' type='video/mp4'></video>","3","right","66%","3","","","","","","","",""
"","2786","sequential-stimulus-presentation","79","378313","0.0-19.0","SS1613079862584","pref_reveal","","40","800","3586","null","null","","","","","3","","","","deviant","","","",""
"","null","html-keyboard-response","80","379444","0.0-20.0-0.0","SS1613079862584","","","null","","","","","<p><img src= images/blank.png width =""200"" height = ""200"" style = ""float:right""></p><p><img src=images/blank.png width =""800"" height = ""200""></p>","","","","","","","","","","","",""
"","3897","sequential-stimulus-presentation","81","384167","0.0-20.0-1.0","SS1613079862584","trial","","40","800","4697","images/stimuli/spore_stims/complex_09_A_c.gif","images/stimuli/spore_stims/complex_03_A_c.gif","","","","","4","complex_dissimilar","images/stimuli/spore_stims/complex_03_A_c.gif","right","","","","",""
"","null","html-keyboard-response","82","385100","0.0-20.0-0.1","SS1613079862584","","","null","","","","","<p><img src= images/blank.png width =""200"" height = ""200"" style = ""float:right""></p><p><img src=images/blank.png width =""800"" height = ""200""></p>","","","","","","","","","","","",""
"","1441","sequential-stimulus-presentation","83","387352","0.0-20.0-1.1","SS1613079862584","trial","","40","800","2241","images/stimuli/spore_stims/complex_09_A_c.gif","images/stimuli/spore_stims/complex_03_A_c.gif","","","","","4","complex_dissimilar","images/stimuli/spore_stims/complex_03_A_c.gif","right","","","","",""
"","null","html-keyboard-response","84","388197","0.0-20.0-0.2","SS1613079862584","","","null","","","","","<p><img src= images/blank.png width =""200"" height = ""200"" style = ""float:right""></p><p><img src=images/blank.png width =""800"" height = ""200""></p>","","","","","","","","","","","",""
"","1055","sequential-stimulus-presentation","85","390061","0.0-20.0-1.2","SS1613079862584","trial","","40","800","1855","images/stimuli/spore_stims/complex_09_A_c.gif","images/stimuli/spore_stims/complex_03_A_c.gif","","","","","4","complex_dissimilar","images/stimuli/spore_stims/complex_03_A_c.gif","right","","","","",""
"","null","html-keyboard-response","86","390952","0.0-20.0-0.3","SS1613079862584","","","null","","","","","<p><img src= images/blank.png width =""200"" height = ""200"" style = ""float:right""></p><p><img src=images/blank.png width =""800"" height = ""200""></p>","","","","","","","","","","","",""
"","1563","sequential-stimulus-presentation","87","393327","0.0-20.0-1.3","SS1613079862584","trial","","40","800","2363","images/stimuli/spore_stims/complex_09_A_c.gif","images/stimuli/spore_stims/complex_03_A_c.gif","","","","","4","complex_dissimilar","images/stimuli/spore_stims/complex_03_A_c.gif","right","","","","",""
"","null","html-keyboard-response","88","394556","0.0-20.0-0.4","SS1613079862584","","","null","","","","","<p><img src= images/blank.png width =""200"" height = ""200"" style = ""float:right""></p><p><img src=images/blank.png width =""800"" height = ""200""></p>","","","","","","","","","","","",""
"","2073","sequential-stimulus-presentation","89","397450","0.0-20.0-1.4","SS1613079862584","trial","","40","800","2873","images/stimuli/spore_stims/complex_09_A_c.gif","images/stimuli/spore_stims/complex_03_A_c.gif","","","","","4","complex_dissimilar","images/stimuli/spore_stims/complex_03_A_c.gif","right","","","","",""
"","null","html-keyboard-response","90","398697","0.0-20.0-0.5","SS1613079862584","","","null","","","","","<p><img src= images/blank.png width =""200"" height = ""200"" style = ""float:right""></p><p><img src=images/blank.png width =""800"" height = ""200""></p>","","","","","","","","","","","",""
"","2697","sequential-stimulus-presentation","91","402214","0.0-20.0-1.5","SS1613079862584","trial","","40","800","3497","images/stimuli/spore_stims/complex_09_A_c.gif","images/stimuli/spore_stims/complex_03_A_c.gif","","","","","4","complex_dissimilar","images/stimuli/spore_stims/complex_03_A_c.gif","right","","","","",""
"","null","html-keyboard-response","92","403160","0.0-20.0-0.6","SS1613079862584","","","null","","","","","<p><img src= images/blank.png width =""200"" height = ""200"" style = ""float:right""></p><p><img src=images/blank.png width =""800"" height = ""200""></p>","","","","","","","","","","","",""
"","3453","sequential-stimulus-presentation","93","407424","0.0-20.0-1.6","SS1613079862584","trial","","40","800","4253","images/stimuli/spore_stims/complex_09_A_c.gif","images/stimuli/spore_stims/complex_03_A_c.gif","","","","","4","complex_dissimilar","images/stimuli/spore_stims/complex_03_A_c.gif","right","","","","",""
"","null","html-keyboard-response","94","408283","0.0-20.0-0.7","SS1613079862584","","","null","","","","","<p><img src= images/blank.png width =""200"" height = ""200"" style = ""float:right""></p><p><img src=images/blank.png width =""800"" height = ""200""></p>","","","","","","","","","","","",""
"","4399","sequential-stimulus-presentation","95","413509","0.0-20.0-1.7","SS1613079862584","trial","","40","800","5199","images/stimuli/spore_stims/complex_09_A_c.gif","images/stimuli/spore_stims/complex_03_A_c.gif","","","","","4","complex_dissimilar","images/stimuli/spore_stims/complex_09_A_c.gif","left","","","","",""
"","1864","html-keyboard-response","96","415381","0.0-21.0","SS1613079862584","pref_question","","50","","","","","<video width ='960' height = '540' style='padding-top:8%' autoplay muted><source src='images/stimuli/wall_pref.mp4' type='video/mp4'></video>","2","middle","45%","4","","","","","","","",""
"","2383","sequential-stimulus-presentation","97","418577","0.0-22.0","SS1613079862584","pref_reveal","","40","800","3183","null","null","","","","","4","","","","novel","","","",""
"","null","html-keyboard-response","98","419468","0.0-23.0-0.0","SS1613079862584","","","null","","","","","<p><img src= images/blank.png width =""200"" height = ""200"" style = ""float:right""></p><p><img src=images/blank.png width =""800"" height = ""200""></p>","","","","","","","","","","","",""
"","2304","sequential-stimulus-presentation","99","422593","0.0-23.0-1.0","SS1613079862584","trial","","40","800","3104","images/stimuli/spore_stims/simple_19_A_c.gif","images/stimuli/spore_stims/simple_19_B_c.gif","","","","","5","simple_similar","images/stimuli/spore_stims/simple_19_B_c.gif","middle","","","","",""
"","null","html-keyboard-response","100","423905","0.0-23.0-0.1","SS1613079862584","","","null","","","","","<p><img src= images/blank.png width =""200"" height = ""200"" style = ""float:right""></p><p><img src=images/blank.png width =""800"" height = ""200""></p>","","","","","","","","","","","",""
"","1943","sequential-stimulus-presentation","101","426673","0.0-23.0-1.1","SS1613079862584","trial","","40","800","2743","images/stimuli/spore_stims/simple_19_A_c.gif","images/stimuli/spore_stims/simple_19_B_c.gif","","","","","5","simple_similar","images/stimuli/spore_stims/simple_19_B_c.gif","middle","","","","",""
"","null","html-keyboard-response","102","427925","0.0-23.0-0.2","SS1613079862584","","","null","","","","","<p><img src= images/blank.png width =""200"" height = ""200"" style = ""float:right""></p><p><img src=images/blank.png width =""800"" height = ""200""></p>","","","","","","","","","","","",""
"","1655","sequential-stimulus-presentation","103","430426","0.0-23.0-1.2","SS1613079862584","trial","","40","800","2455","images/stimuli/spore_stims/simple_19_A_c.gif","images/stimuli/spore_stims/simple_19_B_c.gif","","","","","5","simple_similar","images/stimuli/spore_stims/simple_19_B_c.gif","middle","","","","",""
"","null","html-keyboard-response","104","431303","0.0-23.0-0.3","SS1613079862584","","","null","","","","","<p><img src= images/blank.png width =""200"" height = ""200"" style = ""float:right""></p><p><img src=images/blank.png width =""800"" height = ""200""></p>","","","","","","","","","","","",""
"","1506","sequential-stimulus-presentation","105","433638","0.0-23.0-1.3","SS1613079862584","trial","","40","800","2306","images/stimuli/spore_stims/simple_19_A_c.gif","images/stimuli/spore_stims/simple_19_B_c.gif","","","","","5","simple_similar","images/stimuli/spore_stims/simple_19_B_c.gif","middle","","","","",""
"","null","html-keyboard-response","106","434891","0.0-23.0-0.4","SS1613079862584","","","null","","","","","<p><img src= images/blank.png width =""200"" height = ""200"" style = ""float:right""></p><p><img src=images/blank.png width =""800"" height = ""200""></p>","","","","","","","","","","","",""
"","1309","sequential-stimulus-presentation","107","437016","0.0-23.0-1.4","SS1613079862584","trial","","40","800","2109","images/stimuli/spore_stims/simple_19_A_c.gif","images/stimuli/spore_stims/simple_19_B_c.gif","","","","","5","simple_similar","images/stimuli/spore_stims/simple_19_B_c.gif","middle","","","","",""
"","null","html-keyboard-response","108","438124","0.0-23.0-0.5","SS1613079862584","","","null","","","","","<p><img src= images/blank.png width =""200"" height = ""200"" style = ""float:right""></p><p><img src=images/blank.png width =""800"" height = ""200""></p>","","","","","","","","","","","",""
"","1275","sequential-stimulus-presentation","109","440233","0.0-23.0-1.5","SS1613079862584","trial","","40","800","2075","images/stimuli/spore_stims/simple_19_A_c.gif","images/stimuli/spore_stims/simple_19_B_c.gif","","","","","5","simple_similar","images/stimuli/spore_stims/simple_19_B_c.gif","middle","","","","",""
"","null","html-keyboard-response","110","441139","0.0-23.0-0.6","SS1613079862584","","","null","","","","","<p><img src= images/blank.png width =""200"" height = ""200"" style = ""float:right""></p><p><img src=images/blank.png width =""800"" height = ""200""></p>","","","","","","","","","","","",""
"","1888","sequential-stimulus-presentation","111","443893","0.0-23.0-1.6","SS1613079862584","trial","","40","800","2688","images/stimuli/spore_stims/simple_19_A_c.gif","images/stimuli/spore_stims/simple_19_B_c.gif","","","","","5","simple_similar","images/stimuli/spore_stims/simple_19_A_c.gif","right","","","","",""
"","null","html-keyboard-response","112","444880","0.0-23.0-0.7","SS1613079862584","","","null","","","","","<p><img src= images/blank.png width =""200"" height = ""200"" style = ""float:right""></p><p><img src=images/blank.png width =""800"" height = ""200""></p>","","","","","","","","","","","",""
"","1366","sequential-stimulus-presentation","113","447059","0.0-23.0-1.7","SS1613079862584","trial","","40","800","2166","images/stimuli/spore_stims/simple_19_A_c.gif","images/stimuli/spore_stims/simple_19_B_c.gif","","","","","5","simple_similar","images/stimuli/spore_stims/simple_19_B_c.gif","middle","","","","",""
"","2604","html-keyboard-response","114","449675","0.0-24.0","SS1613079862584","pref_question","","51","","","","","<video width ='960' height = '540' style='padding-top:8%' autoplay muted><source src='images/stimuli/wall_pref.mp4' type='video/mp4'></video>","3","right","66%","5","","","","","","","",""
"","1126","sequential-stimulus-presentation","115","451651","0.0-25.0","SS1613079862584","pref_reveal","","40","800","1926","null","null","","","","","5","","","","deviant","","","",""
"","null","html-keyboard-response","116","452606","0.0-26.0-0.0","SS1613079862584","","","null","","","","","<p><img src= images/blank.png width =""200"" height = ""200"" style = ""float:right""></p><p><img src=images/blank.png width =""800"" height = ""200""></p>","","","","","","","","","","","",""
"","3368","sequential-stimulus-presentation","117","457499","0.0-26.0-1.0","SS1613079862584","trial","","40","800","4168","images/stimuli/spore_stims/complex_16_B_b.gif","images/stimuli/spore_stims/complex_16_A_b.gif","","","","","6","complex_similar","images/stimuli/spore_stims/complex_16_A_b.gif","left","","","","",""
"","null","html-keyboard-response","118","458521","0.0-26.0-0.1","SS1613079862584","","","null","","","","","<p><img src= images/blank.png width =""200"" height = ""200"" style = ""float:right""></p><p><img src=images/blank.png width =""800"" height = ""200""></p>","","","","","","","","","","","",""
"","908","sequential-stimulus-presentation","119","460239","0.0-26.0-1.1","SS1613079862584","trial","","40","800","1708","images/stimuli/spore_stims/complex_16_B_b.gif","images/stimuli/spore_stims/complex_16_A_b.gif","","","","","6","complex_similar","images/stimuli/spore_stims/complex_16_A_b.gif","left","","","","",""
"","null","html-keyboard-response","120","461511","0.0-26.0-0.2","SS1613079862584","","","null","","","","","<p><img src= images/blank.png width =""200"" height = ""200"" style = ""float:right""></p><p><img src=images/blank.png width =""800"" height = ""200""></p>","","","","","","","","","","","",""
"","1046","sequential-stimulus-presentation","121","463381","0.0-26.0-1.2","SS1613079862584","trial","","40","800","1846","images/stimuli/spore_stims/complex_16_B_b.gif","images/stimuli/spore_stims/complex_16_A_b.gif","","","","","6","complex_similar","images/stimuli/spore_stims/complex_16_A_b.gif","left","","","","",""
"","null","html-keyboard-response","122","464325","0.0-26.0-0.3","SS1613079862584","","","null","","","","","<p><img src= images/blank.png width =""200"" height = ""200"" style = ""float:right""></p><p><img src=images/blank.png width =""800"" height = ""200""></p>","","","","","","","","","","","",""
"","932","sequential-stimulus-presentation","123","466066","0.0-26.0-1.3","SS1613079862584","trial","","40","800","1732","images/stimuli/spore_stims/complex_16_B_b.gif","images/stimuli/spore_stims/complex_16_A_b.gif","","","","","6","complex_similar","images/stimuli/spore_stims/complex_16_A_b.gif","left","","","","",""
"","null","html-keyboard-response","124","466911","0.0-26.0-0.4","SS1613079862584","","","null","","","","","<p><img src= images/blank.png width =""200"" height = ""200"" style = ""float:right""></p><p><img src=images/blank.png width =""800"" height = ""200""></p>","","","","","","","","","","","",""
"","724","sequential-stimulus-presentation","125","468451","0.0-26.0-1.4","SS1613079862584","trial","","40","800","1524","images/stimuli/spore_stims/complex_16_B_b.gif","images/stimuli/spore_stims/complex_16_A_b.gif","","","","","6","complex_similar","images/stimuli/spore_stims/complex_16_A_b.gif","left","","","","",""
"","null","html-keyboard-response","126","469716","0.0-26.0-0.5","SS1613079862584","","","null","","","","","<p><img src= images/blank.png width =""200"" height = ""200"" style = ""float:right""></p><p><img src=images/blank.png width =""800"" height = ""200""></p>","","","","","","","","","","","",""
"","938","sequential-stimulus-presentation","127","471464","0.0-26.0-1.5","SS1613079862584","trial","","40","800","1738","images/stimuli/spore_stims/complex_16_B_b.gif","images/stimuli/spore_stims/complex_16_A_b.gif","","","","","6","complex_similar","images/stimuli/spore_stims/complex_16_A_b.gif","left","","","","",""
"","null","html-keyboard-response","128","472281","0.0-26.0-0.6","SS1613079862584","","","null","","","","","<p><img src= images/blank.png width =""200"" height = ""200"" style = ""float:right""></p><p><img src=images/blank.png width =""800"" height = ""200""></p>","","","","","","","","","","","",""
"","1000","sequential-stimulus-presentation","129","474114","0.0-26.0-1.6","SS1613079862584","trial","","40","800","1800","images/stimuli/spore_stims/complex_16_B_b.gif","images/stimuli/spore_stims/complex_16_A_b.gif","","","","","6","complex_similar","images/stimuli/spore_stims/complex_16_A_b.gif","left","","","","",""
"","null","html-keyboard-response","130","475146","0.0-26.0-0.7","SS1613079862584","","","null","","","","","<p><img src= images/blank.png width =""200"" height = ""200"" style = ""float:right""></p><p><img src=images/blank.png width =""800"" height = ""200""></p>","","","","","","","","","","","",""
"","2137","sequential-stimulus-presentation","131","478109","0.0-26.0-1.7","SS1613079862584","trial","","40","800","2937","images/stimuli/spore_stims/complex_16_B_b.gif","images/stimuli/spore_stims/complex_16_A_b.gif","","","","","6","complex_similar","images/stimuli/spore_stims/complex_16_B_b.gif","right","","","","",""
"","1418","html-keyboard-response","132","479744","0.0-27.0","SS1613079862584","pref_question","","51","","","","","<video width ='960' height = '540' style='padding-top:8%' autoplay muted><source src='images/stimuli/wall_pref.mp4' type='video/mp4'></video>","3","right","66%","6","","","","","","","",""
"","1391","sequential-stimulus-presentation","133","481951","0.0-28.0","SS1613079862584","pref_reveal","","40","800","2191","null","null","","","","","6","","","","deviant","","","",""
"","null","html-keyboard-response","134","482970","0.0-29.0-0.0","SS1613079862584","","","null","","","","","<p><img src= images/blank.png width =""200"" height = ""200"" style = ""float:right""></p><p><img src=images/blank.png width =""800"" height = ""200""></p>","","","","","","","","","","","",""
"","1661","sequential-stimulus-presentation","135","485441","0.0-29.0-1.0","SS1613079862584","trial","","40","800","2461","images/stimuli/spore_stims/complex_18_B_b.gif","images/stimuli/spore_stims/complex_01_B_a.gif","","","","","7","complex_dissimilar","images/stimuli/spore_stims/complex_01_B_a.gif","middle","","","","",""
"","null","html-keyboard-response","136","486689","0.0-29.0-0.1","SS1613079862584","","","null","","","","","<p><img src= images/blank.png width =""200"" height = ""200"" style = ""float:right""></p><p><img src=images/blank.png width =""800"" height = ""200""></p>","","","","","","","","","","","",""
"","1260","sequential-stimulus-presentation","137","488773","0.0-29.0-1.1","SS1613079862584","trial","","40","800","2060","images/stimuli/spore_stims/complex_18_B_b.gif","images/stimuli/spore_stims/complex_01_B_a.gif","","","","","7","complex_dissimilar","images/stimuli/spore_stims/complex_01_B_a.gif","middle","","","","",""
"","null","html-keyboard-response","138","489989","0.0-29.0-0.2","SS1613079862584","","","null","","","","","<p><img src= images/blank.png width =""200"" height = ""200"" style = ""float:right""></p><p><img src=images/blank.png width =""800"" height = ""200""></p>","","","","","","","","","","","",""
"","1193","sequential-stimulus-presentation","139","491991","0.0-29.0-1.2","SS1613079862584","trial","","40","800","1993","images/stimuli/spore_stims/complex_18_B_b.gif","images/stimuli/spore_stims/complex_01_B_a.gif","","","","","7","complex_dissimilar","images/stimuli/spore_stims/complex_01_B_a.gif","middle","","","","",""
"","null","html-keyboard-response","140","493155","0.0-29.0-0.3","SS1613079862584","","","null","","","","","<p><img src= images/blank.png width =""200"" height = ""200"" style = ""float:right""></p><p><img src=images/blank.png width =""800"" height = ""200""></p>","","","","","","","","","","","",""
"","1653","sequential-stimulus-presentation","141","495645","0.0-29.0-1.3","SS1613079862584","trial","","40","800","2453","images/stimuli/spore_stims/complex_18_B_b.gif","images/stimuli/spore_stims/complex_01_B_a.gif","","","","","7","complex_dissimilar","images/stimuli/spore_stims/complex_18_B_b.gif","left","","","","",""
"","null","html-keyboard-response","142","496500","0.0-29.0-0.4","SS1613079862584","","","null","","","","","<p><img src= images/blank.png width =""200"" height = ""200"" style = ""float:right""></p><p><img src=images/blank.png width =""800"" height = ""200""></p>","","","","","","","","","","","",""
"","1102","sequential-stimulus-presentation","143","498427","0.0-29.0-1.4","SS1613079862584","trial","","40","800","1902","images/stimuli/spore_stims/complex_18_B_b.gif","images/stimuli/spore_stims/complex_01_B_a.gif","","","","","7","complex_dissimilar","images/stimuli/spore_stims/complex_01_B_a.gif","middle","","","","",""
"","null","html-keyboard-response","144","499705","0.0-29.0-0.5","SS1613079862584","","","null","","","","","<p><img src= images/blank.png width =""200"" height = ""200"" style = ""float:right""></p><p><img src=images/blank.png width =""800"" height = ""200""></p>","","","","","","","","","","","",""
"","530","sequential-stimulus-presentation","145","501059","0.0-29.0-1.5","SS1613079862584","trial","","40","800","1330","images/stimuli/spore_stims/complex_18_B_b.gif","images/stimuli/spore_stims/complex_01_B_a.gif","","","","","7","complex_dissimilar","images/stimuli/spore_stims/complex_01_B_a.gif","middle","","","","",""
"","null","html-keyboard-response","146","501935","0.0-29.0-0.6","SS1613079862584","","","null","","","","","<p><img src= images/blank.png width =""200"" height = ""200"" style = ""float:right""></p><p><img src=images/blank.png width =""800"" height = ""200""></p>","","","","","","","","","","","",""
"","1108","sequential-stimulus-presentation","147","503855","0.0-29.0-1.6","SS1613079862584","trial","","40","800","1908","images/stimuli/spore_stims/complex_18_B_b.gif","images/stimuli/spore_stims/complex_01_B_a.gif","","","","","7","complex_dissimilar","images/stimuli/spore_stims/complex_01_B_a.gif","middle","","","","",""
"","null","html-keyboard-response","148","504802","0.0-29.0-0.7","SS1613079862584","","","null","","","","","<p><img src= images/blank.png width =""200"" height = ""200"" style = ""float:right""></p><p><img src=images/blank.png width =""800"" height = ""200""></p>","","","","","","","","","","","",""
"","430","sequential-stimulus-presentation","149","506045","0.0-29.0-1.7","SS1613079862584","trial","","40","800","1230","images/stimuli/spore_stims/complex_18_B_b.gif","images/stimuli/spore_stims/complex_01_B_a.gif","","","","","7","complex_dissimilar","images/stimuli/spore_stims/complex_01_B_a.gif","middle","","","","",""
"","1865","html-keyboard-response","150","507925","0.0-30.0","SS1613079862584","pref_question","","49","","","","","<video width ='960' height = '540' style='padding-top:8%' autoplay muted><source src='images/stimuli/wall_pref.mp4' type='video/mp4'></video>","1","left","25%","7","","","","","","","",""
"","1936","sequential-stimulus-presentation","151","510685","0.0-31.0","SS1613079862584","pref_reveal","","40","800","2736","null","null","","","","","7","","","","deviant","","","",""
"","null","html-keyboard-response","152","511723","0.0-32.0-0.0","SS1613079862584","","","null","","","","","<p><img src= images/blank.png width =""200"" height = ""200"" style = ""float:right""></p><p><img src=images/blank.png width =""800"" height = ""200""></p>","","","","","","","","","","","",""
"","2085","sequential-stimulus-presentation","153","514631","0.0-32.0-1.0","SS1613079862584","trial","","40","800","2885","images/stimuli/spore_stims/complex_07_B_a.gif","images/stimuli/spore_stims/complex_20_B_c.gif","","","","","8","complex_dissimilar","images/stimuli/spore_stims/complex_20_B_c.gif","middle","","","","",""
"","null","html-keyboard-response","154","515643","0.0-32.0-0.1","SS1613079862584","","","null","","","","","<p><img src= images/blank.png width =""200"" height = ""200"" style = ""float:right""></p><p><img src=images/blank.png width =""800"" height = ""200""></p>","","","","","","","","","","","",""
"","1544","sequential-stimulus-presentation","155","518011","0.0-32.0-1.1","SS1613079862584","trial","","40","800","2344","images/stimuli/spore_stims/complex_07_B_a.gif","images/stimuli/spore_stims/complex_20_B_c.gif","","","","","8","complex_dissimilar","images/stimuli/spore_stims/complex_20_B_c.gif","middle","","","","",""
"","null","html-keyboard-response","156","518988","0.0-32.0-0.2","SS1613079862584","","","null","","","","","<p><img src= images/blank.png width =""200"" height = ""200"" style = ""float:right""></p><p><img src=images/blank.png width =""800"" height = ""200""></p>","","","","","","","","","","","",""
"","1267","sequential-stimulus-presentation","157","521063","0.0-32.0-1.2","SS1613079862584","trial","","40","800","2067","images/stimuli/spore_stims/complex_07_B_a.gif","images/stimuli/spore_stims/complex_20_B_c.gif","","","","","8","complex_dissimilar","images/stimuli/spore_stims/complex_20_B_c.gif","middle","","","","",""
"","null","html-keyboard-response","158","522100","0.0-32.0-0.3","SS1613079862584","","","null","","","","","<p><img src= images/blank.png width =""200"" height = ""200"" style = ""float:right""></p><p><img src=images/blank.png width =""800"" height = ""200""></p>","","","","","","","","","","","",""
"","1760","sequential-stimulus-presentation","159","524684","0.0-32.0-1.3","SS1613079862584","trial","","40","800","2560","images/stimuli/spore_stims/complex_07_B_a.gif","images/stimuli/spore_stims/complex_20_B_c.gif","","","","","8","complex_dissimilar","images/stimuli/spore_stims/complex_07_B_a.gif","left","","","","",""
"","null","html-keyboard-response","160","525847","0.0-32.0-0.4","SS1613079862584","","","null","","","","","<p><img src= images/blank.png width =""200"" height = ""200"" style = ""float:right""></p><p><img src=images/blank.png width =""800"" height = ""200""></p>","","","","","","","","","","","",""
"","1135","sequential-stimulus-presentation","161","527791","0.0-32.0-1.4","SS1613079862584","trial","","40","800","1935","images/stimuli/spore_stims/complex_07_B_a.gif","images/stimuli/spore_stims/complex_20_B_c.gif","","","","","8","complex_dissimilar","images/stimuli/spore_stims/complex_20_B_c.gif","middle","","","","",""
"","null","html-keyboard-response","162","528875","0.0-32.0-0.5","SS1613079862584","","","null","","","","","<p><img src= images/blank.png width =""200"" height = ""200"" style = ""float:right""></p><p><img src=images/blank.png width =""800"" height = ""200""></p>","","","","","","","","","","","",""
"","1427","sequential-stimulus-presentation","163","531130","0.0-32.0-1.5","SS1613079862584","trial","","40","800","2227","images/stimuli/spore_stims/complex_07_B_a.gif","images/stimuli/spore_stims/complex_20_B_c.gif","","","","","8","complex_dissimilar","images/stimuli/spore_stims/complex_20_B_c.gif","middle","","","","",""
"","null","html-keyboard-response","164","532366","0.0-32.0-0.6","SS1613079862584","","","null","","","","","<p><img src= images/blank.png width =""200"" height = ""200"" style = ""float:right""></p><p><img src=images/blank.png width =""800"" height = ""200""></p>","","","","","","","","","","","",""
"","1186","sequential-stimulus-presentation","165","534366","0.0-32.0-1.6","SS1613079862584","trial","","40","800","1986","images/stimuli/spore_stims/complex_07_B_a.gif","images/stimuli/spore_stims/complex_20_B_c.gif","","","","","8","complex_dissimilar","images/stimuli/spore_stims/complex_20_B_c.gif","middle","","","","",""
"","null","html-keyboard-response","166","535184","0.0-32.0-0.7","SS1613079862584","","","null","","","","","<p><img src= images/blank.png width =""200"" height = ""200"" style = ""float:right""></p><p><img src=images/blank.png width =""800"" height = ""200""></p>","","","","","","","","","","","",""
"","763","sequential-stimulus-presentation","167","536775","0.0-32.0-1.7","SS1613079862584","trial","","40","800","1563","images/stimuli/spore_stims/complex_07_B_a.gif","images/stimuli/spore_stims/complex_20_B_c.gif","","","","","8","complex_dissimilar","images/stimuli/spore_stims/complex_20_B_c.gif","middle","","","","",""
"","1677","html-keyboard-response","168","538477","0.0-33.0","SS1613079862584","pref_question","","51","","","","","<video width ='960' height = '540' style='padding-top:8%' autoplay muted><source src='images/stimuli/wall_pref.mp4' type='video/mp4'></video>","3","right","66%","8","","","","","","","",""
"","1547","sequential-stimulus-presentation","169","540843","0.0-34.0","SS1613079862584","pref_reveal","","40","800","2347","null","null","","","","","8","","","","novel","","","",""
"","null","html-keyboard-response","170","541673","0.0-35.0-0.0","SS1613079862584","","","null","","","","","<p><img src= images/blank.png width =""200"" height = ""200"" style = ""float:right""></p><p><img src=images/blank.png width =""800"" height = ""200""></p>","","","","","","","","","","","",""
"","1641","sequential-stimulus-presentation","171","544141","0.0-35.0-1.0","SS1613079862584","trial","","40","800","2441","images/stimuli/spore_stims/complex_15_A_d.gif","images/stimuli/spore_stims/complex_08_A_a.gif","","","","","9","complex_dissimilar","images/stimuli/spore_stims/complex_08_A_a.gif","right","","","","",""
"","null","html-keyboard-response","172","545223","0.0-35.0-0.1","SS1613079862584","","","null","","","","","<p><img src= images/blank.png width =""200"" height = ""200"" style = ""float:right""></p><p><img src=images/blank.png width =""800"" height = ""200""></p>","","","","","","","","","","","",""
"","834","sequential-stimulus-presentation","173","546898","0.0-35.0-1.1","SS1613079862584","trial","","40","800","1634","images/stimuli/spore_stims/complex_15_A_d.gif","images/stimuli/spore_stims/complex_08_A_a.gif","","","","","9","complex_dissimilar","images/stimuli/spore_stims/complex_08_A_a.gif","right","","","","",""
"","null","html-keyboard-response","174","547821","0.0-35.0-0.2","SS1613079862584","","","null","","","","","<p><img src= images/blank.png width =""200"" height = ""200"" style = ""float:right""></p><p><img src=images/blank.png width =""800"" height = ""200""></p>","","","","","","","","","","","",""
"","1208","sequential-stimulus-presentation","175","549848","0.0-35.0-1.2","SS1613079862584","trial","","40","800","2008","images/stimuli/spore_stims/complex_15_A_d.gif","images/stimuli/spore_stims/complex_08_A_a.gif","","","","","9","complex_dissimilar","images/stimuli/spore_stims/complex_08_A_a.gif","right","","","","",""
"","null","html-keyboard-response","176","550755","0.0-35.0-0.3","SS1613079862584","","","null","","","","","<p><img src= images/blank.png width =""200"" height = ""200"" style = ""float:right""></p><p><img src=images/blank.png width =""800"" height = ""200""></p>","","","","","","","","","","","",""
"","1870","sequential-stimulus-presentation","177","553435","0.0-35.0-1.3","SS1613079862584","trial","","40","800","2670","images/stimuli/spore_stims/complex_15_A_d.gif","images/stimuli/spore_stims/complex_08_A_a.gif","","","","","9","complex_dissimilar","images/stimuli/spore_stims/complex_15_A_d.gif","left","","","","",""
"","null","html-keyboard-response","178","554318","0.0-35.0-0.4","SS1613079862584","","","null","","","","","<p><img src= images/blank.png width =""200"" height = ""200"" style = ""float:right""></p><p><img src=images/blank.png width =""800"" height = ""200""></p>","","","","","","","","","","","",""
"","899","sequential-stimulus-presentation","179","556042","0.0-35.0-1.4","SS1613079862584","trial","","40","800","1699","images/stimuli/spore_stims/complex_15_A_d.gif","images/stimuli/spore_stims/complex_08_A_a.gif","","","","","9","complex_dissimilar","images/stimuli/spore_stims/complex_08_A_a.gif","right","","","","",""
"","null","html-keyboard-response","180","557278","0.0-35.0-0.5","SS1613079862584","","","null","","","","","<p><img src= images/blank.png width =""200"" height = ""200"" style = ""float:right""></p><p><img src=images/blank.png width =""800"" height = ""200""></p>","","","","","","","","","","","",""
"","862","sequential-stimulus-presentation","181","558951","0.0-35.0-1.5","SS1613079862584","trial","","40","800","1662","images/stimuli/spore_stims/complex_15_A_d.gif","images/stimuli/spore_stims/complex_08_A_a.gif","","","","","9","complex_dissimilar","images/stimuli/spore_stims/complex_08_A_a.gif","right","","","","",""
"","null","html-keyboard-response","182","559800","0.0-35.0-0.6","SS1613079862584","","","null","","","","","<p><img src= images/blank.png width =""200"" height = ""200"" style = ""float:right""></p><p><img src=images/blank.png width =""800"" height = ""200""></p>","","","","","","","","","","","",""
"","1396","sequential-stimulus-presentation","183","562005","0.0-35.0-1.6","SS1613079862584","trial","","40","800","2196","images/stimuli/spore_stims/complex_15_A_d.gif","images/stimuli/spore_stims/complex_08_A_a.gif","","","","","9","complex_dissimilar","images/stimuli/spore_stims/complex_08_A_a.gif","right","","","","",""
"","null","html-keyboard-response","184","563273","0.0-35.0-0.7","SS1613079862584","","","null","","","","","<p><img src= images/blank.png width =""200"" height = ""200"" style = ""float:right""></p><p><img src=images/blank.png width =""800"" height = ""200""></p>","","","","","","","","","","","",""
"","425","sequential-stimulus-presentation","185","564518","0.0-35.0-1.7","SS1613079862584","trial","","40","800","1225","images/stimuli/spore_stims/complex_15_A_d.gif","images/stimuli/spore_stims/complex_08_A_a.gif","","","","","9","complex_dissimilar","images/stimuli/spore_stims/complex_08_A_a.gif","right","","","","",""
"","1754","html-keyboard-response","186","566283","0.0-36.0","SS1613079862584","pref_question","","50","","","","","<video width ='960' height = '540' style='padding-top:8%' autoplay muted><source src='images/stimuli/wall_pref.mp4' type='video/mp4'></video>","2","middle","45%","9","","","","","","","",""
"","1445","sequential-stimulus-presentation","187","568554","0.0-37.0","SS1613079862584","pref_reveal","","40","800","2245","null","null","","","","","9","","","","novel","","","",""
"","null","html-keyboard-response","188","569847","0.0-38.0-0.0","SS1613079862584","","","null","","","","","<p><img src= images/blank.png width =""200"" height = ""200"" style = ""float:right""></p><p><img src=images/blank.png width =""800"" height = ""200""></p>","","","","","","","","","","","",""
"","1264","sequential-stimulus-presentation","189","571950","0.0-38.0-1.0","SS1613079862584","trial","","40","800","2064","images/stimuli/spore_stims/simple_14_A_d.gif","images/stimuli/spore_stims/simple_13_B_a.gif","","","","","10","simple_dissimilar","images/stimuli/spore_stims/simple_13_B_a.gif","middle","","","","",""
"","null","html-keyboard-response","190","572965","0.0-38.0-0.1","SS1613079862584","","","null","","","","","<p><img src= images/blank.png width =""200"" height = ""200"" style = ""float:right""></p><p><img src=images/blank.png width =""800"" height = ""200""></p>","","","","","","","","","","","",""
"","955","sequential-stimulus-presentation","191","574748","0.0-38.0-1.1","SS1613079862584","trial","","40","800","1755","images/stimuli/spore_stims/simple_14_A_d.gif","images/stimuli/spore_stims/simple_13_B_a.gif","","","","","10","simple_dissimilar","images/stimuli/spore_stims/simple_13_B_a.gif","middle","","","","",""
"","null","html-keyboard-response","192","575696","0.0-38.0-0.2","SS1613079862584","","","null","","","","","<p><img src= images/blank.png width =""200"" height = ""200"" style = ""float:right""></p><p><img src=images/blank.png width =""800"" height = ""200""></p>","","","","","","","","","","","",""
"","1280","sequential-stimulus-presentation","193","577798","0.0-38.0-1.2","SS1613079862584","trial","","40","800","2080","images/stimuli/spore_stims/simple_14_A_d.gif","images/stimuli/spore_stims/simple_13_B_a.gif","","","","","10","simple_dissimilar","images/stimuli/spore_stims/simple_14_A_d.gif","left","","","","",""
"","null","html-keyboard-response","194","579033","0.0-38.0-0.3","SS1613079862584","","","null","","","","","<p><img src= images/blank.png width =""200"" height = ""200"" style = ""float:right""></p><p><img src=images/blank.png width =""800"" height = ""200""></p>","","","","","","","","","","","",""
"","634","sequential-stimulus-presentation","195","580476","0.0-38.0-1.3","SS1613079862584","trial","","40","800","1434","images/stimuli/spore_stims/simple_14_A_d.gif","images/stimuli/spore_stims/simple_13_B_a.gif","","","","","10","simple_dissimilar","images/stimuli/spore_stims/simple_13_B_a.gif","middle","","","","",""
"","null","html-keyboard-response","196","581332","0.0-38.0-0.4","SS1613079862584","","","null","","","","","<p><img src= images/blank.png width =""200"" height = ""200"" style = ""float:right""></p><p><img src=images/blank.png width =""800"" height = ""200""></p>","","","","","","","","","","","",""
"","1025","sequential-stimulus-presentation","197","583180","0.0-38.0-1.4","SS1613079862584","trial","","40","800","1825","images/stimuli/spore_stims/simple_14_A_d.gif","images/stimuli/spore_stims/simple_13_B_a.gif","","","","","10","simple_dissimilar","images/stimuli/spore_stims/simple_13_B_a.gif","middle","","","","",""
"","null","html-keyboard-response","198","584473","0.0-38.0-0.5","SS1613079862584","","","null","","","","","<p><img src= images/blank.png width =""200"" height = ""200"" style = ""float:right""></p><p><img src=images/blank.png width =""800"" height = ""200""></p>","","","","","","","","","","","",""
"","527","sequential-stimulus-presentation","199","585826","0.0-38.0-1.5","SS1613079862584","trial","","40","800","1327","images/stimuli/spore_stims/simple_14_A_d.gif","images/stimuli/spore_stims/simple_13_B_a.gif","","","","","10","simple_dissimilar","images/stimuli/spore_stims/simple_13_B_a.gif","middle","","","","",""
"","null","html-keyboard-response","200","586759","0.0-38.0-0.6","SS1613079862584","","","null","","","","","<p><img src= images/blank.png width =""200"" height = ""200"" style = ""float:right""></p><p><img src=images/blank.png width =""800"" height = ""200""></p>","","","","","","","","","","","",""
"","1152","sequential-stimulus-presentation","201","588744","0.0-38.0-1.6","SS1613079862584","trial","","40","800","1952","images/stimuli/spore_stims/simple_14_A_d.gif","images/stimuli/spore_stims/simple_13_B_a.gif","","","","","10","simple_dissimilar","images/stimuli/spore_stims/simple_13_B_a.gif","middle","","","","",""
"","null","html-keyboard-response","202","589796","0.0-38.0-0.7","SS1613079862584","","","null","","","","","<p><img src= images/blank.png width =""200"" height = ""200"" style = ""float:right""></p><p><img src=images/blank.png width =""800"" height = ""200""></p>","","","","","","","","","","","",""
"","625","sequential-stimulus-presentation","203","591243","0.0-38.0-1.7","SS1613079862584","trial","","40","800","1425","images/stimuli/spore_stims/simple_14_A_d.gif","images/stimuli/spore_stims/simple_13_B_a.gif","","","","","10","simple_dissimilar","images/stimuli/spore_stims/simple_13_B_a.gif","middle","","","","",""
"","1490","html-keyboard-response","204","592747","0.0-39.0","SS1613079862584","pref_question","","51","","","","","<video width ='960' height = '540' style='padding-top:8%' autoplay muted><source src='images/stimuli/wall_pref.mp4' type='video/mp4'></video>","3","right","66%","10","","","","","","","",""
"","1450","sequential-stimulus-presentation","205","595016","0.0-40.0","SS1613079862584","pref_reveal","","40","800","2250","null","null","","","","","10","","","","novel","","","",""
"","null","html-keyboard-response","206","596292","0.0-41.0-0.0","SS1613079862584","","","null","","","","","<p><img src= images/blank.png width =""200"" height = ""200"" style = ""float:right""></p><p><img src=images/blank.png width =""800"" height = ""200""></p>","","","","","","","","","","","",""
"","1740","sequential-stimulus-presentation","207","598847","0.0-41.0-1.0","SS1613079862584","trial","","40","800","2540","images/stimuli/spore_stims/complex_12_A_d.gif","images/stimuli/spore_stims/complex_12_B_d.gif","","","","","11","complex_similar","images/stimuli/spore_stims/complex_12_B_d.gif","middle","","","","",""
"","null","html-keyboard-response","208","599847","0.0-41.0-0.1","SS1613079862584","","","null","","","","","<p><img src= images/blank.png width =""200"" height = ""200"" style = ""float:right""></p><p><img src=images/blank.png width =""800"" height = ""200""></p>","","","","","","","","","","","",""
"","795","sequential-stimulus-presentation","209","601481","0.0-41.0-1.1","SS1613079862584","trial","","40","800","1595","images/stimuli/spore_stims/complex_12_A_d.gif","images/stimuli/spore_stims/complex_12_B_d.gif","","","","","11","complex_similar","images/stimuli/spore_stims/complex_12_B_d.gif","middle","","","","",""
"","null","html-keyboard-response","210","602321","0.0-41.0-0.2","SS1613079862584","","","null","","","","","<p><img src= images/blank.png width =""200"" height = ""200"" style = ""float:right""></p><p><img src=images/blank.png width =""800"" height = ""200""></p>","","","","","","","","","","","",""
"","770","sequential-stimulus-presentation","211","603916","0.0-41.0-1.2","SS1613079862584","trial","","40","800","1570","images/stimuli/spore_stims/complex_12_A_d.gif","images/stimuli/spore_stims/complex_12_B_d.gif","","","","","11","complex_similar","images/stimuli/spore_stims/complex_12_B_d.gif","middle","","","","",""
"","null","html-keyboard-response","212","605110","0.0-41.0-0.3","SS1613079862584","","","null","","","","","<p><img src= images/blank.png width =""200"" height = ""200"" style = ""float:right""></p><p><img src=images/blank.png width =""800"" height = ""200""></p>","","","","","","","","","","","",""
"","407","sequential-stimulus-presentation","213","606326","0.0-41.0-1.3","SS1613079862584","trial","","40","800","1207","images/stimuli/spore_stims/complex_12_A_d.gif","images/stimuli/spore_stims/complex_12_B_d.gif","","","","","11","complex_similar","images/stimuli/spore_stims/complex_12_B_d.gif","middle","","","","",""
"","null","html-keyboard-response","214","607395","0.0-41.0-0.4","SS1613079862584","","","null","","","","","<p><img src= images/blank.png width =""200"" height = ""200"" style = ""float:right""></p><p><img src=images/blank.png width =""800"" height = ""200""></p>","","","","","","","","","","","",""
"","343","sequential-stimulus-presentation","215","608596","0.0-41.0-1.4","SS1613079862584","trial","","40","800","1143","images/stimuli/spore_stims/complex_12_A_d.gif","images/stimuli/spore_stims/complex_12_B_d.gif","","","","","11","complex_similar","images/stimuli/spore_stims/complex_12_B_d.gif","middle","","","","",""
"","null","html-keyboard-response","216","609775","0.0-41.0-0.5","SS1613079862584","","","null","","","","","<p><img src= images/blank.png width =""200"" height = ""200"" style = ""float:right""></p><p><img src=images/blank.png width =""800"" height = ""200""></p>","","","","","","","","","","","",""
"","368","sequential-stimulus-presentation","217","610972","0.0-41.0-1.5","SS1613079862584","trial","","40","800","1168","images/stimuli/spore_stims/complex_12_A_d.gif","images/stimuli/spore_stims/complex_12_B_d.gif","","","","","11","complex_similar","images/stimuli/spore_stims/complex_12_B_d.gif","middle","","","","",""
"","null","html-keyboard-response","218","612294","0.0-41.0-0.6","SS1613079862584","","","null","","","","","<p><img src= images/blank.png width =""200"" height = ""200"" style = ""float:right""></p><p><img src=images/blank.png width =""800"" height = ""200""></p>","","","","","","","","","","","",""
"","376","sequential-stimulus-presentation","219","613502","0.0-41.0-1.6","SS1613079862584","trial","","40","800","1176","images/stimuli/spore_stims/complex_12_A_d.gif","images/stimuli/spore_stims/complex_12_B_d.gif","","","","","11","complex_similar","images/stimuli/spore_stims/complex_12_B_d.gif","middle","","","","",""
"","null","html-keyboard-response","220","614587","0.0-41.0-0.7","SS1613079862584","","","null","","","","","<p><img src= images/blank.png width =""200"" height = ""200"" style = ""float:right""></p><p><img src=images/blank.png width =""800"" height = ""200""></p>","","","","","","","","","","","",""
"","1755","sequential-stimulus-presentation","221","617164","0.0-41.0-1.7","SS1613079862584","trial","","40","800","2555","images/stimuli/spore_stims/complex_12_A_d.gif","images/stimuli/spore_stims/complex_12_B_d.gif","","","","","11","complex_similar","images/stimuli/spore_stims/complex_12_A_d.gif","left","","","","",""
"","1787","html-keyboard-response","222","618960","0.0-42.0","SS1613079862584","pref_question","","51","","","","","<video width ='960' height = '540' style='padding-top:8%' autoplay muted><source src='images/stimuli/wall_pref.mp4' type='video/mp4'></video>","3","right","66%","11","","","","","","","",""
"","1441","sequential-stimulus-presentation","223","621225","0.0-43.0","SS1613079862584","pref_reveal","","40","800","2241","null","null","","","","","11","","","","novel","","","",""
"","null","html-keyboard-response","224","622180","0.0-44.0-0.0","SS1613079862584","","","null","","","","","<p><img src= images/blank.png width =""200"" height = ""200"" style = ""float:right""></p><p><img src=images/blank.png width =""800"" height = ""200""></p>","","","","","","","","","","","",""
"","1225","sequential-stimulus-presentation","225","624216","0.0-44.0-1.0","SS1613079862584","trial","","40","800","2025","images/stimuli/spore_stims/simple_05_A_b.gif","images/stimuli/spore_stims/simple_05_B_b.gif","","","","","12","simple_similar","images/stimuli/spore_stims/simple_05_B_b.gif","left","","","","",""
"","null","html-keyboard-response","226","625352","0.0-44.0-0.1","SS1613079862584","","","null","","","","","<p><img src= images/blank.png width =""200"" height = ""200"" style = ""float:right""></p><p><img src=images/blank.png width =""800"" height = ""200""></p>","","","","","","","","","","","",""
"","582","sequential-stimulus-presentation","227","626757","0.0-44.0-1.1","SS1613079862584","trial","","40","800","1382","images/stimuli/spore_stims/simple_05_A_b.gif","images/stimuli/spore_stims/simple_05_B_b.gif","","","","","12","simple_similar","images/stimuli/spore_stims/simple_05_B_b.gif","left","","","","",""
"","null","html-keyboard-response","228","627871","0.0-44.0-0.2","SS1613079862584","","","null","","","","","<p><img src= images/blank.png width =""200"" height = ""200"" style = ""float:right""></p><p><img src=images/blank.png width =""800"" height = ""200""></p>","","","","","","","","","","","",""
"","1314","sequential-stimulus-presentation","229","630008","0.0-44.0-1.2","SS1613079862584","trial","","40","800","2114","images/stimuli/spore_stims/simple_05_A_b.gif","images/stimuli/spore_stims/simple_05_B_b.gif","","","","","12","simple_similar","images/stimuli/spore_stims/simple_05_A_b.gif","middle","","","","",""
"","null","html-keyboard-response","230","631155","0.0-44.0-0.3","SS1613079862584","","","null","","","","","<p><img src= images/blank.png width =""200"" height = ""200"" style = ""float:right""></p><p><img src=images/blank.png width =""800"" height = ""200""></p>","","","","","","","","","","","",""
"","798","sequential-stimulus-presentation","231","632775","0.0-44.0-1.3","SS1613079862584","trial","","40","800","1598","images/stimuli/spore_stims/simple_05_A_b.gif","images/stimuli/spore_stims/simple_05_B_b.gif","","","","","12","simple_similar","images/stimuli/spore_stims/simple_05_B_b.gif","left","","","","",""
"","null","html-keyboard-response","232","634078","0.0-44.0-0.4","SS1613079862584","","","null","","","","","<p><img src= images/blank.png width =""200"" height = ""200"" style = ""float:right""></p><p><img src=images/blank.png width =""800"" height = ""200""></p>","","","","","","","","","","","",""
"","456","sequential-stimulus-presentation","233","635346","0.0-44.0-1.4","SS1613079862584","trial","","40","800","1256","images/stimuli/spore_stims/simple_05_A_b.gif","images/stimuli/spore_stims/simple_05_B_b.gif","","","","","12","simple_similar","images/stimuli/spore_stims/simple_05_B_b.gif","left","","","","",""
"","null","html-keyboard-response","234","636240","0.0-44.0-0.5","SS1613079862584","","","null","","","","","<p><img src= images/blank.png width =""200"" height = ""200"" style = ""float:right""></p><p><img src=images/blank.png width =""800"" height = ""200""></p>","","","","","","","","","","","",""
"","653","sequential-stimulus-presentation","235","637766","0.0-44.0-1.5","SS1613079862584","trial","","40","800","1453","images/stimuli/spore_stims/simple_05_A_b.gif","images/stimuli/spore_stims/simple_05_B_b.gif","","","","","12","simple_similar","images/stimuli/spore_stims/simple_05_B_b.gif","left","","","","",""
"","null","html-keyboard-response","236","638803","0.0-44.0-0.6","SS1613079862584","","","null","","","","","<p><img src= images/blank.png width =""200"" height = ""200"" style = ""float:right""></p><p><img src=images/blank.png width =""800"" height = ""200""></p>","","","","","","","","","","","",""
"","902","sequential-stimulus-presentation","237","640529","0.0-44.0-1.6","SS1613079862584","trial","","40","800","1702","images/stimuli/spore_stims/simple_05_A_b.gif","images/stimuli/spore_stims/simple_05_B_b.gif","","","","","12","simple_similar","images/stimuli/spore_stims/simple_05_B_b.gif","left","","","","",""
"","null","html-keyboard-response","238","641458","0.0-44.0-0.7","SS1613079862584","","","null","","","","","<p><img src= images/blank.png width =""200"" height = ""200"" style = ""float:right""></p><p><img src=images/blank.png width =""800"" height = ""200""></p>","","","","","","","","","","","",""
"","706","sequential-stimulus-presentation","239","643010","0.0-44.0-1.7","SS1613079862584","trial","","40","800","1506","images/stimuli/spore_stims/simple_05_A_b.gif","images/stimuli/spore_stims/simple_05_B_b.gif","","","","","12","simple_similar","images/stimuli/spore_stims/simple_05_B_b.gif","left","","","","",""
"","1850","html-keyboard-response","240","644870","0.0-45.0","SS1613079862584","pref_question","","51","","","","","<video width ='960' height = '540' style='padding-top:8%' autoplay muted><source src='images/stimuli/wall_pref.mp4' type='video/mp4'></video>","3","right","66%","12","","","","","","","",""
"","1247","sequential-stimulus-presentation","241","646945","0.0-46.0","SS1613079862584","pref_reveal","","40","800","2047","null","null","","","","","12","","","","novel","","","",""
"","null","html-keyboard-response","242","648259","0.0-47.0-0.0","SS1613079862584","","","null","","","","","<p><img src= images/blank.png width =""200"" height = ""200"" style = ""float:right""></p><p><img src=images/blank.png width =""800"" height = ""200""></p>","","","","","","","","","","","",""
"","1206","sequential-stimulus-presentation","243","650292","0.0-47.0-1.0","SS1613079862584","trial","","40","800","2006","images/stimuli/spore_stims/simple_03_A_b.gif","images/stimuli/spore_stims/simple_03_B_b.gif","","","","","13","simple_similar","images/stimuli/spore_stims/simple_03_B_b.gif","middle","","","","",""
"","null","html-keyboard-response","244","651589","0.0-47.0-0.1","SS1613079862584","","","null","","","","","<p><img src= images/blank.png width =""200"" height = ""200"" style = ""float:right""></p><p><img src=images/blank.png width =""800"" height = ""200""></p>","","","","","","","","","","","",""
"","410","sequential-stimulus-presentation","245","652827","0.0-47.0-1.1","SS1613079862584","trial","","40","800","1210","images/stimuli/spore_stims/simple_03_A_b.gif","images/stimuli/spore_stims/simple_03_B_b.gif","","","","","13","simple_similar","images/stimuli/spore_stims/simple_03_B_b.gif","middle","","","","",""
"","null","html-keyboard-response","246","653863","0.0-47.0-0.2","SS1613079862584","","","null","","","","","<p><img src= images/blank.png width =""200"" height = ""200"" style = ""float:right""></p><p><img src=images/blank.png width =""800"" height = ""200""></p>","","","","","","","","","","","",""
"","435","sequential-stimulus-presentation","247","655119","0.0-47.0-1.2","SS1613079862584","trial","","40","800","1235","images/stimuli/spore_stims/simple_03_A_b.gif","images/stimuli/spore_stims/simple_03_B_b.gif","","","","","13","simple_similar","images/stimuli/spore_stims/simple_03_B_b.gif","middle","","","","",""
"","null","html-keyboard-response","248","656077","0.0-47.0-0.3","SS1613079862584","","","null","","","","","<p><img src= images/blank.png width =""200"" height = ""200"" style = ""float:right""></p><p><img src=images/blank.png width =""800"" height = ""200""></p>","","","","","","","","","","","",""
"","471","sequential-stimulus-presentation","249","657395","0.0-47.0-1.3","SS1613079862584","trial","","40","800","1271","images/stimuli/spore_stims/simple_03_A_b.gif","images/stimuli/spore_stims/simple_03_B_b.gif","","","","","13","simple_similar","images/stimuli/spore_stims/simple_03_B_b.gif","middle","","","","",""
"","null","html-keyboard-response","250","658700","0.0-47.0-0.4","SS1613079862584","","","null","","","","","<p><img src= images/blank.png width =""200"" height = ""200"" style = ""float:right""></p><p><img src=images/blank.png width =""800"" height = ""200""></p>","","","","","","","","","","","",""
"","677","sequential-stimulus-presentation","251","660202","0.0-47.0-1.4","SS1613079862584","trial","","40","800","1477","images/stimuli/spore_stims/simple_03_A_b.gif","images/stimuli/spore_stims/simple_03_B_b.gif","","","","","13","simple_similar","images/stimuli/spore_stims/simple_03_A_b.gif","left","","","","",""
"","null","html-keyboard-response","252","661067","0.0-47.0-0.5","SS1613079862584","","","null","","","","","<p><img src= images/blank.png width =""200"" height = ""200"" style = ""float:right""></p><p><img src=images/blank.png width =""800"" height = ""200""></p>","","","","","","","","","","","",""
"","582","sequential-stimulus-presentation","253","662498","0.0-47.0-1.5","SS1613079862584","trial","","40","800","1382","images/stimuli/spore_stims/simple_03_A_b.gif","images/stimuli/spore_stims/simple_03_B_b.gif","","","","","13","simple_similar","images/stimuli/spore_stims/simple_03_B_b.gif","middle","","","","",""
"","null","html-keyboard-response","254","663580","0.0-47.0-0.6","SS1613079862584","","","null","","","","","<p><img src= images/blank.png width =""200"" height = ""200"" style = ""float:right""></p><p><img src=images/blank.png width =""800"" height = ""200""></p>","","","","","","","","","","","",""
"","454","sequential-stimulus-presentation","255","664870","0.0-47.0-1.6","SS1613079862584","trial","","40","800","1254","images/stimuli/spore_stims/simple_03_A_b.gif","images/stimuli/spore_stims/simple_03_B_b.gif","","","","","13","simple_similar","images/stimuli/spore_stims/simple_03_B_b.gif","middle","","","","",""
"","null","html-keyboard-response","256","665743","0.0-47.0-0.7","SS1613079862584","","","null","","","","","<p><img src= images/blank.png width =""200"" height = ""200"" style = ""float:right""></p><p><img src=images/blank.png width =""800"" height = ""200""></p>","","","","","","","","","","","",""
"","552","sequential-stimulus-presentation","257","667120","0.0-47.0-1.7","SS1613079862584","trial","","40","800","1352","images/stimuli/spore_stims/simple_03_A_b.gif","images/stimuli/spore_stims/simple_03_B_b.gif","","","","","13","simple_similar","images/stimuli/spore_stims/simple_03_B_b.gif","middle","","","","",""
"","1985","html-keyboard-response","258","669130","0.0-48.0","SS1613079862584","pref_question","","49","","","","","<video width ='960' height = '540' style='padding-top:8%' autoplay muted><source src='images/stimuli/wall_pref.mp4' type='video/mp4'></video>","1","left","25%","13","","","","","","","",""
"","751","sequential-stimulus-presentation","259","670694","0.0-49.0","SS1613079862584","pref_reveal","","40","800","1551","null","null","","","","","13","","","","deviant","","","",""
"","null","html-keyboard-response","260","671934","0.0-50.0-0.0","SS1613079862584","","","null","","","","","<p><img src= images/blank.png width =""200"" height = ""200"" style = ""float:right""></p><p><img src=images/blank.png width =""800"" height = ""200""></p>","","","","","","","","","","","",""
"","1510","sequential-stimulus-presentation","261","674273","0.0-50.0-1.0","SS1613079862584","trial","","40","800","2310","images/stimuli/spore_stims/complex_14_A_d.gif","images/stimuli/spore_stims/complex_14_B_d.gif","","","","","14","complex_similar","images/stimuli/spore_stims/complex_14_B_d.gif","left","","","","",""
"","null","html-keyboard-response","262","675490","0.0-50.0-0.1","SS1613079862584","","","null","","","","","<p><img src= images/blank.png width =""200"" height = ""200"" style = ""float:right""></p><p><img src=images/blank.png width =""800"" height = ""200""></p>","","","","","","","","","","","",""
"","1025","sequential-stimulus-presentation","263","677335","0.0-50.0-1.1","SS1613079862584","trial","","40","800","1825","images/stimuli/spore_stims/complex_14_A_d.gif","images/stimuli/spore_stims/complex_14_B_d.gif","","","","","14","complex_similar","images/stimuli/spore_stims/complex_14_B_d.gif","left","","","","",""
"","null","html-keyboard-response","264","678537","0.0-50.0-0.2","SS1613079862584","","","null","","","","","<p><img src= images/blank.png width =""200"" height = ""200"" style = ""float:right""></p><p><img src=images/blank.png width =""800"" height = ""200""></p>","","","","","","","","","","","",""
"","433","sequential-stimulus-presentation","265","679785","0.0-50.0-1.2","SS1613079862584","trial","","40","800","1233","images/stimuli/spore_stims/complex_14_A_d.gif","images/stimuli/spore_stims/complex_14_B_d.gif","","","","","14","complex_similar","images/stimuli/spore_stims/complex_14_B_d.gif","left","","","","",""
"","null","html-keyboard-response","266","680699","0.0-50.0-0.3","SS1613079862584","","","null","","","","","<p><img src= images/blank.png width =""200"" height = ""200"" style = ""float:right""></p><p><img src=images/blank.png width =""800"" height = ""200""></p>","","","","","","","","","","","",""
"","406","sequential-stimulus-presentation","267","681916","0.0-50.0-1.3","SS1613079862584","trial","","40","800","1206","images/stimuli/spore_stims/complex_14_A_d.gif","images/stimuli/spore_stims/complex_14_B_d.gif","","","","","14","complex_similar","images/stimuli/spore_stims/complex_14_B_d.gif","left","","","","",""
"","null","html-keyboard-response","268","682868","0.0-50.0-0.4","SS1613079862584","","","null","","","","","<p><img src= images/blank.png width =""200"" height = ""200"" style = ""float:right""></p><p><img src=images/blank.png width =""800"" height = ""200""></p>","","","","","","","","","","","",""
"","868","sequential-stimulus-presentation","269","684556","0.0-50.0-1.4","SS1613079862584","trial","","40","800","1668","images/stimuli/spore_stims/complex_14_A_d.gif","images/stimuli/spore_stims/complex_14_B_d.gif","","","","","14","complex_similar","images/stimuli/spore_stims/complex_14_A_d.gif","right","","","","",""
"","null","html-keyboard-response","270","685650","0.0-50.0-0.5","SS1613079862584","","","null","","","","","<p><img src= images/blank.png width =""200"" height = ""200"" style = ""float:right""></p><p><img src=images/blank.png width =""800"" height = ""200""></p>","","","","","","","","","","","",""
"","524","sequential-stimulus-presentation","271","686989","0.0-50.0-1.5","SS1613079862584","trial","","40","800","1324","images/stimuli/spore_stims/complex_14_A_d.gif","images/stimuli/spore_stims/complex_14_B_d.gif","","","","","14","complex_similar","images/stimuli/spore_stims/complex_14_B_d.gif","left","","","","",""
"","null","html-keyboard-response","272","688224","0.0-50.0-0.6","SS1613079862584","","","null","","","","","<p><img src= images/blank.png width =""200"" height = ""200"" style = ""float:right""></p><p><img src=images/blank.png width =""800"" height = ""200""></p>","","","","","","","","","","","",""
"","414","sequential-stimulus-presentation","273","689472","0.0-50.0-1.6","SS1613079862584","trial","","40","800","1214","images/stimuli/spore_stims/complex_14_A_d.gif","images/stimuli/spore_stims/complex_14_B_d.gif","","","","","14","complex_similar","images/stimuli/spore_stims/complex_14_B_d.gif","left","","","","",""
"","null","html-keyboard-response","274","690366","0.0-50.0-0.7","SS1613079862584","","","null","","","","","<p><img src= images/blank.png width =""200"" height = ""200"" style = ""float:right""></p><p><img src=images/blank.png width =""800"" height = ""200""></p>","","","","","","","","","","","",""
"","1130","sequential-stimulus-presentation","275","692311","0.0-50.0-1.7","SS1613079862584","trial","","40","800","1930","images/stimuli/spore_stims/complex_14_A_d.gif","images/stimuli/spore_stims/complex_14_B_d.gif","","","","","14","complex_similar","images/stimuli/spore_stims/complex_14_B_d.gif","left","","","","",""
"","1714","html-keyboard-response","276","694037","0.0-51.0","SS1613079862584","pref_question","","50","","","","","<video width ='960' height = '540' style='padding-top:8%' autoplay muted><source src='images/stimuli/wall_pref.mp4' type='video/mp4'></video>","2","middle","45%","14","","","","","","","",""
"","2026","sequential-stimulus-presentation","277","696887","0.0-52.0","SS1613079862584","pref_reveal","","40","800","2826","null","null","","","","","14","","","","novel","","","",""
"","null","html-keyboard-response","278","697959","0.0-53.0-0.0","SS1613079862584","","","null","","","","","<p><img src= images/blank.png width =""200"" height = ""200"" style = ""float:right""></p><p><img src=images/blank.png width =""800"" height = ""200""></p>","","","","","","","","","","","",""
"","1827","sequential-stimulus-presentation","279","700636","0.0-53.0-1.0","SS1613079862584","trial","","40","800","2627","images/stimuli/spore_stims/simple_10_B_c.gif","images/stimuli/spore_stims/simple_17_A_d.gif","","","","","15","simple_dissimilar","images/stimuli/spore_stims/simple_17_A_d.gif","left","","","","",""
"","null","html-keyboard-response","280","701949","0.0-53.0-0.1","SS1613079862584","","","null","","","","","<p><img src= images/blank.png width =""200"" height = ""200"" style = ""float:right""></p><p><img src=images/blank.png width =""800"" height = ""200""></p>","","","","","","","","","","","",""
"","1632","sequential-stimulus-presentation","281","704409","0.0-53.0-1.1","SS1613079862584","trial","","40","800","2432","images/stimuli/spore_stims/simple_10_B_c.gif","images/stimuli/spore_stims/simple_17_A_d.gif","","","","","15","simple_dissimilar","images/stimuli/spore_stims/simple_17_A_d.gif","left","","","","",""
"","null","html-keyboard-response","282","705435","0.0-53.0-0.2","SS1613079862584","","","null","","","","","<p><img src= images/blank.png width =""200"" height = ""200"" style = ""float:right""></p><p><img src=images/blank.png width =""800"" height = ""200""></p>","","","","","","","","","","","",""
"","725","sequential-stimulus-presentation","283","706988","0.0-53.0-1.2","SS1613079862584","trial","","40","800","1525","images/stimuli/spore_stims/simple_10_B_c.gif","images/stimuli/spore_stims/simple_17_A_d.gif","","","","","15","simple_dissimilar","images/stimuli/spore_stims/simple_17_A_d.gif","left","","","","",""
"","null","html-keyboard-response","284","708196","0.0-53.0-0.3","SS1613079862584","","","null","","","","","<p><img src= images/blank.png width =""200"" height = ""200"" style = ""float:right""></p><p><img src=images/blank.png width =""800"" height = ""200""></p>","","","","","","","","","","","",""
"","842","sequential-stimulus-presentation","285","709857","0.0-53.0-1.3","SS1613079862584","trial","","40","800","1642","images/stimuli/spore_stims/simple_10_B_c.gif","images/stimuli/spore_stims/simple_17_A_d.gif","","","","","15","simple_dissimilar","images/stimuli/spore_stims/simple_10_B_c.gif","middle","","","","",""
"","null","html-keyboard-response","286","711174","0.0-53.0-0.4","SS1613079862584","","","null","","","","","<p><img src= images/blank.png width =""200"" height = ""200"" style = ""float:right""></p><p><img src=images/blank.png width =""800"" height = ""200""></p>","","","","","","","","","","","",""
"","615","sequential-stimulus-presentation","287","712619","0.0-53.0-1.4","SS1613079862584","trial","","40","800","1415","images/stimuli/spore_stims/simple_10_B_c.gif","images/stimuli/spore_stims/simple_17_A_d.gif","","","","","15","simple_dissimilar","images/stimuli/spore_stims/simple_17_A_d.gif","left","","","","",""
"","null","html-keyboard-response","288","713828","0.0-53.0-0.5","SS1613079862584","","","null","","","","","<p><img src= images/blank.png width =""200"" height = ""200"" style = ""float:right""></p><p><img src=images/blank.png width =""800"" height = ""200""></p>","","","","","","","","","","","",""
"","652","sequential-stimulus-presentation","289","715304","0.0-53.0-1.5","SS1613079862584","trial","","40","800","1452","images/stimuli/spore_stims/simple_10_B_c.gif","images/stimuli/spore_stims/simple_17_A_d.gif","","","","","15","simple_dissimilar","images/stimuli/spore_stims/simple_17_A_d.gif","left","","","","",""
"","null","html-keyboard-response","290","716537","0.0-53.0-0.6","SS1613079862584","","","null","","","","","<p><img src= images/blank.png width =""200"" height = ""200"" style = ""float:right""></p><p><img src=images/blank.png width =""800"" height = ""200""></p>","","","","","","","","","","","",""
"","506","sequential-stimulus-presentation","291","717913","0.0-53.0-1.6","SS1613079862584","trial","","40","800","1306","images/stimuli/spore_stims/simple_10_B_c.gif","images/stimuli/spore_stims/simple_17_A_d.gif","","","","","15","simple_dissimilar","images/stimuli/spore_stims/simple_17_A_d.gif","left","","","","",""
"","null","html-keyboard-response","292","718822","0.0-53.0-0.7","SS1613079862584","","","null","","","","","<p><img src= images/blank.png width =""200"" height = ""200"" style = ""float:right""></p><p><img src=images/blank.png width =""800"" height = ""200""></p>","","","","","","","","","","","",""
"","416","sequential-stimulus-presentation","293","720061","0.0-53.0-1.7","SS1613079862584","trial","","40","800","1216","images/stimuli/spore_stims/simple_10_B_c.gif","images/stimuli/spore_stims/simple_17_A_d.gif","","","","","15","simple_dissimilar","images/stimuli/spore_stims/simple_17_A_d.gif","left","","","","",""
"","1607","html-keyboard-response","294","721679","0.0-54.0","SS1613079862584","pref_question","","51","","","","","<video width ='960' height = '540' style='padding-top:8%' autoplay muted><source src='images/stimuli/wall_pref.mp4' type='video/mp4'></video>","3","right","66%","15","","","","","","","",""
"","1451","sequential-stimulus-presentation","295","723957","0.0-55.0","SS1613079862584","pref_reveal","","40","800","2251","null","null","","","","","15","","","","novel","","","",""
"","null","html-keyboard-response","296","724901","0.0-56.0-0.0","SS1613079862584","","","null","","","","","<p><img src= images/blank.png width =""200"" height = ""200"" style = ""float:right""></p><p><img src=images/blank.png width =""800"" height = ""200""></p>","","","","","","","","","","","",""
"","1556","sequential-stimulus-presentation","297","727282","0.0-56.0-1.0","SS1613079862584","trial","","40","800","2356","images/stimuli/spore_stims/simple_16_B_a.gif","images/stimuli/spore_stims/simple_16_A_a.gif","","","","","16","simple_similar","images/stimuli/spore_stims/simple_16_A_a.gif","left","","","","",""
"","null","html-keyboard-response","298","728471","0.0-56.0-0.1","SS1613079862584","","","null","","","","","<p><img src= images/blank.png width =""200"" height = ""200"" style = ""float:right""></p><p><img src=images/blank.png width =""800"" height = ""200""></p>","","","","","","","","","","","",""
"","332","sequential-stimulus-presentation","299","729634","0.0-56.0-1.1","SS1613079862584","trial","","40","800","1132","images/stimuli/spore_stims/simple_16_B_a.gif","images/stimuli/spore_stims/simple_16_A_a.gif","","","","","16","simple_similar","images/stimuli/spore_stims/simple_16_A_a.gif","left","","","","",""
"","null","html-keyboard-response","300","730704","0.0-56.0-0.2","SS1613079862584","","","null","","","","","<p><img src= images/blank.png width =""200"" height = ""200"" style = ""float:right""></p><p><img src=images/blank.png width =""800"" height = ""200""></p>","","","","","","","","","","","",""
"","534","sequential-stimulus-presentation","301","732071","0.0-56.0-1.2","SS1613079862584","trial","","40","800","1334","images/stimuli/spore_stims/simple_16_B_a.gif","images/stimuli/spore_stims/simple_16_A_a.gif","","","","","16","simple_similar","images/stimuli/spore_stims/simple_16_A_a.gif","left","","","","",""
"","null","html-keyboard-response","302","733225","0.0-56.0-0.3","SS1613079862584","","","null","","","","","<p><img src= images/blank.png width =""200"" height = ""200"" style = ""float:right""></p><p><img src=images/blank.png width =""800"" height = ""200""></p>","","","","","","","","","","","",""
"","1913","sequential-stimulus-presentation","303","735950","0.0-56.0-1.3","SS1613079862584","trial","","40","800","2713","images/stimuli/spore_stims/simple_16_B_a.gif","images/stimuli/spore_stims/simple_16_A_a.gif","","","","","16","simple_similar","images/stimuli/spore_stims/simple_16_A_a.gif","left","","","","",""
"","null","html-keyboard-response","304","736774","0.0-56.0-0.4","SS1613079862584","","","null","","","","","<p><img src= images/blank.png width =""200"" height = ""200"" style = ""float:right""></p><p><img src=images/blank.png width =""800"" height = ""200""></p>","","","","","","","","","","","",""
"","363","sequential-stimulus-presentation","305","737965","0.0-56.0-1.4","SS1613079862584","trial","","40","800","1163","images/stimuli/spore_stims/simple_16_B_a.gif","images/stimuli/spore_stims/simple_16_A_a.gif","","","","","16","simple_similar","images/stimuli/spore_stims/simple_16_A_a.gif","left","","","","",""
"","null","html-keyboard-response","306","739126","0.0-56.0-0.5","SS1613079862584","","","null","","","","","<p><img src= images/blank.png width =""200"" height = ""200"" style = ""float:right""></p><p><img src=images/blank.png width =""800"" height = ""200""></p>","","","","","","","","","","","",""
"","505","sequential-stimulus-presentation","307","740459","0.0-56.0-1.5","SS1613079862584","trial","","40","800","1305","images/stimuli/spore_stims/simple_16_B_a.gif","images/stimuli/spore_stims/simple_16_A_a.gif","","","","","16","simple_similar","images/stimuli/spore_stims/simple_16_A_a.gif","left","","","","",""
"","null","html-keyboard-response","308","741761","0.0-56.0-0.6","SS1613079862584","","","null","","","","","<p><img src= images/blank.png width =""200"" height = ""200"" style = ""float:right""></p><p><img src=images/blank.png width =""800"" height = ""200""></p>","","","","","","","","","","","",""
"","1549","sequential-stimulus-presentation","309","744134","0.0-56.0-1.6","SS1613079862584","trial","","40","800","2349","images/stimuli/spore_stims/simple_16_B_a.gif","images/stimuli/spore_stims/simple_16_A_a.gif","","","","","16","simple_similar","images/stimuli/spore_stims/simple_16_B_a.gif","middle","","","","",""
"","null","html-keyboard-response","310","745011","0.0-56.0-0.7","SS1613079862584","","","null","","","","","<p><img src= images/blank.png width =""200"" height = ""200"" style = ""float:right""></p><p><img src=images/blank.png width =""800"" height = ""200""></p>","","","","","","","","","","","",""
"","614","sequential-stimulus-presentation","311","746453","0.0-56.0-1.7","SS1613079862584","trial","","40","800","1414","images/stimuli/spore_stims/simple_16_B_a.gif","images/stimuli/spore_stims/simple_16_A_a.gif","","","","","16","simple_similar","images/stimuli/spore_stims/simple_16_A_a.gif","left","","","","",""
"","2016","html-keyboard-response","312","748484","0.0-57.0","SS1613079862584","pref_question","","51","","","","","<video width ='960' height = '540' style='padding-top:8%' autoplay muted><source src='images/stimuli/wall_pref.mp4' type='video/mp4'></video>","3","right","66%","16","","","","","","","",""
"","1756","sequential-stimulus-presentation","313","751070","0.0-58.0","SS1613079862584","pref_reveal","","40","800","2556","null","null","","","","","16","","","","novel","","","",""
"","null","html-keyboard-response","314","752361","0.0-59.0-0.0","SS1613079862584","","","null","","","","","<p><img src= images/blank.png width =""200"" height = ""200"" style = ""float:right""></p><p><img src=images/blank.png width =""800"" height = ""200""></p>","","","","","","","","","","","",""
"","896","sequential-stimulus-presentation","315","754076","0.0-59.0-1.0","SS1613079862584","trial","","40","800","1696","images/stimuli/spore_stims/simple_09_B_a.gif","images/stimuli/spore_stims/simple_10_A_b.gif","","","","","17","simple_dissimilar","images/stimuli/spore_stims/simple_10_A_b.gif","left","","","","",""
"","null","html-keyboard-response","316","755381","0.0-59.0-0.1","SS1613079862584","","","null","","","","","<p><img src= images/blank.png width =""200"" height = ""200"" style = ""float:right""></p><p><img src=images/blank.png width =""800"" height = ""200""></p>","","","","","","","","","","","",""
"","724","sequential-stimulus-presentation","317","756931","0.0-59.0-1.1","SS1613079862584","trial","","40","800","1524","images/stimuli/spore_stims/simple_09_B_a.gif","images/stimuli/spore_stims/simple_10_A_b.gif","","","","","17","simple_dissimilar","images/stimuli/spore_stims/simple_10_A_b.gif","left","","","","",""
"","null","html-keyboard-response","318","757844","0.0-59.0-0.2","SS1613079862584","","","null","","","","","<p><img src= images/blank.png width =""200"" height = ""200"" style = ""float:right""></p><p><img src=images/blank.png width =""800"" height = ""200""></p>","","","","","","","","","","","",""
"","1100","sequential-stimulus-presentation","319","759768","0.0-59.0-1.2","SS1613079862584","trial","","40","800","1900","images/stimuli/spore_stims/simple_09_B_a.gif","images/stimuli/spore_stims/simple_10_A_b.gif","","","","","17","simple_dissimilar","images/stimuli/spore_stims/simple_10_A_b.gif","left","","","","",""
"","null","html-keyboard-response","320","760598","0.0-59.0-0.3","SS1613079862584","","","null","","","","","<p><img src= images/blank.png width =""200"" height = ""200"" style = ""float:right""></p><p><img src=images/blank.png width =""800"" height = ""200""></p>","","","","","","","","","","","",""
"","337","sequential-stimulus-presentation","321","761767","0.0-59.0-1.3","SS1613079862584","trial","","40","800","1137","images/stimuli/spore_stims/simple_09_B_a.gif","images/stimuli/spore_stims/simple_10_A_b.gif","","","","","17","simple_dissimilar","images/stimuli/spore_stims/simple_10_A_b.gif","left","","","","",""
"","null","html-keyboard-response","322","762825","0.0-59.0-0.4","SS1613079862584","","","null","","","","","<p><img src= images/blank.png width =""200"" height = ""200"" style = ""float:right""></p><p><img src=images/blank.png width =""800"" height = ""200""></p>","","","","","","","","","","","",""
"","377","sequential-stimulus-presentation","323","764029","0.0-59.0-1.4","SS1613079862584","trial","","40","800","1177","images/stimuli/spore_stims/simple_09_B_a.gif","images/stimuli/spore_stims/simple_10_A_b.gif","","","","","17","simple_dissimilar","images/stimuli/spore_stims/simple_10_A_b.gif","left","","","","",""
"","null","html-keyboard-response","324","765097","0.0-59.0-0.5","SS1613079862584","","","null","","","","","<p><img src= images/blank.png width =""200"" height = ""200"" style = ""float:right""></p><p><img src=images/blank.png width =""800"" height = ""200""></p>","","","","","","","","","","","",""
"","583","sequential-stimulus-presentation","325","766502","0.0-59.0-1.5","SS1613079862584","trial","","40","800","1383","images/stimuli/spore_stims/simple_09_B_a.gif","images/stimuli/spore_stims/simple_10_A_b.gif","","","","","17","simple_dissimilar","images/stimuli/spore_stims/simple_10_A_b.gif","left","","","","",""
"","null","html-keyboard-response","326","767782","0.0-59.0-0.6","SS1613079862584","","","null","","","","","<p><img src= images/blank.png width =""200"" height = ""200"" style = ""float:right""></p><p><img src=images/blank.png width =""800"" height = ""200""></p>","","","","","","","","","","","",""
"","5674","sequential-stimulus-presentation","327","776407","0.0-59.0-1.6","SS1613079862584","trial","","40","800","6474","images/stimuli/spore_stims/simple_09_B_a.gif","images/stimuli/spore_stims/simple_10_A_b.gif","","","","","17","simple_dissimilar","images/stimuli/spore_stims/simple_09_B_a.gif","middle","","","","",""
