"view_history","rt","trial_type","trial_index","time_elapsed","internal_node_id","subject","stimulus_type","trial_stimulus","key_press","minimum_viewing_duration","trial_looking_time","block_deviant","block_background","stimulus","wall_pref","location","location_percent","block_number","block_type","stimulus_displayed","position_displayed","stim_type_selected","responses","question_order","stimulus_left","stimulus_right"
"[{""page_index"":0,""viewing_time"":9550.2400000114}]","9551.60999999498","instructions","0","9554","0.0-0.0","SS1613081429451","","","","","","","","","","","","","","","","","","","",""
"[{""page_index"":0,""viewing_time"":8631.189999985509},{""page_index"":1,""viewing_time"":11068.87500002631}]","19700.524999992922","instructions","1","31269","0.0-1.0","SS1613081429451","instructions","","","","","","","","","","","","","","","","","","",""
"","9991.665000008652","sequential-stimulus-presentation","2","42076","0.0-2.0","SS1613081429451","","","40","800","10791.665000008652","null","null","","","","","","","","","","","","",""
"","5840.104999981122","sequential-stimulus-presentation","3","48727","0.0-3.0","SS1613081429451","","","40","800","6640.104999981122","null","null","","","","","","","","","","","","",""
"[{""page_index"":0,""viewing_time"":3187.2049999947194}]","3187.6000000047497","instructions","4","51916","0.0-4.0","SS1613081429451","instructions","","","","","","","","","","","","","","","","","","",""
"","10140.660000004573","html-keyboard-response","5","62062","0.0-5.0","SS1613081429451","instructions","","49","","","","","<video width ='960' height = '540' autoplay muted><source src='images/stimuli/wall_pref.mp4' type='video/mp4'></video>","1","left","25%","","","","","","","","",""
"","1875.0199999776669","sequential-stimulus-presentation","6","64747","0.0-6.0","SS1613081429451","pref_reveal","","40","800","2675.019999977667","null","null","","","","","","","","","","","","",""
"[{""page_index"":0,""viewing_time"":55590.3849999886},{""page_index"":1,""viewing_time"":15250.640000012936},{""page_index"":2,""viewing_time"":1456.1849999881815},{""page_index"":3,""viewing_time"":1913.5999999998603}]","74211.32499998203","instructions","7","138960","0.0-7.0","SS1613081429451","instructions","","","","","","","","","","","","","","","","","","",""
"","null","html-keyboard-response","8","139899","0.0-8.0-0.0","SS1613081429451","","","null","","","","","<p><img src= images/blank.png width =""200"" height = ""200"" style = ""float:right""></p><p><img src=images/blank.png width =""800"" height = ""200""></p>","","","","","","","","","","","",""
"","5451.525000011316","sequential-stimulus-presentation","9","146163","0.0-8.0-1.0","SS1613081429451","trial","","40","800","6251.525000011316","images/stimuli/spore_stims/simple_16_B_a.gif","images/stimuli/spore_stims/simple_20_B_d.gif","","","","","0","simple_dissimilar","images/stimuli/spore_stims/simple_20_B_d.gif","middle","","","","",""
"","null","html-keyboard-response","10","147415","0.0-8.0-0.1","SS1613081429451","","","null","","","","","<p><img src= images/blank.png width =""200"" height = ""200"" style = ""float:right""></p><p><img src=images/blank.png width =""800"" height = ""200""></p>","","","","","","","","","","","",""
"","1761.3499999861233","sequential-stimulus-presentation","11","149987","0.0-8.0-1.1","SS1613081429451","trial","","40","800","2561.3499999861233","images/stimuli/spore_stims/simple_16_B_a.gif","images/stimuli/spore_stims/simple_20_B_d.gif","","","","","0","simple_dissimilar","images/stimuli/spore_stims/simple_20_B_d.gif","middle","","","","",""
"","null","html-keyboard-response","12","151000","0.0-8.0-0.2","SS1613081429451","","","null","","","","","<p><img src= images/blank.png width =""200"" height = ""200"" style = ""float:right""></p><p><img src=images/blank.png width =""800"" height = ""200""></p>","","","","","","","","","","","",""
"","4973.745000024792","sequential-stimulus-presentation","13","156792","0.0-8.0-1.2","SS1613081429451","trial","","40","800","5773.745000024792","images/stimuli/spore_stims/simple_16_B_a.gif","images/stimuli/spore_stims/simple_20_B_d.gif","","","","","0","simple_dissimilar","images/stimuli/spore_stims/simple_16_B_a.gif","left","","","","",""
"","null","html-keyboard-response","14","157928","0.0-8.0-0.3","SS1613081429451","","","null","","","","","<p><img src= images/blank.png width =""200"" height = ""200"" style = ""float:right""></p><p><img src=images/blank.png width =""800"" height = ""200""></p>","","","","","","","","","","","",""
"","1915.8100000058766","sequential-stimulus-presentation","15","160659","0.0-8.0-1.3","SS1613081429451","trial","","40","800","2715.8100000058766","images/stimuli/spore_stims/simple_16_B_a.gif","images/stimuli/spore_stims/simple_20_B_d.gif","","","","","0","simple_dissimilar","images/stimuli/spore_stims/simple_20_B_d.gif","middle","","","","",""
"","null","html-keyboard-response","16","161903","0.0-8.0-0.4","SS1613081429451","","","null","","","","","<p><img src= images/blank.png width =""200"" height = ""200"" style = ""float:right""></p><p><img src=images/blank.png width =""800"" height = ""200""></p>","","","","","","","","","","","",""
"","1612.0600000140257","sequential-stimulus-presentation","17","164327","0.0-8.0-1.4","SS1613081429451","trial","","40","800","2412.0600000140257","images/stimuli/spore_stims/simple_16_B_a.gif","images/stimuli/spore_stims/simple_20_B_d.gif","","","","","0","simple_dissimilar","images/stimuli/spore_stims/simple_20_B_d.gif","middle","","","","",""
"","null","html-keyboard-response","18","165435","0.0-8.0-0.5","SS1613081429451","","","null","","","","","<p><img src= images/blank.png width =""200"" height = ""200"" style = ""float:right""></p><p><img src=images/blank.png width =""800"" height = ""200""></p>","","","","","","","","","","","",""
"","1183.88500000583","sequential-stimulus-presentation","19","167438","0.0-8.0-1.5","SS1613081429451","trial","","40","800","1983.88500000583","images/stimuli/spore_stims/simple_16_B_a.gif","images/stimuli/spore_stims/simple_20_B_d.gif","","","","","0","simple_dissimilar","images/stimuli/spore_stims/simple_20_B_d.gif","middle","","","","",""
"","null","html-keyboard-response","20","168705","0.0-8.0-0.6","SS1613081429451","","","null","","","","","<p><img src= images/blank.png width =""200"" height = ""200"" style = ""float:right""></p><p><img src=images/blank.png width =""800"" height = ""200""></p>","","","","","","","","","","","",""
"","784.0649999852758","sequential-stimulus-presentation","21","170311","0.0-8.0-1.6","SS1613081429451","trial","","40","800","1584.0649999852758","images/stimuli/spore_stims/simple_16_B_a.gif","images/stimuli/spore_stims/simple_20_B_d.gif","","","","","0","simple_dissimilar","images/stimuli/spore_stims/simple_20_B_d.gif","middle","","","","",""
"","null","html-keyboard-response","22","171250","0.0-8.0-0.7","SS1613081429451","","","null","","","","","<p><img src= images/blank.png width =""200"" height = ""200"" style = ""float:right""></p><p><img src=images/blank.png width =""800"" height = ""200""></p>","","","","","","","","","","","",""
"","264.435000019148","sequential-stimulus-presentation","23","172325","0.0-8.0-1.7","SS1613081429451","trial","","40","800","1064.435000019148","images/stimuli/spore_stims/simple_16_B_a.gif","images/stimuli/spore_stims/simple_20_B_d.gif","","","","","0","simple_dissimilar","images/stimuli/spore_stims/simple_20_B_d.gif","middle","","","","",""
"","2040.2799999865238","html-keyboard-response","24","174372","0.0-9.0","SS1613081429451","pref_question","","51","","","","","<video width ='960' height = '540' style='padding-top:8%' autoplay muted><source src='images/stimuli/wall_pref.mp4' type='video/mp4'></video>","3","right","66%","0","","","","","","","",""
"","4642.540000000736","sequential-stimulus-presentation","25","179846","0.0-10.0","SS1613081429451","pref_reveal","","40","800","5442.540000000736","null","null","","","","","0","","","","novel","","","",""
"","null","html-keyboard-response","26","180692","0.0-11.0-0.0","SS1613081429451","","","null","","","","","<p><img src= images/blank.png width =""200"" height = ""200"" style = ""float:right""></p><p><img src=images/blank.png width =""800"" height = ""200""></p>","","","","","","","","","","","",""
"","2313.5999999940395","sequential-stimulus-presentation","27","183832","0.0-11.0-1.0","SS1613081429451","trial","","40","800","3113.5999999940395","images/stimuli/spore_stims/complex_03_B_c.gif","images/stimuli/spore_stims/complex_06_A_c.gif","","","","","1","complex_dissimilar","images/stimuli/spore_stims/complex_06_A_c.gif","middle","","","","",""
"","null","html-keyboard-response","28","184728","0.0-11.0-0.1","SS1613081429451","","","null","","","","","<p><img src= images/blank.png width =""200"" height = ""200"" style = ""float:right""></p><p><img src=images/blank.png width =""800"" height = ""200""></p>","","","","","","","","","","","",""
"","598.1150000006892","sequential-stimulus-presentation","29","186150","0.0-11.0-1.1","SS1613081429451","trial","","40","800","1398.1150000006892","images/stimuli/spore_stims/complex_03_B_c.gif","images/stimuli/spore_stims/complex_06_A_c.gif","","","","","1","complex_dissimilar","images/stimuli/spore_stims/complex_06_A_c.gif","middle","","","","",""
"","null","html-keyboard-response","30","187053","0.0-11.0-0.2","SS1613081429451","","","null","","","","","<p><img src= images/blank.png width =""200"" height = ""200"" style = ""float:right""></p><p><img src=images/blank.png width =""800"" height = ""200""></p>","","","","","","","","","","","",""
"","455.66500001586974","sequential-stimulus-presentation","31","188330","0.0-11.0-1.2","SS1613081429451","trial","","40","800","1255.6650000158697","images/stimuli/spore_stims/complex_03_B_c.gif","images/stimuli/spore_stims/complex_06_A_c.gif","","","","","1","complex_dissimilar","images/stimuli/spore_stims/complex_06_A_c.gif","middle","","","","",""
"","null","html-keyboard-response","32","189353","0.0-11.0-0.3","SS1613081429451","","","null","","","","","<p><img src= images/blank.png width =""200"" height = ""200"" style = ""float:right""></p><p><img src=images/blank.png width =""800"" height = ""200""></p>","","","","","","","","","","","",""
"","3298.1699999945704","sequential-stimulus-presentation","33","193466","0.0-11.0-1.3","SS1613081429451","trial","","40","800","4098.16999999457","images/stimuli/spore_stims/complex_03_B_c.gif","images/stimuli/spore_stims/complex_06_A_c.gif","","","","","1","complex_dissimilar","images/stimuli/spore_stims/complex_03_B_c.gif","left","","","","",""
"","null","html-keyboard-response","34","194513","0.0-11.0-0.4","SS1613081429451","","","null","","","","","<p><img src= images/blank.png width =""200"" height = ""200"" style = ""float:right""></p><p><img src=images/blank.png width =""800"" height = ""200""></p>","","","","","","","","","","","",""
"","849.7199999983422","sequential-stimulus-presentation","35","196175","0.0-11.0-1.4","SS1613081429451","trial","","40","800","1649.7199999983422","images/stimuli/spore_stims/complex_03_B_c.gif","images/stimuli/spore_stims/complex_06_A_c.gif","","","","","1","complex_dissimilar","images/stimuli/spore_stims/complex_06_A_c.gif","middle","","","","",""
"","null","html-keyboard-response","36","197407","0.0-11.0-0.5","SS1613081429451","","","null","","","","","<p><img src= images/blank.png width =""200"" height = ""200"" style = ""float:right""></p><p><img src=images/blank.png width =""800"" height = ""200""></p>","","","","","","","","","","","",""
"","293.6199999821838","sequential-stimulus-presentation","37","198518","0.0-11.0-1.5","SS1613081429451","trial","","40","800","1093.6199999821838","images/stimuli/spore_stims/complex_03_B_c.gif","images/stimuli/spore_stims/complex_06_A_c.gif","","","","","1","complex_dissimilar","images/stimuli/spore_stims/complex_06_A_c.gif","middle","","","","",""
"","null","html-keyboard-response","38","199447","0.0-11.0-0.6","SS1613081429451","","","null","","","","","<p><img src= images/blank.png width =""200"" height = ""200"" style = ""float:right""></p><p><img src=images/blank.png width =""800"" height = ""200""></p>","","","","","","","","","","","",""
"","817.6450000028126","sequential-stimulus-presentation","39","201078","0.0-11.0-1.6","SS1613081429451","trial","","40","800","1617.6450000028126","images/stimuli/spore_stims/complex_03_B_c.gif","images/stimuli/spore_stims/complex_06_A_c.gif","","","","","1","complex_dissimilar","images/stimuli/spore_stims/complex_06_A_c.gif","middle","","","","",""
"","null","html-keyboard-response","40","202299","0.0-11.0-0.7","SS1613081429451","","","null","","","","","<p><img src= images/blank.png width =""200"" height = ""200"" style = ""float:right""></p><p><img src=images/blank.png width =""800"" height = ""200""></p>","","","","","","","","","","","",""
"","800.9200000087731","sequential-stimulus-presentation","41","203931","0.0-11.0-1.7","SS1613081429451","trial","","40","800","1600.920000008773","images/stimuli/spore_stims/complex_03_B_c.gif","images/stimuli/spore_stims/complex_06_A_c.gif","","","","","1","complex_dissimilar","images/stimuli/spore_stims/complex_06_A_c.gif","middle","","","","",""
"","1302.9249999963213","html-keyboard-response","42","205243","0.0-12.0","SS1613081429451","pref_question","","51","","","","","<video width ='960' height = '540' style='padding-top:8%' autoplay muted><source src='images/stimuli/wall_pref.mp4' type='video/mp4'></video>","3","right","66%","1","","","","","","","",""
"","3283.995000005234","sequential-stimulus-presentation","43","209341","0.0-13.0","SS1613081429451","pref_reveal","","40","800","4083.995000005234","null","null","","","","","1","","","","novel","","","",""
"","null","html-keyboard-response","44","210277","0.0-14.0-0.0","SS1613081429451","","","null","","","","","<p><img src= images/blank.png width =""200"" height = ""200"" style = ""float:right""></p><p><img src=images/blank.png width =""800"" height = ""200""></p>","","","","","","","","","","","",""
"","1965.7849999784958","sequential-stimulus-presentation","45","213064","0.0-14.0-1.0","SS1613081429451","trial","","40","800","2765.7849999784958","images/stimuli/spore_stims/simple_20_B_d.gif","images/stimuli/spore_stims/simple_20_A_d.gif","","","","","2","simple_similar","images/stimuli/spore_stims/simple_20_A_d.gif","middle","","","","",""
"","null","html-keyboard-response","46","214270","0.0-14.0-0.1","SS1613081429451","","","null","","","","","<p><img src= images/blank.png width =""200"" height = ""200"" style = ""float:right""></p><p><img src=images/blank.png width =""800"" height = ""200""></p>","","","","","","","","","","","",""
"","1801.3649999920744","sequential-stimulus-presentation","47","216884","0.0-14.0-1.1","SS1613081429451","trial","","40","800","2601.3649999920744","images/stimuli/spore_stims/simple_20_B_d.gif","images/stimuli/spore_stims/simple_20_A_d.gif","","","","","2","simple_similar","images/stimuli/spore_stims/simple_20_A_d.gif","middle","","","","",""
"","null","html-keyboard-response","48","217900","0.0-14.0-0.2","SS1613081429451","","","null","","","","","<p><img src= images/blank.png width =""200"" height = ""200"" style = ""float:right""></p><p><img src=images/blank.png width =""800"" height = ""200""></p>","","","","","","","","","","","",""
"","1600.2449999796227","sequential-stimulus-presentation","49","220318","0.0-14.0-1.2","SS1613081429451","trial","","40","800","2400.2449999796227","images/stimuli/spore_stims/simple_20_B_d.gif","images/stimuli/spore_stims/simple_20_A_d.gif","","","","","2","simple_similar","images/stimuli/spore_stims/simple_20_A_d.gif","middle","","","","",""
"","null","html-keyboard-response","50","221335","0.0-14.0-0.3","SS1613081429451","","","null","","","","","<p><img src= images/blank.png width =""200"" height = ""200"" style = ""float:right""></p><p><img src=images/blank.png width =""800"" height = ""200""></p>","","","","","","","","","","","",""
"","1410.8149999810848","sequential-stimulus-presentation","51","223559","0.0-14.0-1.3","SS1613081429451","trial","","40","800","2210.814999981085","images/stimuli/spore_stims/simple_20_B_d.gif","images/stimuli/spore_stims/simple_20_A_d.gif","","","","","2","simple_similar","images/stimuli/spore_stims/simple_20_A_d.gif","middle","","","","",""
"","null","html-keyboard-response","52","224819","0.0-14.0-0.4","SS1613081429451","","","null","","","","","<p><img src= images/blank.png width =""200"" height = ""200"" style = ""float:right""></p><p><img src=images/blank.png width =""800"" height = ""200""></p>","","","","","","","","","","","",""
"","3033.0400000093505","sequential-stimulus-presentation","53","228677","0.0-14.0-1.4","SS1613081429451","trial","","40","800","3833.0400000093505","images/stimuli/spore_stims/simple_20_B_d.gif","images/stimuli/spore_stims/simple_20_A_d.gif","","","","","2","simple_similar","images/stimuli/spore_stims/simple_20_B_d.gif","left","","","","",""
"","null","html-keyboard-response","54","229924","0.0-14.0-0.5","SS1613081429451","","","null","","","","","<p><img src= images/blank.png width =""200"" height = ""200"" style = ""float:right""></p><p><img src=images/blank.png width =""800"" height = ""200""></p>","","","","","","","","","","","",""
"","1060.5500000237953","sequential-stimulus-presentation","55","231798","0.0-14.0-1.5","SS1613081429451","trial","","40","800","1860.5500000237953","images/stimuli/spore_stims/simple_20_B_d.gif","images/stimuli/spore_stims/simple_20_A_d.gif","","","","","2","simple_similar","images/stimuli/spore_stims/simple_20_A_d.gif","middle","","","","",""
"","null","html-keyboard-response","56","232670","0.0-14.0-0.6","SS1613081429451","","","null","","","","","<p><img src= images/blank.png width =""200"" height = ""200"" style = ""float:right""></p><p><img src=images/blank.png width =""800"" height = ""200""></p>","","","","","","","","","","","",""
"","1020.0499999918975","sequential-stimulus-presentation","57","234511","0.0-14.0-1.6","SS1613081429451","trial","","40","800","1820.0499999918975","images/stimuli/spore_stims/simple_20_B_d.gif","images/stimuli/spore_stims/simple_20_A_d.gif","","","","","2","simple_similar","images/stimuli/spore_stims/simple_20_A_d.gif","middle","","","","",""
"","null","html-keyboard-response","58","235443","0.0-14.0-0.7","SS1613081429451","","","null","","","","","<p><img src= images/blank.png width =""200"" height = ""200"" style = ""float:right""></p><p><img src=images/blank.png width =""800"" height = ""200""></p>","","","","","","","","","","","",""
"","1211.2300000153482","sequential-stimulus-presentation","59","237480","0.0-14.0-1.7","SS1613081429451","trial","","40","800","2011.2300000153482","images/stimuli/spore_stims/simple_20_B_d.gif","images/stimuli/spore_stims/simple_20_A_d.gif","","","","","2","simple_similar","images/stimuli/spore_stims/simple_20_A_d.gif","middle","","","","",""
"","1320.480000023963","html-keyboard-response","60","238812","0.0-15.0","SS1613081429451","pref_question","","51","","","","","<video width ='960' height = '540' style='padding-top:8%' autoplay muted><source src='images/stimuli/wall_pref.mp4' type='video/mp4'></video>","3","right","66%","2","","","","","","","",""
"","5218.770000006771","sequential-stimulus-presentation","61","244851","0.0-16.0","SS1613081429451","pref_reveal","","40","800","6018.770000006771","null","null","","","","","2","","","","novel","","","",""
"","null","html-keyboard-response","62","245812","0.0-17.0-0.0","SS1613081429451","","","null","","","","","<p><img src= images/blank.png width =""200"" height = ""200"" style = ""float:right""></p><p><img src=images/blank.png width =""800"" height = ""200""></p>","","","","","","","","","","","",""
"","2687.7650000096764","sequential-stimulus-presentation","63","249326","0.0-17.0-1.0","SS1613081429451","trial","","40","800","3487.7650000096764","images/stimuli/spore_stims/simple_15_B_d.gif","images/stimuli/spore_stims/simple_08_B_a.gif","","","","","3","simple_dissimilar","images/stimuli/spore_stims/simple_08_B_a.gif","right","","","","",""
"","null","html-keyboard-response","64","250165","0.0-17.0-0.1","SS1613081429451","","","null","","","","","<p><img src= images/blank.png width =""200"" height = ""200"" style = ""float:right""></p><p><img src=images/blank.png width =""800"" height = ""200""></p>","","","","","","","","","","","",""
"","1804.5400000119116","sequential-stimulus-presentation","65","252798","0.0-17.0-1.1","SS1613081429451","trial","","40","800","2604.5400000119116","images/stimuli/spore_stims/simple_15_B_d.gif","images/stimuli/spore_stims/simple_08_B_a.gif","","","","","3","simple_dissimilar","images/stimuli/spore_stims/simple_08_B_a.gif","right","","","","",""
"","null","html-keyboard-response","66","253707","0.0-17.0-0.2","SS1613081429451","","","null","","","","","<p><img src= images/blank.png width =""200"" height = ""200"" style = ""float:right""></p><p><img src=images/blank.png width =""800"" height = ""200""></p>","","","","","","","","","","","",""
"","611.3199999963399","sequential-stimulus-presentation","67","255141","0.0-17.0-1.2","SS1613081429451","trial","","40","800","1411.31999999634","images/stimuli/spore_stims/simple_15_B_d.gif","images/stimuli/spore_stims/simple_08_B_a.gif","","","","","3","simple_dissimilar","images/stimuli/spore_stims/simple_08_B_a.gif","right","","","","",""
"","null","html-keyboard-response","68","256032","0.0-17.0-0.3","SS1613081429451","","","null","","","","","<p><img src= images/blank.png width =""200"" height = ""200"" style = ""float:right""></p><p><img src=images/blank.png width =""800"" height = ""200""></p>","","","","","","","","","","","",""
"","832.2500000067521","sequential-stimulus-presentation","69","257678","0.0-17.0-1.3","SS1613081429451","trial","","40","800","1632.250000006752","images/stimuli/spore_stims/simple_15_B_d.gif","images/stimuli/spore_stims/simple_08_B_a.gif","","","","","3","simple_dissimilar","images/stimuli/spore_stims/simple_08_B_a.gif","right","","","","",""
"","null","html-keyboard-response","70","258571","0.0-17.0-0.4","SS1613081429451","","","null","","","","","<p><img src= images/blank.png width =""200"" height = ""200"" style = ""float:right""></p><p><img src=images/blank.png width =""800"" height = ""200""></p>","","","","","","","","","","","",""
"","829.0850000048522","sequential-stimulus-presentation","71","260217","0.0-17.0-1.4","SS1613081429451","trial","","40","800","1629.0850000048522","images/stimuli/spore_stims/simple_15_B_d.gif","images/stimuli/spore_stims/simple_08_B_a.gif","","","","","3","simple_dissimilar","images/stimuli/spore_stims/simple_08_B_a.gif","right","","","","",""
"","null","html-keyboard-response","72","261531","0.0-17.0-0.5","SS1613081429451","","","null","","","","","<p><img src= images/blank.png width =""200"" height = ""200"" style = ""float:right""></p><p><img src=images/blank.png width =""800"" height = ""200""></p>","","","","","","","","","","","",""
"","1254.3899999873247","sequential-stimulus-presentation","73","263602","0.0-17.0-1.5","SS1613081429451","trial","","40","800","2054.3899999873247","images/stimuli/spore_stims/simple_15_B_d.gif","images/stimuli/spore_stims/simple_08_B_a.gif","","","","","3","simple_dissimilar","images/stimuli/spore_stims/simple_08_B_a.gif","right","","","","",""
"","null","html-keyboard-response","74","264594","0.0-17.0-0.6","SS1613081429451","","","null","","","","","<p><img src= images/blank.png width =""200"" height = ""200"" style = ""float:right""></p><p><img src=images/blank.png width =""800"" height = ""200""></p>","","","","","","","","","","","",""
"","547.790000011446","sequential-stimulus-presentation","75","265973","0.0-17.0-1.6","SS1613081429451","trial","","40","800","1347.790000011446","images/stimuli/spore_stims/simple_15_B_d.gif","images/stimuli/spore_stims/simple_08_B_a.gif","","","","","3","simple_dissimilar","images/stimuli/spore_stims/simple_08_B_a.gif","right","","","","",""
"","null","html-keyboard-response","76","267269","0.0-17.0-0.7","SS1613081429451","","","null","","","","","<p><img src= images/blank.png width =""200"" height = ""200"" style = ""float:right""></p><p><img src=images/blank.png width =""800"" height = ""200""></p>","","","","","","","","","","","",""
"","1632.0550000236835","sequential-stimulus-presentation","77","269717","0.0-17.0-1.7","SS1613081429451","trial","","40","800","2432.0550000236835","images/stimuli/spore_stims/simple_15_B_d.gif","images/stimuli/spore_stims/simple_08_B_a.gif","","","","","3","simple_dissimilar","images/stimuli/spore_stims/simple_15_B_d.gif","left","","","","",""
"","1567.4500000022817","html-keyboard-response","78","271297","0.0-18.0","SS1613081429451","pref_question","","50","","","","","<video width ='960' height = '540' style='padding-top:8%' autoplay muted><source src='images/stimuli/wall_pref.mp4' type='video/mp4'></video>","2","middle","45%","3","","","","","","","",""
"","1451.5050000045449","sequential-stimulus-presentation","79","273569","0.0-19.0","SS1613081429451","pref_reveal","","40","800","2251.505000004545","null","null","","","","","3","","","","novel","","","",""
"","null","html-keyboard-response","80","274480","0.0-20.0-0.0","SS1613081429451","","","null","","","","","<p><img src= images/blank.png width =""200"" height = ""200"" style = ""float:right""></p><p><img src=images/blank.png width =""800"" height = ""200""></p>","","","","","","","","","","","",""
"","1426.420000003418","sequential-stimulus-presentation","81","276759","0.0-20.0-1.0","SS1613081429451","trial","","40","800","2226.420000003418","images/stimuli/spore_stims/complex_17_B_b.gif","images/stimuli/spore_stims/complex_19_A_d.gif","","","","","4","complex_dissimilar","images/stimuli/spore_stims/complex_19_A_d.gif","middle","","","","",""
"","null","html-keyboard-response","82","277981","0.0-20.0-0.1","SS1613081429451","","","null","","","","","<p><img src= images/blank.png width =""200"" height = ""200"" style = ""float:right""></p><p><img src=images/blank.png width =""800"" height = ""200""></p>","","","","","","","","","","","",""
"","416.59000000800006","sequential-stimulus-presentation","83","279230","0.0-20.0-1.1","SS1613081429451","trial","","40","800","1216.590000008","images/stimuli/spore_stims/complex_17_B_b.gif","images/stimuli/spore_stims/complex_19_A_d.gif","","","","","4","complex_dissimilar","images/stimuli/spore_stims/complex_19_A_d.gif","middle","","","","",""
"","null","html-keyboard-response","84","280354","0.0-20.0-0.2","SS1613081429451","","","null","","","","","<p><img src= images/blank.png width =""200"" height = ""200"" style = ""float:right""></p><p><img src=images/blank.png width =""800"" height = ""200""></p>","","","","","","","","","","","",""
"","566.1499999987427","sequential-stimulus-presentation","85","281749","0.0-20.0-1.2","SS1613081429451","trial","","40","800","1366.1499999987427","images/stimuli/spore_stims/complex_17_B_b.gif","images/stimuli/spore_stims/complex_19_A_d.gif","","","","","4","complex_dissimilar","images/stimuli/spore_stims/complex_19_A_d.gif","middle","","","","",""
"","null","html-keyboard-response","86","282689","0.0-20.0-0.3","SS1613081429451","","","null","","","","","<p><img src= images/blank.png width =""200"" height = ""200"" style = ""float:right""></p><p><img src=images/blank.png width =""800"" height = ""200""></p>","","","","","","","","","","","",""
"","347.9149999911897","sequential-stimulus-presentation","87","283871","0.0-20.0-1.3","SS1613081429451","trial","","40","800","1147.9149999911897","images/stimuli/spore_stims/complex_17_B_b.gif","images/stimuli/spore_stims/complex_19_A_d.gif","","","","","4","complex_dissimilar","images/stimuli/spore_stims/complex_19_A_d.gif","middle","","","","",""
"","null","html-keyboard-response","88","284721","0.0-20.0-0.4","SS1613081429451","","","null","","","","","<p><img src= images/blank.png width =""200"" height = ""200"" style = ""float:right""></p><p><img src=images/blank.png width =""800"" height = ""200""></p>","","","","","","","","","","","",""
"","339.55999999307096","sequential-stimulus-presentation","89","285892","0.0-20.0-1.4","SS1613081429451","trial","","40","800","1139.559999993071","images/stimuli/spore_stims/complex_17_B_b.gif","images/stimuli/spore_stims/complex_19_A_d.gif","","","","","4","complex_dissimilar","images/stimuli/spore_stims/complex_19_A_d.gif","middle","","","","",""
"","null","html-keyboard-response","90","286840","0.0-20.0-0.5","SS1613081429451","","","null","","","","","<p><img src= images/blank.png width =""200"" height = ""200"" style = ""float:right""></p><p><img src=images/blank.png width =""800"" height = ""200""></p>","","","","","","","","","","","",""
"","203.63999999244697","sequential-stimulus-presentation","91","287864","0.0-20.0-1.5","SS1613081429451","trial","","40","800","1003.639999992447","images/stimuli/spore_stims/complex_17_B_b.gif","images/stimuli/spore_stims/complex_19_A_d.gif","","","","","4","complex_dissimilar","images/stimuli/spore_stims/complex_19_A_d.gif","middle","","","","",""
"","null","html-keyboard-response","92","289049","0.0-20.0-0.6","SS1613081429451","","","null","","","","","<p><img src= images/blank.png width =""200"" height = ""200"" style = ""float:right""></p><p><img src=images/blank.png width =""800"" height = ""200""></p>","","","","","","","","","","","",""
"","743.3500000042841","sequential-stimulus-presentation","93","290627","0.0-20.0-1.6","SS1613081429451","trial","","40","800","1543.350000004284","images/stimuli/spore_stims/complex_17_B_b.gif","images/stimuli/spore_stims/complex_19_A_d.gif","","","","","4","complex_dissimilar","images/stimuli/spore_stims/complex_19_A_d.gif","middle","","","","",""
"","null","html-keyboard-response","94","291559","0.0-20.0-0.7","SS1613081429451","","","null","","","","","<p><img src= images/blank.png width =""200"" height = ""200"" style = ""float:right""></p><p><img src=images/blank.png width =""800"" height = ""200""></p>","","","","","","","","","","","",""
"","2437.5850000069477","sequential-stimulus-presentation","95","294826","0.0-20.0-1.7","SS1613081429451","trial","","40","800","3237.5850000069477","images/stimuli/spore_stims/complex_17_B_b.gif","images/stimuli/spore_stims/complex_19_A_d.gif","","","","","4","complex_dissimilar","images/stimuli/spore_stims/complex_17_B_b.gif","left","","","","",""
"","1545.4699999827426","html-keyboard-response","96","296390","0.0-21.0","SS1613081429451","pref_question","","51","","","","","<video width ='960' height = '540' style='padding-top:8%' autoplay muted><source src='images/stimuli/wall_pref.mp4' type='video/mp4'></video>","3","right","66%","4","","","","","","","",""
"","2216.6900000011083","sequential-stimulus-presentation","97","299425","0.0-22.0","SS1613081429451","pref_reveal","","40","800","3016.6900000011083","null","null","","","","","4","","","","novel","","","",""
"","null","html-keyboard-response","98","300482","0.0-23.0-0.0","SS1613081429451","","","null","","","","","<p><img src= images/blank.png width =""200"" height = ""200"" style = ""float:right""></p><p><img src=images/blank.png width =""800"" height = ""200""></p>","","","","","","","","","","","",""
"","4068.9150000107475","sequential-stimulus-presentation","99","305387","0.0-23.0-1.0","SS1613081429451","trial","","40","800","4868.9150000107475","images/stimuli/spore_stims/complex_16_B_b.gif","images/stimuli/spore_stims/complex_16_A_b.gif","","","","","5","complex_similar","images/stimuli/spore_stims/complex_16_A_b.gif","left","","","","",""
"","null","html-keyboard-response","100","306635","0.0-23.0-0.1","SS1613081429451","","","null","","","","","<p><img src= images/blank.png width =""200"" height = ""200"" style = ""float:right""></p><p><img src=images/blank.png width =""800"" height = ""200""></p>","","","","","","","","","","","",""
"","644.5200000016484","sequential-stimulus-presentation","101","308104","0.0-23.0-1.1","SS1613081429451","trial","","40","800","1444.5200000016484","images/stimuli/spore_stims/complex_16_B_b.gif","images/stimuli/spore_stims/complex_16_A_b.gif","","","","","5","complex_similar","images/stimuli/spore_stims/complex_16_A_b.gif","left","","","","",""
"","null","html-keyboard-response","102","309114","0.0-23.0-0.2","SS1613081429451","","","null","","","","","<p><img src= images/blank.png width =""200"" height = ""200"" style = ""float:right""></p><p><img src=images/blank.png width =""800"" height = ""200""></p>","","","","","","","","","","","",""
"","887.3200000089128","sequential-stimulus-presentation","103","310831","0.0-23.0-1.2","SS1613081429451","trial","","40","800","1687.3200000089128","images/stimuli/spore_stims/complex_16_B_b.gif","images/stimuli/spore_stims/complex_16_A_b.gif","","","","","5","complex_similar","images/stimuli/spore_stims/complex_16_A_b.gif","left","","","","",""
"","null","html-keyboard-response","104","311658","0.0-23.0-0.3","SS1613081429451","","","null","","","","","<p><img src= images/blank.png width =""200"" height = ""200"" style = ""float:right""></p><p><img src=images/blank.png width =""800"" height = ""200""></p>","","","","","","","","","","","",""
"","736.7800000065472","sequential-stimulus-presentation","105","313224","0.0-23.0-1.3","SS1613081429451","trial","","40","800","1536.7800000065472","images/stimuli/spore_stims/complex_16_B_b.gif","images/stimuli/spore_stims/complex_16_A_b.gif","","","","","5","complex_similar","images/stimuli/spore_stims/complex_16_A_b.gif","left","","","","",""
"","null","html-keyboard-response","106","314207","0.0-23.0-0.4","SS1613081429451","","","null","","","","","<p><img src= images/blank.png width =""200"" height = ""200"" style = ""float:right""></p><p><img src=images/blank.png width =""800"" height = ""200""></p>","","","","","","","","","","","",""
"","647.5900000077672","sequential-stimulus-presentation","107","315710","0.0-23.0-1.4","SS1613081429451","trial","","40","800","1447.5900000077672","images/stimuli/spore_stims/complex_16_B_b.gif","images/stimuli/spore_stims/complex_16_A_b.gif","","","","","5","complex_similar","images/stimuli/spore_stims/complex_16_A_b.gif","left","","","","",""
"","null","html-keyboard-response","108","316927","0.0-23.0-0.5","SS1613081429451","","","null","","","","","<p><img src= images/blank.png width =""200"" height = ""200"" style = ""float:right""></p><p><img src=images/blank.png width =""800"" height = ""200""></p>","","","","","","","","","","","",""
"","589.6000000066124","sequential-stimulus-presentation","109","318341","0.0-23.0-1.5","SS1613081429451","trial","","40","800","1389.6000000066124","images/stimuli/spore_stims/complex_16_B_b.gif","images/stimuli/spore_stims/complex_16_A_b.gif","","","","","5","complex_similar","images/stimuli/spore_stims/complex_16_A_b.gif","left","","","","",""
"","null","html-keyboard-response","110","319450","0.0-23.0-0.6","SS1613081429451","","","null","","","","","<p><img src= images/blank.png width =""200"" height = ""200"" style = ""float:right""></p><p><img src=images/blank.png width =""800"" height = ""200""></p>","","","","","","","","","","","",""
"","2092.3300000140443","sequential-stimulus-presentation","111","322361","0.0-23.0-1.6","SS1613081429451","trial","","40","800","2892.3300000140443","images/stimuli/spore_stims/complex_16_B_b.gif","images/stimuli/spore_stims/complex_16_A_b.gif","","","","","5","complex_similar","images/stimuli/spore_stims/complex_16_B_b.gif","right","","","","",""
"","null","html-keyboard-response","112","323390","0.0-23.0-0.7","SS1613081429451","","","null","","","","","<p><img src= images/blank.png width =""200"" height = ""200"" style = ""float:right""></p><p><img src=images/blank.png width =""800"" height = ""200""></p>","","","","","","","","","","","",""
"","2754.380000027595","sequential-stimulus-presentation","113","326959","0.0-23.0-1.7","SS1613081429451","trial","","40","800","3554.380000027595","images/stimuli/spore_stims/complex_16_B_b.gif","images/stimuli/spore_stims/complex_16_A_b.gif","","","","","5","complex_similar","images/stimuli/spore_stims/complex_16_A_b.gif","left","","","","",""
"","1183.5300000093412","html-keyboard-response","114","328162","0.0-24.0","SS1613081429451","pref_question","","50","","","","","<video width ='960' height = '540' style='padding-top:8%' autoplay muted><source src='images/stimuli/wall_pref.mp4' type='video/mp4'></video>","2","middle","45%","5","","","","","","","",""
"","3836.2100000085775","sequential-stimulus-presentation","115","332823","0.0-25.0","SS1613081429451","pref_reveal","","40","800","4636.2100000085775","null","null","","","","","5","","","","novel","","","",""
"","null","html-keyboard-response","116","333736","0.0-26.0-0.0","SS1613081429451","","","null","","","","","<p><img src= images/blank.png width =""200"" height = ""200"" style = ""float:right""></p><p><img src=images/blank.png width =""800"" height = ""200""></p>","","","","","","","","","","","",""
"","928.7800000165589","sequential-stimulus-presentation","117","335495","0.0-26.0-1.0","SS1613081429451","trial","","40","800","1728.780000016559","images/stimuli/spore_stims/simple_13_A_d.gif","images/stimuli/spore_stims/simple_05_A_b.gif","","","","","6","simple_dissimilar","images/stimuli/spore_stims/simple_05_A_b.gif","right","","","","",""
"","null","html-keyboard-response","118","336335","0.0-26.0-0.1","SS1613081429451","","","null","","","","","<p><img src= images/blank.png width =""200"" height = ""200"" style = ""float:right""></p><p><img src=images/blank.png width =""800"" height = ""200""></p>","","","","","","","","","","","",""
"","933.7600000144448","sequential-stimulus-presentation","119","338093","0.0-26.0-1.1","SS1613081429451","trial","","40","800","1733.7600000144448","images/stimuli/spore_stims/simple_13_A_d.gif","images/stimuli/spore_stims/simple_05_A_b.gif","","","","","6","simple_dissimilar","images/stimuli/spore_stims/simple_05_A_b.gif","right","","","","",""
"","null","html-keyboard-response","120","339194","0.0-26.0-0.2","SS1613081429451","","","null","","","","","<p><img src= images/blank.png width =""200"" height = ""200"" style = ""float:right""></p><p><img src=images/blank.png width =""800"" height = ""200""></p>","","","","","","","","","","","",""
"","1058.309999993071","sequential-stimulus-presentation","121","341080","0.0-26.0-1.2","SS1613081429451","trial","","40","800","1858.309999993071","images/stimuli/spore_stims/simple_13_A_d.gif","images/stimuli/spore_stims/simple_05_A_b.gif","","","","","6","simple_dissimilar","images/stimuli/spore_stims/simple_05_A_b.gif","right","","","","",""
"","null","html-keyboard-response","122","341962","0.0-26.0-0.3","SS1613081429451","","","null","","","","","<p><img src= images/blank.png width =""200"" height = ""200"" style = ""float:right""></p><p><img src=images/blank.png width =""800"" height = ""200""></p>","","","","","","","","","","","",""
"","1146.2250000040513","sequential-stimulus-presentation","123","343938","0.0-26.0-1.3","SS1613081429451","trial","","40","800","1946.2250000040513","images/stimuli/spore_stims/simple_13_A_d.gif","images/stimuli/spore_stims/simple_05_A_b.gif","","","","","6","simple_dissimilar","images/stimuli/spore_stims/simple_05_A_b.gif","right","","","","",""
"","null","html-keyboard-response","124","344953","0.0-26.0-0.4","SS1613081429451","","","null","","","","","<p><img src= images/blank.png width =""200"" height = ""200"" style = ""float:right""></p><p><img src=images/blank.png width =""800"" height = ""200""></p>","","","","","","","","","","","",""
"","852.1849999960978","sequential-stimulus-presentation","125","346629","0.0-26.0-1.4","SS1613081429451","trial","","40","800","1652.1849999960978","images/stimuli/spore_stims/simple_13_A_d.gif","images/stimuli/spore_stims/simple_05_A_b.gif","","","","","6","simple_dissimilar","images/stimuli/spore_stims/simple_05_A_b.gif","right","","","","",""
"","null","html-keyboard-response","126","347881","0.0-26.0-0.5","SS1613081429451","","","null","","","","","<p><img src= images/blank.png width =""200"" height = ""200"" style = ""float:right""></p><p><img src=images/blank.png width =""800"" height = ""200""></p>","","","","","","","","","","","",""
"","1924.2150000063702","sequential-stimulus-presentation","127","350635","0.0-26.0-1.5","SS1613081429451","trial","","40","800","2724.2150000063702","images/stimuli/spore_stims/simple_13_A_d.gif","images/stimuli/spore_stims/simple_05_A_b.gif","","","","","6","simple_dissimilar","images/stimuli/spore_stims/simple_13_A_d.gif","middle","","","","",""
"","null","html-keyboard-response","128","351650","0.0-26.0-0.6","SS1613081429451","","","null","","","","","<p><img src= images/blank.png width =""200"" height = ""200"" style = ""float:right""></p><p><img src=images/blank.png width =""800"" height = ""200""></p>","","","","","","","","","","","",""
"","862.0150000206195","sequential-stimulus-presentation","129","353346","0.0-26.0-1.6","SS1613081429451","trial","","40","800","1662.0150000206195","images/stimuli/spore_stims/simple_13_A_d.gif","images/stimuli/spore_stims/simple_05_A_b.gif","","","","","6","simple_dissimilar","images/stimuli/spore_stims/simple_05_A_b.gif","right","","","","",""
"","null","html-keyboard-response","130","354580","0.0-26.0-0.7","SS1613081429451","","","null","","","","","<p><img src= images/blank.png width =""200"" height = ""200"" style = ""float:right""></p><p><img src=images/blank.png width =""800"" height = ""200""></p>","","","","","","","","","","","",""
"","982.7400000067428","sequential-stimulus-presentation","131","356387","0.0-26.0-1.7","SS1613081429451","trial","","40","800","1782.7400000067428","images/stimuli/spore_stims/simple_13_A_d.gif","images/stimuli/spore_stims/simple_05_A_b.gif","","","","","6","simple_dissimilar","images/stimuli/spore_stims/simple_05_A_b.gif","right","","","","",""
"","1468.4050000214484","html-keyboard-response","132","357876","0.0-27.0","SS1613081429451","pref_question","","49","","","","","<video width ='960' height = '540' style='padding-top:8%' autoplay muted><source src='images/stimuli/wall_pref.mp4' type='video/mp4'></video>","1","left","25%","6","","","","","","","",""
"","6789.8500000010245","sequential-stimulus-presentation","133","365502","0.0-28.0","SS1613081429451","pref_reveal","","40","800","7589.8500000010245","null","null","","","","","6","","","","novel","","","",""
"","null","html-keyboard-response","134","366785","0.0-29.0-0.0","SS1613081429451","","","null","","","","","<p><img src= images/blank.png width =""200"" height = ""200"" style = ""float:right""></p><p><img src=images/blank.png width =""800"" height = ""200""></p>","","","","","","","","","","","",""
"","3636.7750000208616","sequential-stimulus-presentation","135","371256","0.0-29.0-1.0","SS1613081429451","trial","","40","800","4436.775000020862","images/stimuli/spore_stims/simple_17_B_c.gif","images/stimuli/spore_stims/simple_02_A_d.gif","","","","","7","simple_dissimilar","images/stimuli/spore_stims/simple_02_A_d.gif","left","","","","",""
"","null","html-keyboard-response","136","372127","0.0-29.0-0.1","SS1613081429451","","","null","","","","","<p><img src= images/blank.png width =""200"" height = ""200"" style = ""float:right""></p><p><img src=images/blank.png width =""800"" height = ""200""></p>","","","","","","","","","","","",""
"","1102.214999991702","sequential-stimulus-presentation","137","374058","0.0-29.0-1.1","SS1613081429451","trial","","40","800","1902.214999991702","images/stimuli/spore_stims/simple_17_B_c.gif","images/stimuli/spore_stims/simple_02_A_d.gif","","","","","7","simple_dissimilar","images/stimuli/spore_stims/simple_02_A_d.gif","left","","","","",""
"","null","html-keyboard-response","138","375227","0.0-29.0-0.2","SS1613081429451","","","null","","","","","<p><img src= images/blank.png width =""200"" height = ""200"" style = ""float:right""></p><p><img src=images/blank.png width =""800"" height = ""200""></p>","","","","","","","","","","","",""
"","2136.724999989383","sequential-stimulus-presentation","139","378193","0.0-29.0-1.2","SS1613081429451","trial","","40","800","2936.724999989383","images/stimuli/spore_stims/simple_17_B_c.gif","images/stimuli/spore_stims/simple_02_A_d.gif","","","","","7","simple_dissimilar","images/stimuli/spore_stims/simple_17_B_c.gif","middle","","","","",""
"","null","html-keyboard-response","140","379065","0.0-29.0-0.3","SS1613081429451","","","null","","","","","<p><img src= images/blank.png width =""200"" height = ""200"" style = ""float:right""></p><p><img src=images/blank.png width =""800"" height = ""200""></p>","","","","","","","","","","","",""
"","1287.175000004936","sequential-stimulus-presentation","141","381169","0.0-29.0-1.3","SS1613081429451","trial","","40","800","2087.175000004936","images/stimuli/spore_stims/simple_17_B_c.gif","images/stimuli/spore_stims/simple_02_A_d.gif","","","","","7","simple_dissimilar","images/stimuli/spore_stims/simple_02_A_d.gif","left","","","","",""
"","null","html-keyboard-response","142","382372","0.0-29.0-0.4","SS1613081429451","","","null","","","","","<p><img src= images/blank.png width =""200"" height = ""200"" style = ""float:right""></p><p><img src=images/blank.png width =""800"" height = ""200""></p>","","","","","","","","","","","",""
"","591.0600000061095","sequential-stimulus-presentation","143","383799","0.0-29.0-1.4","SS1613081429451","trial","","40","800","1391.0600000061095","images/stimuli/spore_stims/simple_17_B_c.gif","images/stimuli/spore_stims/simple_02_A_d.gif","","","","","7","simple_dissimilar","images/stimuli/spore_stims/simple_02_A_d.gif","left","","","","",""
"","null","html-keyboard-response","144","384762","0.0-29.0-0.5","SS1613081429451","","","null","","","","","<p><img src= images/blank.png width =""200"" height = ""200"" style = ""float:right""></p><p><img src=images/blank.png width =""800"" height = ""200""></p>","","","","","","","","","","","",""
"","547.4050000193529","sequential-stimulus-presentation","145","386145","0.0-29.0-1.5","SS1613081429451","trial","","40","800","1347.4050000193529","images/stimuli/spore_stims/simple_17_B_c.gif","images/stimuli/spore_stims/simple_02_A_d.gif","","","","","7","simple_dissimilar","images/stimuli/spore_stims/simple_02_A_d.gif","left","","","","",""
"","null","html-keyboard-response","146","387015","0.0-29.0-0.6","SS1613081429451","","","null","","","","","<p><img src= images/blank.png width =""200"" height = ""200"" style = ""float:right""></p><p><img src=images/blank.png width =""800"" height = ""200""></p>","","","","","","","","","","","",""
"","914.0149999875575","sequential-stimulus-presentation","147","388765","0.0-29.0-1.6","SS1613081429451","trial","","40","800","1714.0149999875575","images/stimuli/spore_stims/simple_17_B_c.gif","images/stimuli/spore_stims/simple_02_A_d.gif","","","","","7","simple_dissimilar","images/stimuli/spore_stims/simple_02_A_d.gif","left","","","","",""
"","null","html-keyboard-response","148","389623","0.0-29.0-0.7","SS1613081429451","","","null","","","","","<p><img src= images/blank.png width =""200"" height = ""200"" style = ""float:right""></p><p><img src=images/blank.png width =""800"" height = ""200""></p>","","","","","","","","","","","",""
"","918.2849999924656","sequential-stimulus-presentation","149","391378","0.0-29.0-1.7","SS1613081429451","trial","","40","800","1718.2849999924656","images/stimuli/spore_stims/simple_17_B_c.gif","images/stimuli/spore_stims/simple_02_A_d.gif","","","","","7","simple_dissimilar","images/stimuli/spore_stims/simple_02_A_d.gif","left","","","","",""
"","1143.9550000068266","html-keyboard-response","150","392545","0.0-30.0","SS1613081429451","pref_question","","51","","","","","<video width ='960' height = '540' style='padding-top:8%' autoplay muted><source src='images/stimuli/wall_pref.mp4' type='video/mp4'></video>","3","right","66%","7","","","","","","","",""
"","2471.3599999959115","sequential-stimulus-presentation","151","395840","0.0-31.0","SS1613081429451","pref_reveal","","40","800","3271.3599999959115","null","null","","","","","7","","","","novel","","","",""
"","null","html-keyboard-response","152","397006","0.0-32.0-0.0","SS1613081429451","","","null","","","","","<p><img src= images/blank.png width =""200"" height = ""200"" style = ""float:right""></p><p><img src=images/blank.png width =""800"" height = ""200""></p>","","","","","","","","","","","",""
"","2118.450000009034","sequential-stimulus-presentation","153","399965","0.0-32.0-1.0","SS1613081429451","trial","","40","800","2918.450000009034","images/stimuli/spore_stims/complex_20_A_a.gif","images/stimuli/spore_stims/complex_10_A_c.gif","","","","","8","complex_dissimilar","images/stimuli/spore_stims/complex_10_A_c.gif","left","","","","",""
"","null","html-keyboard-response","154","400843","0.0-32.0-0.1","SS1613081429451","","","null","","","","","<p><img src= images/blank.png width =""200"" height = ""200"" style = ""float:right""></p><p><img src=images/blank.png width =""800"" height = ""200""></p>","","","","","","","","","","","",""
"","1285.6599999940954","sequential-stimulus-presentation","155","402961","0.0-32.0-1.1","SS1613081429451","trial","","40","800","2085.6599999940954","images/stimuli/spore_stims/complex_20_A_a.gif","images/stimuli/spore_stims/complex_10_A_c.gif","","","","","8","complex_dissimilar","images/stimuli/spore_stims/complex_10_A_c.gif","left","","","","",""
"","null","html-keyboard-response","156","403855","0.0-32.0-0.2","SS1613081429451","","","null","","","","","<p><img src= images/blank.png width =""200"" height = ""200"" style = ""float:right""></p><p><img src=images/blank.png width =""800"" height = ""200""></p>","","","","","","","","","","","",""
"","987.7649999980349","sequential-stimulus-presentation","157","405670","0.0-32.0-1.2","SS1613081429451","trial","","40","800","1787.764999998035","images/stimuli/spore_stims/complex_20_A_a.gif","images/stimuli/spore_stims/complex_10_A_c.gif","","","","","8","complex_dissimilar","images/stimuli/spore_stims/complex_10_A_c.gif","left","","","","",""
"","null","html-keyboard-response","158","406702","0.0-32.0-0.3","SS1613081429451","","","null","","","","","<p><img src= images/blank.png width =""200"" height = ""200"" style = ""float:right""></p><p><img src=images/blank.png width =""800"" height = ""200""></p>","","","","","","","","","","","",""
"","559.6950000035577","sequential-stimulus-presentation","159","408091","0.0-32.0-1.3","SS1613081429451","trial","","40","800","1359.6950000035577","images/stimuli/spore_stims/complex_20_A_a.gif","images/stimuli/spore_stims/complex_10_A_c.gif","","","","","8","complex_dissimilar","images/stimuli/spore_stims/complex_10_A_c.gif","left","","","","",""
"","null","html-keyboard-response","160","409187","0.0-32.0-0.4","SS1613081429451","","","null","","","","","<p><img src= images/blank.png width =""200"" height = ""200"" style = ""float:right""></p><p><img src=images/blank.png width =""800"" height = ""200""></p>","","","","","","","","","","","",""
"","367.81499997596256","sequential-stimulus-presentation","161","410394","0.0-32.0-1.4","SS1613081429451","trial","","40","800","1167.8149999759626","images/stimuli/spore_stims/complex_20_A_a.gif","images/stimuli/spore_stims/complex_10_A_c.gif","","","","","8","complex_dissimilar","images/stimuli/spore_stims/complex_10_A_c.gif","left","","","","",""
"","null","html-keyboard-response","162","411410","0.0-32.0-0.5","SS1613081429451","","","null","","","","","<p><img src= images/blank.png width =""200"" height = ""200"" style = ""float:right""></p><p><img src=images/blank.png width =""800"" height = ""200""></p>","","","","","","","","","","","",""
"","1533.2350000098813","sequential-stimulus-presentation","163","413777","0.0-32.0-1.5","SS1613081429451","trial","","40","800","2333.2350000098813","images/stimuli/spore_stims/complex_20_A_a.gif","images/stimuli/spore_stims/complex_10_A_c.gif","","","","","8","complex_dissimilar","images/stimuli/spore_stims/complex_20_A_a.gif","right","","","","",""
"","null","html-keyboard-response","164","415087","0.0-32.0-0.6","SS1613081429451","","","null","","","","","<p><img src= images/blank.png width =""200"" height = ""200"" style = ""float:right""></p><p><img src=images/blank.png width =""800"" height = ""200""></p>","","","","","","","","","","","",""
"","2290.2350000222214","sequential-stimulus-presentation","165","418204","0.0-32.0-1.6","SS1613081429451","trial","","40","800","3090.2350000222214","images/stimuli/spore_stims/complex_20_A_a.gif","images/stimuli/spore_stims/complex_10_A_c.gif","","","","","8","complex_dissimilar","images/stimuli/spore_stims/complex_10_A_c.gif","left","","","","",""
"","null","html-keyboard-response","166","419211","0.0-32.0-0.7","SS1613081429451","","","null","","","","","<p><img src= images/blank.png width =""200"" height = ""200"" style = ""float:right""></p><p><img src=images/blank.png width =""800"" height = ""200""></p>","","","","","","","","","","","",""
"","1189.3200000049546","sequential-stimulus-presentation","167","421251","0.0-32.0-1.7","SS1613081429451","trial","","40","800","1989.3200000049546","images/stimuli/spore_stims/complex_20_A_a.gif","images/stimuli/spore_stims/complex_10_A_c.gif","","","","","8","complex_dissimilar","images/stimuli/spore_stims/complex_10_A_c.gif","left","","","","",""
"","1697.5749999983236","html-keyboard-response","168","422977","0.0-33.0","SS1613081429451","pref_question","","50","","","","","<video width ='960' height = '540' style='padding-top:8%' autoplay muted><source src='images/stimuli/wall_pref.mp4' type='video/mp4'></video>","2","middle","45%","8","","","","","","","",""
"","1667.8700000047684","sequential-stimulus-presentation","169","425482","0.0-34.0","SS1613081429451","pref_reveal","","40","800","2467.8700000047684","null","null","","","","","8","","","","novel","","","",""
"","null","html-keyboard-response","170","426796","0.0-35.0-0.0","SS1613081429451","","","null","","","","","<p><img src= images/blank.png width =""200"" height = ""200"" style = ""float:right""></p><p><img src=images/blank.png width =""800"" height = ""200""></p>","","","","","","","","","","","",""
"","993.7299999874085","sequential-stimulus-presentation","171","428625","0.0-35.0-1.0","SS1613081429451","trial","","40","800","1793.7299999874085","images/stimuli/spore_stims/complex_11_B_b.gif","images/stimuli/spore_stims/complex_11_A_b.gif","","","","","9","complex_similar","images/stimuli/spore_stims/complex_11_A_b.gif","right","","","","",""
"","null","html-keyboard-response","172","429674","0.0-35.0-0.1","SS1613081429451","","","null","","","","","<p><img src= images/blank.png width =""200"" height = ""200"" style = ""float:right""></p><p><img src=images/blank.png width =""800"" height = ""200""></p>","","","","","","","","","","","",""
"","674.1000000038184","sequential-stimulus-presentation","173","431178","0.0-35.0-1.1","SS1613081429451","trial","","40","800","1474.1000000038184","images/stimuli/spore_stims/complex_11_B_b.gif","images/stimuli/spore_stims/complex_11_A_b.gif","","","","","9","complex_similar","images/stimuli/spore_stims/complex_11_A_b.gif","right","","","","",""
"","null","html-keyboard-response","174","432495","0.0-35.0-0.2","SS1613081429451","","","null","","","","","<p><img src= images/blank.png width =""200"" height = ""200"" style = ""float:right""></p><p><img src=images/blank.png width =""800"" height = ""200""></p>","","","","","","","","","","","",""
"","338.26000001863576","sequential-stimulus-presentation","175","433666","0.0-35.0-1.2","SS1613081429451","trial","","40","800","1138.2600000186358","images/stimuli/spore_stims/complex_11_B_b.gif","images/stimuli/spore_stims/complex_11_A_b.gif","","","","","9","complex_similar","images/stimuli/spore_stims/complex_11_A_b.gif","right","","","","",""
"","null","html-keyboard-response","176","434613","0.0-35.0-0.3","SS1613081429451","","","null","","","","","<p><img src= images/blank.png width =""200"" height = ""200"" style = ""float:right""></p><p><img src=images/blank.png width =""800"" height = ""200""></p>","","","","","","","","","","","",""
"","625.3399999986868","sequential-stimulus-presentation","177","436065","0.0-35.0-1.3","SS1613081429451","trial","","40","800","1425.3399999986868","images/stimuli/spore_stims/complex_11_B_b.gif","images/stimuli/spore_stims/complex_11_A_b.gif","","","","","9","complex_similar","images/stimuli/spore_stims/complex_11_B_b.gif","middle","","","","",""
"","null","html-keyboard-response","178","436982","0.0-35.0-0.4","SS1613081429451","","","null","","","","","<p><img src= images/blank.png width =""200"" height = ""200"" style = ""float:right""></p><p><img src=images/blank.png width =""800"" height = ""200""></p>","","","","","","","","","","","",""
"","747.9900000034831","sequential-stimulus-presentation","179","438587","0.0-35.0-1.4","SS1613081429451","trial","","40","800","1547.9900000034831","images/stimuli/spore_stims/complex_11_B_b.gif","images/stimuli/spore_stims/complex_11_A_b.gif","","","","","9","complex_similar","images/stimuli/spore_stims/complex_11_A_b.gif","right","","","","",""
"","null","html-keyboard-response","180","439657","0.0-35.0-0.5","SS1613081429451","","","null","","","","","<p><img src= images/blank.png width =""200"" height = ""200"" style = ""float:right""></p><p><img src=images/blank.png width =""800"" height = ""200""></p>","","","","","","","","","","","",""
"","597.6749999972526","sequential-stimulus-presentation","181","441093","0.0-35.0-1.5","SS1613081429451","trial","","40","800","1397.6749999972526","images/stimuli/spore_stims/complex_11_B_b.gif","images/stimuli/spore_stims/complex_11_A_b.gif","","","","","9","complex_similar","images/stimuli/spore_stims/complex_11_A_b.gif","right","","","","",""
"","null","html-keyboard-response","182","442367","0.0-35.0-0.6","SS1613081429451","","","null","","","","","<p><img src= images/blank.png width =""200"" height = ""200"" style = ""float:right""></p><p><img src=images/blank.png width =""800"" height = ""200""></p>","","","","","","","","","","","",""
"","503.6000000254717","sequential-stimulus-presentation","183","443701","0.0-35.0-1.6","SS1613081429451","trial","","40","800","1303.6000000254717","images/stimuli/spore_stims/complex_11_B_b.gif","images/stimuli/spore_stims/complex_11_A_b.gif","","","","","9","complex_similar","images/stimuli/spore_stims/complex_11_A_b.gif","right","","","","",""
"","null","html-keyboard-response","184","444905","0.0-35.0-0.7","SS1613081429451","","","null","","","","","<p><img src= images/blank.png width =""200"" height = ""200"" style = ""float:right""></p><p><img src=images/blank.png width =""800"" height = ""200""></p>","","","","","","","","","","","",""
"","551.1549999937415","sequential-stimulus-presentation","185","446287","0.0-35.0-1.7","SS1613081429451","trial","","40","800","1351.1549999937415","images/stimuli/spore_stims/complex_11_B_b.gif","images/stimuli/spore_stims/complex_11_A_b.gif","","","","","9","complex_similar","images/stimuli/spore_stims/complex_11_A_b.gif","right","","","","",""
"","1634.0100000088569","html-keyboard-response","186","447947","0.0-36.0","SS1613081429451","pref_question","","49","","","","","<video width ='960' height = '540' style='padding-top:8%' autoplay muted><source src='images/stimuli/wall_pref.mp4' type='video/mp4'></video>","1","left","25%","9","","","","","","","",""
"","4396.309999981895","sequential-stimulus-presentation","187","453163","0.0-37.0","SS1613081429451","pref_reveal","","40","800","5196.309999981895","null","null","","","","","9","","","","novel","","","",""
"","null","html-keyboard-response","188","454078","0.0-38.0-0.0","SS1613081429451","","","null","","","","","<p><img src= images/blank.png width =""200"" height = ""200"" style = ""float:right""></p><p><img src=images/blank.png width =""800"" height = ""200""></p>","","","","","","","","","","","",""
"","1232.3749999923166","sequential-stimulus-presentation","189","456152","0.0-38.0-1.0","SS1613081429451","trial","","40","800","2032.3749999923166","images/stimuli/spore_stims/complex_15_B_c.gif","images/stimuli/spore_stims/complex_15_A_c.gif","","","","","10","complex_similar","images/stimuli/spore_stims/complex_15_A_c.gif","left","","","","",""
"","null","html-keyboard-response","190","457035","0.0-38.0-0.1","SS1613081429451","","","null","","","","","<p><img src= images/blank.png width =""200"" height = ""200"" style = ""float:right""></p><p><img src=images/blank.png width =""800"" height = ""200""></p>","","","","","","","","","","","",""
"","678.8550000055693","sequential-stimulus-presentation","191","458541","0.0-38.0-1.1","SS1613081429451","trial","","40","800","1478.8550000055693","images/stimuli/spore_stims/complex_15_B_c.gif","images/stimuli/spore_stims/complex_15_A_c.gif","","","","","10","complex_similar","images/stimuli/spore_stims/complex_15_A_c.gif","left","","","","",""
"","null","html-keyboard-response","192","459485","0.0-38.0-0.2","SS1613081429451","","","null","","","","","<p><img src= images/blank.png width =""200"" height = ""200"" style = ""float:right""></p><p><img src=images/blank.png width =""800"" height = ""200""></p>","","","","","","","","","","","",""
"","534.9899999855552","sequential-stimulus-presentation","193","460864","0.0-38.0-1.2","SS1613081429451","trial","","40","800","1334.9899999855552","images/stimuli/spore_stims/complex_15_B_c.gif","images/stimuli/spore_stims/complex_15_A_c.gif","","","","","10","complex_similar","images/stimuli/spore_stims/complex_15_A_c.gif","left","","","","",""
"","null","html-keyboard-response","194","461883","0.0-38.0-0.3","SS1613081429451","","","null","","","","","<p><img src= images/blank.png width =""200"" height = ""200"" style = ""float:right""></p><p><img src=images/blank.png width =""800"" height = ""200""></p>","","","","","","","","","","","",""
"","754.5650000101887","sequential-stimulus-presentation","195","463467","0.0-38.0-1.3","SS1613081429451","trial","","40","800","1554.5650000101887","images/stimuli/spore_stims/complex_15_B_c.gif","images/stimuli/spore_stims/complex_15_A_c.gif","","","","","10","complex_similar","images/stimuli/spore_stims/complex_15_A_c.gif","left","","","","",""
"","null","html-keyboard-response","196","464564","0.0-38.0-0.4","SS1613081429451","","","null","","","","","<p><img src= images/blank.png width =""200"" height = ""200"" style = ""float:right""></p><p><img src=images/blank.png width =""800"" height = ""200""></p>","","","","","","","","","","","",""
"","210.4449999751523","sequential-stimulus-presentation","197","465603","0.0-38.0-1.4","SS1613081429451","trial","","40","800","1010.4449999751523","images/stimuli/spore_stims/complex_15_B_c.gif","images/stimuli/spore_stims/complex_15_A_c.gif","","","","","10","complex_similar","images/stimuli/spore_stims/complex_15_A_c.gif","left","","","","",""
"","null","html-keyboard-response","198","466552","0.0-38.0-0.5","SS1613081429451","","","null","","","","","<p><img src= images/blank.png width =""200"" height = ""200"" style = ""float:right""></p><p><img src=images/blank.png width =""800"" height = ""200""></p>","","","","","","","","","","","",""
"","321.010000014212","sequential-stimulus-presentation","199","467718","0.0-38.0-1.5","SS1613081429451","trial","","40","800","1121.010000014212","images/stimuli/spore_stims/complex_15_B_c.gif","images/stimuli/spore_stims/complex_15_A_c.gif","","","","","10","complex_similar","images/stimuli/spore_stims/complex_15_A_c.gif","left","","","","",""
"","null","html-keyboard-response","200","468735","0.0-38.0-0.6","SS1613081429451","","","null","","","","","<p><img src= images/blank.png width =""200"" height = ""200"" style = ""float:right""></p><p><img src=images/blank.png width =""800"" height = ""200""></p>","","","","","","","","","","","",""
"","876.3199999812059","sequential-stimulus-presentation","201","470442","0.0-38.0-1.6","SS1613081429451","trial","","40","800","1676.319999981206","images/stimuli/spore_stims/complex_15_B_c.gif","images/stimuli/spore_stims/complex_15_A_c.gif","","","","","10","complex_similar","images/stimuli/spore_stims/complex_15_B_c.gif","middle","","","","",""
"","null","html-keyboard-response","202","471616","0.0-38.0-0.7","SS1613081429451","","","null","","","","","<p><img src= images/blank.png width =""200"" height = ""200"" style = ""float:right""></p><p><img src=images/blank.png width =""800"" height = ""200""></p>","","","","","","","","","","","",""
"","1347.7999999886379","sequential-stimulus-presentation","203","473795","0.0-38.0-1.7","SS1613081429451","trial","","40","800","2147.799999988638","images/stimuli/spore_stims/complex_15_B_c.gif","images/stimuli/spore_stims/complex_15_A_c.gif","","","","","10","complex_similar","images/stimuli/spore_stims/complex_15_A_c.gif","left","","","","",""
"","1478.0049999826588","html-keyboard-response","204","475305","0.0-39.0","SS1613081429451","pref_question","","51","","","","","<video width ='960' height = '540' style='padding-top:8%' autoplay muted><source src='images/stimuli/wall_pref.mp4' type='video/mp4'></video>","3","right","66%","10","","","","","","","",""
"","2214.940000005299","sequential-stimulus-presentation","205","478354","0.0-40.0","SS1613081429451","pref_reveal","","40","800","3014.940000005299","null","null","","","","","10","","","","novel","","","",""
"","null","html-keyboard-response","206","479280","0.0-41.0-0.0","SS1613081429451","","","null","","","","","<p><img src= images/blank.png width =""200"" height = ""200"" style = ""float:right""></p><p><img src=images/blank.png width =""800"" height = ""200""></p>","","","","","","","","","","","",""
"","2225.685000012163","sequential-stimulus-presentation","207","482340","0.0-41.0-1.0","SS1613081429451","trial","","40","800","3025.685000012163","images/stimuli/spore_stims/complex_12_A_c.gif","images/stimuli/spore_stims/complex_12_B_c.gif","","","","","11","complex_similar","images/stimuli/spore_stims/complex_12_B_c.gif","middle","","","","",""
"","null","html-keyboard-response","208","483452","0.0-41.0-0.1","SS1613081429451","","","null","","","","","<p><img src= images/blank.png width =""200"" height = ""200"" style = ""float:right""></p><p><img src=images/blank.png width =""800"" height = ""200""></p>","","","","","","","","","","","",""
"","1720.6350000051316","sequential-stimulus-presentation","209","486015","0.0-41.0-1.1","SS1613081429451","trial","","40","800","2520.6350000051316","images/stimuli/spore_stims/complex_12_A_c.gif","images/stimuli/spore_stims/complex_12_B_c.gif","","","","","11","complex_similar","images/stimuli/spore_stims/complex_12_B_c.gif","middle","","","","",""
"","null","html-keyboard-response","210","486968","0.0-41.0-0.2","SS1613081429451","","","null","","","","","<p><img src= images/blank.png width =""200"" height = ""200"" style = ""float:right""></p><p><img src=images/blank.png width =""800"" height = ""200""></p>","","","","","","","","","","","",""
"","815.6249999883585","sequential-stimulus-presentation","211","488632","0.0-41.0-1.2","SS1613081429451","trial","","40","800","1615.6249999883585","images/stimuli/spore_stims/complex_12_A_c.gif","images/stimuli/spore_stims/complex_12_B_c.gif","","","","","11","complex_similar","images/stimuli/spore_stims/complex_12_B_c.gif","middle","","","","",""
"","null","html-keyboard-response","212","489916","0.0-41.0-0.3","SS1613081429451","","","null","","","","","<p><img src= images/blank.png width =""200"" height = ""200"" style = ""float:right""></p><p><img src=images/blank.png width =""800"" height = ""200""></p>","","","","","","","","","","","",""
"","1001.7149999912363","sequential-stimulus-presentation","213","491767","0.0-41.0-1.3","SS1613081429451","trial","","40","800","1801.7149999912363","images/stimuli/spore_stims/complex_12_A_c.gif","images/stimuli/spore_stims/complex_12_B_c.gif","","","","","11","complex_similar","images/stimuli/spore_stims/complex_12_A_c.gif","left","","","","",""
"","null","html-keyboard-response","214","492946","0.0-41.0-0.4","SS1613081429451","","","null","","","","","<p><img src= images/blank.png width =""200"" height = ""200"" style = ""float:right""></p><p><img src=images/blank.png width =""800"" height = ""200""></p>","","","","","","","","","","","",""
"","924.989999999525","sequential-stimulus-presentation","215","494711","0.0-41.0-1.4","SS1613081429451","trial","","40","800","1724.989999999525","images/stimuli/spore_stims/complex_12_A_c.gif","images/stimuli/spore_stims/complex_12_B_c.gif","","","","","11","complex_similar","images/stimuli/spore_stims/complex_12_B_c.gif","middle","","","","",""
"","null","html-keyboard-response","216","495901","0.0-41.0-0.5","SS1613081429451","","","null","","","","","<p><img src= images/blank.png width =""200"" height = ""200"" style = ""float:right""></p><p><img src=images/blank.png width =""800"" height = ""200""></p>","","","","","","","","","","","",""
"","1275.3850000153761","sequential-stimulus-presentation","217","498002","0.0-41.0-1.5","SS1613081429451","trial","","40","800","2075.385000015376","images/stimuli/spore_stims/complex_12_A_c.gif","images/stimuli/spore_stims/complex_12_B_c.gif","","","","","11","complex_similar","images/stimuli/spore_stims/complex_12_B_c.gif","middle","","","","",""
"","null","html-keyboard-response","218","498881","0.0-41.0-0.6","SS1613081429451","","","null","","","","","<p><img src= images/blank.png width =""200"" height = ""200"" style = ""float:right""></p><p><img src=images/blank.png width =""800"" height = ""200""></p>","","","","","","","","","","","",""
"","2490.669999999227","sequential-stimulus-presentation","219","502234","0.0-41.0-1.6","SS1613081429451","trial","","40","800","3290.669999999227","images/stimuli/spore_stims/complex_12_A_c.gif","images/stimuli/spore_stims/complex_12_B_c.gif","","","","","11","complex_similar","images/stimuli/spore_stims/complex_12_B_c.gif","middle","","","","",""
"","null","html-keyboard-response","220","503348","0.0-41.0-0.7","SS1613081429451","","","null","","","","","<p><img src= images/blank.png width =""200"" height = ""200"" style = ""float:right""></p><p><img src=images/blank.png width =""800"" height = ""200""></p>","","","","","","","","","","","",""
"","1290.000000008149","sequential-stimulus-presentation","221","505481","0.0-41.0-1.7","SS1613081429451","trial","","40","800","2090.000000008149","images/stimuli/spore_stims/complex_12_A_c.gif","images/stimuli/spore_stims/complex_12_B_c.gif","","","","","11","complex_similar","images/stimuli/spore_stims/complex_12_B_c.gif","middle","","","","",""
"","1345.2899999974761","html-keyboard-response","222","506861","0.0-42.0","SS1613081429451","pref_question","","51","","","","","<video width ='960' height = '540' style='padding-top:8%' autoplay muted><source src='images/stimuli/wall_pref.mp4' type='video/mp4'></video>","3","right","66%","11","","","","","","","",""
"","3532.0599999977276","sequential-stimulus-presentation","223","511242","0.0-43.0","SS1613081429451","pref_reveal","","40","800","4332.059999997728","null","null","","","","","11","","","","novel","","","",""
"","null","html-keyboard-response","224","512444","0.0-44.0-0.0","SS1613081429451","","","null","","","","","<p><img src= images/blank.png width =""200"" height = ""200"" style = ""float:right""></p><p><img src=images/blank.png width =""800"" height = ""200""></p>","","","","","","","","","","","",""
"","1062.1650000102818","sequential-stimulus-presentation","225","514344","0.0-44.0-1.0","SS1613081429451","trial","","40","800","1862.1650000102818","images/stimuli/spore_stims/complex_19_B_c.gif","images/stimuli/spore_stims/complex_20_B_a.gif","","","","","12","complex_dissimilar","images/stimuli/spore_stims/complex_20_B_a.gif","right","","","","",""
"","null","html-keyboard-response","226","515533","0.0-44.0-0.1","SS1613081429451","","","null","","","","","<p><img src= images/blank.png width =""200"" height = ""200"" style = ""float:right""></p><p><img src=images/blank.png width =""800"" height = ""200""></p>","","","","","","","","","","","",""
"","1019.2899999965448","sequential-stimulus-presentation","227","517397","0.0-44.0-1.1","SS1613081429451","trial","","40","800","1819.2899999965448","images/stimuli/spore_stims/complex_19_B_c.gif","images/stimuli/spore_stims/complex_20_B_a.gif","","","","","12","complex_dissimilar","images/stimuli/spore_stims/complex_20_B_a.gif","right","","","","",""
"","null","html-keyboard-response","228","518337","0.0-44.0-0.2","SS1613081429451","","","null","","","","","<p><img src= images/blank.png width =""200"" height = ""200"" style = ""float:right""></p><p><img src=images/blank.png width =""800"" height = ""200""></p>","","","","","","","","","","","",""
"","1097.4050000077114","sequential-stimulus-presentation","229","520274","0.0-44.0-1.2","SS1613081429451","trial","","40","800","1897.4050000077114","images/stimuli/spore_stims/complex_19_B_c.gif","images/stimuli/spore_stims/complex_20_B_a.gif","","","","","12","complex_dissimilar","images/stimuli/spore_stims/complex_20_B_a.gif","right","","","","",""
"","null","html-keyboard-response","230","521602","0.0-44.0-0.3","SS1613081429451","","","null","","","","","<p><img src= images/blank.png width =""200"" height = ""200"" style = ""float:right""></p><p><img src=images/blank.png width =""800"" height = ""200""></p>","","","","","","","","","","","",""
"","1010.7649999845307","sequential-stimulus-presentation","231","523454","0.0-44.0-1.3","SS1613081429451","trial","","40","800","1810.7649999845307","images/stimuli/spore_stims/complex_19_B_c.gif","images/stimuli/spore_stims/complex_20_B_a.gif","","","","","12","complex_dissimilar","images/stimuli/spore_stims/complex_19_B_c.gif","left","","","","",""
"","null","html-keyboard-response","232","524514","0.0-44.0-0.4","SS1613081429451","","","null","","","","","<p><img src= images/blank.png width =""200"" height = ""200"" style = ""float:right""></p><p><img src=images/blank.png width =""800"" height = ""200""></p>","","","","","","","","","","","",""
"","915.3750000114087","sequential-stimulus-presentation","233","526269","0.0-44.0-1.4","SS1613081429451","trial","","40","800","1715.3750000114087","images/stimuli/spore_stims/complex_19_B_c.gif","images/stimuli/spore_stims/complex_20_B_a.gif","","","","","12","complex_dissimilar","images/stimuli/spore_stims/complex_20_B_a.gif","right","","","","",""
"","null","html-keyboard-response","234","527226","0.0-44.0-0.5","SS1613081429451","","","null","","","","","<p><img src= images/blank.png width =""200"" height = ""200"" style = ""float:right""></p><p><img src=images/blank.png width =""800"" height = ""200""></p>","","","","","","","","","","","",""
"","920.0850000197534","sequential-stimulus-presentation","235","528989","0.0-44.0-1.5","SS1613081429451","trial","","40","800","1720.0850000197534","images/stimuli/spore_stims/complex_19_B_c.gif","images/stimuli/spore_stims/complex_20_B_a.gif","","","","","12","complex_dissimilar","images/stimuli/spore_stims/complex_20_B_a.gif","right","","","","",""
"","null","html-keyboard-response","236","530001","0.0-44.0-0.6","SS1613081429451","","","null","","","","","<p><img src= images/blank.png width =""200"" height = ""200"" style = ""float:right""></p><p><img src=images/blank.png width =""800"" height = ""200""></p>","","","","","","","","","","","",""
"","1182.5149999931455","sequential-stimulus-presentation","237","532024","0.0-44.0-1.6","SS1613081429451","trial","","40","800","1982.5149999931455","images/stimuli/spore_stims/complex_19_B_c.gif","images/stimuli/spore_stims/complex_20_B_a.gif","","","","","12","complex_dissimilar","images/stimuli/spore_stims/complex_20_B_a.gif","right","","","","",""
"","null","html-keyboard-response","238","532999","0.0-44.0-0.7","SS1613081429451","","","null","","","","","<p><img src= images/blank.png width =""200"" height = ""200"" style = ""float:right""></p><p><img src=images/blank.png width =""800"" height = ""200""></p>","","","","","","","","","","","",""
"","731.8049999885261","sequential-stimulus-presentation","239","534579","0.0-44.0-1.7","SS1613081429451","trial","","40","800","1531.804999988526","images/stimuli/spore_stims/complex_19_B_c.gif","images/stimuli/spore_stims/complex_20_B_a.gif","","","","","12","complex_dissimilar","images/stimuli/spore_stims/complex_20_B_a.gif","right","","","","",""
"","1789.1299999901094","html-keyboard-response","240","536386","0.0-45.0","SS1613081429451","pref_question","","50","","","","","<video width ='960' height = '540' style='padding-top:8%' autoplay muted><source src='images/stimuli/wall_pref.mp4' type='video/mp4'></video>","2","middle","45%","12","","","","","","","",""
"","4839.925000007497","sequential-stimulus-presentation","241","542058","0.0-46.0","SS1613081429451","pref_reveal","","40","800","5639.925000007497","null","null","","","","","12","","","","novel","","","",""
"","null","html-keyboard-response","242","543161","0.0-47.0-0.0","SS1613081429451","","","null","","","","","<p><img src= images/blank.png width =""200"" height = ""200"" style = ""float:right""></p><p><img src=images/blank.png width =""800"" height = ""200""></p>","","","","","","","","","","","",""
"","1716.4199999824632","sequential-stimulus-presentation","243","545720","0.0-47.0-1.0","SS1613081429451","trial","","40","800","2516.419999982463","images/stimuli/spore_stims/complex_14_B_b.gif","images/stimuli/spore_stims/complex_14_A_b.gif","","","","","13","complex_similar","images/stimuli/spore_stims/complex_14_A_b.gif","middle","","","","",""
"","null","html-keyboard-response","244","546587","0.0-47.0-0.1","SS1613081429451","","","null","","","","","<p><img src= images/blank.png width =""200"" height = ""200"" style = ""float:right""></p><p><img src=images/blank.png width =""800"" height = ""200""></p>","","","","","","","","","","","",""
"","766.7300000030082","sequential-stimulus-presentation","245","548195","0.0-47.0-1.1","SS1613081429451","trial","","40","800","1566.7300000030082","images/stimuli/spore_stims/complex_14_B_b.gif","images/stimuli/spore_stims/complex_14_A_b.gif","","","","","13","complex_similar","images/stimuli/spore_stims/complex_14_A_b.gif","middle","","","","",""
"","null","html-keyboard-response","246","549258","0.0-47.0-0.2","SS1613081429451","","","null","","","","","<p><img src= images/blank.png width =""200"" height = ""200"" style = ""float:right""></p><p><img src=images/blank.png width =""800"" height = ""200""></p>","","","","","","","","","","","",""
"","647.9549999930896","sequential-stimulus-presentation","247","550765","0.0-47.0-1.2","SS1613081429451","trial","","40","800","1447.9549999930896","images/stimuli/spore_stims/complex_14_B_b.gif","images/stimuli/spore_stims/complex_14_A_b.gif","","","","","13","complex_similar","images/stimuli/spore_stims/complex_14_A_b.gif","middle","","","","",""
"","null","html-keyboard-response","248","552094","0.0-47.0-0.3","SS1613081429451","","","null","","","","","<p><img src= images/blank.png width =""200"" height = ""200"" style = ""float:right""></p><p><img src=images/blank.png width =""800"" height = ""200""></p>","","","","","","","","","","","",""
"","399.9199999962002","sequential-stimulus-presentation","249","553333","0.0-47.0-1.3","SS1613081429451","trial","","40","800","1199.9199999962002","images/stimuli/spore_stims/complex_14_B_b.gif","images/stimuli/spore_stims/complex_14_A_b.gif","","","","","13","complex_similar","images/stimuli/spore_stims/complex_14_A_b.gif","middle","","","","",""
"","null","html-keyboard-response","250","554641","0.0-47.0-0.4","SS1613081429451","","","null","","","","","<p><img src= images/blank.png width =""200"" height = ""200"" style = ""float:right""></p><p><img src=images/blank.png width =""800"" height = ""200""></p>","","","","","","","","","","","",""
"","783.9399999938905","sequential-stimulus-presentation","251","556252","0.0-47.0-1.4","SS1613081429451","trial","","40","800","1583.9399999938905","images/stimuli/spore_stims/complex_14_B_b.gif","images/stimuli/spore_stims/complex_14_A_b.gif","","","","","13","complex_similar","images/stimuli/spore_stims/complex_14_A_b.gif","middle","","","","",""
"","null","html-keyboard-response","252","557441","0.0-47.0-0.5","SS1613081429451","","","null","","","","","<p><img src= images/blank.png width =""200"" height = ""200"" style = ""float:right""></p><p><img src=images/blank.png width =""800"" height = ""200""></p>","","","","","","","","","","","",""
"","605.5900000210386","sequential-stimulus-presentation","253","558884","0.0-47.0-1.5","SS1613081429451","trial","","40","800","1405.5900000210386","images/stimuli/spore_stims/complex_14_B_b.gif","images/stimuli/spore_stims/complex_14_A_b.gif","","","","","13","complex_similar","images/stimuli/spore_stims/complex_14_A_b.gif","middle","","","","",""
"","null","html-keyboard-response","254","559942","0.0-47.0-0.6","SS1613081429451","","","null","","","","","<p><img src= images/blank.png width =""200"" height = ""200"" style = ""float:right""></p><p><img src=images/blank.png width =""800"" height = ""200""></p>","","","","","","","","","","","",""
"","1078.6099999968428","sequential-stimulus-presentation","255","561860","0.0-47.0-1.6","SS1613081429451","trial","","40","800","1878.6099999968428","images/stimuli/spore_stims/complex_14_B_b.gif","images/stimuli/spore_stims/complex_14_A_b.gif","","","","","13","complex_similar","images/stimuli/spore_stims/complex_14_A_b.gif","middle","","","","",""
"","null","html-keyboard-response","256","563007","0.0-47.0-0.7","SS1613081429451","","","null","","","","","<p><img src= images/blank.png width =""200"" height = ""200"" style = ""float:right""></p><p><img src=images/blank.png width =""800"" height = ""200""></p>","","","","","","","","","","","",""
"","693.1449999974575","sequential-stimulus-presentation","257","564545","0.0-47.0-1.7","SS1613081429451","trial","","40","800","1493.1449999974575","images/stimuli/spore_stims/complex_14_B_b.gif","images/stimuli/spore_stims/complex_14_A_b.gif","","","","","13","complex_similar","images/stimuli/spore_stims/complex_14_B_b.gif","left","","","","",""
"","1465.4399999999441","html-keyboard-response","258","566044","0.0-48.0","SS1613081429451","pref_question","","51","","","","","<video width ='960' height = '540' style='padding-top:8%' autoplay muted><source src='images/stimuli/wall_pref.mp4' type='video/mp4'></video>","3","right","66%","13","","","","","","","",""
"","1334.5850000041537","sequential-stimulus-presentation","259","568213","0.0-49.0","SS1613081429451","pref_reveal","","40","800","2134.5850000041537","null","null","","","","","13","","","","novel","","","",""
"","null","html-keyboard-response","260","569350","0.0-50.0-0.0","SS1613081429451","","","null","","","","","<p><img src= images/blank.png width =""200"" height = ""200"" style = ""float:right""></p><p><img src=images/blank.png width =""800"" height = ""200""></p>","","","","","","","","","","","",""
"","827.7499999967404","sequential-stimulus-presentation","261","571025","0.0-50.0-1.0","SS1613081429451","trial","","40","800","1627.7499999967404","images/stimuli/spore_stims/simple_18_B_a.gif","images/stimuli/spore_stims/simple_18_A_a.gif","","","","","14","simple_similar","images/stimuli/spore_stims/simple_18_A_a.gif","right","","","","",""
"","null","html-keyboard-response","262","572124","0.0-50.0-0.1","SS1613081429451","","","null","","","","","<p><img src= images/blank.png width =""200"" height = ""200"" style = ""float:right""></p><p><img src=images/blank.png width =""800"" height = ""200""></p>","","","","","","","","","","","",""
"","503.1650000018999","sequential-stimulus-presentation","263","573474","0.0-50.0-1.1","SS1613081429451","trial","","40","800","1303.1650000019","images/stimuli/spore_stims/simple_18_B_a.gif","images/stimuli/spore_stims/simple_18_A_a.gif","","","","","14","simple_similar","images/stimuli/spore_stims/simple_18_A_a.gif","right","","","","",""
"","null","html-keyboard-response","264","574386","0.0-50.0-0.2","SS1613081429451","","","null","","","","","<p><img src= images/blank.png width =""200"" height = ""200"" style = ""float:right""></p><p><img src=images/blank.png width =""800"" height = ""200""></p>","","","","","","","","","","","",""
"","291.7899999883957","sequential-stimulus-presentation","265","575516","0.0-50.0-1.2","SS1613081429451","trial","","40","800","1091.7899999883957","images/stimuli/spore_stims/simple_18_B_a.gif","images/stimuli/spore_stims/simple_18_A_a.gif","","","","","14","simple_similar","images/stimuli/spore_stims/simple_18_A_a.gif","right","","","","",""
"","null","html-keyboard-response","266","576789","0.0-50.0-0.3","SS1613081429451","","","null","","","","","<p><img src= images/blank.png width =""200"" height = ""200"" style = ""float:right""></p><p><img src=images/blank.png width =""800"" height = ""200""></p>","","","","","","","","","","","",""
"","614.8450000036974","sequential-stimulus-presentation","267","578248","0.0-50.0-1.3","SS1613081429451","trial","","40","800","1414.8450000036974","images/stimuli/spore_stims/simple_18_B_a.gif","images/stimuli/spore_stims/simple_18_A_a.gif","","","","","14","simple_similar","images/stimuli/spore_stims/simple_18_B_a.gif","middle","","","","",""
"","null","html-keyboard-response","268","579407","0.0-50.0-0.4","SS1613081429451","","","null","","","","","<p><img src= images/blank.png width =""200"" height = ""200"" style = ""float:right""></p><p><img src=images/blank.png width =""800"" height = ""200""></p>","","","","","","","","","","","",""
"","3073.9600000088103","sequential-stimulus-presentation","269","583332","0.0-50.0-1.4","SS1613081429451","trial","","40","800","3873.9600000088103","images/stimuli/spore_stims/simple_18_B_a.gif","images/stimuli/spore_stims/simple_18_A_a.gif","","","","","14","simple_similar","images/stimuli/spore_stims/simple_18_A_a.gif","right","","","","",""
"","null","html-keyboard-response","270","584654","0.0-50.0-0.5","SS1613081429451","","","null","","","","","<p><img src= images/blank.png width =""200"" height = ""200"" style = ""float:right""></p><p><img src=images/blank.png width =""800"" height = ""200""></p>","","","","","","","","","","","",""
"","2241.3200000009965","sequential-stimulus-presentation","271","587733","0.0-50.0-1.5","SS1613081429451","trial","","40","800","3041.3200000009965","images/stimuli/spore_stims/simple_18_B_a.gif","images/stimuli/spore_stims/simple_18_A_a.gif","","","","","14","simple_similar","images/stimuli/spore_stims/simple_18_A_a.gif","right","","","","",""
"","null","html-keyboard-response","272","588643","0.0-50.0-0.6","SS1613081429451","","","null","","","","","<p><img src= images/blank.png width =""200"" height = ""200"" style = ""float:right""></p><p><img src=images/blank.png width =""800"" height = ""200""></p>","","","","","","","","","","","",""
"","748.5699999961071","sequential-stimulus-presentation","273","590243","0.0-50.0-1.6","SS1613081429451","trial","","40","800","1548.569999996107","images/stimuli/spore_stims/simple_18_B_a.gif","images/stimuli/spore_stims/simple_18_A_a.gif","","","","","14","simple_similar","images/stimuli/spore_stims/simple_18_A_a.gif","right","","","","",""
"","null","html-keyboard-response","274","591565","0.0-50.0-0.7","SS1613081429451","","","null","","","","","<p><img src= images/blank.png width =""200"" height = ""200"" style = ""float:right""></p><p><img src=images/blank.png width =""800"" height = ""200""></p>","","","","","","","","","","","",""
"","335.0600000121631","sequential-stimulus-presentation","275","592751","0.0-50.0-1.7","SS1613081429451","trial","","40","800","1135.060000012163","images/stimuli/spore_stims/simple_18_B_a.gif","images/stimuli/spore_stims/simple_18_A_a.gif","","","","","14","simple_similar","images/stimuli/spore_stims/simple_18_A_a.gif","right","","","","",""
"","1266.9999999925494","html-keyboard-response","276","594054","0.0-51.0","SS1613081429451","pref_question","","49","","","","","<video width ='960' height = '540' style='padding-top:8%' autoplay muted><source src='images/stimuli/wall_pref.mp4' type='video/mp4'></video>","1","left","25%","14","","","","","","","",""
"","1017.3699999868404","sequential-stimulus-presentation","277","595911","0.0-52.0","SS1613081429451","pref_reveal","","40","800","1817.3699999868404","null","null","","","","","14","","","","novel","","","",""
"","null","html-keyboard-response","278","597156","0.0-53.0-0.0","SS1613081429451","","","null","","","","","<p><img src= images/blank.png width =""200"" height = ""200"" style = ""float:right""></p><p><img src=images/blank.png width =""800"" height = ""200""></p>","","","","","","","","","","","",""
"","962.3499999870546","sequential-stimulus-presentation","279","598962","0.0-53.0-1.0","SS1613081429451","trial","","40","800","1762.3499999870546","images/stimuli/spore_stims/simple_14_B_d.gif","images/stimuli/spore_stims/simple_14_A_d.gif","","","","","15","simple_similar","images/stimuli/spore_stims/simple_14_A_d.gif","middle","","","","",""
"","null","html-keyboard-response","280","599943","0.0-53.0-0.1","SS1613081429451","","","null","","","","","<p><img src= images/blank.png width =""200"" height = ""200"" style = ""float:right""></p><p><img src=images/blank.png width =""800"" height = ""200""></p>","","","","","","","","","","","",""
"","381.744999991497","sequential-stimulus-presentation","281","601172","0.0-53.0-1.1","SS1613081429451","trial","","40","800","1181.744999991497","images/stimuli/spore_stims/simple_14_B_d.gif","images/stimuli/spore_stims/simple_14_A_d.gif","","","","","15","simple_similar","images/stimuli/spore_stims/simple_14_A_d.gif","middle","","","","",""
"","null","html-keyboard-response","282","602092","0.0-53.0-0.2","SS1613081429451","","","null","","","","","<p><img src= images/blank.png width =""200"" height = ""200"" style = ""float:right""></p><p><img src=images/blank.png width =""800"" height = ""200""></p>","","","","","","","","","","","",""
"","237.22499998984858","sequential-stimulus-presentation","283","603180","0.0-53.0-1.2","SS1613081429451","trial","","40","800","1037.2249999898486","images/stimuli/spore_stims/simple_14_B_d.gif","images/stimuli/spore_stims/simple_14_A_d.gif","","","","","15","simple_similar","images/stimuli/spore_stims/simple_14_A_d.gif","middle","","","","",""
"","null","html-keyboard-response","284","604227","0.0-53.0-0.3","SS1613081429451","","","null","","","","","<p><img src= images/blank.png width =""200"" height = ""200"" style = ""float:right""></p><p><img src=images/blank.png width =""800"" height = ""200""></p>","","","","","","","","","","","",""
"","231.62999999476597","sequential-stimulus-presentation","285","605303","0.0-53.0-1.3","SS1613081429451","trial","","40","800","1031.629999994766","images/stimuli/spore_stims/simple_14_B_d.gif","images/stimuli/spore_stims/simple_14_A_d.gif","","","","","15","simple_similar","images/stimuli/spore_stims/simple_14_A_d.gif","middle","","","","",""
"","null","html-keyboard-response","286","606335","0.0-53.0-0.4","SS1613081429451","","","null","","","","","<p><img src= images/blank.png width =""200"" height = ""200"" style = ""float:right""></p><p><img src=images/blank.png width =""800"" height = ""200""></p>","","","","","","","","","","","",""
"","238.10499999672174","sequential-stimulus-presentation","287","607416","0.0-53.0-1.4","SS1613081429451","trial","","40","800","1038.1049999967217","images/stimuli/spore_stims/simple_14_B_d.gif","images/stimuli/spore_stims/simple_14_A_d.gif","","","","","15","simple_similar","images/stimuli/spore_stims/simple_14_A_d.gif","middle","","","","",""
"","null","html-keyboard-response","288","608395","0.0-53.0-0.5","SS1613081429451","","","null","","","","","<p><img src= images/blank.png width =""200"" height = ""200"" style = ""float:right""></p><p><img src=images/blank.png width =""800"" height = ""200""></p>","","","","","","","","","","","",""
"","456.31500001763925","sequential-stimulus-presentation","289","609695","0.0-53.0-1.5","SS1613081429451","trial","","40","800","1256.3150000176392","images/stimuli/spore_stims/simple_14_B_d.gif","images/stimuli/spore_stims/simple_14_A_d.gif","","","","","15","simple_similar","images/stimuli/spore_stims/simple_14_B_d.gif","left","","","","",""
"","null","html-keyboard-response","290","610776","0.0-53.0-0.6","SS1613081429451","","","null","","","","","<p><img src= images/blank.png width =""200"" height = ""200"" style = ""float:right""></p><p><img src=images/blank.png width =""800"" height = ""200""></p>","","","","","","","","","","","",""
"","340.67000000504777","sequential-stimulus-presentation","291","611960","0.0-53.0-1.6","SS1613081429451","trial","","40","800","1140.6700000050478","images/stimuli/spore_stims/simple_14_B_d.gif","images/stimuli/spore_stims/simple_14_A_d.gif","","","","","15","simple_similar","images/stimuli/spore_stims/simple_14_A_d.gif","middle","","","","",""
"","null","html-keyboard-response","292","612943","0.0-53.0-0.7","SS1613081429451","","","null","","","","","<p><img src= images/blank.png width =""200"" height = ""200"" style = ""float:right""></p><p><img src=images/blank.png width =""800"" height = ""200""></p>","","","","","","","","","","","",""
"","468.05500000482425","sequential-stimulus-presentation","293","614289","0.0-53.0-1.7","SS1613081429451","trial","","40","800","1268.0550000048243","images/stimuli/spore_stims/simple_14_B_d.gif","images/stimuli/spore_stims/simple_14_A_d.gif","","","","","15","simple_similar","images/stimuli/spore_stims/simple_14_A_d.gif","middle","","","","",""
"","1360.000000015134","html-keyboard-response","294","615686","0.0-54.0","SS1613081429451","pref_question","","51","","","","","<video width ='960' height = '540' style='padding-top:8%' autoplay muted><source src='images/stimuli/wall_pref.mp4' type='video/mp4'></video>","3","right","66%","15","","","","","","","",""
"","1060.5600000126287","sequential-stimulus-presentation","295","617596","0.0-55.0","SS1613081429451","pref_reveal","","40","800","1860.5600000126287","null","null","","","","","15","","","","novel","","","",""
"","null","html-keyboard-response","296","618768","0.0-56.0-0.0","SS1613081429451","","","null","","","","","<p><img src= images/blank.png width =""200"" height = ""200"" style = ""float:right""></p><p><img src=images/blank.png width =""800"" height = ""200""></p>","","","","","","","","","","","",""
"","641.2649999838322","sequential-stimulus-presentation","297","620263","0.0-56.0-1.0","SS1613081429451","trial","","40","800","1441.2649999838322","images/stimuli/spore_stims/simple_09_A_c.gif","images/stimuli/spore_stims/simple_09_B_c.gif","","","","","16","simple_similar","images/stimuli/spore_stims/simple_09_B_c.gif","right","","","","",""
"","null","html-keyboard-response","298","621278","0.0-56.0-0.1","SS1613081429451","","","null","","","","","<p><img src= images/blank.png width =""200"" height = ""200"" style = ""float:right""></p><p><img src=images/blank.png width =""800"" height = ""200""></p>","","","","","","","","","","","",""
"","428.0200000212062","sequential-stimulus-presentation","299","622534","0.0-56.0-1.1","SS1613081429451","trial","","40","800","1228.0200000212062","images/stimuli/spore_stims/simple_09_A_c.gif","images/stimuli/spore_stims/simple_09_B_c.gif","","","","","16","simple_similar","images/stimuli/spore_stims/simple_09_B_c.gif","right","","","","",""
"","null","html-keyboard-response","300","623714","0.0-56.0-0.2","SS1613081429451","","","null","","","","","<p><img src= images/blank.png width =""200"" height = ""200"" style = ""float:right""></p><p><img src=images/blank.png width =""800"" height = ""200""></p>","","","","","","","","","","","",""
"","326.78000000305474","sequential-stimulus-presentation","301","624885","0.0-56.0-1.2","SS1613081429451","trial","","40","800","1126.7800000030547","images/stimuli/spore_stims/simple_09_A_c.gif","images/stimuli/spore_stims/simple_09_B_c.gif","","","","","16","simple_similar","images/stimuli/spore_stims/simple_09_B_c.gif","right","","","","",""
"","null","html-keyboard-response","302","625956","0.0-56.0-0.3","SS1613081429451","","","null","","","","","<p><img src= images/blank.png width =""200"" height = ""200"" style = ""float:right""></p><p><img src=images/blank.png width =""800"" height = ""200""></p>","","","","","","","","","","","",""
"","279.4100000173785","sequential-stimulus-presentation","303","627084","0.0-56.0-1.3","SS1613081429451","trial","","40","800","1079.4100000173785","images/stimuli/spore_stims/simple_09_A_c.gif","images/stimuli/spore_stims/simple_09_B_c.gif","","","","","16","simple_similar","images/stimuli/spore_stims/simple_09_B_c.gif","right","","","","",""
"","null","html-keyboard-response","304","628363","0.0-56.0-0.4","SS1613081429451","","","null","","","","","<p><img src= images/blank.png width =""200"" height = ""200"" style = ""float:right""></p><p><img src=images/blank.png width =""800"" height = ""200""></p>","","","","","","","","","","","",""
"","803.4450000268407","sequential-stimulus-presentation","305","630013","0.0-56.0-1.4","SS1613081429451","trial","","40","800","1603.4450000268407","images/stimuli/spore_stims/simple_09_A_c.gif","images/stimuli/spore_stims/simple_09_B_c.gif","","","","","16","simple_similar","images/stimuli/spore_stims/simple_09_B_c.gif","right","","","","",""
"","null","html-keyboard-response","306","630967","0.0-56.0-0.5","SS1613081429451","","","null","","","","","<p><img src= images/blank.png width =""200"" height = ""200"" style = ""float:right""></p><p><img src=images/blank.png width =""800"" height = ""200""></p>","","","","","","","","","","","",""
"","268.50499998545274","sequential-stimulus-presentation","307","632093","0.0-56.0-1.5","SS1613081429451","trial","","40","800","1068.5049999854527","images/stimuli/spore_stims/simple_09_A_c.gif","images/stimuli/spore_stims/simple_09_B_c.gif","","","","","16","simple_similar","images/stimuli/spore_stims/simple_09_B_c.gif","right","","","","",""
"","null","html-keyboard-response","308","633178","0.0-56.0-0.6","SS1613081429451","","","null","","","","","<p><img src= images/blank.png width =""200"" height = ""200"" style = ""float:right""></p><p><img src=images/blank.png width =""800"" height = ""200""></p>","","","","","","","","","","","",""
"","337.6600000192411","sequential-stimulus-presentation","309","634370","0.0-56.0-1.6","SS1613081429451","trial","","40","800","1137.6600000192411","images/stimuli/spore_stims/simple_09_A_c.gif","images/stimuli/spore_stims/simple_09_B_c.gif","","","","","16","simple_similar","images/stimuli/spore_stims/simple_09_B_c.gif","right","","","","",""
"","null","html-keyboard-response","310","635314","0.0-56.0-0.7","SS1613081429451","","","null","","","","","<p><img src= images/blank.png width =""200"" height = ""200"" style = ""float:right""></p><p><img src=images/blank.png width =""800"" height = ""200""></p>","","","","","","","","","","","",""
"","651.0000000125729","sequential-stimulus-presentation","311","636812","0.0-56.0-1.7","SS1613081429451","trial","","40","800","1451.0000000125729","images/stimuli/spore_stims/simple_09_A_c.gif","images/stimuli/spore_stims/simple_09_B_c.gif","","","","","16","simple_similar","images/stimuli/spore_stims/simple_09_A_c.gif","left","","","","",""
"","2325.024999998277","html-keyboard-response","312","639175","0.0-57.0","SS1613081429451","pref_question","","50","","","","","<video width ='960' height = '540' style='padding-top:8%' autoplay muted><source src='images/stimuli/wall_pref.mp4' type='video/mp4'></video>","2","middle","45%","16","","","","","","","",""
