"view_history","rt","trial_type","trial_index","time_elapsed","internal_node_id","subject","stimulus_type","trial_stimulus","key_press","minimum_viewing_duration","trial_looking_time","block_deviant","block_background","stimulus","wall_pref","location","location_percent","block_number","block_type","stimulus_displayed","position_displayed","stim_type_selected"
"[{""page_index"":0,""viewing_time"":44801}]","44801","instructions","0","44814","0.0-0.0","SS1613138988811","","","","","","","","","","","","","","","",""
"[{""page_index"":0,""viewing_time"":7348},{""page_index"":1,""viewing_time"":27455}]","34804","instructions","1","81624","0.0-1.0","SS1613138988811","instructions","","","","","","","","","","","","","","",""
"","14678","sequential-stimulus-presentation","2","97123","0.0-2.0","SS1613138988811","","","40","800","15478","null","null","","","","","","","","",""
"","6121","sequential-stimulus-presentation","3","104049","0.0-3.0","SS1613138988811","","","40","800","6921","null","null","","","","","","","","",""
"[{""page_index"":0,""viewing_time"":10638}]","10639","instructions","4","114688","0.0-4.0","SS1613138988811","instructions","","","","","","","","","","","","","","",""
"","19875","html-keyboard-response","5","134568","0.0-5.0","SS1613138988811","instructions","","49","","","","","<video width ='960' height = '540' autoplay muted><source src='images/stimuli/wall_pref.mp4' type='video/mp4'></video>","1","left","25%","","","","",""
"","3159","sequential-stimulus-presentation","6","138533","0.0-6.0","SS1613138988811","pref_reveal","","40","800","3959","null","null","","","","","","","","",""
"[{""page_index"":0,""viewing_time"":21506},{""page_index"":1,""viewing_time"":6646},{""page_index"":2,""viewing_time"":2200},{""page_index"":3,""viewing_time"":1920}]","32272","instructions","7","170808","0.0-7.0","SS1613138988811","instructions","","","","","","","","","","","","","","",""
"","null","html-keyboard-response","8","172084","0.0-8.0-0.0","SS1613138988811","","","null","","","","","<p><img src= images/blank.png width =""200"" height = ""200"" style = ""float:right""></p><p><img src=images/blank.png width =""800"" height = ""200""></p>","","","","","","","",""
"","4734","sequential-stimulus-presentation","9","177623","0.0-8.0-1.0","SS1613138988811","trial","","40","800","5534","images/stimuli/spore_stims/simple_12_A_c.gif","images/stimuli/spore_stims/simple_19_A_d.gif","","","","","0","simple_dissimilar","images/stimuli/spore_stims/simple_19_A_d.gif","middle",""
"","null","html-keyboard-response","10","178603","0.0-8.0-0.1","SS1613138988811","","","null","","","","","<p><img src= images/blank.png width =""200"" height = ""200"" style = ""float:right""></p><p><img src=images/blank.png width =""800"" height = ""200""></p>","","","","","","","",""
"","1776","sequential-stimulus-presentation","11","181185","0.0-8.0-1.1","SS1613138988811","trial","","40","800","2576","images/stimuli/spore_stims/simple_12_A_c.gif","images/stimuli/spore_stims/simple_19_A_d.gif","","","","","0","simple_dissimilar","images/stimuli/spore_stims/simple_19_A_d.gif","middle",""
"","null","html-keyboard-response","12","182384","0.0-8.0-0.2","SS1613138988811","","","null","","","","","<p><img src= images/blank.png width =""200"" height = ""200"" style = ""float:right""></p><p><img src=images/blank.png width =""800"" height = ""200""></p>","","","","","","","",""
"","12003","sequential-stimulus-presentation","13","195192","0.0-8.0-1.2","SS1613138988811","trial","","40","800","12803","images/stimuli/spore_stims/simple_12_A_c.gif","images/stimuli/spore_stims/simple_19_A_d.gif","","","","","0","simple_dissimilar","images/stimuli/spore_stims/simple_19_A_d.gif","middle",""
"","null","html-keyboard-response","14","196179","0.0-8.0-0.3","SS1613138988811","","","null","","","","","<p><img src= images/blank.png width =""200"" height = ""200"" style = ""float:right""></p><p><img src=images/blank.png width =""800"" height = ""200""></p>","","","","","","","",""
"","8762","sequential-stimulus-presentation","15","205746","0.0-8.0-1.3","SS1613138988811","trial","","40","800","9562","images/stimuli/spore_stims/simple_12_A_c.gif","images/stimuli/spore_stims/simple_19_A_d.gif","","","","","0","simple_dissimilar","images/stimuli/spore_stims/simple_12_A_c.gif","left",""
"","null","html-keyboard-response","16","206744","0.0-8.0-0.4","SS1613138988811","","","null","","","","","<p><img src= images/blank.png width =""200"" height = ""200"" style = ""float:right""></p><p><img src=images/blank.png width =""800"" height = ""200""></p>","","","","","","","",""
"","7829","sequential-stimulus-presentation","17","215377","0.0-8.0-1.4","SS1613138988811","trial","","40","800","8629","images/stimuli/spore_stims/simple_12_A_c.gif","images/stimuli/spore_stims/simple_19_A_d.gif","","","","","0","simple_dissimilar","images/stimuli/spore_stims/simple_19_A_d.gif","middle",""
"","null","html-keyboard-response","18","216645","0.0-8.0-0.5","SS1613138988811","","","null","","","","","<p><img src= images/blank.png width =""200"" height = ""200"" style = ""float:right""></p><p><img src=images/blank.png width =""800"" height = ""200""></p>","","","","","","","",""
"","7832","sequential-stimulus-presentation","19","225281","0.0-8.0-1.5","SS1613138988811","trial","","40","800","8632","images/stimuli/spore_stims/simple_12_A_c.gif","images/stimuli/spore_stims/simple_19_A_d.gif","","","","","0","simple_dissimilar","images/stimuli/spore_stims/simple_19_A_d.gif","middle",""
"","null","html-keyboard-response","20","226095","0.0-8.0-0.6","SS1613138988811","","","null","","","","","<p><img src= images/blank.png width =""200"" height = ""200"" style = ""float:right""></p><p><img src=images/blank.png width =""800"" height = ""200""></p>","","","","","","","",""
"","5292","sequential-stimulus-presentation","21","232191","0.0-8.0-1.6","SS1613138988811","trial","","40","800","6092","images/stimuli/spore_stims/simple_12_A_c.gif","images/stimuli/spore_stims/simple_19_A_d.gif","","","","","0","simple_dissimilar","images/stimuli/spore_stims/simple_19_A_d.gif","middle",""
"","null","html-keyboard-response","22","233400","0.0-8.0-0.7","SS1613138988811","","","null","","","","","<p><img src= images/blank.png width =""200"" height = ""200"" style = ""float:right""></p><p><img src=images/blank.png width =""800"" height = ""200""></p>","","","","","","","",""
"","3664","sequential-stimulus-presentation","23","237870","0.0-8.0-1.7","SS1613138988811","trial","","40","800","4464","images/stimuli/spore_stims/simple_12_A_c.gif","images/stimuli/spore_stims/simple_19_A_d.gif","","","","","0","simple_dissimilar","images/stimuli/spore_stims/simple_19_A_d.gif","middle",""
"","9513","html-keyboard-response","24","247387","0.0-9.0","SS1613138988811","pref_question","","51","","","","","<video width ='960' height = '540' style='padding-top:8%' autoplay muted><source src='images/stimuli/wall_pref.mp4' type='video/mp4'></video>","3","right","66%","0","","","",""
"","6002","sequential-stimulus-presentation","25","254193","0.0-10.0","SS1613138988811","pref_reveal","","40","800","6802","null","null","","","","","0","","","","novel"
"","null","html-keyboard-response","26","255235","0.0-11.0-0.0","SS1613138988811","","","null","","","","","<p><img src= images/blank.png width =""200"" height = ""200"" style = ""float:right""></p><p><img src=images/blank.png width =""800"" height = ""200""></p>","","","","","","","",""
"","15522","sequential-stimulus-presentation","27","271562","0.0-11.0-1.0","SS1613138988811","trial","","40","800","16322","images/stimuli/spore_stims/simple_18_A_c.gif","images/stimuli/spore_stims/simple_07_A_c.gif","","","","","1","simple_dissimilar","images/stimuli/spore_stims/simple_07_A_c.gif","middle",""
"","null","html-keyboard-response","28","272585","0.0-11.0-0.1","SS1613138988811","","","null","","","","","<p><img src= images/blank.png width =""200"" height = ""200"" style = ""float:right""></p><p><img src=images/blank.png width =""800"" height = ""200""></p>","","","","","","","",""
"","3597","sequential-stimulus-presentation","29","276985","0.0-11.0-1.1","SS1613138988811","trial","","40","800","4397","images/stimuli/spore_stims/simple_18_A_c.gif","images/stimuli/spore_stims/simple_07_A_c.gif","","","","","1","simple_dissimilar","images/stimuli/spore_stims/simple_07_A_c.gif","middle",""
"","null","html-keyboard-response","30","278037","0.0-11.0-0.2","SS1613138988811","","","null","","","","","<p><img src= images/blank.png width =""200"" height = ""200"" style = ""float:right""></p><p><img src=images/blank.png width =""800"" height = ""200""></p>","","","","","","","",""
"","14550","sequential-stimulus-presentation","31","293392","0.0-11.0-1.2","SS1613138988811","trial","","40","800","15350","images/stimuli/spore_stims/simple_18_A_c.gif","images/stimuli/spore_stims/simple_07_A_c.gif","","","","","1","simple_dissimilar","images/stimuli/spore_stims/simple_07_A_c.gif","middle",""
"","null","html-keyboard-response","32","294531","0.0-11.0-0.3","SS1613138988811","","","null","","","","","<p><img src= images/blank.png width =""200"" height = ""200"" style = ""float:right""></p><p><img src=images/blank.png width =""800"" height = ""200""></p>","","","","","","","",""
"","3761","sequential-stimulus-presentation","33","299097","0.0-11.0-1.3","SS1613138988811","trial","","40","800","4561","images/stimuli/spore_stims/simple_18_A_c.gif","images/stimuli/spore_stims/simple_07_A_c.gif","","","","","1","simple_dissimilar","images/stimuli/spore_stims/simple_18_A_c.gif","right",""
"","null","html-keyboard-response","34","300051","0.0-11.0-0.4","SS1613138988811","","","null","","","","","<p><img src= images/blank.png width =""200"" height = ""200"" style = ""float:right""></p><p><img src=images/blank.png width =""800"" height = ""200""></p>","","","","","","","",""
"","230","sequential-stimulus-presentation","35","301085","0.0-11.0-1.4","SS1613138988811","trial","","40","800","1030","images/stimuli/spore_stims/simple_18_A_c.gif","images/stimuli/spore_stims/simple_07_A_c.gif","","","","","1","simple_dissimilar","images/stimuli/spore_stims/simple_07_A_c.gif","middle",""
"","null","html-keyboard-response","36","302145","0.0-11.0-0.5","SS1613138988811","","","null","","","","","<p><img src= images/blank.png width =""200"" height = ""200"" style = ""float:right""></p><p><img src=images/blank.png width =""800"" height = ""200""></p>","","","","","","","",""
"","948","sequential-stimulus-presentation","37","303898","0.0-11.0-1.5","SS1613138988811","trial","","40","800","1748","images/stimuli/spore_stims/simple_18_A_c.gif","images/stimuli/spore_stims/simple_07_A_c.gif","","","","","1","simple_dissimilar","images/stimuli/spore_stims/simple_07_A_c.gif","middle",""
"","null","html-keyboard-response","38","304770","0.0-11.0-0.6","SS1613138988811","","","null","","","","","<p><img src= images/blank.png width =""200"" height = ""200"" style = ""float:right""></p><p><img src=images/blank.png width =""800"" height = ""200""></p>","","","","","","","",""
"","8633","sequential-stimulus-presentation","39","314207","0.0-11.0-1.6","SS1613138988811","trial","","40","800","9433","images/stimuli/spore_stims/simple_18_A_c.gif","images/stimuli/spore_stims/simple_07_A_c.gif","","","","","1","simple_dissimilar","images/stimuli/spore_stims/simple_07_A_c.gif","middle",""
"","null","html-keyboard-response","40","315490","0.0-11.0-0.7","SS1613138988811","","","null","","","","","<p><img src= images/blank.png width =""200"" height = ""200"" style = ""float:right""></p><p><img src=images/blank.png width =""800"" height = ""200""></p>","","","","","","","",""
"","4404","sequential-stimulus-presentation","41","320699","0.0-11.0-1.7","SS1613138988811","trial","","40","800","5204","images/stimuli/spore_stims/simple_18_A_c.gif","images/stimuli/spore_stims/simple_07_A_c.gif","","","","","1","simple_dissimilar","images/stimuli/spore_stims/simple_07_A_c.gif","middle",""
"","15237","html-keyboard-response","42","335943","0.0-12.0","SS1613138988811","pref_question","","50","","","","","<video width ='960' height = '540' style='padding-top:8%' autoplay muted><source src='images/stimuli/wall_pref.mp4' type='video/mp4'></video>","2","middle","45%","1","","","",""
"","9216","sequential-stimulus-presentation","43","345965","0.0-13.0","SS1613138988811","pref_reveal","","40","800","10016","null","null","","","","","1","","","","background"
"","null","html-keyboard-response","44","346888","0.0-14.0-0.0","SS1613138988811","","","null","","","","","<p><img src= images/blank.png width =""200"" height = ""200"" style = ""float:right""></p><p><img src=images/blank.png width =""800"" height = ""200""></p>","","","","","","","",""
"","9929","sequential-stimulus-presentation","45","357623","0.0-14.0-1.0","SS1613138988811","trial","","40","800","10729","images/stimuli/spore_stims/simple_16_A_c.gif","images/stimuli/spore_stims/simple_16_B_c.gif","","","","","2","simple_similar","images/stimuli/spore_stims/simple_16_B_c.gif","left",""
"","null","html-keyboard-response","46","358767","0.0-14.0-0.1","SS1613138988811","","","null","","","","","<p><img src= images/blank.png width =""200"" height = ""200"" style = ""float:right""></p><p><img src=images/blank.png width =""800"" height = ""200""></p>","","","","","","","",""
"","1674","sequential-stimulus-presentation","47","361245","0.0-14.0-1.1","SS1613138988811","trial","","40","800","2474","images/stimuli/spore_stims/simple_16_A_c.gif","images/stimuli/spore_stims/simple_16_B_c.gif","","","","","2","simple_similar","images/stimuli/spore_stims/simple_16_B_c.gif","left",""
"","null","html-keyboard-response","48","362320","0.0-14.0-0.2","SS1613138988811","","","null","","","","","<p><img src= images/blank.png width =""200"" height = ""200"" style = ""float:right""></p><p><img src=images/blank.png width =""800"" height = ""200""></p>","","","","","","","",""
"","2902","sequential-stimulus-presentation","49","366026","0.0-14.0-1.2","SS1613138988811","trial","","40","800","3702","images/stimuli/spore_stims/simple_16_A_c.gif","images/stimuli/spore_stims/simple_16_B_c.gif","","","","","2","simple_similar","images/stimuli/spore_stims/simple_16_B_c.gif","left",""
"","null","html-keyboard-response","50","367198","0.0-14.0-0.3","SS1613138988811","","","null","","","","","<p><img src= images/blank.png width =""200"" height = ""200"" style = ""float:right""></p><p><img src=images/blank.png width =""800"" height = ""200""></p>","","","","","","","",""
"","8283","sequential-stimulus-presentation","51","376286","0.0-14.0-1.3","SS1613138988811","trial","","40","800","9083","images/stimuli/spore_stims/simple_16_A_c.gif","images/stimuli/spore_stims/simple_16_B_c.gif","","","","","2","simple_similar","images/stimuli/spore_stims/simple_16_B_c.gif","left",""
"","null","html-keyboard-response","52","377179","0.0-14.0-0.4","SS1613138988811","","","null","","","","","<p><img src= images/blank.png width =""200"" height = ""200"" style = ""float:right""></p><p><img src=images/blank.png width =""800"" height = ""200""></p>","","","","","","","",""
"","3826","sequential-stimulus-presentation","53","381809","0.0-14.0-1.4","SS1613138988811","trial","","40","800","4626","images/stimuli/spore_stims/simple_16_A_c.gif","images/stimuli/spore_stims/simple_16_B_c.gif","","","","","2","simple_similar","images/stimuli/spore_stims/simple_16_B_c.gif","left",""
"","null","html-keyboard-response","54","382820","0.0-14.0-0.5","SS1613138988811","","","null","","","","","<p><img src= images/blank.png width =""200"" height = ""200"" style = ""float:right""></p><p><img src=images/blank.png width =""800"" height = ""200""></p>","","","","","","","",""
"","6219","sequential-stimulus-presentation","55","389845","0.0-14.0-1.5","SS1613138988811","trial","","40","800","7019","images/stimuli/spore_stims/simple_16_A_c.gif","images/stimuli/spore_stims/simple_16_B_c.gif","","","","","2","simple_similar","images/stimuli/spore_stims/simple_16_B_c.gif","left",""
"","null","html-keyboard-response","56","390681","0.0-14.0-0.6","SS1613138988811","","","null","","","","","<p><img src= images/blank.png width =""200"" height = ""200"" style = ""float:right""></p><p><img src=images/blank.png width =""800"" height = ""200""></p>","","","","","","","",""
"","2776","sequential-stimulus-presentation","57","394261","0.0-14.0-1.6","SS1613138988811","trial","","40","800","3576","images/stimuli/spore_stims/simple_16_A_c.gif","images/stimuli/spore_stims/simple_16_B_c.gif","","","","","2","simple_similar","images/stimuli/spore_stims/simple_16_A_c.gif","right",""
"","null","html-keyboard-response","58","395342","0.0-14.0-0.7","SS1613138988811","","","null","","","","","<p><img src= images/blank.png width =""200"" height = ""200"" style = ""float:right""></p><p><img src=images/blank.png width =""800"" height = ""200""></p>","","","","","","","",""
"","6194","sequential-stimulus-presentation","59","402340","0.0-14.0-1.7","SS1613138988811","trial","","40","800","6994","images/stimuli/spore_stims/simple_16_A_c.gif","images/stimuli/spore_stims/simple_16_B_c.gif","","","","","2","simple_similar","images/stimuli/spore_stims/simple_16_B_c.gif","left",""
"","2923","html-keyboard-response","60","405267","0.0-15.0","SS1613138988811","pref_question","","50","","","","","<video width ='960' height = '540' style='padding-top:8%' autoplay muted><source src='images/stimuli/wall_pref.mp4' type='video/mp4'></video>","2","middle","45%","2","","","",""
"","6783","sequential-stimulus-presentation","61","412855","0.0-16.0","SS1613138988811","pref_reveal","","40","800","7583","null","null","","","","","2","","","","novel"
"","null","html-keyboard-response","62","413889","0.0-17.0-0.0","SS1613138988811","","","null","","","","","<p><img src= images/blank.png width =""200"" height = ""200"" style = ""float:right""></p><p><img src=images/blank.png width =""800"" height = ""200""></p>","","","","","","","",""
"","13752","sequential-stimulus-presentation","63","428447","0.0-17.0-1.0","SS1613138988811","trial","","40","800","14552","images/stimuli/spore_stims/complex_07_A_a.gif","images/stimuli/spore_stims/complex_07_B_a.gif","","","","","3","complex_similar","images/stimuli/spore_stims/complex_07_B_a.gif","left",""
"","null","html-keyboard-response","64","429405","0.0-17.0-0.1","SS1613138988811","","","null","","","","","<p><img src= images/blank.png width =""200"" height = ""200"" style = ""float:right""></p><p><img src=images/blank.png width =""800"" height = ""200""></p>","","","","","","","",""
"","7139","sequential-stimulus-presentation","65","437350","0.0-17.0-1.1","SS1613138988811","trial","","40","800","7939","images/stimuli/spore_stims/complex_07_A_a.gif","images/stimuli/spore_stims/complex_07_B_a.gif","","","","","3","complex_similar","images/stimuli/spore_stims/complex_07_B_a.gif","left",""
"","null","html-keyboard-response","66","438443","0.0-17.0-0.2","SS1613138988811","","","null","","","","","<p><img src= images/blank.png width =""200"" height = ""200"" style = ""float:right""></p><p><img src=images/blank.png width =""800"" height = ""200""></p>","","","","","","","",""
"","12339","sequential-stimulus-presentation","67","451588","0.0-17.0-1.2","SS1613138988811","trial","","40","800","13139","images/stimuli/spore_stims/complex_07_A_a.gif","images/stimuli/spore_stims/complex_07_B_a.gif","","","","","3","complex_similar","images/stimuli/spore_stims/complex_07_B_a.gif","left",""
"","null","html-keyboard-response","68","452628","0.0-17.0-0.3","SS1613138988811","","","null","","","","","<p><img src= images/blank.png width =""200"" height = ""200"" style = ""float:right""></p><p><img src=images/blank.png width =""800"" height = ""200""></p>","","","","","","","",""
"","14068","sequential-stimulus-presentation","69","467500","0.0-17.0-1.3","SS1613138988811","trial","","40","800","14868","images/stimuli/spore_stims/complex_07_A_a.gif","images/stimuli/spore_stims/complex_07_B_a.gif","","","","","3","complex_similar","images/stimuli/spore_stims/complex_07_B_a.gif","left",""
"","null","html-keyboard-response","70","468491","0.0-17.0-0.4","SS1613138988811","","","null","","","","","<p><img src= images/blank.png width =""200"" height = ""200"" style = ""float:right""></p><p><img src=images/blank.png width =""800"" height = ""200""></p>","","","","","","","",""
"","9165","sequential-stimulus-presentation","71","478460","0.0-17.0-1.4","SS1613138988811","trial","","40","800","9965","images/stimuli/spore_stims/complex_07_A_a.gif","images/stimuli/spore_stims/complex_07_B_a.gif","","","","","3","complex_similar","images/stimuli/spore_stims/complex_07_B_a.gif","left",""
"","null","html-keyboard-response","72","479615","0.0-17.0-0.5","SS1613138988811","","","null","","","","","<p><img src= images/blank.png width =""200"" height = ""200"" style = ""float:right""></p><p><img src=images/blank.png width =""800"" height = ""200""></p>","","","","","","","",""
"","4475","sequential-stimulus-presentation","73","484896","0.0-17.0-1.5","SS1613138988811","trial","","40","800","5275","images/stimuli/spore_stims/complex_07_A_a.gif","images/stimuli/spore_stims/complex_07_B_a.gif","","","","","3","complex_similar","images/stimuli/spore_stims/complex_07_B_a.gif","left",""
"","null","html-keyboard-response","74","485842","0.0-17.0-0.6","SS1613138988811","","","null","","","","","<p><img src= images/blank.png width =""200"" height = ""200"" style = ""float:right""></p><p><img src=images/blank.png width =""800"" height = ""200""></p>","","","","","","","",""
"","6259","sequential-stimulus-presentation","75","492908","0.0-17.0-1.6","SS1613138988811","trial","","40","800","7059","images/stimuli/spore_stims/complex_07_A_a.gif","images/stimuli/spore_stims/complex_07_B_a.gif","","","","","3","complex_similar","images/stimuli/spore_stims/complex_07_A_a.gif","right",""
"","null","html-keyboard-response","76","494184","0.0-17.0-0.7","SS1613138988811","","","null","","","","","<p><img src= images/blank.png width =""200"" height = ""200"" style = ""float:right""></p><p><img src=images/blank.png width =""800"" height = ""200""></p>","","","","","","","",""
"","6835","sequential-stimulus-presentation","77","501827","0.0-17.0-1.7","SS1613138988811","trial","","40","800","7635","images/stimuli/spore_stims/complex_07_A_a.gif","images/stimuli/spore_stims/complex_07_B_a.gif","","","","","3","complex_similar","images/stimuli/spore_stims/complex_07_B_a.gif","left",""
"","6674","html-keyboard-response","78","508507","0.0-18.0","SS1613138988811","pref_question","","50","","","","","<video width ='960' height = '540' style='padding-top:8%' autoplay muted><source src='images/stimuli/wall_pref.mp4' type='video/mp4'></video>","2","middle","45%","3","","","",""
"","13137","sequential-stimulus-presentation","79","522449","0.0-19.0","SS1613138988811","pref_reveal","","40","800","13937","null","null","","","","","3","","","","novel"
"","null","html-keyboard-response","80","523497","0.0-20.0-0.0","SS1613138988811","","","null","","","","","<p><img src= images/blank.png width =""200"" height = ""200"" style = ""float:right""></p><p><img src=images/blank.png width =""800"" height = ""200""></p>","","","","","","","",""
"","10633","sequential-stimulus-presentation","81","534936","0.0-20.0-1.0","SS1613138988811","trial","","40","800","11433","images/stimuli/spore_stims/simple_02_A_a.gif","images/stimuli/spore_stims/simple_02_B_a.gif","","","","","4","simple_similar","images/stimuli/spore_stims/simple_02_B_a.gif","right",""
"","null","html-keyboard-response","82","536109","0.0-20.0-0.1","SS1613138988811","","","null","","","","","<p><img src= images/blank.png width =""200"" height = ""200"" style = ""float:right""></p><p><img src=images/blank.png width =""800"" height = ""200""></p>","","","","","","","",""
"","12732","sequential-stimulus-presentation","83","549645","0.0-20.0-1.1","SS1613138988811","trial","","40","800","13532","images/stimuli/spore_stims/simple_02_A_a.gif","images/stimuli/spore_stims/simple_02_B_a.gif","","","","","4","simple_similar","images/stimuli/spore_stims/simple_02_B_a.gif","right",""
"","null","html-keyboard-response","84","550516","0.0-20.0-0.2","SS1613138988811","","","null","","","","","<p><img src= images/blank.png width =""200"" height = ""200"" style = ""float:right""></p><p><img src=images/blank.png width =""800"" height = ""200""></p>","","","","","","","",""
"","966","sequential-stimulus-presentation","85","552286","0.0-20.0-1.2","SS1613138988811","trial","","40","800","1766","images/stimuli/spore_stims/simple_02_A_a.gif","images/stimuli/spore_stims/simple_02_B_a.gif","","","","","4","simple_similar","images/stimuli/spore_stims/simple_02_B_a.gif","right",""
"","null","html-keyboard-response","86","553197","0.0-20.0-0.3","SS1613138988811","","","null","","","","","<p><img src= images/blank.png width =""200"" height = ""200"" style = ""float:right""></p><p><img src=images/blank.png width =""800"" height = ""200""></p>","","","","","","","",""
"","5464","sequential-stimulus-presentation","87","559466","0.0-20.0-1.3","SS1613138988811","trial","","40","800","6264","images/stimuli/spore_stims/simple_02_A_a.gif","images/stimuli/spore_stims/simple_02_B_a.gif","","","","","4","simple_similar","images/stimuli/spore_stims/simple_02_B_a.gif","right",""
"","null","html-keyboard-response","88","560663","0.0-20.0-0.4","SS1613138988811","","","null","","","","","<p><img src= images/blank.png width =""200"" height = ""200"" style = ""float:right""></p><p><img src=images/blank.png width =""800"" height = ""200""></p>","","","","","","","",""
"","9509","sequential-stimulus-presentation","89","570976","0.0-20.0-1.4","SS1613138988811","trial","","40","800","10309","images/stimuli/spore_stims/simple_02_A_a.gif","images/stimuli/spore_stims/simple_02_B_a.gif","","","","","4","simple_similar","images/stimuli/spore_stims/simple_02_A_a.gif","middle",""
"","null","html-keyboard-response","90","571901","0.0-20.0-0.5","SS1613138988811","","","null","","","","","<p><img src= images/blank.png width =""200"" height = ""200"" style = ""float:right""></p><p><img src=images/blank.png width =""800"" height = ""200""></p>","","","","","","","",""
"","11657","sequential-stimulus-presentation","91","584365","0.0-20.0-1.5","SS1613138988811","trial","","40","800","12457","images/stimuli/spore_stims/simple_02_A_a.gif","images/stimuli/spore_stims/simple_02_B_a.gif","","","","","4","simple_similar","images/stimuli/spore_stims/simple_02_B_a.gif","right",""
"","null","html-keyboard-response","92","585643","0.0-20.0-0.6","SS1613138988811","","","null","","","","","<p><img src= images/blank.png width =""200"" height = ""200"" style = ""float:right""></p><p><img src=images/blank.png width =""800"" height = ""200""></p>","","","","","","","",""
"","5077","sequential-stimulus-presentation","93","591524","0.0-20.0-1.6","SS1613138988811","trial","","40","800","5877","images/stimuli/spore_stims/simple_02_A_a.gif","images/stimuli/spore_stims/simple_02_B_a.gif","","","","","4","simple_similar","images/stimuli/spore_stims/simple_02_B_a.gif","right",""
"","null","html-keyboard-response","94","592627","0.0-20.0-0.7","SS1613138988811","","","null","","","","","<p><img src= images/blank.png width =""200"" height = ""200"" style = ""float:right""></p><p><img src=images/blank.png width =""800"" height = ""200""></p>","","","","","","","",""
"","5383","sequential-stimulus-presentation","95","598817","0.0-20.0-1.7","SS1613138988811","trial","","40","800","6183","images/stimuli/spore_stims/simple_02_A_a.gif","images/stimuli/spore_stims/simple_02_B_a.gif","","","","","4","simple_similar","images/stimuli/spore_stims/simple_02_B_a.gif","right",""
"","7201","html-keyboard-response","96","606021","0.0-21.0","SS1613138988811","pref_question","","49","","","","","<video width ='960' height = '540' style='padding-top:8%' autoplay muted><source src='images/stimuli/wall_pref.mp4' type='video/mp4'></video>","1","left","25%","4","","","",""
"","17028","sequential-stimulus-presentation","97","623854","0.0-22.0","SS1613138988811","pref_reveal","","40","800","17828","null","null","","","","","4","","","","novel"
"","null","html-keyboard-response","98","624992","0.0-23.0-0.0","SS1613138988811","","","null","","","","","<p><img src= images/blank.png width =""200"" height = ""200"" style = ""float:right""></p><p><img src=images/blank.png width =""800"" height = ""200""></p>","","","","","","","",""
"","17211","sequential-stimulus-presentation","99","643009","0.0-23.0-1.0","SS1613138988811","trial","","40","800","18011","images/stimuli/spore_stims/complex_04_A_c.gif","images/stimuli/spore_stims/complex_02_A_b.gif","","","","","5","complex_dissimilar","images/stimuli/spore_stims/complex_02_A_b.gif","left",""
"","null","html-keyboard-response","100","644070","0.0-23.0-0.1","SS1613138988811","","","null","","","","","<p><img src= images/blank.png width =""200"" height = ""200"" style = ""float:right""></p><p><img src=images/blank.png width =""800"" height = ""200""></p>","","","","","","","",""
"","18670","sequential-stimulus-presentation","101","663547","0.0-23.0-1.1","SS1613138988811","trial","","40","800","19470","images/stimuli/spore_stims/complex_04_A_c.gif","images/stimuli/spore_stims/complex_02_A_b.gif","","","","","5","complex_dissimilar","images/stimuli/spore_stims/complex_02_A_b.gif","left",""
"","null","html-keyboard-response","102","664780","0.0-23.0-0.2","SS1613138988811","","","null","","","","","<p><img src= images/blank.png width =""200"" height = ""200"" style = ""float:right""></p><p><img src=images/blank.png width =""800"" height = ""200""></p>","","","","","","","",""
"","8881","sequential-stimulus-presentation","103","674466","0.0-23.0-1.2","SS1613138988811","trial","","40","800","9681","images/stimuli/spore_stims/complex_04_A_c.gif","images/stimuli/spore_stims/complex_02_A_b.gif","","","","","5","complex_dissimilar","images/stimuli/spore_stims/complex_02_A_b.gif","left",""
"","null","html-keyboard-response","104","675439","0.0-23.0-0.3","SS1613138988811","","","null","","","","","<p><img src= images/blank.png width =""200"" height = ""200"" style = ""float:right""></p><p><img src=images/blank.png width =""800"" height = ""200""></p>","","","","","","","",""
"","409","sequential-stimulus-presentation","105","676650","0.0-23.0-1.3","SS1613138988811","trial","","40","800","1209","images/stimuli/spore_stims/complex_04_A_c.gif","images/stimuli/spore_stims/complex_02_A_b.gif","","","","","5","complex_dissimilar","images/stimuli/spore_stims/complex_04_A_c.gif","middle",""
"","null","html-keyboard-response","106","677502","0.0-23.0-0.4","SS1613138988811","","","null","","","","","<p><img src= images/blank.png width =""200"" height = ""200"" style = ""float:right""></p><p><img src=images/blank.png width =""800"" height = ""200""></p>","","","","","","","",""
"","32336","sequential-stimulus-presentation","107","710645","0.0-23.0-1.4","SS1613138988811","trial","","40","800","33136","images/stimuli/spore_stims/complex_04_A_c.gif","images/stimuli/spore_stims/complex_02_A_b.gif","","","","","5","complex_dissimilar","images/stimuli/spore_stims/complex_02_A_b.gif","left",""
"","null","html-keyboard-response","108","711869","0.0-23.0-0.5","SS1613138988811","","","null","","","","","<p><img src= images/blank.png width =""200"" height = ""200"" style = ""float:right""></p><p><img src=images/blank.png width =""800"" height = ""200""></p>","","","","","","","",""
"","2592","sequential-stimulus-presentation","109","715267","0.0-23.0-1.5","SS1613138988811","trial","","40","800","3392","images/stimuli/spore_stims/complex_04_A_c.gif","images/stimuli/spore_stims/complex_02_A_b.gif","","","","","5","complex_dissimilar","images/stimuli/spore_stims/complex_02_A_b.gif","left",""
"","null","html-keyboard-response","110","716522","0.0-23.0-0.6","SS1613138988811","","","null","","","","","<p><img src= images/blank.png width =""200"" height = ""200"" style = ""float:right""></p><p><img src=images/blank.png width =""800"" height = ""200""></p>","","","","","","","",""
"","127","sequential-stimulus-presentation","111","717456","0.0-23.0-1.6","SS1613138988811","trial","","40","800","927","images/stimuli/spore_stims/complex_04_A_c.gif","images/stimuli/spore_stims/complex_02_A_b.gif","","","","","5","complex_dissimilar","images/stimuli/spore_stims/complex_02_A_b.gif","left",""
"","null","html-keyboard-response","112","718464","0.0-23.0-0.7","SS1613138988811","","","null","","","","","<p><img src= images/blank.png width =""200"" height = ""200"" style = ""float:right""></p><p><img src=images/blank.png width =""800"" height = ""200""></p>","","","","","","","",""
"","186","sequential-stimulus-presentation","113","719455","0.0-23.0-1.7","SS1613138988811","trial","","40","800","986","images/stimuli/spore_stims/complex_04_A_c.gif","images/stimuli/spore_stims/complex_02_A_b.gif","","","","","5","complex_dissimilar","images/stimuli/spore_stims/complex_02_A_b.gif","left",""
"","1916","html-keyboard-response","114","721379","0.0-24.0","SS1613138988811","pref_question","","49","","","","","<video width ='960' height = '540' style='padding-top:8%' autoplay muted><source src='images/stimuli/wall_pref.mp4' type='video/mp4'></video>","1","left","25%","5","","","",""
"","1164","sequential-stimulus-presentation","115","723349","0.0-25.0","SS1613138988811","pref_reveal","","40","800","1964","null","null","","","","","5","","","","background"
"","null","html-keyboard-response","116","724295","0.0-26.0-0.0","SS1613138988811","","","null","","","","","<p><img src= images/blank.png width =""200"" height = ""200"" style = ""float:right""></p><p><img src=images/blank.png width =""800"" height = ""200""></p>","","","","","","","",""
"","7467","sequential-stimulus-presentation","117","732569","0.0-26.0-1.0","SS1613138988811","trial","","40","800","8267","images/stimuli/spore_stims/simple_10_A_c.gif","images/stimuli/spore_stims/simple_10_B_c.gif","","","","","6","simple_similar","images/stimuli/spore_stims/simple_10_B_c.gif","right",""
"","null","html-keyboard-response","118","733707","0.0-26.0-0.1","SS1613138988811","","","null","","","","","<p><img src= images/blank.png width =""200"" height = ""200"" style = ""float:right""></p><p><img src=images/blank.png width =""800"" height = ""200""></p>","","","","","","","",""
"","157","sequential-stimulus-presentation","119","734669","0.0-26.0-1.1","SS1613138988811","trial","","40","800","957","images/stimuli/spore_stims/simple_10_A_c.gif","images/stimuli/spore_stims/simple_10_B_c.gif","","","","","6","simple_similar","images/stimuli/spore_stims/simple_10_B_c.gif","right",""
"","null","html-keyboard-response","120","735922","0.0-26.0-0.2","SS1613138988811","","","null","","","","","<p><img src= images/blank.png width =""200"" height = ""200"" style = ""float:right""></p><p><img src=images/blank.png width =""800"" height = ""200""></p>","","","","","","","",""
"","133","sequential-stimulus-presentation","121","736862","0.0-26.0-1.2","SS1613138988811","trial","","40","800","933","images/stimuli/spore_stims/simple_10_A_c.gif","images/stimuli/spore_stims/simple_10_B_c.gif","","","","","6","simple_similar","images/stimuli/spore_stims/simple_10_B_c.gif","right",""
"","null","html-keyboard-response","122","737758","0.0-26.0-0.3","SS1613138988811","","","null","","","","","<p><img src= images/blank.png width =""200"" height = ""200"" style = ""float:right""></p><p><img src=images/blank.png width =""800"" height = ""200""></p>","","","","","","","",""
"","91","sequential-stimulus-presentation","123","738655","0.0-26.0-1.3","SS1613138988811","trial","","40","800","891","images/stimuli/spore_stims/simple_10_A_c.gif","images/stimuli/spore_stims/simple_10_B_c.gif","","","","","6","simple_similar","images/stimuli/spore_stims/simple_10_B_c.gif","right",""
"","null","html-keyboard-response","124","739493","0.0-26.0-0.4","SS1613138988811","","","null","","","","","<p><img src= images/blank.png width =""200"" height = ""200"" style = ""float:right""></p><p><img src=images/blank.png width =""800"" height = ""200""></p>","","","","","","","",""
"","10","sequential-stimulus-presentation","125","740306","0.0-26.0-1.4","SS1613138988811","trial","","40","800","810","images/stimuli/spore_stims/simple_10_A_c.gif","images/stimuli/spore_stims/simple_10_B_c.gif","","","","","6","simple_similar","images/stimuli/spore_stims/simple_10_A_c.gif","left",""
"","null","html-keyboard-response","126","741223","0.0-26.0-0.5","SS1613138988811","","","null","","","","","<p><img src= images/blank.png width =""200"" height = ""200"" style = ""float:right""></p><p><img src=images/blank.png width =""800"" height = ""200""></p>","","","","","","","",""
"","8480","sequential-stimulus-presentation","127","750508","0.0-26.0-1.5","SS1613138988811","trial","","40","800","9280","images/stimuli/spore_stims/simple_10_A_c.gif","images/stimuli/spore_stims/simple_10_B_c.gif","","","","","6","simple_similar","images/stimuli/spore_stims/simple_10_B_c.gif","right",""
"","null","html-keyboard-response","128","751735","0.0-26.0-0.6","SS1613138988811","","","null","","","","","<p><img src= images/blank.png width =""200"" height = ""200"" style = ""float:right""></p><p><img src=images/blank.png width =""800"" height = ""200""></p>","","","","","","","",""
"","985","sequential-stimulus-presentation","129","753527","0.0-26.0-1.6","SS1613138988811","trial","","40","800","1785","images/stimuli/spore_stims/simple_10_A_c.gif","images/stimuli/spore_stims/simple_10_B_c.gif","","","","","6","simple_similar","images/stimuli/spore_stims/simple_10_B_c.gif","right",""
"","null","html-keyboard-response","130","754827","0.0-26.0-0.7","SS1613138988811","","","null","","","","","<p><img src= images/blank.png width =""200"" height = ""200"" style = ""float:right""></p><p><img src=images/blank.png width =""800"" height = ""200""></p>","","","","","","","",""
"","510","sequential-stimulus-presentation","131","756144","0.0-26.0-1.7","SS1613138988811","trial","","40","800","1310","images/stimuli/spore_stims/simple_10_A_c.gif","images/stimuli/spore_stims/simple_10_B_c.gif","","","","","6","simple_similar","images/stimuli/spore_stims/simple_10_B_c.gif","right",""
"","17705","html-keyboard-response","132","773855","0.0-27.0","SS1613138988811","pref_question","","49","","","","","<video width ='960' height = '540' style='padding-top:8%' autoplay muted><source src='images/stimuli/wall_pref.mp4' type='video/mp4'></video>","1","left","25%","6","","","",""
"","11206","sequential-stimulus-presentation","133","785866","0.0-28.0","SS1613138988811","pref_reveal","","40","800","12006","null","null","","","","","6","","","","deviant"
"","null","html-keyboard-response","134","787124","0.0-29.0-0.0","SS1613138988811","","","null","","","","","<p><img src= images/blank.png width =""200"" height = ""200"" style = ""float:right""></p><p><img src=images/blank.png width =""800"" height = ""200""></p>","","","","","","","",""
"","5126","sequential-stimulus-presentation","135","793054","0.0-29.0-1.0","SS1613138988811","trial","","40","800","5926","images/stimuli/spore_stims/complex_01_A_d.gif","images/stimuli/spore_stims/complex_01_B_d.gif","","","","","7","complex_similar","images/stimuli/spore_stims/complex_01_B_d.gif","middle",""
"","null","html-keyboard-response","136","794272","0.0-29.0-0.1","SS1613138988811","","","null","","","","","<p><img src= images/blank.png width =""200"" height = ""200"" style = ""float:right""></p><p><img src=images/blank.png width =""800"" height = ""200""></p>","","","","","","","",""
"","2938","sequential-stimulus-presentation","137","798016","0.0-29.0-1.1","SS1613138988811","trial","","40","800","3738","images/stimuli/spore_stims/complex_01_A_d.gif","images/stimuli/spore_stims/complex_01_B_d.gif","","","","","7","complex_similar","images/stimuli/spore_stims/complex_01_B_d.gif","middle",""
"","null","html-keyboard-response","138","799153","0.0-29.0-0.2","SS1613138988811","","","null","","","","","<p><img src= images/blank.png width =""200"" height = ""200"" style = ""float:right""></p><p><img src=images/blank.png width =""800"" height = ""200""></p>","","","","","","","",""
"","1546","sequential-stimulus-presentation","139","801504","0.0-29.0-1.2","SS1613138988811","trial","","40","800","2346","images/stimuli/spore_stims/complex_01_A_d.gif","images/stimuli/spore_stims/complex_01_B_d.gif","","","","","7","complex_similar","images/stimuli/spore_stims/complex_01_B_d.gif","middle",""
"","null","html-keyboard-response","140","802464","0.0-29.0-0.3","SS1613138988811","","","null","","","","","<p><img src= images/blank.png width =""200"" height = ""200"" style = ""float:right""></p><p><img src=images/blank.png width =""800"" height = ""200""></p>","","","","","","","",""
"","6991","sequential-stimulus-presentation","141","810263","0.0-29.0-1.3","SS1613138988811","trial","","40","800","7791","images/stimuli/spore_stims/complex_01_A_d.gif","images/stimuli/spore_stims/complex_01_B_d.gif","","","","","7","complex_similar","images/stimuli/spore_stims/complex_01_B_d.gif","middle",""
"","null","html-keyboard-response","142","811512","0.0-29.0-0.4","SS1613138988811","","","null","","","","","<p><img src= images/blank.png width =""200"" height = ""200"" style = ""float:right""></p><p><img src=images/blank.png width =""800"" height = ""200""></p>","","","","","","","",""
"","5648","sequential-stimulus-presentation","143","817965","0.0-29.0-1.4","SS1613138988811","trial","","40","800","6448","images/stimuli/spore_stims/complex_01_A_d.gif","images/stimuli/spore_stims/complex_01_B_d.gif","","","","","7","complex_similar","images/stimuli/spore_stims/complex_01_B_d.gif","middle",""
"","null","html-keyboard-response","144","819007","0.0-29.0-0.5","SS1613138988811","","","null","","","","","<p><img src= images/blank.png width =""200"" height = ""200"" style = ""float:right""></p><p><img src=images/blank.png width =""800"" height = ""200""></p>","","","","","","","",""
"","25","sequential-stimulus-presentation","145","819838","0.0-29.0-1.5","SS1613138988811","trial","","40","800","825","images/stimuli/spore_stims/complex_01_A_d.gif","images/stimuli/spore_stims/complex_01_B_d.gif","","","","","7","complex_similar","images/stimuli/spore_stims/complex_01_B_d.gif","middle",""
"","null","html-keyboard-response","146","820936","0.0-29.0-0.6","SS1613138988811","","","null","","","","","<p><img src= images/blank.png width =""200"" height = ""200"" style = ""float:right""></p><p><img src=images/blank.png width =""800"" height = ""200""></p>","","","","","","","",""
"","45","sequential-stimulus-presentation","147","821785","0.0-29.0-1.6","SS1613138988811","trial","","40","800","845","images/stimuli/spore_stims/complex_01_A_d.gif","images/stimuli/spore_stims/complex_01_B_d.gif","","","","","7","complex_similar","images/stimuli/spore_stims/complex_01_A_d.gif","left",""
"","null","html-keyboard-response","148","822795","0.0-29.0-0.7","SS1613138988811","","","null","","","","","<p><img src= images/blank.png width =""200"" height = ""200"" style = ""float:right""></p><p><img src=images/blank.png width =""800"" height = ""200""></p>","","","","","","","",""
"","67","sequential-stimulus-presentation","149","823668","0.0-29.0-1.7","SS1613138988811","trial","","40","800","867","images/stimuli/spore_stims/complex_01_A_d.gif","images/stimuli/spore_stims/complex_01_B_d.gif","","","","","7","complex_similar","images/stimuli/spore_stims/complex_01_B_d.gif","middle",""
"","2422","html-keyboard-response","150","826096","0.0-30.0","SS1613138988811","pref_question","","51","","","","","<video width ='960' height = '540' style='padding-top:8%' autoplay muted><source src='images/stimuli/wall_pref.mp4' type='video/mp4'></video>","3","right","66%","7","","","",""
"","2802","sequential-stimulus-presentation","151","829710","0.0-31.0","SS1613138988811","pref_reveal","","40","800","3602","null","null","","","","","7","","","","novel"
"","null","html-keyboard-response","152","830605","0.0-32.0-0.0","SS1613138988811","","","null","","","","","<p><img src= images/blank.png width =""200"" height = ""200"" style = ""float:right""></p><p><img src=images/blank.png width =""800"" height = ""200""></p>","","","","","","","",""
"","1322","sequential-stimulus-presentation","153","832733","0.0-32.0-1.0","SS1613138988811","trial","","40","800","2122","images/stimuli/spore_stims/simple_12_B_d.gif","images/stimuli/spore_stims/simple_05_B_a.gif","","","","","8","simple_dissimilar","images/stimuli/spore_stims/simple_05_B_a.gif","middle",""
"","null","html-keyboard-response","154","833673","0.0-32.0-0.1","SS1613138988811","","","null","","","","","<p><img src= images/blank.png width =""200"" height = ""200"" style = ""float:right""></p><p><img src=images/blank.png width =""800"" height = ""200""></p>","","","","","","","",""
"","356","sequential-stimulus-presentation","155","834835","0.0-32.0-1.1","SS1613138988811","trial","","40","800","1156","images/stimuli/spore_stims/simple_12_B_d.gif","images/stimuli/spore_stims/simple_05_B_a.gif","","","","","8","simple_dissimilar","images/stimuli/spore_stims/simple_05_B_a.gif","middle",""
"","null","html-keyboard-response","156","835777","0.0-32.0-0.2","SS1613138988811","","","null","","","","","<p><img src= images/blank.png width =""200"" height = ""200"" style = ""float:right""></p><p><img src=images/blank.png width =""800"" height = ""200""></p>","","","","","","","",""
"","15440","sequential-stimulus-presentation","157","852025","0.0-32.0-1.2","SS1613138988811","trial","","40","800","16240","images/stimuli/spore_stims/simple_12_B_d.gif","images/stimuli/spore_stims/simple_05_B_a.gif","","","","","8","simple_dissimilar","images/stimuli/spore_stims/simple_05_B_a.gif","middle",""
"","null","html-keyboard-response","158","853137","0.0-32.0-0.3","SS1613138988811","","","null","","","","","<p><img src= images/blank.png width =""200"" height = ""200"" style = ""float:right""></p><p><img src=images/blank.png width =""800"" height = ""200""></p>","","","","","","","",""
"","198","sequential-stimulus-presentation","159","854140","0.0-32.0-1.3","SS1613138988811","trial","","40","800","998","images/stimuli/spore_stims/simple_12_B_d.gif","images/stimuli/spore_stims/simple_05_B_a.gif","","","","","8","simple_dissimilar","images/stimuli/spore_stims/simple_05_B_a.gif","middle",""
"","null","html-keyboard-response","160","854993","0.0-32.0-0.4","SS1613138988811","","","null","","","","","<p><img src= images/blank.png width =""200"" height = ""200"" style = ""float:right""></p><p><img src=images/blank.png width =""800"" height = ""200""></p>","","","","","","","",""
"","45","sequential-stimulus-presentation","161","855846","0.0-32.0-1.4","SS1613138988811","trial","","40","800","845","images/stimuli/spore_stims/simple_12_B_d.gif","images/stimuli/spore_stims/simple_05_B_a.gif","","","","","8","simple_dissimilar","images/stimuli/spore_stims/simple_05_B_a.gif","middle",""
"","null","html-keyboard-response","162","856759","0.0-32.0-0.5","SS1613138988811","","","null","","","","","<p><img src= images/blank.png width =""200"" height = ""200"" style = ""float:right""></p><p><img src=images/blank.png width =""800"" height = ""200""></p>","","","","","","","",""
"","334","sequential-stimulus-presentation","163","857906","0.0-32.0-1.5","SS1613138988811","trial","","40","800","1134","images/stimuli/spore_stims/simple_12_B_d.gif","images/stimuli/spore_stims/simple_05_B_a.gif","","","","","8","simple_dissimilar","images/stimuli/spore_stims/simple_12_B_d.gif","left",""
"","null","html-keyboard-response","164","858834","0.0-32.0-0.6","SS1613138988811","","","null","","","","","<p><img src= images/blank.png width =""200"" height = ""200"" style = ""float:right""></p><p><img src=images/blank.png width =""800"" height = ""200""></p>","","","","","","","",""
"","28","sequential-stimulus-presentation","165","859670","0.0-32.0-1.6","SS1613138988811","trial","","40","800","828","images/stimuli/spore_stims/simple_12_B_d.gif","images/stimuli/spore_stims/simple_05_B_a.gif","","","","","8","simple_dissimilar","images/stimuli/spore_stims/simple_05_B_a.gif","middle",""
"","null","html-keyboard-response","166","860913","0.0-32.0-0.7","SS1613138988811","","","null","","","","","<p><img src= images/blank.png width =""200"" height = ""200"" style = ""float:right""></p><p><img src=images/blank.png width =""800"" height = ""200""></p>","","","","","","","",""
"","108","sequential-stimulus-presentation","167","861827","0.0-32.0-1.7","SS1613138988811","trial","","40","800","908","images/stimuli/spore_stims/simple_12_B_d.gif","images/stimuli/spore_stims/simple_05_B_a.gif","","","","","8","simple_dissimilar","images/stimuli/spore_stims/simple_05_B_a.gif","middle",""
"","3937","html-keyboard-response","168","865776","0.0-33.0","SS1613138988811","pref_question","","51","","","","","<video width ='960' height = '540' style='padding-top:8%' autoplay muted><source src='images/stimuli/wall_pref.mp4' type='video/mp4'></video>","3","right","66%","8","","","",""
