"view_history","rt","trial_type","trial_index","time_elapsed","internal_node_id","subject","stimulus_type","trial_stimulus","key_press","minimum_viewing_duration","trial_looking_time","block_deviant","block_background","stimulus","wall_pref","location","location_percent","block_number","block_type","stimulus_displayed","position_displayed","stim_type_selected","responses","question_order","stimulus_left","stimulus_right"
"[{""page_index"":0,""viewing_time"":35494.8049999075}]","35495.64499990083","instructions","0","35499","0.0-0.0","SS1613139486849","","","","","","","","","","","","","","","","","","","",""
"[{""page_index"":0,""viewing_time"":10250.819999957457},{""page_index"":1,""viewing_time"":15447.88500003051}]","25699.00999998208","instructions","1","63202","0.0-1.0","SS1613139486849","instructions","","","","","","","","","","","","","","","","","","",""
"","18164.764999994077","sequential-stimulus-presentation","2","82177","0.0-2.0","SS1613139486849","","","40","800","18964.764999994077","null","null","","","","","","","","","","","","",""
"","8342.964999959804","sequential-stimulus-presentation","3","91326","0.0-3.0","SS1613139486849","","","40","800","9142.964999959804","null","null","","","","","","","","","","","","",""
"[{""page_index"":0,""viewing_time"":6713.229999993928}]","6713.51999999024","instructions","4","98042","0.0-4.0","SS1613139486849","instructions","","","","","","","","","","","","","","","","","","",""
"","19927.129999967292","html-keyboard-response","5","117974","0.0-5.0","SS1613139486849","instructions","","49","","","","","<video width ='960' height = '540' autoplay muted><source src='images/stimuli/wall_pref.mp4' type='video/mp4'></video>","1","left","25%","","","","","","","","",""
"","3873.185000033118","sequential-stimulus-presentation","6","122652","0.0-6.0","SS1613139486849","pref_reveal","","40","800","4673.185000033118","null","null","","","","","","","","","","","","",""
"[{""page_index"":0,""viewing_time"":4356.2000000383705},{""page_index"":1,""viewing_time"":3191.149999969639},{""page_index"":2,""viewing_time"":3368.1300000753254},{""page_index"":3,""viewing_time"":3119.5849999785423}]","14035.370000055991","instructions","7","136691","0.0-7.0","SS1613139486849","instructions","","","","","","","","","","","","","","","","","","",""
"","null","html-keyboard-response","8","137738","0.0-8.0-0.0","SS1613139486849","","","null","","","","","<p><img src= images/blank.png width =""200"" height = ""200"" style = ""float:right""></p><p><img src=images/blank.png width =""800"" height = ""200""></p>","","","","","","","","","","","",""
"","7942.060000030324","sequential-stimulus-presentation","9","146488","0.0-8.0-1.0","SS1613139486849","trial","","40","800","8742.060000030324","images/stimuli/spore_stims/complex_16_A_b.gif","images/stimuli/spore_stims/complex_16_B_b.gif","","","","","0","complex_similar","images/stimuli/spore_stims/complex_16_B_b.gif","middle","","","","",""
"","null","html-keyboard-response","10","147544","0.0-8.0-0.1","SS1613139486849","","","null","","","","","<p><img src= images/blank.png width =""200"" height = ""200"" style = ""float:right""></p><p><img src=images/blank.png width =""800"" height = ""200""></p>","","","","","","","","","","","",""
"","8292.245000018738","sequential-stimulus-presentation","11","156649","0.0-8.0-1.1","SS1613139486849","trial","","40","800","9092.245000018738","images/stimuli/spore_stims/complex_16_A_b.gif","images/stimuli/spore_stims/complex_16_B_b.gif","","","","","0","complex_similar","images/stimuli/spore_stims/complex_16_B_b.gif","middle","","","","",""
"","null","html-keyboard-response","12","157607","0.0-8.0-0.2","SS1613139486849","","","null","","","","","<p><img src= images/blank.png width =""200"" height = ""200"" style = ""float:right""></p><p><img src=images/blank.png width =""800"" height = ""200""></p>","","","","","","","","","","","",""
"","4872.280000010505","sequential-stimulus-presentation","13","163287","0.0-8.0-1.2","SS1613139486849","trial","","40","800","5672.280000010505","images/stimuli/spore_stims/complex_16_A_b.gif","images/stimuli/spore_stims/complex_16_B_b.gif","","","","","0","complex_similar","images/stimuli/spore_stims/complex_16_B_b.gif","middle","","","","",""
"","null","html-keyboard-response","14","164424","0.0-8.0-0.3","SS1613139486849","","","null","","","","","<p><img src= images/blank.png width =""200"" height = ""200"" style = ""float:right""></p><p><img src=images/blank.png width =""800"" height = ""200""></p>","","","","","","","","","","","",""
"","3863.109999918379","sequential-stimulus-presentation","15","169094","0.0-8.0-1.3","SS1613139486849","trial","","40","800","4663.109999918379","images/stimuli/spore_stims/complex_16_A_b.gif","images/stimuli/spore_stims/complex_16_B_b.gif","","","","","0","complex_similar","images/stimuli/spore_stims/complex_16_B_b.gif","middle","","","","",""
"","null","html-keyboard-response","16","170343","0.0-8.0-0.4","SS1613139486849","","","null","","","","","<p><img src= images/blank.png width =""200"" height = ""200"" style = ""float:right""></p><p><img src=images/blank.png width =""800"" height = ""200""></p>","","","","","","","","","","","",""
"","4536.535000079311","sequential-stimulus-presentation","17","175707","0.0-8.0-1.4","SS1613139486849","trial","","40","800","5336.535000079311","images/stimuli/spore_stims/complex_16_A_b.gif","images/stimuli/spore_stims/complex_16_B_b.gif","","","","","0","complex_similar","images/stimuli/spore_stims/complex_16_A_b.gif","right","","","","",""
"","null","html-keyboard-response","18","176761","0.0-8.0-0.5","SS1613139486849","","","null","","","","","<p><img src= images/blank.png width =""200"" height = ""200"" style = ""float:right""></p><p><img src=images/blank.png width =""800"" height = ""200""></p>","","","","","","","","","","","",""
"","3191.3350000977516","sequential-stimulus-presentation","19","180758","0.0-8.0-1.5","SS1613139486849","trial","","40","800","3991.3350000977516","images/stimuli/spore_stims/complex_16_A_b.gif","images/stimuli/spore_stims/complex_16_B_b.gif","","","","","0","complex_similar","images/stimuli/spore_stims/complex_16_B_b.gif","middle","","","","",""
"","null","html-keyboard-response","20","181791","0.0-8.0-0.6","SS1613139486849","","","null","","","","","<p><img src= images/blank.png width =""200"" height = ""200"" style = ""float:right""></p><p><img src=images/blank.png width =""800"" height = ""200""></p>","","","","","","","","","","","",""
"","3944.4199999561533","sequential-stimulus-presentation","21","186544","0.0-8.0-1.6","SS1613139486849","trial","","40","800","4744.419999956153","images/stimuli/spore_stims/complex_16_A_b.gif","images/stimuli/spore_stims/complex_16_B_b.gif","","","","","0","complex_similar","images/stimuli/spore_stims/complex_16_B_b.gif","middle","","","","",""
"","null","html-keyboard-response","22","187624","0.0-8.0-0.7","SS1613139486849","","","null","","","","","<p><img src= images/blank.png width =""200"" height = ""200"" style = ""float:right""></p><p><img src=images/blank.png width =""800"" height = ""200""></p>","","","","","","","","","","","",""
"","3174.5349999982864","sequential-stimulus-presentation","23","191607","0.0-8.0-1.7","SS1613139486849","trial","","40","800","3974.5349999982864","images/stimuli/spore_stims/complex_16_A_b.gif","images/stimuli/spore_stims/complex_16_B_b.gif","","","","","0","complex_similar","images/stimuli/spore_stims/complex_16_B_b.gif","middle","","","","",""
"","5994.680000003427","html-keyboard-response","24","197607","0.0-9.0","SS1613139486849","pref_question","","49","","","","","<video width ='960' height = '540' style='padding-top:8%' autoplay muted><source src='images/stimuli/wall_pref.mp4' type='video/mp4'></video>","1","left","25%","0","","","","","","","",""
"","5867.494999896735","sequential-stimulus-presentation","25","204280","0.0-10.0","SS1613139486849","pref_reveal","","40","800","6667.494999896735","null","null","","","","","0","","","","novel","","","",""
"","null","html-keyboard-response","26","205430","0.0-11.0-0.0","SS1613139486849","","","null","","","","","<p><img src= images/blank.png width =""200"" height = ""200"" style = ""float:right""></p><p><img src=images/blank.png width =""800"" height = ""200""></p>","","","","","","","","","","","",""
"","3578.1750000314787","sequential-stimulus-presentation","27","209820","0.0-11.0-1.0","SS1613139486849","trial","","40","800","4378.175000031479","images/stimuli/spore_stims/simple_02_B_c.gif","images/stimuli/spore_stims/simple_06_B_b.gif","","","","","1","simple_dissimilar","images/stimuli/spore_stims/simple_06_B_b.gif","right","","","","",""
"","null","html-keyboard-response","28","210805","0.0-11.0-0.1","SS1613139486849","","","null","","","","","<p><img src= images/blank.png width =""200"" height = ""200"" style = ""float:right""></p><p><img src=images/blank.png width =""800"" height = ""200""></p>","","","","","","","","","","","",""
"","2361.644999939017","sequential-stimulus-presentation","29","213974","0.0-11.0-1.1","SS1613139486849","trial","","40","800","3161.644999939017","images/stimuli/spore_stims/simple_02_B_c.gif","images/stimuli/spore_stims/simple_06_B_b.gif","","","","","1","simple_dissimilar","images/stimuli/spore_stims/simple_06_B_b.gif","right","","","","",""
"","null","html-keyboard-response","30","214992","0.0-11.0-0.2","SS1613139486849","","","null","","","","","<p><img src= images/blank.png width =""200"" height = ""200"" style = ""float:right""></p><p><img src=images/blank.png width =""800"" height = ""200""></p>","","","","","","","","","","","",""
"","1983.3600000711158","sequential-stimulus-presentation","31","217781","0.0-11.0-1.2","SS1613139486849","trial","","40","800","2783.360000071116","images/stimuli/spore_stims/simple_02_B_c.gif","images/stimuli/spore_stims/simple_06_B_b.gif","","","","","1","simple_dissimilar","images/stimuli/spore_stims/simple_06_B_b.gif","right","","","","",""
"","null","html-keyboard-response","32","218904","0.0-11.0-0.3","SS1613139486849","","","null","","","","","<p><img src= images/blank.png width =""200"" height = ""200"" style = ""float:right""></p><p><img src=images/blank.png width =""800"" height = ""200""></p>","","","","","","","","","","","",""
"","4441.869999980554","sequential-stimulus-presentation","33","224151","0.0-11.0-1.3","SS1613139486849","trial","","40","800","5241.869999980554","images/stimuli/spore_stims/simple_02_B_c.gif","images/stimuli/spore_stims/simple_06_B_b.gif","","","","","1","simple_dissimilar","images/stimuli/spore_stims/simple_02_B_c.gif","middle","","","","",""
"","null","html-keyboard-response","34","224976","0.0-11.0-0.4","SS1613139486849","","","null","","","","","<p><img src= images/blank.png width =""200"" height = ""200"" style = ""float:right""></p><p><img src=images/blank.png width =""800"" height = ""200""></p>","","","","","","","","","","","",""
"","5168.249999987893","sequential-stimulus-presentation","35","230956","0.0-11.0-1.4","SS1613139486849","trial","","40","800","5968.249999987893","images/stimuli/spore_stims/simple_02_B_c.gif","images/stimuli/spore_stims/simple_06_B_b.gif","","","","","1","simple_dissimilar","images/stimuli/spore_stims/simple_06_B_b.gif","right","","","","",""
"","null","html-keyboard-response","36","232170","0.0-11.0-0.5","SS1613139486849","","","null","","","","","<p><img src= images/blank.png width =""200"" height = ""200"" style = ""float:right""></p><p><img src=images/blank.png width =""800"" height = ""200""></p>","","","","","","","","","","","",""
"","3413.719999953173","sequential-stimulus-presentation","37","236390","0.0-11.0-1.5","SS1613139486849","trial","","40","800","4213.719999953173","images/stimuli/spore_stims/simple_02_B_c.gif","images/stimuli/spore_stims/simple_06_B_b.gif","","","","","1","simple_dissimilar","images/stimuli/spore_stims/simple_06_B_b.gif","right","","","","",""
"","null","html-keyboard-response","38","237663","0.0-11.0-0.6","SS1613139486849","","","null","","","","","<p><img src= images/blank.png width =""200"" height = ""200"" style = ""float:right""></p><p><img src=images/blank.png width =""800"" height = ""200""></p>","","","","","","","","","","","",""
"","1255.1499999826774","sequential-stimulus-presentation","39","239727","0.0-11.0-1.6","SS1613139486849","trial","","40","800","2055.1499999826774","images/stimuli/spore_stims/simple_02_B_c.gif","images/stimuli/spore_stims/simple_06_B_b.gif","","","","","1","simple_dissimilar","images/stimuli/spore_stims/simple_06_B_b.gif","right","","","","",""
"","null","html-keyboard-response","40","240895","0.0-11.0-0.7","SS1613139486849","","","null","","","","","<p><img src= images/blank.png width =""200"" height = ""200"" style = ""float:right""></p><p><img src=images/blank.png width =""800"" height = ""200""></p>","","","","","","","","","","","",""
"","3830.7700000004843","sequential-stimulus-presentation","41","245539","0.0-11.0-1.7","SS1613139486849","trial","","40","800","4630.770000000484","images/stimuli/spore_stims/simple_02_B_c.gif","images/stimuli/spore_stims/simple_06_B_b.gif","","","","","1","simple_dissimilar","images/stimuli/spore_stims/simple_06_B_b.gif","right","","","","",""
"","2866.2400000030175","html-keyboard-response","42","248408","0.0-12.0","SS1613139486849","pref_question","","50","","","","","<video width ='960' height = '540' style='padding-top:8%' autoplay muted><source src='images/stimuli/wall_pref.mp4' type='video/mp4'></video>","2","middle","45%","1","","","","","","","",""
"","967.9250000044703","sequential-stimulus-presentation","43","250190","0.0-13.0","SS1613139486849","pref_reveal","","40","800","1767.9250000044703","null","null","","","","","1","","","","deviant","","","",""
"","null","html-keyboard-response","44","250995","0.0-14.0-0.0","SS1613139486849","","","null","","","","","<p><img src= images/blank.png width =""200"" height = ""200"" style = ""float:right""></p><p><img src=images/blank.png width =""800"" height = ""200""></p>","","","","","","","","","","","",""
"","1434.0749999973923","sequential-stimulus-presentation","45","253258","0.0-14.0-1.0","SS1613139486849","trial","","40","800","2234.0749999973923","images/stimuli/spore_stims/complex_17_B_c.gif","images/stimuli/spore_stims/complex_17_A_c.gif","","","","","2","complex_similar","images/stimuli/spore_stims/complex_17_A_c.gif","left","","","","",""
"","null","html-keyboard-response","46","254485","0.0-14.0-0.1","SS1613139486849","","","null","","","","","<p><img src= images/blank.png width =""200"" height = ""200"" style = ""float:right""></p><p><img src=images/blank.png width =""800"" height = ""200""></p>","","","","","","","","","","","",""
"","825.829999987036","sequential-stimulus-presentation","47","256120","0.0-14.0-1.1","SS1613139486849","trial","","40","800","1625.829999987036","images/stimuli/spore_stims/complex_17_B_c.gif","images/stimuli/spore_stims/complex_17_A_c.gif","","","","","2","complex_similar","images/stimuli/spore_stims/complex_17_A_c.gif","left","","","","",""
"","null","html-keyboard-response","48","257069","0.0-14.0-0.2","SS1613139486849","","","null","","","","","<p><img src= images/blank.png width =""200"" height = ""200"" style = ""float:right""></p><p><img src=images/blank.png width =""800"" height = ""200""></p>","","","","","","","","","","","",""
"","1067.8550000302494","sequential-stimulus-presentation","49","258948","0.0-14.0-1.2","SS1613139486849","trial","","40","800","1867.8550000302494","images/stimuli/spore_stims/complex_17_B_c.gif","images/stimuli/spore_stims/complex_17_A_c.gif","","","","","2","complex_similar","images/stimuli/spore_stims/complex_17_A_c.gif","left","","","","",""
"","null","html-keyboard-response","50","259978","0.0-14.0-0.3","SS1613139486849","","","null","","","","","<p><img src= images/blank.png width =""200"" height = ""200"" style = ""float:right""></p><p><img src=images/blank.png width =""800"" height = ""200""></p>","","","","","","","","","","","",""
"","895.1799999922514","sequential-stimulus-presentation","51","261679","0.0-14.0-1.3","SS1613139486849","trial","","40","800","1695.1799999922514","images/stimuli/spore_stims/complex_17_B_c.gif","images/stimuli/spore_stims/complex_17_A_c.gif","","","","","2","complex_similar","images/stimuli/spore_stims/complex_17_A_c.gif","left","","","","",""
"","null","html-keyboard-response","52","262650","0.0-14.0-0.4","SS1613139486849","","","null","","","","","<p><img src= images/blank.png width =""200"" height = ""200"" style = ""float:right""></p><p><img src=images/blank.png width =""800"" height = ""200""></p>","","","","","","","","","","","",""
"","1018.6499999836087","sequential-stimulus-presentation","53","264474","0.0-14.0-1.4","SS1613139486849","trial","","40","800","1818.6499999836087","images/stimuli/spore_stims/complex_17_B_c.gif","images/stimuli/spore_stims/complex_17_A_c.gif","","","","","2","complex_similar","images/stimuli/spore_stims/complex_17_A_c.gif","left","","","","",""
"","null","html-keyboard-response","54","265540","0.0-14.0-0.5","SS1613139486849","","","null","","","","","<p><img src= images/blank.png width =""200"" height = ""200"" style = ""float:right""></p><p><img src=images/blank.png width =""800"" height = ""200""></p>","","","","","","","","","","","",""
"","829.3549999361858","sequential-stimulus-presentation","55","267176","0.0-14.0-1.5","SS1613139486849","trial","","40","800","1629.3549999361858","images/stimuli/spore_stims/complex_17_B_c.gif","images/stimuli/spore_stims/complex_17_A_c.gif","","","","","2","complex_similar","images/stimuli/spore_stims/complex_17_A_c.gif","left","","","","",""
"","null","html-keyboard-response","56","268000","0.0-14.0-0.6","SS1613139486849","","","null","","","","","<p><img src= images/blank.png width =""200"" height = ""200"" style = ""float:right""></p><p><img src=images/blank.png width =""800"" height = ""200""></p>","","","","","","","","","","","",""
"","924.7449999675155","sequential-stimulus-presentation","57","269732","0.0-14.0-1.6","SS1613139486849","trial","","40","800","1724.7449999675155","images/stimuli/spore_stims/complex_17_B_c.gif","images/stimuli/spore_stims/complex_17_A_c.gif","","","","","2","complex_similar","images/stimuli/spore_stims/complex_17_A_c.gif","left","","","","",""
"","null","html-keyboard-response","58","270603","0.0-14.0-0.7","SS1613139486849","","","null","","","","","<p><img src= images/blank.png width =""200"" height = ""200"" style = ""float:right""></p><p><img src=images/blank.png width =""800"" height = ""200""></p>","","","","","","","","","","","",""
"","884.955000015907","sequential-stimulus-presentation","59","272302","0.0-14.0-1.7","SS1613139486849","trial","","40","800","1684.955000015907","images/stimuli/spore_stims/complex_17_B_c.gif","images/stimuli/spore_stims/complex_17_A_c.gif","","","","","2","complex_similar","images/stimuli/spore_stims/complex_17_B_c.gif","middle","","","","",""
"","3011.880000005476","html-keyboard-response","60","275321","0.0-15.0","SS1613139486849","pref_question","","51","","","","","<video width ='960' height = '540' style='padding-top:8%' autoplay muted><source src='images/stimuli/wall_pref.mp4' type='video/mp4'></video>","3","right","66%","2","","","","","","","",""
"","2678.1349999364465","sequential-stimulus-presentation","61","278806","0.0-16.0","SS1613139486849","pref_reveal","","40","800","3478.1349999364465","null","null","","","","","2","","","","novel","","","",""
"","null","html-keyboard-response","62","280036","0.0-17.0-0.0","SS1613139486849","","","null","","","","","<p><img src= images/blank.png width =""200"" height = ""200"" style = ""float:right""></p><p><img src=images/blank.png width =""800"" height = ""200""></p>","","","","","","","","","","","",""
"","2406.260000076145","sequential-stimulus-presentation","63","283254","0.0-17.0-1.0","SS1613139486849","trial","","40","800","3206.260000076145","images/stimuli/spore_stims/complex_15_A_a.gif","images/stimuli/spore_stims/complex_15_B_a.gif","","","","","3","complex_similar","images/stimuli/spore_stims/complex_15_B_a.gif","right","","","","",""
"","null","html-keyboard-response","64","284476","0.0-17.0-0.1","SS1613139486849","","","null","","","","","<p><img src= images/blank.png width =""200"" height = ""200"" style = ""float:right""></p><p><img src=images/blank.png width =""800"" height = ""200""></p>","","","","","","","","","","","",""
"","1781.4950000029057","sequential-stimulus-presentation","65","287064","0.0-17.0-1.1","SS1613139486849","trial","","40","800","2581.4950000029057","images/stimuli/spore_stims/complex_15_A_a.gif","images/stimuli/spore_stims/complex_15_B_a.gif","","","","","3","complex_similar","images/stimuli/spore_stims/complex_15_B_a.gif","right","","","","",""
"","null","html-keyboard-response","66","288020","0.0-17.0-0.2","SS1613139486849","","","null","","","","","<p><img src= images/blank.png width =""200"" height = ""200"" style = ""float:right""></p><p><img src=images/blank.png width =""800"" height = ""200""></p>","","","","","","","","","","","",""
"","2767.4000000115484","sequential-stimulus-presentation","67","291599","0.0-17.0-1.2","SS1613139486849","trial","","40","800","3567.4000000115484","images/stimuli/spore_stims/complex_15_A_a.gif","images/stimuli/spore_stims/complex_15_B_a.gif","","","","","3","complex_similar","images/stimuli/spore_stims/complex_15_B_a.gif","right","","","","",""
"","null","html-keyboard-response","68","292893","0.0-17.0-0.3","SS1613139486849","","","null","","","","","<p><img src= images/blank.png width =""200"" height = ""200"" style = ""float:right""></p><p><img src=images/blank.png width =""800"" height = ""200""></p>","","","","","","","","","","","",""
"","2703.154999995604","sequential-stimulus-presentation","69","296402","0.0-17.0-1.3","SS1613139486849","trial","","40","800","3503.154999995604","images/stimuli/spore_stims/complex_15_A_a.gif","images/stimuli/spore_stims/complex_15_B_a.gif","","","","","3","complex_similar","images/stimuli/spore_stims/complex_15_B_a.gif","right","","","","",""
"","null","html-keyboard-response","70","297340","0.0-17.0-0.4","SS1613139486849","","","null","","","","","<p><img src= images/blank.png width =""200"" height = ""200"" style = ""float:right""></p><p><img src=images/blank.png width =""800"" height = ""200""></p>","","","","","","","","","","","",""
"","2302.144999965094","sequential-stimulus-presentation","71","300450","0.0-17.0-1.4","SS1613139486849","trial","","40","800","3102.144999965094","images/stimuli/spore_stims/complex_15_A_a.gif","images/stimuli/spore_stims/complex_15_B_a.gif","","","","","3","complex_similar","images/stimuli/spore_stims/complex_15_B_a.gif","right","","","","",""
"","null","html-keyboard-response","72","301426","0.0-17.0-0.5","SS1613139486849","","","null","","","","","<p><img src= images/blank.png width =""200"" height = ""200"" style = ""float:right""></p><p><img src=images/blank.png width =""800"" height = ""200""></p>","","","","","","","","","","","",""
"","958.9400000404567","sequential-stimulus-presentation","73","303191","0.0-17.0-1.5","SS1613139486849","trial","","40","800","1758.9400000404567","images/stimuli/spore_stims/complex_15_A_a.gif","images/stimuli/spore_stims/complex_15_B_a.gif","","","","","3","complex_similar","images/stimuli/spore_stims/complex_15_B_a.gif","right","","","","",""
"","null","html-keyboard-response","74","304229","0.0-17.0-0.6","SS1613139486849","","","null","","","","","<p><img src= images/blank.png width =""200"" height = ""200"" style = ""float:right""></p><p><img src=images/blank.png width =""800"" height = ""200""></p>","","","","","","","","","","","",""
"","1781.1150000197813","sequential-stimulus-presentation","75","306818","0.0-17.0-1.6","SS1613139486849","trial","","40","800","2581.1150000197813","images/stimuli/spore_stims/complex_15_A_a.gif","images/stimuli/spore_stims/complex_15_B_a.gif","","","","","3","complex_similar","images/stimuli/spore_stims/complex_15_A_a.gif","left","","","","",""
"","null","html-keyboard-response","76","307945","0.0-17.0-0.7","SS1613139486849","","","null","","","","","<p><img src= images/blank.png width =""200"" height = ""200"" style = ""float:right""></p><p><img src=images/blank.png width =""800"" height = ""200""></p>","","","","","","","","","","","",""
"","1989.765000063926","sequential-stimulus-presentation","77","310745","0.0-17.0-1.7","SS1613139486849","trial","","40","800","2789.765000063926","images/stimuli/spore_stims/complex_15_A_a.gif","images/stimuli/spore_stims/complex_15_B_a.gif","","","","","3","complex_similar","images/stimuli/spore_stims/complex_15_B_a.gif","right","","","","",""
"","2999.3950000498444","html-keyboard-response","78","313749","0.0-18.0","SS1613139486849","pref_question","","50","","","","","<video width ='960' height = '540' style='padding-top:8%' autoplay muted><source src='images/stimuli/wall_pref.mp4' type='video/mp4'></video>","2","middle","45%","3","","","","","","","",""
"","2276.5500000678003","sequential-stimulus-presentation","79","316831","0.0-19.0","SS1613139486849","pref_reveal","","40","800","3076.5500000678003","null","null","","","","","3","","","","novel","","","",""
"","null","html-keyboard-response","80","317988","0.0-20.0-0.0","SS1613139486849","","","null","","","","","<p><img src= images/blank.png width =""200"" height = ""200"" style = ""float:right""></p><p><img src=images/blank.png width =""800"" height = ""200""></p>","","","","","","","","","","","",""
"","1820.075000054203","sequential-stimulus-presentation","81","320621","0.0-20.0-1.0","SS1613139486849","trial","","40","800","2620.075000054203","images/stimuli/spore_stims/simple_01_B_a.gif","images/stimuli/spore_stims/simple_19_A_b.gif","","","","","4","simple_dissimilar","images/stimuli/spore_stims/simple_19_A_b.gif","middle","","","","",""
"","null","html-keyboard-response","82","321430","0.0-20.0-0.1","SS1613139486849","","","null","","","","","<p><img src= images/blank.png width =""200"" height = ""200"" style = ""float:right""></p><p><img src=images/blank.png width =""800"" height = ""200""></p>","","","","","","","","","","","",""
"","1197.3650000290945","sequential-stimulus-presentation","83","323435","0.0-20.0-1.1","SS1613139486849","trial","","40","800","1997.3650000290945","images/stimuli/spore_stims/simple_01_B_a.gif","images/stimuli/spore_stims/simple_19_A_b.gif","","","","","4","simple_dissimilar","images/stimuli/spore_stims/simple_19_A_b.gif","middle","","","","",""
"","null","html-keyboard-response","84","324362","0.0-20.0-0.2","SS1613139486849","","","null","","","","","<p><img src= images/blank.png width =""200"" height = ""200"" style = ""float:right""></p><p><img src=images/blank.png width =""800"" height = ""200""></p>","","","","","","","","","","","",""
"","1209.4299999298528","sequential-stimulus-presentation","85","326384","0.0-20.0-1.2","SS1613139486849","trial","","40","800","2009.4299999298528","images/stimuli/spore_stims/simple_01_B_a.gif","images/stimuli/spore_stims/simple_19_A_b.gif","","","","","4","simple_dissimilar","images/stimuli/spore_stims/simple_19_A_b.gif","middle","","","","",""
"","null","html-keyboard-response","86","327190","0.0-20.0-0.3","SS1613139486849","","","null","","","","","<p><img src= images/blank.png width =""200"" height = ""200"" style = ""float:right""></p><p><img src=images/blank.png width =""800"" height = ""200""></p>","","","","","","","","","","","",""
"","1038.2000000681728","sequential-stimulus-presentation","87","329048","0.0-20.0-1.3","SS1613139486849","trial","","40","800","1838.2000000681728","images/stimuli/spore_stims/simple_01_B_a.gif","images/stimuli/spore_stims/simple_19_A_b.gif","","","","","4","simple_dissimilar","images/stimuli/spore_stims/simple_19_A_b.gif","middle","","","","",""
"","null","html-keyboard-response","88","330271","0.0-20.0-0.4","SS1613139486849","","","null","","","","","<p><img src= images/blank.png width =""200"" height = ""200"" style = ""float:right""></p><p><img src=images/blank.png width =""800"" height = ""200""></p>","","","","","","","","","","","",""
"","391.4300000760704","sequential-stimulus-presentation","89","331471","0.0-20.0-1.4","SS1613139486849","trial","","40","800","1191.4300000760704","images/stimuli/spore_stims/simple_01_B_a.gif","images/stimuli/spore_stims/simple_19_A_b.gif","","","","","4","simple_dissimilar","images/stimuli/spore_stims/simple_19_A_b.gif","middle","","","","",""
"","null","html-keyboard-response","90","332530","0.0-20.0-0.5","SS1613139486849","","","null","","","","","<p><img src= images/blank.png width =""200"" height = ""200"" style = ""float:right""></p><p><img src=images/blank.png width =""800"" height = ""200""></p>","","","","","","","","","","","",""
"","1333.4550000727177","sequential-stimulus-presentation","91","334672","0.0-20.0-1.5","SS1613139486849","trial","","40","800","2133.4550000727177","images/stimuli/spore_stims/simple_01_B_a.gif","images/stimuli/spore_stims/simple_19_A_b.gif","","","","","4","simple_dissimilar","images/stimuli/spore_stims/simple_19_A_b.gif","middle","","","","",""
"","null","html-keyboard-response","92","335713","0.0-20.0-0.6","SS1613139486849","","","null","","","","","<p><img src= images/blank.png width =""200"" height = ""200"" style = ""float:right""></p><p><img src=images/blank.png width =""800"" height = ""200""></p>","","","","","","","","","","","",""
"","2570.2849999070168","sequential-stimulus-presentation","93","339091","0.0-20.0-1.6","SS1613139486849","trial","","40","800","3370.2849999070168","images/stimuli/spore_stims/simple_01_B_a.gif","images/stimuli/spore_stims/simple_19_A_b.gif","","","","","4","simple_dissimilar","images/stimuli/spore_stims/simple_19_A_b.gif","middle","","","","",""
"","null","html-keyboard-response","94","340316","0.0-20.0-0.7","SS1613139486849","","","null","","","","","<p><img src= images/blank.png width =""200"" height = ""200"" style = ""float:right""></p><p><img src=images/blank.png width =""800"" height = ""200""></p>","","","","","","","","","","","",""
"","4909.3400000128895","sequential-stimulus-presentation","95","346033","0.0-20.0-1.7","SS1613139486849","trial","","40","800","5709.3400000128895","images/stimuli/spore_stims/simple_01_B_a.gif","images/stimuli/spore_stims/simple_19_A_b.gif","","","","","4","simple_dissimilar","images/stimuli/spore_stims/simple_01_B_a.gif","right","","","","",""
"","1667.9800000274554","html-keyboard-response","96","347705","0.0-21.0","SS1613139486849","pref_question","","49","","","","","<video width ='960' height = '540' style='padding-top:8%' autoplay muted><source src='images/stimuli/wall_pref.mp4' type='video/mp4'></video>","1","left","25%","4","","","","","","","",""
"","1302.2099999943748","sequential-stimulus-presentation","97","349817","0.0-22.0","SS1613139486849","pref_reveal","","40","800","2102.209999994375","null","null","","","","","4","","","","novel","","","",""
"","null","html-keyboard-response","98","350722","0.0-23.0-0.0","SS1613139486849","","","null","","","","","<p><img src= images/blank.png width =""200"" height = ""200"" style = ""float:right""></p><p><img src=images/blank.png width =""800"" height = ""200""></p>","","","","","","","","","","","",""
"","1117.934999987483","sequential-stimulus-presentation","99","352648","0.0-23.0-1.0","SS1613139486849","trial","","40","800","1917.934999987483","images/stimuli/spore_stims/simple_07_B_d.gif","images/stimuli/spore_stims/simple_10_B_b.gif","","","","","5","simple_dissimilar","images/stimuli/spore_stims/simple_10_B_b.gif","left","","","","",""
"","null","html-keyboard-response","100","353883","0.0-23.0-0.1","SS1613139486849","","","null","","","","","<p><img src= images/blank.png width =""200"" height = ""200"" style = ""float:right""></p><p><img src=images/blank.png width =""800"" height = ""200""></p>","","","","","","","","","","","",""
"","143.66000005975366","sequential-stimulus-presentation","101","354838","0.0-23.0-1.1","SS1613139486849","trial","","40","800","943.6600000597537","images/stimuli/spore_stims/simple_07_B_d.gif","images/stimuli/spore_stims/simple_10_B_b.gif","","","","","5","simple_dissimilar","images/stimuli/spore_stims/simple_10_B_b.gif","left","","","","",""
"","null","html-keyboard-response","102","355810","0.0-23.0-0.2","SS1613139486849","","","null","","","","","<p><img src= images/blank.png width =""200"" height = ""200"" style = ""float:right""></p><p><img src=images/blank.png width =""800"" height = ""200""></p>","","","","","","","","","","","",""
"","1010.6450000312179","sequential-stimulus-presentation","103","357631","0.0-23.0-1.2","SS1613139486849","trial","","40","800","1810.645000031218","images/stimuli/spore_stims/simple_07_B_d.gif","images/stimuli/spore_stims/simple_10_B_b.gif","","","","","5","simple_dissimilar","images/stimuli/spore_stims/simple_10_B_b.gif","left","","","","",""
"","null","html-keyboard-response","104","358556","0.0-23.0-0.3","SS1613139486849","","","null","","","","","<p><img src= images/blank.png width =""200"" height = ""200"" style = ""float:right""></p><p><img src=images/blank.png width =""800"" height = ""200""></p>","","","","","","","","","","","",""
"","912.6699999906123","sequential-stimulus-presentation","105","360276","0.0-23.0-1.3","SS1613139486849","trial","","40","800","1712.6699999906123","images/stimuli/spore_stims/simple_07_B_d.gif","images/stimuli/spore_stims/simple_10_B_b.gif","","","","","5","simple_dissimilar","images/stimuli/spore_stims/simple_10_B_b.gif","left","","","","",""
"","null","html-keyboard-response","106","361368","0.0-23.0-0.4","SS1613139486849","","","null","","","","","<p><img src= images/blank.png width =""200"" height = ""200"" style = ""float:right""></p><p><img src=images/blank.png width =""800"" height = ""200""></p>","","","","","","","","","","","",""
"","1041.1049999529496","sequential-stimulus-presentation","107","363217","0.0-23.0-1.4","SS1613139486849","trial","","40","800","1841.1049999529496","images/stimuli/spore_stims/simple_07_B_d.gif","images/stimuli/spore_stims/simple_10_B_b.gif","","","","","5","simple_dissimilar","images/stimuli/spore_stims/simple_07_B_d.gif","middle","","","","",""
"","null","html-keyboard-response","108","364404","0.0-23.0-0.5","SS1613139486849","","","null","","","","","<p><img src= images/blank.png width =""200"" height = ""200"" style = ""float:right""></p><p><img src=images/blank.png width =""800"" height = ""200""></p>","","","","","","","","","","","",""
"","2338.8949999352917","sequential-stimulus-presentation","109","367549","0.0-23.0-1.5","SS1613139486849","trial","","40","800","3138.8949999352917","images/stimuli/spore_stims/simple_07_B_d.gif","images/stimuli/spore_stims/simple_10_B_b.gif","","","","","5","simple_dissimilar","images/stimuli/spore_stims/simple_10_B_b.gif","left","","","","",""
"","null","html-keyboard-response","110","368736","0.0-23.0-0.6","SS1613139486849","","","null","","","","","<p><img src= images/blank.png width =""200"" height = ""200"" style = ""float:right""></p><p><img src=images/blank.png width =""800"" height = ""200""></p>","","","","","","","","","","","",""
"","2296.335000079125","sequential-stimulus-presentation","111","371842","0.0-23.0-1.6","SS1613139486849","trial","","40","800","3096.335000079125","images/stimuli/spore_stims/simple_07_B_d.gif","images/stimuli/spore_stims/simple_10_B_b.gif","","","","","5","simple_dissimilar","images/stimuli/spore_stims/simple_10_B_b.gif","left","","","","",""
"","null","html-keyboard-response","112","372737","0.0-23.0-0.7","SS1613139486849","","","null","","","","","<p><img src= images/blank.png width =""200"" height = ""200"" style = ""float:right""></p><p><img src=images/blank.png width =""800"" height = ""200""></p>","","","","","","","","","","","",""
"","1426.4550000661984","sequential-stimulus-presentation","113","374985","0.0-23.0-1.7","SS1613139486849","trial","","40","800","2226.4550000661984","images/stimuli/spore_stims/simple_07_B_d.gif","images/stimuli/spore_stims/simple_10_B_b.gif","","","","","5","simple_dissimilar","images/stimuli/spore_stims/simple_10_B_b.gif","left","","","","",""
"","1472.6899999659508","html-keyboard-response","114","376463","0.0-24.0","SS1613139486849","pref_question","","50","","","","","<video width ='960' height = '540' style='padding-top:8%' autoplay muted><source src='images/stimuli/wall_pref.mp4' type='video/mp4'></video>","2","middle","45%","5","","","","","","","",""
"","2946.9950000056997","sequential-stimulus-presentation","115","380218","0.0-25.0","SS1613139486849","pref_reveal","","40","800","3746.9950000056997","null","null","","","","","5","","","","deviant","","","",""
"","null","html-keyboard-response","116","381047","0.0-26.0-0.0","SS1613139486849","","","null","","","","","<p><img src= images/blank.png width =""200"" height = ""200"" style = ""float:right""></p><p><img src=images/blank.png width =""800"" height = ""200""></p>","","","","","","","","","","","",""
"","1086.2150000175461","sequential-stimulus-presentation","117","382946","0.0-26.0-1.0","SS1613139486849","trial","","40","800","1886.2150000175461","images/stimuli/spore_stims/complex_12_B_b.gif","images/stimuli/spore_stims/complex_12_A_b.gif","","","","","6","complex_similar","images/stimuli/spore_stims/complex_12_A_b.gif","left","","","","",""
"","null","html-keyboard-response","118","384025","0.0-26.0-0.1","SS1613139486849","","","null","","","","","<p><img src= images/blank.png width =""200"" height = ""200"" style = ""float:right""></p><p><img src=images/blank.png width =""800"" height = ""200""></p>","","","","","","","","","","","",""
"","728.9700000546873","sequential-stimulus-presentation","119","385563","0.0-26.0-1.1","SS1613139486849","trial","","40","800","1528.9700000546873","images/stimuli/spore_stims/complex_12_B_b.gif","images/stimuli/spore_stims/complex_12_A_b.gif","","","","","6","complex_similar","images/stimuli/spore_stims/complex_12_A_b.gif","left","","","","",""
"","null","html-keyboard-response","120","386393","0.0-26.0-0.2","SS1613139486849","","","null","","","","","<p><img src= images/blank.png width =""200"" height = ""200"" style = ""float:right""></p><p><img src=images/blank.png width =""800"" height = ""200""></p>","","","","","","","","","","","",""
"","1877.3700000019744","sequential-stimulus-presentation","121","389080","0.0-26.0-1.2","SS1613139486849","trial","","40","800","2677.3700000019744","images/stimuli/spore_stims/complex_12_B_b.gif","images/stimuli/spore_stims/complex_12_A_b.gif","","","","","6","complex_similar","images/stimuli/spore_stims/complex_12_B_b.gif","right","","","","",""
"","null","html-keyboard-response","122","390120","0.0-26.0-0.3","SS1613139486849","","","null","","","","","<p><img src= images/blank.png width =""200"" height = ""200"" style = ""float:right""></p><p><img src=images/blank.png width =""800"" height = ""200""></p>","","","","","","","","","","","",""
"","961.5050000138581","sequential-stimulus-presentation","123","391890","0.0-26.0-1.3","SS1613139486849","trial","","40","800","1761.505000013858","images/stimuli/spore_stims/complex_12_B_b.gif","images/stimuli/spore_stims/complex_12_A_b.gif","","","","","6","complex_similar","images/stimuli/spore_stims/complex_12_A_b.gif","left","","","","",""
"","null","html-keyboard-response","124","392915","0.0-26.0-0.4","SS1613139486849","","","null","","","","","<p><img src= images/blank.png width =""200"" height = ""200"" style = ""float:right""></p><p><img src=images/blank.png width =""800"" height = ""200""></p>","","","","","","","","","","","",""
"","731.31500009913","sequential-stimulus-presentation","125","394456","0.0-26.0-1.4","SS1613139486849","trial","","40","800","1531.31500009913","images/stimuli/spore_stims/complex_12_B_b.gif","images/stimuli/spore_stims/complex_12_A_b.gif","","","","","6","complex_similar","images/stimuli/spore_stims/complex_12_A_b.gif","left","","","","",""
"","null","html-keyboard-response","126","395601","0.0-26.0-0.5","SS1613139486849","","","null","","","","","<p><img src= images/blank.png width =""200"" height = ""200"" style = ""float:right""></p><p><img src=images/blank.png width =""800"" height = ""200""></p>","","","","","","","","","","","",""
"","1086.3700000336394","sequential-stimulus-presentation","127","397500","0.0-26.0-1.5","SS1613139486849","trial","","40","800","1886.3700000336394","images/stimuli/spore_stims/complex_12_B_b.gif","images/stimuli/spore_stims/complex_12_A_b.gif","","","","","6","complex_similar","images/stimuli/spore_stims/complex_12_A_b.gif","left","","","","",""
"","null","html-keyboard-response","128","398726","0.0-26.0-0.6","SS1613139486849","","","null","","","","","<p><img src= images/blank.png width =""200"" height = ""200"" style = ""float:right""></p><p><img src=images/blank.png width =""800"" height = ""200""></p>","","","","","","","","","","","",""
"","477.4350000079721","sequential-stimulus-presentation","129","400011","0.0-26.0-1.6","SS1613139486849","trial","","40","800","1277.4350000079721","images/stimuli/spore_stims/complex_12_B_b.gif","images/stimuli/spore_stims/complex_12_A_b.gif","","","","","6","complex_similar","images/stimuli/spore_stims/complex_12_A_b.gif","left","","","","",""
"","null","html-keyboard-response","130","400876","0.0-26.0-0.7","SS1613139486849","","","null","","","","","<p><img src= images/blank.png width =""200"" height = ""200"" style = ""float:right""></p><p><img src=images/blank.png width =""800"" height = ""200""></p>","","","","","","","","","","","",""
"","845.3449999215081","sequential-stimulus-presentation","131","402528","0.0-26.0-1.7","SS1613139486849","trial","","40","800","1645.3449999215081","images/stimuli/spore_stims/complex_12_B_b.gif","images/stimuli/spore_stims/complex_12_A_b.gif","","","","","6","complex_similar","images/stimuli/spore_stims/complex_12_A_b.gif","left","","","","",""
"","1353.0349999200553","html-keyboard-response","132","403887","0.0-27.0","SS1613139486849","pref_question","","50","","","","","<video width ='960' height = '540' style='padding-top:8%' autoplay muted><source src='images/stimuli/wall_pref.mp4' type='video/mp4'></video>","2","middle","45%","6","","","","","","","",""
"","1150.0200000591576","sequential-stimulus-presentation","133","405843","0.0-28.0","SS1613139486849","pref_reveal","","40","800","1950.0200000591576","null","null","","","","","6","","","","novel","","","",""
"","null","html-keyboard-response","134","407107","0.0-29.0-0.0","SS1613139486849","","","null","","","","","<p><img src= images/blank.png width =""200"" height = ""200"" style = ""float:right""></p><p><img src=images/blank.png width =""800"" height = ""200""></p>","","","","","","","","","","","",""
"","2076.729999971576","sequential-stimulus-presentation","135","410042","0.0-29.0-1.0","SS1613139486849","trial","","40","800","2876.729999971576","images/stimuli/spore_stims/complex_07_B_d.gif","images/stimuli/spore_stims/complex_11_B_c.gif","","","","","7","complex_dissimilar","images/stimuli/spore_stims/complex_11_B_c.gif","middle","","","","",""
"","null","html-keyboard-response","136","411271","0.0-29.0-0.1","SS1613139486849","","","null","","","","","<p><img src= images/blank.png width =""200"" height = ""200"" style = ""float:right""></p><p><img src=images/blank.png width =""800"" height = ""200""></p>","","","","","","","","","","","",""
"","1522.6000000257045","sequential-stimulus-presentation","137","413603","0.0-29.0-1.1","SS1613139486849","trial","","40","800","2322.6000000257045","images/stimuli/spore_stims/complex_07_B_d.gif","images/stimuli/spore_stims/complex_11_B_c.gif","","","","","7","complex_dissimilar","images/stimuli/spore_stims/complex_11_B_c.gif","middle","","","","",""
"","null","html-keyboard-response","138","414864","0.0-29.0-0.2","SS1613139486849","","","null","","","","","<p><img src= images/blank.png width =""200"" height = ""200"" style = ""float:right""></p><p><img src=images/blank.png width =""800"" height = ""200""></p>","","","","","","","","","","","",""
"","1558.2850000355393","sequential-stimulus-presentation","139","417231","0.0-29.0-1.2","SS1613139486849","trial","","40","800","2358.2850000355393","images/stimuli/spore_stims/complex_07_B_d.gif","images/stimuli/spore_stims/complex_11_B_c.gif","","","","","7","complex_dissimilar","images/stimuli/spore_stims/complex_11_B_c.gif","middle","","","","",""
"","null","html-keyboard-response","140","418195","0.0-29.0-0.3","SS1613139486849","","","null","","","","","<p><img src= images/blank.png width =""200"" height = ""200"" style = ""float:right""></p><p><img src=images/blank.png width =""800"" height = ""200""></p>","","","","","","","","","","","",""
"","2048.494999995455","sequential-stimulus-presentation","141","421054","0.0-29.0-1.3","SS1613139486849","trial","","40","800","2848.494999995455","images/stimuli/spore_stims/complex_07_B_d.gif","images/stimuli/spore_stims/complex_11_B_c.gif","","","","","7","complex_dissimilar","images/stimuli/spore_stims/complex_11_B_c.gif","middle","","","","",""
"","null","html-keyboard-response","142","422189","0.0-29.0-0.4","SS1613139486849","","","null","","","","","<p><img src= images/blank.png width =""200"" height = ""200"" style = ""float:right""></p><p><img src=images/blank.png width =""800"" height = ""200""></p>","","","","","","","","","","","",""
"","2280.5099999532104","sequential-stimulus-presentation","143","425290","0.0-29.0-1.4","SS1613139486849","trial","","40","800","3080.5099999532104","images/stimuli/spore_stims/complex_07_B_d.gif","images/stimuli/spore_stims/complex_11_B_c.gif","","","","","7","complex_dissimilar","images/stimuli/spore_stims/complex_11_B_c.gif","middle","","","","",""
"","null","html-keyboard-response","144","426155","0.0-29.0-0.5","SS1613139486849","","","null","","","","","<p><img src= images/blank.png width =""200"" height = ""200"" style = ""float:right""></p><p><img src=images/blank.png width =""800"" height = ""200""></p>","","","","","","","","","","","",""
"","1052.3599999723956","sequential-stimulus-presentation","145","428018","0.0-29.0-1.5","SS1613139486849","trial","","40","800","1852.3599999723956","images/stimuli/spore_stims/complex_07_B_d.gif","images/stimuli/spore_stims/complex_11_B_c.gif","","","","","7","complex_dissimilar","images/stimuli/spore_stims/complex_11_B_c.gif","middle","","","","",""
"","null","html-keyboard-response","146","429195","0.0-29.0-0.6","SS1613139486849","","","null","","","","","<p><img src= images/blank.png width =""200"" height = ""200"" style = ""float:right""></p><p><img src=images/blank.png width =""800"" height = ""200""></p>","","","","","","","","","","","",""
"","1599.1549999453127","sequential-stimulus-presentation","147","431609","0.0-29.0-1.6","SS1613139486849","trial","","40","800","2399.1549999453127","images/stimuli/spore_stims/complex_07_B_d.gif","images/stimuli/spore_stims/complex_11_B_c.gif","","","","","7","complex_dissimilar","images/stimuli/spore_stims/complex_07_B_d.gif","right","","","","",""
"","null","html-keyboard-response","148","432650","0.0-29.0-0.7","SS1613139486849","","","null","","","","","<p><img src= images/blank.png width =""200"" height = ""200"" style = ""float:right""></p><p><img src=images/blank.png width =""800"" height = ""200""></p>","","","","","","","","","","","",""
"","976.2649999465793","sequential-stimulus-presentation","149","434437","0.0-29.0-1.7","SS1613139486849","trial","","40","800","1776.2649999465793","images/stimuli/spore_stims/complex_07_B_d.gif","images/stimuli/spore_stims/complex_11_B_c.gif","","","","","7","complex_dissimilar","images/stimuli/spore_stims/complex_11_B_c.gif","middle","","","","",""
"","3197.275000042282","html-keyboard-response","150","437639","0.0-30.0","SS1613139486849","pref_question","","51","","","","","<video width ='960' height = '540' style='padding-top:8%' autoplay muted><source src='images/stimuli/wall_pref.mp4' type='video/mp4'></video>","3","right","66%","7","","","","","","","",""
"","4315.320000052452","sequential-stimulus-presentation","151","442765","0.0-31.0","SS1613139486849","pref_reveal","","40","800","5115.320000052452","null","null","","","","","7","","","","deviant","","","",""
"","null","html-keyboard-response","152","443799","0.0-32.0-0.0","SS1613139486849","","","null","","","","","<p><img src= images/blank.png width =""200"" height = ""200"" style = ""float:right""></p><p><img src=images/blank.png width =""800"" height = ""200""></p>","","","","","","","","","","","",""
"","3394.8650000384077","sequential-stimulus-presentation","153","448003","0.0-32.0-1.0","SS1613139486849","trial","","40","800","4194.865000038408","images/stimuli/spore_stims/simple_14_B_d.gif","images/stimuli/spore_stims/simple_14_A_d.gif","","","","","8","simple_similar","images/stimuli/spore_stims/simple_14_A_d.gif","middle","","","","",""
"","null","html-keyboard-response","154","449054","0.0-32.0-0.1","SS1613139486849","","","null","","","","","<p><img src= images/blank.png width =""200"" height = ""200"" style = ""float:right""></p><p><img src=images/blank.png width =""800"" height = ""200""></p>","","","","","","","","","","","",""
"","1298.6299999756739","sequential-stimulus-presentation","155","451161","0.0-32.0-1.1","SS1613139486849","trial","","40","800","2098.629999975674","images/stimuli/spore_stims/simple_14_B_d.gif","images/stimuli/spore_stims/simple_14_A_d.gif","","","","","8","simple_similar","images/stimuli/spore_stims/simple_14_A_d.gif","middle","","","","",""
"","null","html-keyboard-response","156","452210","0.0-32.0-0.2","SS1613139486849","","","null","","","","","<p><img src= images/blank.png width =""200"" height = ""200"" style = ""float:right""></p><p><img src=images/blank.png width =""800"" height = ""200""></p>","","","","","","","","","","","",""
"","1123.7349999137223","sequential-stimulus-presentation","157","454142","0.0-32.0-1.2","SS1613139486849","trial","","40","800","1923.7349999137223","images/stimuli/spore_stims/simple_14_B_d.gif","images/stimuli/spore_stims/simple_14_A_d.gif","","","","","8","simple_similar","images/stimuli/spore_stims/simple_14_A_d.gif","middle","","","","",""
"","null","html-keyboard-response","158","455184","0.0-32.0-0.3","SS1613139486849","","","null","","","","","<p><img src= images/blank.png width =""200"" height = ""200"" style = ""float:right""></p><p><img src=images/blank.png width =""800"" height = ""200""></p>","","","","","","","","","","","",""
"","1457.1900001028553","sequential-stimulus-presentation","159","457464","0.0-32.0-1.3","SS1613139486849","trial","","40","800","2257.1900001028553","images/stimuli/spore_stims/simple_14_B_d.gif","images/stimuli/spore_stims/simple_14_A_d.gif","","","","","8","simple_similar","images/stimuli/spore_stims/simple_14_A_d.gif","middle","","","","",""
"","null","html-keyboard-response","160","458581","0.0-32.0-0.4","SS1613139486849","","","null","","","","","<p><img src= images/blank.png width =""200"" height = ""200"" style = ""float:right""></p><p><img src=images/blank.png width =""800"" height = ""200""></p>","","","","","","","","","","","",""
"","2541.0050000064075","sequential-stimulus-presentation","161","461937","0.0-32.0-1.4","SS1613139486849","trial","","40","800","3341.0050000064075","images/stimuli/spore_stims/simple_14_B_d.gif","images/stimuli/spore_stims/simple_14_A_d.gif","","","","","8","simple_similar","images/stimuli/spore_stims/simple_14_A_d.gif","middle","","","","",""
"","null","html-keyboard-response","162","462906","0.0-32.0-0.5","SS1613139486849","","","null","","","","","<p><img src= images/blank.png width =""200"" height = ""200"" style = ""float:right""></p><p><img src=images/blank.png width =""800"" height = ""200""></p>","","","","","","","","","","","",""
"","593.8799999421462","sequential-stimulus-presentation","163","464312","0.0-32.0-1.5","SS1613139486849","trial","","40","800","1393.8799999421462","images/stimuli/spore_stims/simple_14_B_d.gif","images/stimuli/spore_stims/simple_14_A_d.gif","","","","","8","simple_similar","images/stimuli/spore_stims/simple_14_A_d.gif","middle","","","","",""
"","null","html-keyboard-response","164","465581","0.0-32.0-0.6","SS1613139486849","","","null","","","","","<p><img src= images/blank.png width =""200"" height = ""200"" style = ""float:right""></p><p><img src=images/blank.png width =""800"" height = ""200""></p>","","","","","","","","","","","",""
"","1037.8950000740588","sequential-stimulus-presentation","165","467438","0.0-32.0-1.6","SS1613139486849","trial","","40","800","1837.8950000740588","images/stimuli/spore_stims/simple_14_B_d.gif","images/stimuli/spore_stims/simple_14_A_d.gif","","","","","8","simple_similar","images/stimuli/spore_stims/simple_14_A_d.gif","middle","","","","",""
"","null","html-keyboard-response","166","468641","0.0-32.0-0.7","SS1613139486849","","","null","","","","","<p><img src= images/blank.png width =""200"" height = ""200"" style = ""float:right""></p><p><img src=images/blank.png width =""800"" height = ""200""></p>","","","","","","","","","","","",""
"","1742.96000006143","sequential-stimulus-presentation","167","471195","0.0-32.0-1.7","SS1613139486849","trial","","40","800","2542.96000006143","images/stimuli/spore_stims/simple_14_B_d.gif","images/stimuli/spore_stims/simple_14_A_d.gif","","","","","8","simple_similar","images/stimuli/spore_stims/simple_14_B_d.gif","left","","","","",""
"","3300.0199999660254","html-keyboard-response","168","474501","0.0-33.0","SS1613139486849","pref_question","","50","","","","","<video width ='960' height = '540' style='padding-top:8%' autoplay muted><source src='images/stimuli/wall_pref.mp4' type='video/mp4'></video>","2","middle","45%","8","","","","","","","",""
"","868.8250000122935","sequential-stimulus-presentation","169","476177","0.0-34.0","SS1613139486849","pref_reveal","","40","800","1668.8250000122935","null","null","","","","","8","","","","background","","","",""
"","null","html-keyboard-response","170","477262","0.0-35.0-0.0","SS1613139486849","","","null","","","","","<p><img src= images/blank.png width =""200"" height = ""200"" style = ""float:right""></p><p><img src=images/blank.png width =""800"" height = ""200""></p>","","","","","","","","","","","",""
"","3128.3549999352545","sequential-stimulus-presentation","171","481202","0.0-35.0-1.0","SS1613139486849","trial","","40","800","3928.3549999352545","images/stimuli/spore_stims/simple_04_A_b.gif","images/stimuli/spore_stims/simple_05_A_b.gif","","","","","9","simple_dissimilar","images/stimuli/spore_stims/simple_05_A_b.gif","right","","","","",""
"","null","html-keyboard-response","172","482355","0.0-35.0-0.1","SS1613139486849","","","null","","","","","<p><img src= images/blank.png width =""200"" height = ""200"" style = ""float:right""></p><p><img src=images/blank.png width =""800"" height = ""200""></p>","","","","","","","","","","","",""
"","1787.5200000125915","sequential-stimulus-presentation","173","484956","0.0-35.0-1.1","SS1613139486849","trial","","40","800","2587.5200000125915","images/stimuli/spore_stims/simple_04_A_b.gif","images/stimuli/spore_stims/simple_05_A_b.gif","","","","","9","simple_dissimilar","images/stimuli/spore_stims/simple_05_A_b.gif","right","","","","",""
"","null","html-keyboard-response","174","485981","0.0-35.0-0.2","SS1613139486849","","","null","","","","","<p><img src= images/blank.png width =""200"" height = ""200"" style = ""float:right""></p><p><img src=images/blank.png width =""800"" height = ""200""></p>","","","","","","","","","","","",""
"","890.9099999582395","sequential-stimulus-presentation","175","487680","0.0-35.0-1.2","SS1613139486849","trial","","40","800","1690.9099999582395","images/stimuli/spore_stims/simple_04_A_b.gif","images/stimuli/spore_stims/simple_05_A_b.gif","","","","","9","simple_dissimilar","images/stimuli/spore_stims/simple_05_A_b.gif","right","","","","",""
"","null","html-keyboard-response","176","488856","0.0-35.0-0.3","SS1613139486849","","","null","","","","","<p><img src= images/blank.png width =""200"" height = ""200"" style = ""float:right""></p><p><img src=images/blank.png width =""800"" height = ""200""></p>","","","","","","","","","","","",""
"","1107.9550000140443","sequential-stimulus-presentation","177","490777","0.0-35.0-1.3","SS1613139486849","trial","","40","800","1907.9550000140443","images/stimuli/spore_stims/simple_04_A_b.gif","images/stimuli/spore_stims/simple_05_A_b.gif","","","","","9","simple_dissimilar","images/stimuli/spore_stims/simple_05_A_b.gif","right","","","","",""
"","null","html-keyboard-response","178","492081","0.0-35.0-0.4","SS1613139486849","","","null","","","","","<p><img src= images/blank.png width =""200"" height = ""200"" style = ""float:right""></p><p><img src=images/blank.png width =""800"" height = ""200""></p>","","","","","","","","","","","",""
"","1255.8399999979883","sequential-stimulus-presentation","179","494149","0.0-35.0-1.4","SS1613139486849","trial","","40","800","2055.8399999979883","images/stimuli/spore_stims/simple_04_A_b.gif","images/stimuli/spore_stims/simple_05_A_b.gif","","","","","9","simple_dissimilar","images/stimuli/spore_stims/simple_05_A_b.gif","right","","","","",""
"","null","html-keyboard-response","180","495057","0.0-35.0-0.5","SS1613139486849","","","null","","","","","<p><img src= images/blank.png width =""200"" height = ""200"" style = ""float:right""></p><p><img src=images/blank.png width =""800"" height = ""200""></p>","","","","","","","","","","","",""
"","924.7050000121817","sequential-stimulus-presentation","181","496789","0.0-35.0-1.5","SS1613139486849","trial","","40","800","1724.7050000121817","images/stimuli/spore_stims/simple_04_A_b.gif","images/stimuli/spore_stims/simple_05_A_b.gif","","","","","9","simple_dissimilar","images/stimuli/spore_stims/simple_05_A_b.gif","right","","","","",""
"","null","html-keyboard-response","182","497703","0.0-35.0-0.6","SS1613139486849","","","null","","","","","<p><img src= images/blank.png width =""200"" height = ""200"" style = ""float:right""></p><p><img src=images/blank.png width =""800"" height = ""200""></p>","","","","","","","","","","","",""
"","2980.9100000420585","sequential-stimulus-presentation","183","501498","0.0-35.0-1.6","SS1613139486849","trial","","40","800","3780.9100000420585","images/stimuli/spore_stims/simple_04_A_b.gif","images/stimuli/spore_stims/simple_05_A_b.gif","","","","","9","simple_dissimilar","images/stimuli/spore_stims/simple_05_A_b.gif","right","","","","",""
"","null","html-keyboard-response","184","502627","0.0-35.0-0.7","SS1613139486849","","","null","","","","","<p><img src= images/blank.png width =""200"" height = ""200"" style = ""float:right""></p><p><img src=images/blank.png width =""800"" height = ""200""></p>","","","","","","","","","","","",""
"","1893.4349999763072","sequential-stimulus-presentation","185","505327","0.0-35.0-1.7","SS1613139486849","trial","","40","800","2693.434999976307","images/stimuli/spore_stims/simple_04_A_b.gif","images/stimuli/spore_stims/simple_05_A_b.gif","","","","","9","simple_dissimilar","images/stimuli/spore_stims/simple_04_A_b.gif","middle","","","","",""
"","1551.8449998926371","html-keyboard-response","186","506907","0.0-36.0","SS1613139486849","pref_question","","49","","","","","<video width ='960' height = '540' style='padding-top:8%' autoplay muted><source src='images/stimuli/wall_pref.mp4' type='video/mp4'></video>","1","left","25%","9","","","","","","","",""
"","2967.7499999525025","sequential-stimulus-presentation","187","510682","0.0-37.0","SS1613139486849","pref_reveal","","40","800","3767.7499999525025","null","null","","","","","9","","","","novel","","","",""
"","null","html-keyboard-response","188","511718","0.0-38.0-0.0","SS1613139486849","","","null","","","","","<p><img src= images/blank.png width =""200"" height = ""200"" style = ""float:right""></p><p><img src=images/blank.png width =""800"" height = ""200""></p>","","","","","","","","","","","",""
"","1151.3799999374896","sequential-stimulus-presentation","189","513683","0.0-38.0-1.0","SS1613139486849","trial","","40","800","1951.3799999374896","images/stimuli/spore_stims/simple_12_A_b.gif","images/stimuli/spore_stims/simple_12_B_b.gif","","","","","10","simple_similar","images/stimuli/spore_stims/simple_12_B_b.gif","left","","","","",""
"","null","html-keyboard-response","190","514792","0.0-38.0-0.1","SS1613139486849","","","null","","","","","<p><img src= images/blank.png width =""200"" height = ""200"" style = ""float:right""></p><p><img src=images/blank.png width =""800"" height = ""200""></p>","","","","","","","","","","","",""
"","1178.414999973029","sequential-stimulus-presentation","191","516778","0.0-38.0-1.1","SS1613139486849","trial","","40","800","1978.414999973029","images/stimuli/spore_stims/simple_12_A_b.gif","images/stimuli/spore_stims/simple_12_B_b.gif","","","","","10","simple_similar","images/stimuli/spore_stims/simple_12_B_b.gif","left","","","","",""
"","null","html-keyboard-response","192","517835","0.0-38.0-0.2","SS1613139486849","","","null","","","","","<p><img src= images/blank.png width =""200"" height = ""200"" style = ""float:right""></p><p><img src=images/blank.png width =""800"" height = ""200""></p>","","","","","","","","","","","",""
"","1057.440000004135","sequential-stimulus-presentation","193","519704","0.0-38.0-1.2","SS1613139486849","trial","","40","800","1857.440000004135","images/stimuli/spore_stims/simple_12_A_b.gif","images/stimuli/spore_stims/simple_12_B_b.gif","","","","","10","simple_similar","images/stimuli/spore_stims/simple_12_B_b.gif","left","","","","",""
"","null","html-keyboard-response","194","520573","0.0-38.0-0.3","SS1613139486849","","","null","","","","","<p><img src= images/blank.png width =""200"" height = ""200"" style = ""float:right""></p><p><img src=images/blank.png width =""800"" height = ""200""></p>","","","","","","","","","","","",""
"","3085.220000008121","sequential-stimulus-presentation","195","524468","0.0-38.0-1.3","SS1613139486849","trial","","40","800","3885.220000008121","images/stimuli/spore_stims/simple_12_A_b.gif","images/stimuli/spore_stims/simple_12_B_b.gif","","","","","10","simple_similar","images/stimuli/spore_stims/simple_12_B_b.gif","left","","","","",""
"","null","html-keyboard-response","196","525339","0.0-38.0-0.4","SS1613139486849","","","null","","","","","<p><img src= images/blank.png width =""200"" height = ""200"" style = ""float:right""></p><p><img src=images/blank.png width =""800"" height = ""200""></p>","","","","","","","","","","","",""
"","1683.4599999710917","sequential-stimulus-presentation","197","527833","0.0-38.0-1.4","SS1613139486849","trial","","40","800","2483.4599999710917","images/stimuli/spore_stims/simple_12_A_b.gif","images/stimuli/spore_stims/simple_12_B_b.gif","","","","","10","simple_similar","images/stimuli/spore_stims/simple_12_B_b.gif","left","","","","",""
"","null","html-keyboard-response","198","528748","0.0-38.0-0.5","SS1613139486849","","","null","","","","","<p><img src= images/blank.png width =""200"" height = ""200"" style = ""float:right""></p><p><img src=images/blank.png width =""800"" height = ""200""></p>","","","","","","","","","","","",""
"","1058.8050000369549","sequential-stimulus-presentation","199","530616","0.0-38.0-1.5","SS1613139486849","trial","","40","800","1858.8050000369549","images/stimuli/spore_stims/simple_12_A_b.gif","images/stimuli/spore_stims/simple_12_B_b.gif","","","","","10","simple_similar","images/stimuli/spore_stims/simple_12_B_b.gif","left","","","","",""
"","null","html-keyboard-response","200","531672","0.0-38.0-0.6","SS1613139486849","","","null","","","","","<p><img src= images/blank.png width =""200"" height = ""200"" style = ""float:right""></p><p><img src=images/blank.png width =""800"" height = ""200""></p>","","","","","","","","","","","",""
"","951.824999996461","sequential-stimulus-presentation","201","533435","0.0-38.0-1.6","SS1613139486849","trial","","40","800","1751.824999996461","images/stimuli/spore_stims/simple_12_A_b.gif","images/stimuli/spore_stims/simple_12_B_b.gif","","","","","10","simple_similar","images/stimuli/spore_stims/simple_12_B_b.gif","left","","","","",""
"","null","html-keyboard-response","202","534571","0.0-38.0-0.7","SS1613139486849","","","null","","","","","<p><img src= images/blank.png width =""200"" height = ""200"" style = ""float:right""></p><p><img src=images/blank.png width =""800"" height = ""200""></p>","","","","","","","","","","","",""
"","933.2649999996647","sequential-stimulus-presentation","203","536312","0.0-38.0-1.7","SS1613139486849","trial","","40","800","1733.2649999996647","images/stimuli/spore_stims/simple_12_A_b.gif","images/stimuli/spore_stims/simple_12_B_b.gif","","","","","10","simple_similar","images/stimuli/spore_stims/simple_12_A_b.gif","right","","","","",""
"","1505.1049999892712","html-keyboard-response","204","537823","0.0-39.0","SS1613139486849","pref_question","","50","","","","","<video width ='960' height = '540' style='padding-top:8%' autoplay muted><source src='images/stimuli/wall_pref.mp4' type='video/mp4'></video>","2","middle","45%","10","","","","","","","",""
"","2262.525000027381","sequential-stimulus-presentation","205","540894","0.0-40.0","SS1613139486849","pref_reveal","","40","800","3062.525000027381","null","null","","","","","10","","","","novel","","","",""
"","null","html-keyboard-response","206","541710","0.0-41.0-0.0","SS1613139486849","","","null","","","","","<p><img src= images/blank.png width =""200"" height = ""200"" style = ""float:right""></p><p><img src=images/blank.png width =""800"" height = ""200""></p>","","","","","","","","","","","",""
"","976.4000000432134","sequential-stimulus-presentation","207","543513","0.0-41.0-1.0","SS1613139486849","trial","","40","800","1776.4000000432134","images/stimuli/spore_stims/complex_08_A_b.gif","images/stimuli/spore_stims/complex_18_B_a.gif","","","","","11","complex_dissimilar","images/stimuli/spore_stims/complex_18_B_a.gif","right","","","","",""
"","null","html-keyboard-response","208","544795","0.0-41.0-0.1","SS1613139486849","","","null","","","","","<p><img src= images/blank.png width =""200"" height = ""200"" style = ""float:right""></p><p><img src=images/blank.png width =""800"" height = ""200""></p>","","","","","","","","","","","",""
"","762.2550000669435","sequential-stimulus-presentation","209","546370","0.0-41.0-1.1","SS1613139486849","trial","","40","800","1562.2550000669435","images/stimuli/spore_stims/complex_08_A_b.gif","images/stimuli/spore_stims/complex_18_B_a.gif","","","","","11","complex_dissimilar","images/stimuli/spore_stims/complex_18_B_a.gif","right","","","","",""
"","null","html-keyboard-response","210","547220","0.0-41.0-0.2","SS1613139486849","","","null","","","","","<p><img src= images/blank.png width =""200"" height = ""200"" style = ""float:right""></p><p><img src=images/blank.png width =""800"" height = ""200""></p>","","","","","","","","","","","",""
"","996.9849999761209","sequential-stimulus-presentation","211","549025","0.0-41.0-1.2","SS1613139486849","trial","","40","800","1796.984999976121","images/stimuli/spore_stims/complex_08_A_b.gif","images/stimuli/spore_stims/complex_18_B_a.gif","","","","","11","complex_dissimilar","images/stimuli/spore_stims/complex_18_B_a.gif","right","","","","",""
"","null","html-keyboard-response","212","550122","0.0-41.0-0.3","SS1613139486849","","","null","","","","","<p><img src= images/blank.png width =""200"" height = ""200"" style = ""float:right""></p><p><img src=images/blank.png width =""800"" height = ""200""></p>","","","","","","","","","","","",""
"","1202.2850000066683","sequential-stimulus-presentation","213","552136","0.0-41.0-1.3","SS1613139486849","trial","","40","800","2002.2850000066683","images/stimuli/spore_stims/complex_08_A_b.gif","images/stimuli/spore_stims/complex_18_B_a.gif","","","","","11","complex_dissimilar","images/stimuli/spore_stims/complex_18_B_a.gif","right","","","","",""
"","null","html-keyboard-response","214","553441","0.0-41.0-0.4","SS1613139486849","","","null","","","","","<p><img src= images/blank.png width =""200"" height = ""200"" style = ""float:right""></p><p><img src=images/blank.png width =""800"" height = ""200""></p>","","","","","","","","","","","",""
"","824.8200000962242","sequential-stimulus-presentation","215","555076","0.0-41.0-1.4","SS1613139486849","trial","","40","800","1624.8200000962242","images/stimuli/spore_stims/complex_08_A_b.gif","images/stimuli/spore_stims/complex_18_B_a.gif","","","","","11","complex_dissimilar","images/stimuli/spore_stims/complex_18_B_a.gif","right","","","","",""
"","null","html-keyboard-response","216","556132","0.0-41.0-0.5","SS1613139486849","","","null","","","","","<p><img src= images/blank.png width =""200"" height = ""200"" style = ""float:right""></p><p><img src=images/blank.png width =""800"" height = ""200""></p>","","","","","","","","","","","",""
"","972.8449999820441","sequential-stimulus-presentation","217","557911","0.0-41.0-1.5","SS1613139486849","trial","","40","800","1772.844999982044","images/stimuli/spore_stims/complex_08_A_b.gif","images/stimuli/spore_stims/complex_18_B_a.gif","","","","","11","complex_dissimilar","images/stimuli/spore_stims/complex_08_A_b.gif","middle","","","","",""
"","null","html-keyboard-response","218","559020","0.0-41.0-0.6","SS1613139486849","","","null","","","","","<p><img src= images/blank.png width =""200"" height = ""200"" style = ""float:right""></p><p><img src=images/blank.png width =""800"" height = ""200""></p>","","","","","","","","","","","",""
"","1153.8149999687448","sequential-stimulus-presentation","219","560985","0.0-41.0-1.6","SS1613139486849","trial","","40","800","1953.8149999687448","images/stimuli/spore_stims/complex_08_A_b.gif","images/stimuli/spore_stims/complex_18_B_a.gif","","","","","11","complex_dissimilar","images/stimuli/spore_stims/complex_18_B_a.gif","right","","","","",""
"","null","html-keyboard-response","220","561899","0.0-41.0-0.7","SS1613139486849","","","null","","","","","<p><img src= images/blank.png width =""200"" height = ""200"" style = ""float:right""></p><p><img src=images/blank.png width =""800"" height = ""200""></p>","","","","","","","","","","","",""
"","884.8950000246987","sequential-stimulus-presentation","221","563592","0.0-41.0-1.7","SS1613139486849","trial","","40","800","1684.8950000246987","images/stimuli/spore_stims/complex_08_A_b.gif","images/stimuli/spore_stims/complex_18_B_a.gif","","","","","11","complex_dissimilar","images/stimuli/spore_stims/complex_18_B_a.gif","right","","","","",""
"","2147.984999930486","html-keyboard-response","222","565745","0.0-42.0","SS1613139486849","pref_question","","51","","","","","<video width ='960' height = '540' style='padding-top:8%' autoplay muted><source src='images/stimuli/wall_pref.mp4' type='video/mp4'></video>","3","right","66%","11","","","","","","","",""
"","1283.6949999909848","sequential-stimulus-presentation","223","567835","0.0-43.0","SS1613139486849","pref_reveal","","40","800","2083.694999990985","null","null","","","","","11","","","","background","","","",""
"","null","html-keyboard-response","224","568768","0.0-44.0-0.0","SS1613139486849","","","null","","","","","<p><img src= images/blank.png width =""200"" height = ""200"" style = ""float:right""></p><p><img src=images/blank.png width =""800"" height = ""200""></p>","","","","","","","","","","","",""
"","1213.4099999675527","sequential-stimulus-presentation","225","570790","0.0-44.0-1.0","SS1613139486849","trial","","40","800","2013.4099999675527","images/stimuli/spore_stims/simple_20_A_c.gif","images/stimuli/spore_stims/simple_20_B_c.gif","","","","","12","simple_similar","images/stimuli/spore_stims/simple_20_B_c.gif","left","","","","",""
"","null","html-keyboard-response","226","571851","0.0-44.0-0.1","SS1613139486849","","","null","","","","","<p><img src= images/blank.png width =""200"" height = ""200"" style = ""float:right""></p><p><img src=images/blank.png width =""800"" height = ""200""></p>","","","","","","","","","","","",""
"","782.5849999208003","sequential-stimulus-presentation","227","573441","0.0-44.0-1.1","SS1613139486849","trial","","40","800","1582.5849999208003","images/stimuli/spore_stims/simple_20_A_c.gif","images/stimuli/spore_stims/simple_20_B_c.gif","","","","","12","simple_similar","images/stimuli/spore_stims/simple_20_B_c.gif","left","","","","",""
"","null","html-keyboard-response","228","574505","0.0-44.0-0.2","SS1613139486849","","","null","","","","","<p><img src= images/blank.png width =""200"" height = ""200"" style = ""float:right""></p><p><img src=images/blank.png width =""800"" height = ""200""></p>","","","","","","","","","","","",""
"","1190.8099999418482","sequential-stimulus-presentation","229","576506","0.0-44.0-1.2","SS1613139486849","trial","","40","800","1990.8099999418482","images/stimuli/spore_stims/simple_20_A_c.gif","images/stimuli/spore_stims/simple_20_B_c.gif","","","","","12","simple_similar","images/stimuli/spore_stims/simple_20_A_c.gif","right","","","","",""
"","null","html-keyboard-response","230","577789","0.0-44.0-0.3","SS1613139486849","","","null","","","","","<p><img src= images/blank.png width =""200"" height = ""200"" style = ""float:right""></p><p><img src=images/blank.png width =""800"" height = ""200""></p>","","","","","","","","","","","",""
"","1759.3300000298768","sequential-stimulus-presentation","231","580357","0.0-44.0-1.3","SS1613139486849","trial","","40","800","2559.330000029877","images/stimuli/spore_stims/simple_20_A_c.gif","images/stimuli/spore_stims/simple_20_B_c.gif","","","","","12","simple_similar","images/stimuli/spore_stims/simple_20_B_c.gif","left","","","","",""
"","null","html-keyboard-response","232","581613","0.0-44.0-0.4","SS1613139486849","","","null","","","","","<p><img src= images/blank.png width =""200"" height = ""200"" style = ""float:right""></p><p><img src=images/blank.png width =""800"" height = ""200""></p>","","","","","","","","","","","",""
"","1323.4149999916553","sequential-stimulus-presentation","233","583747","0.0-44.0-1.4","SS1613139486849","trial","","40","800","2123.4149999916553","images/stimuli/spore_stims/simple_20_A_c.gif","images/stimuli/spore_stims/simple_20_B_c.gif","","","","","12","simple_similar","images/stimuli/spore_stims/simple_20_B_c.gif","left","","","","",""
"","null","html-keyboard-response","234","584873","0.0-44.0-0.5","SS1613139486849","","","null","","","","","<p><img src= images/blank.png width =""200"" height = ""200"" style = ""float:right""></p><p><img src=images/blank.png width =""800"" height = ""200""></p>","","","","","","","","","","","",""
"","1352.2200000006706","sequential-stimulus-presentation","235","587033","0.0-44.0-1.5","SS1613139486849","trial","","40","800","2152.2200000006706","images/stimuli/spore_stims/simple_20_A_c.gif","images/stimuli/spore_stims/simple_20_B_c.gif","","","","","12","simple_similar","images/stimuli/spore_stims/simple_20_B_c.gif","left","","","","",""
"","null","html-keyboard-response","236","588079","0.0-44.0-0.6","SS1613139486849","","","null","","","","","<p><img src= images/blank.png width =""200"" height = ""200"" style = ""float:right""></p><p><img src=images/blank.png width =""800"" height = ""200""></p>","","","","","","","","","","","",""
"","1129.4150000903755","sequential-stimulus-presentation","237","590018","0.0-44.0-1.6","SS1613139486849","trial","","40","800","1929.4150000903755","images/stimuli/spore_stims/simple_20_A_c.gif","images/stimuli/spore_stims/simple_20_B_c.gif","","","","","12","simple_similar","images/stimuli/spore_stims/simple_20_B_c.gif","left","","","","",""
"","null","html-keyboard-response","238","590906","0.0-44.0-0.7","SS1613139486849","","","null","","","","","<p><img src= images/blank.png width =""200"" height = ""200"" style = ""float:right""></p><p><img src=images/blank.png width =""800"" height = ""200""></p>","","","","","","","","","","","",""
"","1022.2650000359863","sequential-stimulus-presentation","239","592740","0.0-44.0-1.7","SS1613139486849","trial","","40","800","1822.2650000359863","images/stimuli/spore_stims/simple_20_A_c.gif","images/stimuli/spore_stims/simple_20_B_c.gif","","","","","12","simple_similar","images/stimuli/spore_stims/simple_20_B_c.gif","left","","","","",""
"","2146.1750000016764","html-keyboard-response","240","594893","0.0-45.0","SS1613139486849","pref_question","","50","","","","","<video width ='960' height = '540' style='padding-top:8%' autoplay muted><source src='images/stimuli/wall_pref.mp4' type='video/mp4'></video>","2","middle","45%","12","","","","","","","",""
"","1259.6850000554696","sequential-stimulus-presentation","241","596967","0.0-46.0","SS1613139486849","pref_reveal","","40","800","2059.6850000554696","null","null","","","","","12","","","","novel","","","",""
"","null","html-keyboard-response","242","597954","0.0-47.0-0.0","SS1613139486849","","","null","","","","","<p><img src= images/blank.png width =""200"" height = ""200"" style = ""float:right""></p><p><img src=images/blank.png width =""800"" height = ""200""></p>","","","","","","","","","","","",""
"","1058.5699999937788","sequential-stimulus-presentation","243","599824","0.0-47.0-1.0","SS1613139486849","trial","","40","800","1858.5699999937788","images/stimuli/spore_stims/complex_03_A_d.gif","images/stimuli/spore_stims/complex_09_A_a.gif","","","","","13","complex_dissimilar","images/stimuli/spore_stims/complex_09_A_a.gif","middle","","","","",""
"","null","html-keyboard-response","244","600757","0.0-47.0-0.1","SS1613139486849","","","null","","","","","<p><img src= images/blank.png width =""200"" height = ""200"" style = ""float:right""></p><p><img src=images/blank.png width =""800"" height = ""200""></p>","","","","","","","","","","","",""
"","982.4599999701604","sequential-stimulus-presentation","245","602554","0.0-47.0-1.1","SS1613139486849","trial","","40","800","1782.4599999701604","images/stimuli/spore_stims/complex_03_A_d.gif","images/stimuli/spore_stims/complex_09_A_a.gif","","","","","13","complex_dissimilar","images/stimuli/spore_stims/complex_09_A_a.gif","middle","","","","",""
"","null","html-keyboard-response","246","603726","0.0-47.0-0.2","SS1613139486849","","","null","","","","","<p><img src= images/blank.png width =""200"" height = ""200"" style = ""float:right""></p><p><img src=images/blank.png width =""800"" height = ""200""></p>","","","","","","","","","","","",""
"","1025.900000007823","sequential-stimulus-presentation","247","605560","0.0-47.0-1.2","SS1613139486849","trial","","40","800","1825.900000007823","images/stimuli/spore_stims/complex_03_A_d.gif","images/stimuli/spore_stims/complex_09_A_a.gif","","","","","13","complex_dissimilar","images/stimuli/spore_stims/complex_09_A_a.gif","middle","","","","",""
"","null","html-keyboard-response","248","606488","0.0-47.0-0.3","SS1613139486849","","","null","","","","","<p><img src= images/blank.png width =""200"" height = ""200"" style = ""float:right""></p><p><img src=images/blank.png width =""800"" height = ""200""></p>","","","","","","","","","","","",""
"","927.1949999965727","sequential-stimulus-presentation","249","608225","0.0-47.0-1.3","SS1613139486849","trial","","40","800","1727.1949999965727","images/stimuli/spore_stims/complex_03_A_d.gif","images/stimuli/spore_stims/complex_09_A_a.gif","","","","","13","complex_dissimilar","images/stimuli/spore_stims/complex_09_A_a.gif","middle","","","","",""
"","null","html-keyboard-response","250","609165","0.0-47.0-0.4","SS1613139486849","","","null","","","","","<p><img src= images/blank.png width =""200"" height = ""200"" style = ""float:right""></p><p><img src=images/blank.png width =""800"" height = ""200""></p>","","","","","","","","","","","",""
"","1692.6849998999387","sequential-stimulus-presentation","251","611697","0.0-47.0-1.4","SS1613139486849","trial","","40","800","2492.6849998999387","images/stimuli/spore_stims/complex_03_A_d.gif","images/stimuli/spore_stims/complex_09_A_a.gif","","","","","13","complex_dissimilar","images/stimuli/spore_stims/complex_09_A_a.gif","middle","","","","",""
"","null","html-keyboard-response","252","612977","0.0-47.0-0.5","SS1613139486849","","","null","","","","","<p><img src= images/blank.png width =""200"" height = ""200"" style = ""float:right""></p><p><img src=images/blank.png width =""800"" height = ""200""></p>","","","","","","","","","","","",""
"","1055.4049999918789","sequential-stimulus-presentation","253","614843","0.0-47.0-1.5","SS1613139486849","trial","","40","800","1855.4049999918789","images/stimuli/spore_stims/complex_03_A_d.gif","images/stimuli/spore_stims/complex_09_A_a.gif","","","","","13","complex_dissimilar","images/stimuli/spore_stims/complex_09_A_a.gif","middle","","","","",""
"","null","html-keyboard-response","254","616087","0.0-47.0-0.6","SS1613139486849","","","null","","","","","<p><img src= images/blank.png width =""200"" height = ""200"" style = ""float:right""></p><p><img src=images/blank.png width =""800"" height = ""200""></p>","","","","","","","","","","","",""
"","2253.5850000567734","sequential-stimulus-presentation","255","619152","0.0-47.0-1.6","SS1613139486849","trial","","40","800","3053.5850000567734","images/stimuli/spore_stims/complex_03_A_d.gif","images/stimuli/spore_stims/complex_09_A_a.gif","","","","","13","complex_dissimilar","images/stimuli/spore_stims/complex_03_A_d.gif","right","","","","",""
"","null","html-keyboard-response","256","620458","0.0-47.0-0.7","SS1613139486849","","","null","","","","","<p><img src= images/blank.png width =""200"" height = ""200"" style = ""float:right""></p><p><img src=images/blank.png width =""800"" height = ""200""></p>","","","","","","","","","","","",""
"","1831.2199999345466","sequential-stimulus-presentation","257","623102","0.0-47.0-1.7","SS1613139486849","trial","","40","800","2631.2199999345466","images/stimuli/spore_stims/complex_03_A_d.gif","images/stimuli/spore_stims/complex_09_A_a.gif","","","","","13","complex_dissimilar","images/stimuli/spore_stims/complex_09_A_a.gif","middle","","","","",""
"","2525.2049999544397","html-keyboard-response","258","625635","0.0-48.0","SS1613139486849","pref_question","","49","","","","","<video width ='960' height = '540' style='padding-top:8%' autoplay muted><source src='images/stimuli/wall_pref.mp4' type='video/mp4'></video>","1","left","25%","13","","","","","","","",""
"","1570.5650000600144","sequential-stimulus-presentation","259","628014","0.0-49.0","SS1613139486849","pref_reveal","","40","800","2370.5650000600144","null","null","","","","","13","","","","novel","","","",""
"","null","html-keyboard-response","260","629288","0.0-50.0-0.0","SS1613139486849","","","null","","","","","<p><img src= images/blank.png width =""200"" height = ""200"" style = ""float:right""></p><p><img src=images/blank.png width =""800"" height = ""200""></p>","","","","","","","","","","","",""
"","2907.1550000226125","sequential-stimulus-presentation","261","633008","0.0-50.0-1.0","SS1613139486849","trial","","40","800","3707.1550000226125","images/stimuli/spore_stims/simple_16_A_a.gif","images/stimuli/spore_stims/simple_16_B_a.gif","","","","","14","simple_similar","images/stimuli/spore_stims/simple_16_B_a.gif","left","","","","",""
"","null","html-keyboard-response","262","634254","0.0-50.0-0.1","SS1613139486849","","","null","","","","","<p><img src= images/blank.png width =""200"" height = ""200"" style = ""float:right""></p><p><img src=images/blank.png width =""800"" height = ""200""></p>","","","","","","","","","","","",""
"","2231.2450000317767","sequential-stimulus-presentation","263","637294","0.0-50.0-1.1","SS1613139486849","trial","","40","800","3031.2450000317767","images/stimuli/spore_stims/simple_16_A_a.gif","images/stimuli/spore_stims/simple_16_B_a.gif","","","","","14","simple_similar","images/stimuli/spore_stims/simple_16_B_a.gif","left","","","","",""
"","null","html-keyboard-response","264","638585","0.0-50.0-0.2","SS1613139486849","","","null","","","","","<p><img src= images/blank.png width =""200"" height = ""200"" style = ""float:right""></p><p><img src=images/blank.png width =""800"" height = ""200""></p>","","","","","","","","","","","",""
"","978.8300000363961","sequential-stimulus-presentation","265","640373","0.0-50.0-1.2","SS1613139486849","trial","","40","800","1778.830000036396","images/stimuli/spore_stims/simple_16_A_a.gif","images/stimuli/spore_stims/simple_16_B_a.gif","","","","","14","simple_similar","images/stimuli/spore_stims/simple_16_B_a.gif","left","","","","",""
"","null","html-keyboard-response","266","641644","0.0-50.0-0.3","SS1613139486849","","","null","","","","","<p><img src= images/blank.png width =""200"" height = ""200"" style = ""float:right""></p><p><img src=images/blank.png width =""800"" height = ""200""></p>","","","","","","","","","","","",""
"","1900.8799999719486","sequential-stimulus-presentation","267","644358","0.0-50.0-1.3","SS1613139486849","trial","","40","800","2700.8799999719486","images/stimuli/spore_stims/simple_16_A_a.gif","images/stimuli/spore_stims/simple_16_B_a.gif","","","","","14","simple_similar","images/stimuli/spore_stims/simple_16_A_a.gif","right","","","","",""
"","null","html-keyboard-response","268","645238","0.0-50.0-0.4","SS1613139486849","","","null","","","","","<p><img src= images/blank.png width =""200"" height = ""200"" style = ""float:right""></p><p><img src=images/blank.png width =""800"" height = ""200""></p>","","","","","","","","","","","",""
"","959.9500000476837","sequential-stimulus-presentation","269","647011","0.0-50.0-1.4","SS1613139486849","trial","","40","800","1759.9500000476837","images/stimuli/spore_stims/simple_16_A_a.gif","images/stimuli/spore_stims/simple_16_B_a.gif","","","","","14","simple_similar","images/stimuli/spore_stims/simple_16_B_a.gif","left","","","","",""
"","null","html-keyboard-response","270","648257","0.0-50.0-0.5","SS1613139486849","","","null","","","","","<p><img src= images/blank.png width =""200"" height = ""200"" style = ""float:right""></p><p><img src=images/blank.png width =""800"" height = ""200""></p>","","","","","","","","","","","",""
"","1253.1299999682233","sequential-stimulus-presentation","271","650320","0.0-50.0-1.5","SS1613139486849","trial","","40","800","2053.1299999682233","images/stimuli/spore_stims/simple_16_A_a.gif","images/stimuli/spore_stims/simple_16_B_a.gif","","","","","14","simple_similar","images/stimuli/spore_stims/simple_16_B_a.gif","left","","","","",""
"","null","html-keyboard-response","272","651611","0.0-50.0-0.6","SS1613139486849","","","null","","","","","<p><img src= images/blank.png width =""200"" height = ""200"" style = ""float:right""></p><p><img src=images/blank.png width =""800"" height = ""200""></p>","","","","","","","","","","","",""
"","1609.5399999758229","sequential-stimulus-presentation","273","654038","0.0-50.0-1.6","SS1613139486849","trial","","40","800","2409.539999975823","images/stimuli/spore_stims/simple_16_A_a.gif","images/stimuli/spore_stims/simple_16_B_a.gif","","","","","14","simple_similar","images/stimuli/spore_stims/simple_16_B_a.gif","left","","","","",""
"","null","html-keyboard-response","274","654878","0.0-50.0-0.7","SS1613139486849","","","null","","","","","<p><img src= images/blank.png width =""200"" height = ""200"" style = ""float:right""></p><p><img src=images/blank.png width =""800"" height = ""200""></p>","","","","","","","","","","","",""
"","2448.4149999916553","sequential-stimulus-presentation","275","658140","0.0-50.0-1.7","SS1613139486849","trial","","40","800","3248.4149999916553","images/stimuli/spore_stims/simple_16_A_a.gif","images/stimuli/spore_stims/simple_16_B_a.gif","","","","","14","simple_similar","images/stimuli/spore_stims/simple_16_B_a.gif","left","","","","",""
"","1376.0749999200925","html-keyboard-response","276","659523","0.0-51.0","SS1613139486849","pref_question","","50","","","","","<video width ='960' height = '540' style='padding-top:8%' autoplay muted><source src='images/stimuli/wall_pref.mp4' type='video/mp4'></video>","2","middle","45%","14","","","","","","","",""
"","1427.5200000265613","sequential-stimulus-presentation","277","661760","0.0-52.0","SS1613139486849","pref_reveal","","40","800","2227.5200000265613","null","null","","","","","14","","","","novel","","","",""
"","null","html-keyboard-response","278","662819","0.0-53.0-0.0","SS1613139486849","","","null","","","","","<p><img src= images/blank.png width =""200"" height = ""200"" style = ""float:right""></p><p><img src=images/blank.png width =""800"" height = ""200""></p>","","","","","","","","","","","",""
"","548.1150000123307","sequential-stimulus-presentation","279","664197","0.0-53.0-1.0","SS1613139486849","trial","","40","800","1348.1150000123307","images/stimuli/spore_stims/simple_17_A_c.gif","images/stimuli/spore_stims/simple_17_B_c.gif","","","","","15","simple_similar","images/stimuli/spore_stims/simple_17_B_c.gif","right","","","","",""
"","null","html-keyboard-response","280","665008","0.0-53.0-0.1","SS1613139486849","","","null","","","","","<p><img src= images/blank.png width =""200"" height = ""200"" style = ""float:right""></p><p><img src=images/blank.png width =""800"" height = ""200""></p>","","","","","","","","","","","",""
"","643.2499999646097","sequential-stimulus-presentation","281","666460","0.0-53.0-1.1","SS1613139486849","trial","","40","800","1443.2499999646097","images/stimuli/spore_stims/simple_17_A_c.gif","images/stimuli/spore_stims/simple_17_B_c.gif","","","","","15","simple_similar","images/stimuli/spore_stims/simple_17_B_c.gif","right","","","","",""
"","null","html-keyboard-response","282","667315","0.0-53.0-0.2","SS1613139486849","","","null","","","","","<p><img src= images/blank.png width =""200"" height = ""200"" style = ""float:right""></p><p><img src=images/blank.png width =""800"" height = ""200""></p>","","","","","","","","","","","",""
"","874.7999999905005","sequential-stimulus-presentation","283","669000","0.0-53.0-1.2","SS1613139486849","trial","","40","800","1674.7999999905005","images/stimuli/spore_stims/simple_17_A_c.gif","images/stimuli/spore_stims/simple_17_B_c.gif","","","","","15","simple_similar","images/stimuli/spore_stims/simple_17_B_c.gif","right","","","","",""
"","null","html-keyboard-response","284","670295","0.0-53.0-0.3","SS1613139486849","","","null","","","","","<p><img src= images/blank.png width =""200"" height = ""200"" style = ""float:right""></p><p><img src=images/blank.png width =""800"" height = ""200""></p>","","","","","","","","","","","",""
"","710.3950000600889","sequential-stimulus-presentation","285","671819","0.0-53.0-1.3","SS1613139486849","trial","","40","800","1510.395000060089","images/stimuli/spore_stims/simple_17_A_c.gif","images/stimuli/spore_stims/simple_17_B_c.gif","","","","","15","simple_similar","images/stimuli/spore_stims/simple_17_B_c.gif","right","","","","",""
"","null","html-keyboard-response","286","672899","0.0-53.0-0.4","SS1613139486849","","","null","","","","","<p><img src= images/blank.png width =""200"" height = ""200"" style = ""float:right""></p><p><img src=images/blank.png width =""800"" height = ""200""></p>","","","","","","","","","","","",""
"","1240.3949999716133","sequential-stimulus-presentation","287","674947","0.0-53.0-1.4","SS1613139486849","trial","","40","800","2040.3949999716133","images/stimuli/spore_stims/simple_17_A_c.gif","images/stimuli/spore_stims/simple_17_B_c.gif","","","","","15","simple_similar","images/stimuli/spore_stims/simple_17_A_c.gif","left","","","","",""
"","null","html-keyboard-response","288","676155","0.0-53.0-0.5","SS1613139486849","","","null","","","","","<p><img src= images/blank.png width =""200"" height = ""200"" style = ""float:right""></p><p><img src=images/blank.png width =""800"" height = ""200""></p>","","","","","","","","","","","",""
"","665.1699999347329","sequential-stimulus-presentation","289","677629","0.0-53.0-1.5","SS1613139486849","trial","","40","800","1465.169999934733","images/stimuli/spore_stims/simple_17_A_c.gif","images/stimuli/spore_stims/simple_17_B_c.gif","","","","","15","simple_similar","images/stimuli/spore_stims/simple_17_B_c.gif","right","","","","",""
"","null","html-keyboard-response","290","678882","0.0-53.0-0.6","SS1613139486849","","","null","","","","","<p><img src= images/blank.png width =""200"" height = ""200"" style = ""float:right""></p><p><img src=images/blank.png width =""800"" height = ""200""></p>","","","","","","","","","","","",""
"","133860.38500000723","sequential-stimulus-presentation","291","813556","0.0-53.0-1.6","SS1613139486849","trial","","40","800","134660.38500000723","images/stimuli/spore_stims/simple_17_A_c.gif","images/stimuli/spore_stims/simple_17_B_c.gif","","","","","15","simple_similar","images/stimuli/spore_stims/simple_17_B_c.gif","right","","","","",""
"","null","html-keyboard-response","292","814486","0.0-53.0-0.7","SS1613139486849","","","null","","","","","<p><img src= images/blank.png width =""200"" height = ""200"" style = ""float:right""></p><p><img src=images/blank.png width =""800"" height = ""200""></p>","","","","","","","","","","","",""
"","926.5550000127405","sequential-stimulus-presentation","293","816221","0.0-53.0-1.7","SS1613139486849","trial","","40","800","1726.5550000127405","images/stimuli/spore_stims/simple_17_A_c.gif","images/stimuli/spore_stims/simple_17_B_c.gif","","","","","15","simple_similar","images/stimuli/spore_stims/simple_17_B_c.gif","right","","","","",""
"","1698.7799999769777","html-keyboard-response","294","817927","0.0-54.0","SS1613139486849","pref_question","","50","","","","","<video width ='960' height = '540' style='padding-top:8%' autoplay muted><source src='images/stimuli/wall_pref.mp4' type='video/mp4'></video>","2","middle","45%","15","","","","","","","",""
"","317.5849999533966","sequential-stimulus-presentation","295","819056","0.0-55.0","SS1613139486849","pref_reveal","","40","800","1117.5849999533966","null","null","","","","","15","","","","novel","","","",""
"","null","html-keyboard-response","296","820244","0.0-56.0-0.0","SS1613139486849","","","null","","","","","<p><img src= images/blank.png width =""200"" height = ""200"" style = ""float:right""></p><p><img src=images/blank.png width =""800"" height = ""200""></p>","","","","","","","","","","","",""
"","2696.2050000438467","sequential-stimulus-presentation","297","823770","0.0-56.0-1.0","SS1613139486849","trial","","40","800","3496.2050000438467","images/stimuli/spore_stims/complex_20_A_c.gif","images/stimuli/spore_stims/complex_07_A_d.gif","","","","","16","complex_dissimilar","images/stimuli/spore_stims/complex_07_A_d.gif","right","","","","",""
"","null","html-keyboard-response","298","824740","0.0-56.0-0.1","SS1613139486849","","","null","","","","","<p><img src= images/blank.png width =""200"" height = ""200"" style = ""float:right""></p><p><img src=images/blank.png width =""800"" height = ""200""></p>","","","","","","","","","","","",""
"","64.07500000204891","sequential-stimulus-presentation","299","825613","0.0-56.0-1.1","SS1613139486849","trial","","40","800","864.0750000020489","images/stimuli/spore_stims/complex_20_A_c.gif","images/stimuli/spore_stims/complex_07_A_d.gif","","","","","16","complex_dissimilar","images/stimuli/spore_stims/complex_07_A_d.gif","right","","","","",""
"","null","html-keyboard-response","300","826480","0.0-56.0-0.2","SS1613139486849","","","null","","","","","<p><img src= images/blank.png width =""200"" height = ""200"" style = ""float:right""></p><p><img src=images/blank.png width =""800"" height = ""200""></p>","","","","","","","","","","","",""
"","937.320000026375","sequential-stimulus-presentation","301","828229","0.0-56.0-1.2","SS1613139486849","trial","","40","800","1737.320000026375","images/stimuli/spore_stims/complex_20_A_c.gif","images/stimuli/spore_stims/complex_07_A_d.gif","","","","","16","complex_dissimilar","images/stimuli/spore_stims/complex_07_A_d.gif","right","","","","",""
"","null","html-keyboard-response","302","829133","0.0-56.0-0.3","SS1613139486849","","","null","","","","","<p><img src= images/blank.png width =""200"" height = ""200"" style = ""float:right""></p><p><img src=images/blank.png width =""800"" height = ""200""></p>","","","","","","","","","","","",""
"","1565.7000000355765","sequential-stimulus-presentation","303","831510","0.0-56.0-1.3","SS1613139486849","trial","","40","800","2365.7000000355765","images/stimuli/spore_stims/complex_20_A_c.gif","images/stimuli/spore_stims/complex_07_A_d.gif","","","","","16","complex_dissimilar","images/stimuli/spore_stims/complex_07_A_d.gif","right","","","","",""
"","null","html-keyboard-response","304","832580","0.0-56.0-0.4","SS1613139486849","","","null","","","","","<p><img src= images/blank.png width =""200"" height = ""200"" style = ""float:right""></p><p><img src=images/blank.png width =""800"" height = ""200""></p>","","","","","","","","","","","",""
"","1588.9200000092387","sequential-stimulus-presentation","305","834979","0.0-56.0-1.4","SS1613139486849","trial","","40","800","2388.9200000092387","images/stimuli/spore_stims/complex_20_A_c.gif","images/stimuli/spore_stims/complex_07_A_d.gif","","","","","16","complex_dissimilar","images/stimuli/spore_stims/complex_07_A_d.gif","right","","","","",""
"","null","html-keyboard-response","306","835954","0.0-56.0-0.5","SS1613139486849","","","null","","","","","<p><img src= images/blank.png width =""200"" height = ""200"" style = ""float:right""></p><p><img src=images/blank.png width =""800"" height = ""200""></p>","","","","","","","","","","","",""
"","807.0549999829382","sequential-stimulus-presentation","307","837570","0.0-56.0-1.5","SS1613139486849","trial","","40","800","1607.0549999829382","images/stimuli/spore_stims/complex_20_A_c.gif","images/stimuli/spore_stims/complex_07_A_d.gif","","","","","16","complex_dissimilar","images/stimuli/spore_stims/complex_20_A_c.gif","middle","","","","",""
"","null","html-keyboard-response","308","838869","0.0-56.0-0.6","SS1613139486849","","","null","","","","","<p><img src= images/blank.png width =""200"" height = ""200"" style = ""float:right""></p><p><img src=images/blank.png width =""800"" height = ""200""></p>","","","","","","","","","","","",""
"","794.0050000324845","sequential-stimulus-presentation","309","840476","0.0-56.0-1.6","SS1613139486849","trial","","40","800","1594.0050000324845","images/stimuli/spore_stims/complex_20_A_c.gif","images/stimuli/spore_stims/complex_07_A_d.gif","","","","","16","complex_dissimilar","images/stimuli/spore_stims/complex_07_A_d.gif","right","","","","",""
"","null","html-keyboard-response","310","841341","0.0-56.0-0.7","SS1613139486849","","","null","","","","","<p><img src= images/blank.png width =""200"" height = ""200"" style = ""float:right""></p><p><img src=images/blank.png width =""800"" height = ""200""></p>","","","","","","","","","","","",""
"","883.9699999662116","sequential-stimulus-presentation","311","843061","0.0-56.0-1.7","SS1613139486849","trial","","40","800","1683.9699999662116","images/stimuli/spore_stims/complex_20_A_c.gif","images/stimuli/spore_stims/complex_07_A_d.gif","","","","","16","complex_dissimilar","images/stimuli/spore_stims/complex_07_A_d.gif","right","","","","",""
"","1577.5249999715015","html-keyboard-response","312","844646","0.0-57.0","SS1613139486849","pref_question","","49","","","","","<video width ='960' height = '540' style='padding-top:8%' autoplay muted><source src='images/stimuli/wall_pref.mp4' type='video/mp4'></video>","1","left","25%","16","","","","","","","",""
