"view_history","rt","trial_type","trial_index","time_elapsed","internal_node_id","subject","stimulus_type","trial_stimulus","key_press","minimum_viewing_duration","trial_looking_time","block_deviant","block_background","stimulus","wall_pref","location","location_percent","block_number","block_type","stimulus_displayed","position_displayed","stim_type_selected","responses","question_order","stimulus_left","stimulus_right"
"[{""page_index"":0,""viewing_time"":8192.384999943897}]","8193.225000053644","instructions","0","8195","0.0-0.0","SS1613099615233","","","","","","","","","","","","","","","","","","","",""
"[{""page_index"":0,""viewing_time"":13232.629999984056},{""page_index"":1,""viewing_time"":6368.11999999918}]","19601.0950000491","instructions","1","29809","0.0-1.0","SS1613099615233","instructions","","","","","","","","","","","","","","","","","","",""
"","9326.455000089481","sequential-stimulus-presentation","2","39942","0.0-2.0","SS1613099615233","","","40","800","10126.455000089481","null","null","","","","","","","","","","","","",""
"","5378.999999957159","sequential-stimulus-presentation","3","46127","0.0-3.0","SS1613099615233","","","40","800","6178.999999957159","null","null","","","","","","","","","","","","",""
"[{""page_index"":0,""viewing_time"":3666.5849999990314}]","3666.969999903813","instructions","4","49795","0.0-4.0","SS1613099615233","instructions","","","","","","","","","","","","","","","","","","",""
"","13844.784999964759","html-keyboard-response","5","63643","0.0-5.0","SS1613099615233","instructions","","99","","","","","<video width ='960' height = '540' autoplay muted><source src='images/stimuli/wall_pref.mp4' type='video/mp4'></video>","3","right","66%","","","","","","","","",""
"","2629.054999910295","sequential-stimulus-presentation","6","67084","0.0-6.0","SS1613099615233","pref_reveal","","40","800","3429.054999910295","null","null","","","","","","","","","","","","",""
"[{""page_index"":0,""viewing_time"":12388.915000017732},{""page_index"":1,""viewing_time"":8472.844999982044},{""page_index"":2,""viewing_time"":2147.3699999041855},{""page_index"":3,""viewing_time"":1825.8450001012534}]","24835.225000046194","instructions","7","91920","0.0-7.0","SS1613099615233","instructions","","","","","","","","","","","","","","","","","","",""
"","null","html-keyboard-response","8","92900","0.0-8.0-0.0","SS1613099615233","","","null","","","","","<p><img src= images/blank.png width =""200"" height = ""200"" style = ""float:right""></p><p><img src=images/blank.png width =""800"" height = ""200""></p>","","","","","","","","","","","",""
"","318.73499997891486","sequential-stimulus-presentation","9","94040","0.0-8.0-1.0","SS1613099615233","trial","","40","800","1118.7349999789149","images/stimuli/spore_stims/simple_19_A_c.gif","images/stimuli/spore_stims/simple_19_B_c.gif","","","","","0","simple_similar","images/stimuli/spore_stims/simple_19_B_c.gif","middle","","","","",""
"","null","html-keyboard-response","10","95034","0.0-8.0-0.1","SS1613099615233","","","null","","","","","<p><img src= images/blank.png width =""200"" height = ""200"" style = ""float:right""></p><p><img src=images/blank.png width =""800"" height = ""200""></p>","","","","","","","","","","","",""
"","5164.575000060722","sequential-stimulus-presentation","11","101030","0.0-8.0-1.1","SS1613099615233","trial","","40","800","5964.575000060722","images/stimuli/spore_stims/simple_19_A_c.gif","images/stimuli/spore_stims/simple_19_B_c.gif","","","","","0","simple_similar","images/stimuli/spore_stims/simple_19_B_c.gif","middle","","","","",""
"","null","html-keyboard-response","12","101908","0.0-8.0-0.2","SS1613099615233","","","null","","","","","<p><img src= images/blank.png width =""200"" height = ""200"" style = ""float:right""></p><p><img src=images/blank.png width =""800"" height = ""200""></p>","","","","","","","","","","","",""
"","5018.514999886975","sequential-stimulus-presentation","13","107742","0.0-8.0-1.2","SS1613099615233","trial","","40","800","5818.514999886975","images/stimuli/spore_stims/simple_19_A_c.gif","images/stimuli/spore_stims/simple_19_B_c.gif","","","","","0","simple_similar","images/stimuli/spore_stims/simple_19_B_c.gif","middle","","","","",""
"","null","html-keyboard-response","14","108825","0.0-8.0-0.3","SS1613099615233","","","null","","","","","<p><img src= images/blank.png width =""200"" height = ""200"" style = ""float:right""></p><p><img src=images/blank.png width =""800"" height = ""200""></p>","","","","","","","","","","","",""
"","4680.075000040233","sequential-stimulus-presentation","15","114325","0.0-8.0-1.3","SS1613099615233","trial","","40","800","5480.075000040233","images/stimuli/spore_stims/simple_19_A_c.gif","images/stimuli/spore_stims/simple_19_B_c.gif","","","","","0","simple_similar","images/stimuli/spore_stims/simple_19_B_c.gif","middle","","","","",""
"","null","html-keyboard-response","16","115348","0.0-8.0-0.4","SS1613099615233","","","null","","","","","<p><img src= images/blank.png width =""200"" height = ""200"" style = ""float:right""></p><p><img src=images/blank.png width =""800"" height = ""200""></p>","","","","","","","","","","","",""
"","5276.814999990165","sequential-stimulus-presentation","17","121436","0.0-8.0-1.4","SS1613099615233","trial","","40","800","6076.814999990165","images/stimuli/spore_stims/simple_19_A_c.gif","images/stimuli/spore_stims/simple_19_B_c.gif","","","","","0","simple_similar","images/stimuli/spore_stims/simple_19_A_c.gif","left","","","","",""
"","null","html-keyboard-response","18","122576","0.0-8.0-0.5","SS1613099615233","","","null","","","","","<p><img src= images/blank.png width =""200"" height = ""200"" style = ""float:right""></p><p><img src=images/blank.png width =""800"" height = ""200""></p>","","","","","","","","","","","",""
"","3348.729999968782","sequential-stimulus-presentation","19","126741","0.0-8.0-1.5","SS1613099615233","trial","","40","800","4148.729999968782","images/stimuli/spore_stims/simple_19_A_c.gif","images/stimuli/spore_stims/simple_19_B_c.gif","","","","","0","simple_similar","images/stimuli/spore_stims/simple_19_B_c.gif","middle","","","","",""
"","null","html-keyboard-response","20","127984","0.0-8.0-0.6","SS1613099615233","","","null","","","","","<p><img src= images/blank.png width =""200"" height = ""200"" style = ""float:right""></p><p><img src=images/blank.png width =""800"" height = ""200""></p>","","","","","","","","","","","",""
"","3811.9250000454485","sequential-stimulus-presentation","21","132620","0.0-8.0-1.6","SS1613099615233","trial","","40","800","4611.9250000454485","images/stimuli/spore_stims/simple_19_A_c.gif","images/stimuli/spore_stims/simple_19_B_c.gif","","","","","0","simple_similar","images/stimuli/spore_stims/simple_19_B_c.gif","middle","","","","",""
"","null","html-keyboard-response","22","133884","0.0-8.0-0.7","SS1613099615233","","","null","","","","","<p><img src= images/blank.png width =""200"" height = ""200"" style = ""float:right""></p><p><img src=images/blank.png width =""800"" height = ""200""></p>","","","","","","","","","","","",""
"","3673.064999980852","sequential-stimulus-presentation","23","138405","0.0-8.0-1.7","SS1613099615233","trial","","40","800","4473.064999980852","images/stimuli/spore_stims/simple_19_A_c.gif","images/stimuli/spore_stims/simple_19_B_c.gif","","","","","0","simple_similar","images/stimuli/spore_stims/simple_19_B_c.gif","middle","","","","",""
"","3315.6649998854846","html-keyboard-response","24","141724","0.0-9.0","SS1613099615233","pref_question","","99","","","","","<video width ='960' height = '540' style='padding-top:8%' autoplay muted><source src='images/stimuli/wall_pref.mp4' type='video/mp4'></video>","3","right","66%","0","","","","","","","",""
"","7517.735000001267","sequential-stimulus-presentation","25","150053","0.0-10.0","SS1613099615233","pref_reveal","","40","800","8317.735000001267","null","null","","","","","0","","","","novel","","","",""
"","null","html-keyboard-response","26","151090","0.0-11.0-0.0","SS1613099615233","","","null","","","","","<p><img src= images/blank.png width =""200"" height = ""200"" style = ""float:right""></p><p><img src=images/blank.png width =""800"" height = ""200""></p>","","","","","","","","","","","",""
"","4923.285000026226","sequential-stimulus-presentation","27","156828","0.0-11.0-1.0","SS1613099615233","trial","","40","800","5723.285000026226","images/stimuli/spore_stims/simple_15_A_d.gif","images/stimuli/spore_stims/simple_17_A_d.gif","","","","","1","simple_dissimilar","images/stimuli/spore_stims/simple_17_A_d.gif","right","","","","",""
"","null","html-keyboard-response","28","157914","0.0-11.0-0.1","SS1613099615233","","","null","","","","","<p><img src= images/blank.png width =""200"" height = ""200"" style = ""float:right""></p><p><img src=images/blank.png width =""800"" height = ""200""></p>","","","","","","","","","","","",""
"","5069.099999964237","sequential-stimulus-presentation","29","163789","0.0-11.0-1.1","SS1613099615233","trial","","40","800","5869.099999964237","images/stimuli/spore_stims/simple_15_A_d.gif","images/stimuli/spore_stims/simple_17_A_d.gif","","","","","1","simple_dissimilar","images/stimuli/spore_stims/simple_17_A_d.gif","right","","","","",""
"","null","html-keyboard-response","30","164752","0.0-11.0-0.2","SS1613099615233","","","null","","","","","<p><img src= images/blank.png width =""200"" height = ""200"" style = ""float:right""></p><p><img src=images/blank.png width =""800"" height = ""200""></p>","","","","","","","","","","","",""
"","4457.84500008449","sequential-stimulus-presentation","31","170020","0.0-11.0-1.2","SS1613099615233","trial","","40","800","5257.84500008449","images/stimuli/spore_stims/simple_15_A_d.gif","images/stimuli/spore_stims/simple_17_A_d.gif","","","","","1","simple_dissimilar","images/stimuli/spore_stims/simple_17_A_d.gif","right","","","","",""
"","null","html-keyboard-response","32","170907","0.0-11.0-0.3","SS1613099615233","","","null","","","","","<p><img src= images/blank.png width =""200"" height = ""200"" style = ""float:right""></p><p><img src=images/blank.png width =""800"" height = ""200""></p>","","","","","","","","","","","",""
"","5636.8199998978525","sequential-stimulus-presentation","33","177356","0.0-11.0-1.3","SS1613099615233","trial","","40","800","6436.8199998978525","images/stimuli/spore_stims/simple_15_A_d.gif","images/stimuli/spore_stims/simple_17_A_d.gif","","","","","1","simple_dissimilar","images/stimuli/spore_stims/simple_17_A_d.gif","right","","","","",""
"","null","html-keyboard-response","34","178590","0.0-11.0-0.4","SS1613099615233","","","null","","","","","<p><img src= images/blank.png width =""200"" height = ""200"" style = ""float:right""></p><p><img src=images/blank.png width =""800"" height = ""200""></p>","","","","","","","","","","","",""
"","5501.41999986954","sequential-stimulus-presentation","35","184902","0.0-11.0-1.4","SS1613099615233","trial","","40","800","6301.41999986954","images/stimuli/spore_stims/simple_15_A_d.gif","images/stimuli/spore_stims/simple_17_A_d.gif","","","","","1","simple_dissimilar","images/stimuli/spore_stims/simple_17_A_d.gif","right","","","","",""
"","null","html-keyboard-response","36","185944","0.0-11.0-0.5","SS1613099615233","","","null","","","","","<p><img src= images/blank.png width =""200"" height = ""200"" style = ""float:right""></p><p><img src=images/blank.png width =""800"" height = ""200""></p>","","","","","","","","","","","",""
"","3513.664999976754","sequential-stimulus-presentation","37","190269","0.0-11.0-1.5","SS1613099615233","trial","","40","800","4313.664999976754","images/stimuli/spore_stims/simple_15_A_d.gif","images/stimuli/spore_stims/simple_17_A_d.gif","","","","","1","simple_dissimilar","images/stimuli/spore_stims/simple_17_A_d.gif","right","","","","",""
"","null","html-keyboard-response","38","191141","0.0-11.0-0.6","SS1613099615233","","","null","","","","","<p><img src= images/blank.png width =""200"" height = ""200"" style = ""float:right""></p><p><img src=images/blank.png width =""800"" height = ""200""></p>","","","","","","","","","","","",""
"","1369.4350000005215","sequential-stimulus-presentation","39","193322","0.0-11.0-1.6","SS1613099615233","trial","","40","800","2169.4350000005215","images/stimuli/spore_stims/simple_15_A_d.gif","images/stimuli/spore_stims/simple_17_A_d.gif","","","","","1","simple_dissimilar","images/stimuli/spore_stims/simple_17_A_d.gif","right","","","","",""
"","null","html-keyboard-response","40","194325","0.0-11.0-0.7","SS1613099615233","","","null","","","","","<p><img src= images/blank.png width =""200"" height = ""200"" style = ""float:right""></p><p><img src=images/blank.png width =""800"" height = ""200""></p>","","","","","","","","","","","",""
"","5895.7799999043345","sequential-stimulus-presentation","41","201038","0.0-11.0-1.7","SS1613099615233","trial","","40","800","6695.7799999043345","images/stimuli/spore_stims/simple_15_A_d.gif","images/stimuli/spore_stims/simple_17_A_d.gif","","","","","1","simple_dissimilar","images/stimuli/spore_stims/simple_15_A_d.gif","middle","","","","",""
"","3859.4849999062717","html-keyboard-response","42","204901","0.0-12.0","SS1613099615233","pref_question","","97","","","","","<video width ='960' height = '540' style='padding-top:8%' autoplay muted><source src='images/stimuli/wall_pref.mp4' type='video/mp4'></video>","1","left","25%","1","","","","","","","",""
"","6003.200000151992","sequential-stimulus-presentation","43","211718","0.0-13.0","SS1613099615233","pref_reveal","","40","800","6803.200000151992","null","null","","","","","1","","","","novel","","","",""
"","null","html-keyboard-response","44","212835","0.0-14.0-0.0","SS1613099615233","","","null","","","","","<p><img src= images/blank.png width =""200"" height = ""200"" style = ""float:right""></p><p><img src=images/blank.png width =""800"" height = ""200""></p>","","","","","","","","","","","",""
"","6845.809999853373","sequential-stimulus-presentation","45","220501","0.0-14.0-1.0","SS1613099615233","trial","","40","800","7645.809999853373","images/stimuli/spore_stims/simple_01_A_d.gif","images/stimuli/spore_stims/simple_20_A_b.gif","","","","","2","simple_dissimilar","images/stimuli/spore_stims/simple_20_A_b.gif","middle","","","","",""
"","null","html-keyboard-response","46","221537","0.0-14.0-0.1","SS1613099615233","","","null","","","","","<p><img src= images/blank.png width =""200"" height = ""200"" style = ""float:right""></p><p><img src=images/blank.png width =""800"" height = ""200""></p>","","","","","","","","","","","",""
"","4880.8699999935925","sequential-stimulus-presentation","47","227229","0.0-14.0-1.1","SS1613099615233","trial","","40","800","5680.8699999935925","images/stimuli/spore_stims/simple_01_A_d.gif","images/stimuli/spore_stims/simple_20_A_b.gif","","","","","2","simple_dissimilar","images/stimuli/spore_stims/simple_20_A_b.gif","middle","","","","",""
"","null","html-keyboard-response","48","228122","0.0-14.0-0.2","SS1613099615233","","","null","","","","","<p><img src= images/blank.png width =""200"" height = ""200"" style = ""float:right""></p><p><img src=images/blank.png width =""800"" height = ""200""></p>","","","","","","","","","","","",""
"","3170.0550001114607","sequential-stimulus-presentation","49","232117","0.0-14.0-1.2","SS1613099615233","trial","","40","800","3970.0550001114607","images/stimuli/spore_stims/simple_01_A_d.gif","images/stimuli/spore_stims/simple_20_A_b.gif","","","","","2","simple_dissimilar","images/stimuli/spore_stims/simple_20_A_b.gif","middle","","","","",""
"","null","html-keyboard-response","50","233144","0.0-14.0-0.3","SS1613099615233","","","null","","","","","<p><img src= images/blank.png width =""200"" height = ""200"" style = ""float:right""></p><p><img src=images/blank.png width =""800"" height = ""200""></p>","","","","","","","","","","","",""
"","2947.010000003502","sequential-stimulus-presentation","51","236901","0.0-14.0-1.3","SS1613099615233","trial","","40","800","3747.010000003502","images/stimuli/spore_stims/simple_01_A_d.gif","images/stimuli/spore_stims/simple_20_A_b.gif","","","","","2","simple_dissimilar","images/stimuli/spore_stims/simple_20_A_b.gif","middle","","","","",""
"","null","html-keyboard-response","52","237775","0.0-14.0-0.4","SS1613099615233","","","null","","","","","<p><img src= images/blank.png width =""200"" height = ""200"" style = ""float:right""></p><p><img src=images/blank.png width =""800"" height = ""200""></p>","","","","","","","","","","","",""
"","5647.2000000067055","sequential-stimulus-presentation","53","244229","0.0-14.0-1.4","SS1613099615233","trial","","40","800","6447.2000000067055","images/stimuli/spore_stims/simple_01_A_d.gif","images/stimuli/spore_stims/simple_20_A_b.gif","","","","","2","simple_dissimilar","images/stimuli/spore_stims/simple_01_A_d.gif","left","","","","",""
"","null","html-keyboard-response","54","245226","0.0-14.0-0.5","SS1613099615233","","","null","","","","","<p><img src= images/blank.png width =""200"" height = ""200"" style = ""float:right""></p><p><img src=images/blank.png width =""800"" height = ""200""></p>","","","","","","","","","","","",""
"","3835.5549999978393","sequential-stimulus-presentation","55","249877","0.0-14.0-1.5","SS1613099615233","trial","","40","800","4635.554999997839","images/stimuli/spore_stims/simple_01_A_d.gif","images/stimuli/spore_stims/simple_20_A_b.gif","","","","","2","simple_dissimilar","images/stimuli/spore_stims/simple_20_A_b.gif","middle","","","","",""
"","null","html-keyboard-response","56","250721","0.0-14.0-0.6","SS1613099615233","","","null","","","","","<p><img src= images/blank.png width =""200"" height = ""200"" style = ""float:right""></p><p><img src=images/blank.png width =""800"" height = ""200""></p>","","","","","","","","","","","",""
"","3608.669999986887","sequential-stimulus-presentation","57","255142","0.0-14.0-1.6","SS1613099615233","trial","","40","800","4408.669999986887","images/stimuli/spore_stims/simple_01_A_d.gif","images/stimuli/spore_stims/simple_20_A_b.gif","","","","","2","simple_dissimilar","images/stimuli/spore_stims/simple_20_A_b.gif","middle","","","","",""
"","null","html-keyboard-response","58","256307","0.0-14.0-0.7","SS1613099615233","","","null","","","","","<p><img src= images/blank.png width =""200"" height = ""200"" style = ""float:right""></p><p><img src=images/blank.png width =""800"" height = ""200""></p>","","","","","","","","","","","",""
"","3340.4900000896305","sequential-stimulus-presentation","59","260461","0.0-14.0-1.7","SS1613099615233","trial","","40","800","4140.4900000896305","images/stimuli/spore_stims/simple_01_A_d.gif","images/stimuli/spore_stims/simple_20_A_b.gif","","","","","2","simple_dissimilar","images/stimuli/spore_stims/simple_20_A_b.gif","middle","","","","",""
"","3915.9750000108033","html-keyboard-response","60","264381","0.0-15.0","SS1613099615233","pref_question","","99","","","","","<video width ='960' height = '540' style='padding-top:8%' autoplay muted><source src='images/stimuli/wall_pref.mp4' type='video/mp4'></video>","3","right","66%","2","","","","","","","",""
"","5835.960000054911","sequential-stimulus-presentation","61","271030","0.0-16.0","SS1613099615233","pref_reveal","","40","800","6635.960000054911","null","null","","","","","2","","","","novel","","","",""
"","null","html-keyboard-response","62","272153","0.0-17.0-0.0","SS1613099615233","","","null","","","","","<p><img src= images/blank.png width =""200"" height = ""200"" style = ""float:right""></p><p><img src=images/blank.png width =""800"" height = ""200""></p>","","","","","","","","","","","",""
"","5827.280000085011","sequential-stimulus-presentation","63","278792","0.0-17.0-1.0","SS1613099615233","trial","","40","800","6627.280000085011","images/stimuli/spore_stims/complex_04_A_a.gif","images/stimuli/spore_stims/complex_15_B_a.gif","","","","","3","complex_dissimilar","images/stimuli/spore_stims/complex_15_B_a.gif","left","","","","",""
"","null","html-keyboard-response","64","279789","0.0-17.0-0.1","SS1613099615233","","","null","","","","","<p><img src= images/blank.png width =""200"" height = ""200"" style = ""float:right""></p><p><img src=images/blank.png width =""800"" height = ""200""></p>","","","","","","","","","","","",""
"","5689.594999887049","sequential-stimulus-presentation","65","286285","0.0-17.0-1.1","SS1613099615233","trial","","40","800","6489.594999887049","images/stimuli/spore_stims/complex_04_A_a.gif","images/stimuli/spore_stims/complex_15_B_a.gif","","","","","3","complex_dissimilar","images/stimuli/spore_stims/complex_15_B_a.gif","left","","","","",""
"","null","html-keyboard-response","66","287126","0.0-17.0-0.2","SS1613099615233","","","null","","","","","<p><img src= images/blank.png width =""200"" height = ""200"" style = ""float:right""></p><p><img src=images/blank.png width =""800"" height = ""200""></p>","","","","","","","","","","","",""
"","4642.705000005662","sequential-stimulus-presentation","67","292590","0.0-17.0-1.2","SS1613099615233","trial","","40","800","5442.705000005662","images/stimuli/spore_stims/complex_04_A_a.gif","images/stimuli/spore_stims/complex_15_B_a.gif","","","","","3","complex_dissimilar","images/stimuli/spore_stims/complex_15_B_a.gif","left","","","","",""
"","null","html-keyboard-response","68","293415","0.0-17.0-0.3","SS1613099615233","","","null","","","","","<p><img src= images/blank.png width =""200"" height = ""200"" style = ""float:right""></p><p><img src=images/blank.png width =""800"" height = ""200""></p>","","","","","","","","","","","",""
"","7030.405000085011","sequential-stimulus-presentation","69","301253","0.0-17.0-1.3","SS1613099615233","trial","","40","800","7830.405000085011","images/stimuli/spore_stims/complex_04_A_a.gif","images/stimuli/spore_stims/complex_15_B_a.gif","","","","","3","complex_dissimilar","images/stimuli/spore_stims/complex_04_A_a.gif","middle","","","","",""
"","null","html-keyboard-response","70","302152","0.0-17.0-0.4","SS1613099615233","","","null","","","","","<p><img src= images/blank.png width =""200"" height = ""200"" style = ""float:right""></p><p><img src=images/blank.png width =""800"" height = ""200""></p>","","","","","","","","","","","",""
"","5358.435000060126","sequential-stimulus-presentation","71","308328","0.0-17.0-1.4","SS1613099615233","trial","","40","800","6158.435000060126","images/stimuli/spore_stims/complex_04_A_a.gif","images/stimuli/spore_stims/complex_15_B_a.gif","","","","","3","complex_dissimilar","images/stimuli/spore_stims/complex_15_B_a.gif","left","","","","",""
"","null","html-keyboard-response","72","309581","0.0-17.0-0.5","SS1613099615233","","","null","","","","","<p><img src= images/blank.png width =""200"" height = ""200"" style = ""float:right""></p><p><img src=images/blank.png width =""800"" height = ""200""></p>","","","","","","","","","","","",""
"","3964.0350001864135","sequential-stimulus-presentation","73","314358","0.0-17.0-1.5","SS1613099615233","trial","","40","800","4764.0350001864135","images/stimuli/spore_stims/complex_04_A_a.gif","images/stimuli/spore_stims/complex_15_B_a.gif","","","","","3","complex_dissimilar","images/stimuli/spore_stims/complex_15_B_a.gif","left","","","","",""
"","null","html-keyboard-response","74","315514","0.0-17.0-0.6","SS1613099615233","","","null","","","","","<p><img src= images/blank.png width =""200"" height = ""200"" style = ""float:right""></p><p><img src=images/blank.png width =""800"" height = ""200""></p>","","","","","","","","","","","",""
"","4005.739999935031","sequential-stimulus-presentation","75","320333","0.0-17.0-1.6","SS1613099615233","trial","","40","800","4805.739999935031","images/stimuli/spore_stims/complex_04_A_a.gif","images/stimuli/spore_stims/complex_15_B_a.gif","","","","","3","complex_dissimilar","images/stimuli/spore_stims/complex_15_B_a.gif","left","","","","",""
"","null","html-keyboard-response","76","321233","0.0-17.0-0.7","SS1613099615233","","","null","","","","","<p><img src= images/blank.png width =""200"" height = ""200"" style = ""float:right""></p><p><img src=images/blank.png width =""800"" height = ""200""></p>","","","","","","","","","","","",""
"","3192.435000091791","sequential-stimulus-presentation","77","325230","0.0-17.0-1.7","SS1613099615233","trial","","40","800","3992.435000091791","images/stimuli/spore_stims/complex_04_A_a.gif","images/stimuli/spore_stims/complex_15_B_a.gif","","","","","3","complex_dissimilar","images/stimuli/spore_stims/complex_15_B_a.gif","left","","","","",""
"","3243.6699999962","html-keyboard-response","78","328478","0.0-18.0","SS1613099615233","pref_question","","98","","","","","<video width ='960' height = '540' style='padding-top:8%' autoplay muted><source src='images/stimuli/wall_pref.mp4' type='video/mp4'></video>","2","middle","45%","3","","","","","","","",""
"","7057.749999919906","sequential-stimulus-presentation","79","336342","0.0-19.0","SS1613099615233","pref_reveal","","40","800","7857.749999919906","null","null","","","","","3","","","","deviant","","","",""
"","null","html-keyboard-response","80","337226","0.0-20.0-0.0","SS1613099615233","","","null","","","","","<p><img src= images/blank.png width =""200"" height = ""200"" style = ""float:right""></p><p><img src=images/blank.png width =""800"" height = ""200""></p>","","","","","","","","","","","",""
"","5680.5549999699","sequential-stimulus-presentation","81","343717","0.0-20.0-1.0","SS1613099615233","trial","","40","800","6480.5549999699","images/stimuli/spore_stims/complex_16_B_c.gif","images/stimuli/spore_stims/complex_09_B_d.gif","","","","","4","complex_dissimilar","images/stimuli/spore_stims/complex_09_B_d.gif","left","","","","",""
"","null","html-keyboard-response","82","344973","0.0-20.0-0.1","SS1613099615233","","","null","","","","","<p><img src= images/blank.png width =""200"" height = ""200"" style = ""float:right""></p><p><img src=images/blank.png width =""800"" height = ""200""></p>","","","","","","","","","","","",""
"","3531.5600000321865","sequential-stimulus-presentation","83","349333","0.0-20.0-1.1","SS1613099615233","trial","","40","800","4331.5600000321865","images/stimuli/spore_stims/complex_16_B_c.gif","images/stimuli/spore_stims/complex_09_B_d.gif","","","","","4","complex_dissimilar","images/stimuli/spore_stims/complex_09_B_d.gif","left","","","","",""
"","null","html-keyboard-response","84","350481","0.0-20.0-0.2","SS1613099615233","","","null","","","","","<p><img src= images/blank.png width =""200"" height = ""200"" style = ""float:right""></p><p><img src=images/blank.png width =""800"" height = ""200""></p>","","","","","","","","","","","",""
"","6151.989999925718","sequential-stimulus-presentation","85","357444","0.0-20.0-1.2","SS1613099615233","trial","","40","800","6951.989999925718","images/stimuli/spore_stims/complex_16_B_c.gif","images/stimuli/spore_stims/complex_09_B_d.gif","","","","","4","complex_dissimilar","images/stimuli/spore_stims/complex_09_B_d.gif","left","","","","",""
"","null","html-keyboard-response","86","358423","0.0-20.0-0.3","SS1613099615233","","","null","","","","","<p><img src= images/blank.png width =""200"" height = ""200"" style = ""float:right""></p><p><img src=images/blank.png width =""800"" height = ""200""></p>","","","","","","","","","","","",""
"","5902.740000048652","sequential-stimulus-presentation","87","365141","0.0-20.0-1.3","SS1613099615233","trial","","40","800","6702.740000048652","images/stimuli/spore_stims/complex_16_B_c.gif","images/stimuli/spore_stims/complex_09_B_d.gif","","","","","4","complex_dissimilar","images/stimuli/spore_stims/complex_09_B_d.gif","left","","","","",""
"","null","html-keyboard-response","88","366040","0.0-20.0-0.4","SS1613099615233","","","null","","","","","<p><img src= images/blank.png width =""200"" height = ""200"" style = ""float:right""></p><p><img src=images/blank.png width =""800"" height = ""200""></p>","","","","","","","","","","","",""
"","4896.070000017062","sequential-stimulus-presentation","89","371749","0.0-20.0-1.4","SS1613099615233","trial","","40","800","5696.070000017062","images/stimuli/spore_stims/complex_16_B_c.gif","images/stimuli/spore_stims/complex_09_B_d.gif","","","","","4","complex_dissimilar","images/stimuli/spore_stims/complex_09_B_d.gif","left","","","","",""
"","null","html-keyboard-response","90","372798","0.0-20.0-0.5","SS1613099615233","","","null","","","","","<p><img src= images/blank.png width =""200"" height = ""200"" style = ""float:right""></p><p><img src=images/blank.png width =""800"" height = ""200""></p>","","","","","","","","","","","",""
"","2879.9199999775738","sequential-stimulus-presentation","91","376501","0.0-20.0-1.5","SS1613099615233","trial","","40","800","3679.9199999775738","images/stimuli/spore_stims/complex_16_B_c.gif","images/stimuli/spore_stims/complex_09_B_d.gif","","","","","4","complex_dissimilar","images/stimuli/spore_stims/complex_09_B_d.gif","left","","","","",""
"","null","html-keyboard-response","92","377694","0.0-20.0-0.6","SS1613099615233","","","null","","","","","<p><img src= images/blank.png width =""200"" height = ""200"" style = ""float:right""></p><p><img src=images/blank.png width =""800"" height = ""200""></p>","","","","","","","","","","","",""
"","8965.104999952018","sequential-stimulus-presentation","93","387469","0.0-20.0-1.6","SS1613099615233","trial","","40","800","9765.104999952018","images/stimuli/spore_stims/complex_16_B_c.gif","images/stimuli/spore_stims/complex_09_B_d.gif","","","","","4","complex_dissimilar","images/stimuli/spore_stims/complex_16_B_c.gif","right","","","","",""
"","null","html-keyboard-response","94","388429","0.0-20.0-0.7","SS1613099615233","","","null","","","","","<p><img src= images/blank.png width =""200"" height = ""200"" style = ""float:right""></p><p><img src=images/blank.png width =""800"" height = ""200""></p>","","","","","","","","","","","",""
"","12058.840000070632","sequential-stimulus-presentation","95","401301","0.0-20.0-1.7","SS1613099615233","trial","","40","800","12858.840000070632","images/stimuli/spore_stims/complex_16_B_c.gif","images/stimuli/spore_stims/complex_09_B_d.gif","","","","","4","complex_dissimilar","images/stimuli/spore_stims/complex_09_B_d.gif","left","","","","",""
"","3938.6750000994653","html-keyboard-response","96","405245","0.0-21.0","SS1613099615233","pref_question","","98","","","","","<video width ='960' height = '540' style='padding-top:8%' autoplay muted><source src='images/stimuli/wall_pref.mp4' type='video/mp4'></video>","2","middle","45%","4","","","","","","","",""
"","10562.910000095144","sequential-stimulus-presentation","97","416621","0.0-22.0","SS1613099615233","pref_reveal","","40","800","11362.910000095144","null","null","","","","","4","","","","novel","","","",""
"","null","html-keyboard-response","98","417614","0.0-23.0-0.0","SS1613099615233","","","null","","","","","<p><img src= images/blank.png width =""200"" height = ""200"" style = ""float:right""></p><p><img src=images/blank.png width =""800"" height = ""200""></p>","","","","","","","","","","","",""
"","6206.465000053868","sequential-stimulus-presentation","99","424644","0.0-23.0-1.0","SS1613099615233","trial","","40","800","7006.465000053868","images/stimuli/spore_stims/simple_14_B_a.gif","images/stimuli/spore_stims/simple_14_A_a.gif","","","","","5","simple_similar","images/stimuli/spore_stims/simple_14_A_a.gif","right","","","","",""
"","null","html-keyboard-response","100","425848","0.0-23.0-0.1","SS1613099615233","","","null","","","","","<p><img src= images/blank.png width =""200"" height = ""200"" style = ""float:right""></p><p><img src=images/blank.png width =""800"" height = ""200""></p>","","","","","","","","","","","",""
"","5059.339999919757","sequential-stimulus-presentation","101","431718","0.0-23.0-1.1","SS1613099615233","trial","","40","800","5859.339999919757","images/stimuli/spore_stims/simple_14_B_a.gif","images/stimuli/spore_stims/simple_14_A_a.gif","","","","","5","simple_similar","images/stimuli/spore_stims/simple_14_A_a.gif","right","","","","",""
"","null","html-keyboard-response","102","432737","0.0-23.0-0.2","SS1613099615233","","","null","","","","","<p><img src= images/blank.png width =""200"" height = ""200"" style = ""float:right""></p><p><img src=images/blank.png width =""800"" height = ""200""></p>","","","","","","","","","","","",""
"","6591.100000077859","sequential-stimulus-presentation","103","440140","0.0-23.0-1.2","SS1613099615233","trial","","40","800","7391.100000077859","images/stimuli/spore_stims/simple_14_B_a.gif","images/stimuli/spore_stims/simple_14_A_a.gif","","","","","5","simple_similar","images/stimuli/spore_stims/simple_14_B_a.gif","left","","","","",""
"","null","html-keyboard-response","104","441318","0.0-23.0-0.3","SS1613099615233","","","null","","","","","<p><img src= images/blank.png width =""200"" height = ""200"" style = ""float:right""></p><p><img src=images/blank.png width =""800"" height = ""200""></p>","","","","","","","","","","","",""
"","6807.624999899417","sequential-stimulus-presentation","105","448938","0.0-23.0-1.3","SS1613099615233","trial","","40","800","7607.624999899417","images/stimuli/spore_stims/simple_14_B_a.gif","images/stimuli/spore_stims/simple_14_A_a.gif","","","","","5","simple_similar","images/stimuli/spore_stims/simple_14_A_a.gif","right","","","","",""
"","null","html-keyboard-response","106","450041","0.0-23.0-0.4","SS1613099615233","","","null","","","","","<p><img src= images/blank.png width =""200"" height = ""200"" style = ""float:right""></p><p><img src=images/blank.png width =""800"" height = ""200""></p>","","","","","","","","","","","",""
"","6638.415000168607","sequential-stimulus-presentation","107","457492","0.0-23.0-1.4","SS1613099615233","trial","","40","800","7438.415000168607","images/stimuli/spore_stims/simple_14_B_a.gif","images/stimuli/spore_stims/simple_14_A_a.gif","","","","","5","simple_similar","images/stimuli/spore_stims/simple_14_A_a.gif","right","","","","",""
"","null","html-keyboard-response","108","458356","0.0-23.0-0.5","SS1613099615233","","","null","","","","","<p><img src= images/blank.png width =""200"" height = ""200"" style = ""float:right""></p><p><img src=images/blank.png width =""800"" height = ""200""></p>","","","","","","","","","","","",""
"","5326.695000054315","sequential-stimulus-presentation","109","464502","0.0-23.0-1.5","SS1613099615233","trial","","40","800","6126.695000054315","images/stimuli/spore_stims/simple_14_B_a.gif","images/stimuli/spore_stims/simple_14_A_a.gif","","","","","5","simple_similar","images/stimuli/spore_stims/simple_14_A_a.gif","right","","","","",""
"","null","html-keyboard-response","110","465550","0.0-23.0-0.6","SS1613099615233","","","null","","","","","<p><img src= images/blank.png width =""200"" height = ""200"" style = ""float:right""></p><p><img src=images/blank.png width =""800"" height = ""200""></p>","","","","","","","","","","","",""
"","3420.5300000030547","sequential-stimulus-presentation","111","469781","0.0-23.0-1.6","SS1613099615233","trial","","40","800","4220.530000003055","images/stimuli/spore_stims/simple_14_B_a.gif","images/stimuli/spore_stims/simple_14_A_a.gif","","","","","5","simple_similar","images/stimuli/spore_stims/simple_14_A_a.gif","right","","","","",""
"","null","html-keyboard-response","112","470635","0.0-23.0-0.7","SS1613099615233","","","null","","","","","<p><img src= images/blank.png width =""200"" height = ""200"" style = ""float:right""></p><p><img src=images/blank.png width =""800"" height = ""200""></p>","","","","","","","","","","","",""
"","3161.9449998252094","sequential-stimulus-presentation","113","474613","0.0-23.0-1.7","SS1613099615233","trial","","40","800","3961.9449998252094","images/stimuli/spore_stims/simple_14_B_a.gif","images/stimuli/spore_stims/simple_14_A_a.gif","","","","","5","simple_similar","images/stimuli/spore_stims/simple_14_A_a.gif","right","","","","",""
"","2529.6249999664724","html-keyboard-response","114","477149","0.0-24.0","SS1613099615233","pref_question","","98","","","","","<video width ='960' height = '540' style='padding-top:8%' autoplay muted><source src='images/stimuli/wall_pref.mp4' type='video/mp4'></video>","2","middle","45%","5","","","","","","","",""
"","5844.485000008717","sequential-stimulus-presentation","115","483822","0.0-25.0","SS1613099615233","pref_reveal","","40","800","6644.485000008717","null","null","","","","","5","","","","novel","","","",""
"","null","html-keyboard-response","116","484929","0.0-26.0-0.0","SS1613099615233","","","null","","","","","<p><img src= images/blank.png width =""200"" height = ""200"" style = ""float:right""></p><p><img src=images/blank.png width =""800"" height = ""200""></p>","","","","","","","","","","","",""
"","4823.860000120476","sequential-stimulus-presentation","117","490565","0.0-26.0-1.0","SS1613099615233","trial","","40","800","5623.860000120476","images/stimuli/spore_stims/simple_15_B_b.gif","images/stimuli/spore_stims/simple_17_B_b.gif","","","","","6","simple_dissimilar","images/stimuli/spore_stims/simple_17_B_b.gif","right","","","","",""
"","null","html-keyboard-response","118","491719","0.0-26.0-0.1","SS1613099615233","","","null","","","","","<p><img src= images/blank.png width =""200"" height = ""200"" style = ""float:right""></p><p><img src=images/blank.png width =""800"" height = ""200""></p>","","","","","","","","","","","",""
"","2864.7600000258535","sequential-stimulus-presentation","119","495397","0.0-26.0-1.1","SS1613099615233","trial","","40","800","3664.7600000258535","images/stimuli/spore_stims/simple_15_B_b.gif","images/stimuli/spore_stims/simple_17_B_b.gif","","","","","6","simple_dissimilar","images/stimuli/spore_stims/simple_17_B_b.gif","right","","","","",""
"","null","html-keyboard-response","120","496433","0.0-26.0-0.2","SS1613099615233","","","null","","","","","<p><img src= images/blank.png width =""200"" height = ""200"" style = ""float:right""></p><p><img src=images/blank.png width =""800"" height = ""200""></p>","","","","","","","","","","","",""
"","2828.440000070259","sequential-stimulus-presentation","121","500077","0.0-26.0-1.2","SS1613099615233","trial","","40","800","3628.440000070259","images/stimuli/spore_stims/simple_15_B_b.gif","images/stimuli/spore_stims/simple_17_B_b.gif","","","","","6","simple_dissimilar","images/stimuli/spore_stims/simple_17_B_b.gif","right","","","","",""
"","null","html-keyboard-response","122","501291","0.0-26.0-0.3","SS1613099615233","","","null","","","","","<p><img src= images/blank.png width =""200"" height = ""200"" style = ""float:right""></p><p><img src=images/blank.png width =""800"" height = ""200""></p>","","","","","","","","","","","",""
"","6038.895000005141","sequential-stimulus-presentation","123","508142","0.0-26.0-1.3","SS1613099615233","trial","","40","800","6838.895000005141","images/stimuli/spore_stims/simple_15_B_b.gif","images/stimuli/spore_stims/simple_17_B_b.gif","","","","","6","simple_dissimilar","images/stimuli/spore_stims/simple_15_B_b.gif","left","","","","",""
"","null","html-keyboard-response","124","509091","0.0-26.0-0.4","SS1613099615233","","","null","","","","","<p><img src= images/blank.png width =""200"" height = ""200"" style = ""float:right""></p><p><img src=images/blank.png width =""800"" height = ""200""></p>","","","","","","","","","","","",""
"","2948.7099999096245","sequential-stimulus-presentation","125","512853","0.0-26.0-1.4","SS1613099615233","trial","","40","800","3748.7099999096245","images/stimuli/spore_stims/simple_15_B_b.gif","images/stimuli/spore_stims/simple_17_B_b.gif","","","","","6","simple_dissimilar","images/stimuli/spore_stims/simple_17_B_b.gif","right","","","","",""
"","null","html-keyboard-response","126","513738","0.0-26.0-0.5","SS1613099615233","","","null","","","","","<p><img src= images/blank.png width =""200"" height = ""200"" style = ""float:right""></p><p><img src=images/blank.png width =""800"" height = ""200""></p>","","","","","","","","","","","",""
"","1944.6250000037253","sequential-stimulus-presentation","127","516501","0.0-26.0-1.5","SS1613099615233","trial","","40","800","2744.6250000037253","images/stimuli/spore_stims/simple_15_B_b.gif","images/stimuli/spore_stims/simple_17_B_b.gif","","","","","6","simple_dissimilar","images/stimuli/spore_stims/simple_17_B_b.gif","right","","","","",""
"","null","html-keyboard-response","128","517632","0.0-26.0-0.6","SS1613099615233","","","null","","","","","<p><img src= images/blank.png width =""200"" height = ""200"" style = ""float:right""></p><p><img src=images/blank.png width =""800"" height = ""200""></p>","","","","","","","","","","","",""
"","1283.2049999851733","sequential-stimulus-presentation","129","519750","0.0-26.0-1.6","SS1613099615233","trial","","40","800","2083.2049999851733","images/stimuli/spore_stims/simple_15_B_b.gif","images/stimuli/spore_stims/simple_17_B_b.gif","","","","","6","simple_dissimilar","images/stimuli/spore_stims/simple_17_B_b.gif","right","","","","",""
"","null","html-keyboard-response","130","520574","0.0-26.0-0.7","SS1613099615233","","","null","","","","","<p><img src= images/blank.png width =""200"" height = ""200"" style = ""float:right""></p><p><img src=images/blank.png width =""800"" height = ""200""></p>","","","","","","","","","","","",""
"","2275.065000168979","sequential-stimulus-presentation","131","523654","0.0-26.0-1.7","SS1613099615233","trial","","40","800","3075.065000168979","images/stimuli/spore_stims/simple_15_B_b.gif","images/stimuli/spore_stims/simple_17_B_b.gif","","","","","6","simple_dissimilar","images/stimuli/spore_stims/simple_17_B_b.gif","right","","","","",""
"","2649.079999886453","html-keyboard-response","132","526309","0.0-27.0","SS1613099615233","pref_question","","99","","","","","<video width ='960' height = '540' style='padding-top:8%' autoplay muted><source src='images/stimuli/wall_pref.mp4' type='video/mp4'></video>","3","right","66%","6","","","","","","","",""
"","3268.1550001725554","sequential-stimulus-presentation","133","530407","0.0-28.0","SS1613099615233","pref_reveal","","40","800","4068.1550001725554","null","null","","","","","6","","","","background","","","",""
"","null","html-keyboard-response","134","531471","0.0-29.0-0.0","SS1613099615233","","","null","","","","","<p><img src= images/blank.png width =""200"" height = ""200"" style = ""float:right""></p><p><img src=images/blank.png width =""800"" height = ""200""></p>","","","","","","","","","","","",""
"","5162.599999923259","sequential-stimulus-presentation","135","537444","0.0-29.0-1.0","SS1613099615233","trial","","40","800","5962.599999923259","images/stimuli/spore_stims/complex_12_B_c.gif","images/stimuli/spore_stims/complex_08_B_c.gif","","","","","7","complex_dissimilar","images/stimuli/spore_stims/complex_08_B_c.gif","left","","","","",""
"","null","html-keyboard-response","136","538265","0.0-29.0-0.1","SS1613099615233","","","null","","","","","<p><img src= images/blank.png width =""200"" height = ""200"" style = ""float:right""></p><p><img src=images/blank.png width =""800"" height = ""200""></p>","","","","","","","","","","","",""
"","2401.5550001058728","sequential-stimulus-presentation","137","541485","0.0-29.0-1.1","SS1613099615233","trial","","40","800","3201.5550001058728","images/stimuli/spore_stims/complex_12_B_c.gif","images/stimuli/spore_stims/complex_08_B_c.gif","","","","","7","complex_dissimilar","images/stimuli/spore_stims/complex_08_B_c.gif","left","","","","",""
"","null","html-keyboard-response","138","542371","0.0-29.0-0.2","SS1613099615233","","","null","","","","","<p><img src= images/blank.png width =""200"" height = ""200"" style = ""float:right""></p><p><img src=images/blank.png width =""800"" height = ""200""></p>","","","","","","","","","","","",""
"","2674.739999929443","sequential-stimulus-presentation","139","545869","0.0-29.0-1.2","SS1613099615233","trial","","40","800","3474.739999929443","images/stimuli/spore_stims/complex_12_B_c.gif","images/stimuli/spore_stims/complex_08_B_c.gif","","","","","7","complex_dissimilar","images/stimuli/spore_stims/complex_08_B_c.gif","left","","","","",""
"","null","html-keyboard-response","140","546844","0.0-29.0-0.3","SS1613099615233","","","null","","","","","<p><img src= images/blank.png width =""200"" height = ""200"" style = ""float:right""></p><p><img src=images/blank.png width =""800"" height = ""200""></p>","","","","","","","","","","","",""
"","4092.1950000338256","sequential-stimulus-presentation","141","551749","0.0-29.0-1.3","SS1613099615233","trial","","40","800","4892.195000033826","images/stimuli/spore_stims/complex_12_B_c.gif","images/stimuli/spore_stims/complex_08_B_c.gif","","","","","7","complex_dissimilar","images/stimuli/spore_stims/complex_08_B_c.gif","left","","","","",""
"","null","html-keyboard-response","142","552834","0.0-29.0-0.4","SS1613099615233","","","null","","","","","<p><img src= images/blank.png width =""200"" height = ""200"" style = ""float:right""></p><p><img src=images/blank.png width =""800"" height = ""200""></p>","","","","","","","","","","","",""
"","1624.9700000043958","sequential-stimulus-presentation","143","555277","0.0-29.0-1.4","SS1613099615233","trial","","40","800","2424.970000004396","images/stimuli/spore_stims/complex_12_B_c.gif","images/stimuli/spore_stims/complex_08_B_c.gif","","","","","7","complex_dissimilar","images/stimuli/spore_stims/complex_08_B_c.gif","left","","","","",""
"","null","html-keyboard-response","144","556298","0.0-29.0-0.5","SS1613099615233","","","null","","","","","<p><img src= images/blank.png width =""200"" height = ""200"" style = ""float:right""></p><p><img src=images/blank.png width =""800"" height = ""200""></p>","","","","","","","","","","","",""
"","4239.270000020042","sequential-stimulus-presentation","145","561349","0.0-29.0-1.5","SS1613099615233","trial","","40","800","5039.270000020042","images/stimuli/spore_stims/complex_12_B_c.gif","images/stimuli/spore_stims/complex_08_B_c.gif","","","","","7","complex_dissimilar","images/stimuli/spore_stims/complex_12_B_c.gif","middle","","","","",""
"","null","html-keyboard-response","146","562411","0.0-29.0-0.6","SS1613099615233","","","null","","","","","<p><img src= images/blank.png width =""200"" height = ""200"" style = ""float:right""></p><p><img src=images/blank.png width =""800"" height = ""200""></p>","","","","","","","","","","","",""
"","3723.1699998956174","sequential-stimulus-presentation","147","566958","0.0-29.0-1.6","SS1613099615233","trial","","40","800","4523.169999895617","images/stimuli/spore_stims/complex_12_B_c.gif","images/stimuli/spore_stims/complex_08_B_c.gif","","","","","7","complex_dissimilar","images/stimuli/spore_stims/complex_08_B_c.gif","left","","","","",""
"","null","html-keyboard-response","148","567928","0.0-29.0-0.7","SS1613099615233","","","null","","","","","<p><img src= images/blank.png width =""200"" height = ""200"" style = ""float:right""></p><p><img src=images/blank.png width =""800"" height = ""200""></p>","","","","","","","","","","","",""
"","2269.9399997945875","sequential-stimulus-presentation","149","571021","0.0-29.0-1.7","SS1613099615233","trial","","40","800","3069.9399997945875","images/stimuli/spore_stims/complex_12_B_c.gif","images/stimuli/spore_stims/complex_08_B_c.gif","","","","","7","complex_dissimilar","images/stimuli/spore_stims/complex_08_B_c.gif","left","","","","",""
"","2410.440000006929","html-keyboard-response","150","573440","0.0-30.0","SS1613099615233","pref_question","","98","","","","","<video width ='960' height = '540' style='padding-top:8%' autoplay muted><source src='images/stimuli/wall_pref.mp4' type='video/mp4'></video>","2","middle","45%","7","","","","","","","",""
"","5421.044999966398","sequential-stimulus-presentation","151","579670","0.0-31.0","SS1613099615233","pref_reveal","","40","800","6221.044999966398","null","null","","","","","7","","","","deviant","","","",""
"","null","html-keyboard-response","152","580821","0.0-32.0-0.0","SS1613099615233","","","null","","","","","<p><img src= images/blank.png width =""200"" height = ""200"" style = ""float:right""></p><p><img src=images/blank.png width =""800"" height = ""200""></p>","","","","","","","","","","","",""
"","3499.864999903366","sequential-stimulus-presentation","153","585133","0.0-32.0-1.0","SS1613099615233","trial","","40","800","4299.864999903366","images/stimuli/spore_stims/complex_17_B_b.gif","images/stimuli/spore_stims/complex_17_A_b.gif","","","","","8","complex_similar","images/stimuli/spore_stims/complex_17_A_b.gif","left","","","","",""
"","null","html-keyboard-response","154","586442","0.0-32.0-0.1","SS1613099615233","","","null","","","","","<p><img src= images/blank.png width =""200"" height = ""200"" style = ""float:right""></p><p><img src=images/blank.png width =""800"" height = ""200""></p>","","","","","","","","","","","",""
"","2344.7350000496954","sequential-stimulus-presentation","155","589596","0.0-32.0-1.1","SS1613099615233","trial","","40","800","3144.7350000496954","images/stimuli/spore_stims/complex_17_B_b.gif","images/stimuli/spore_stims/complex_17_A_b.gif","","","","","8","complex_similar","images/stimuli/spore_stims/complex_17_A_b.gif","left","","","","",""
"","null","html-keyboard-response","156","590787","0.0-32.0-0.2","SS1613099615233","","","null","","","","","<p><img src= images/blank.png width =""200"" height = ""200"" style = ""float:right""></p><p><img src=images/blank.png width =""800"" height = ""200""></p>","","","","","","","","","","","",""
"","631.2899999320507","sequential-stimulus-presentation","157","592230","0.0-32.0-1.2","SS1613099615233","trial","","40","800","1431.2899999320507","images/stimuli/spore_stims/complex_17_B_b.gif","images/stimuli/spore_stims/complex_17_A_b.gif","","","","","8","complex_similar","images/stimuli/spore_stims/complex_17_A_b.gif","left","","","","",""
"","null","html-keyboard-response","158","593074","0.0-32.0-0.3","SS1613099615233","","","null","","","","","<p><img src= images/blank.png width =""200"" height = ""200"" style = ""float:right""></p><p><img src=images/blank.png width =""800"" height = ""200""></p>","","","","","","","","","","","",""
"","2460.3300001472235","sequential-stimulus-presentation","159","596348","0.0-32.0-1.3","SS1613099615233","trial","","40","800","3260.3300001472235","images/stimuli/spore_stims/complex_17_B_b.gif","images/stimuli/spore_stims/complex_17_A_b.gif","","","","","8","complex_similar","images/stimuli/spore_stims/complex_17_A_b.gif","left","","","","",""
"","null","html-keyboard-response","160","597457","0.0-32.0-0.4","SS1613099615233","","","null","","","","","<p><img src= images/blank.png width =""200"" height = ""200"" style = ""float:right""></p><p><img src=images/blank.png width =""800"" height = ""200""></p>","","","","","","","","","","","",""
"","2062.2199999634176","sequential-stimulus-presentation","161","600332","0.0-32.0-1.4","SS1613099615233","trial","","40","800","2862.2199999634176","images/stimuli/spore_stims/complex_17_B_b.gif","images/stimuli/spore_stims/complex_17_A_b.gif","","","","","8","complex_similar","images/stimuli/spore_stims/complex_17_A_b.gif","left","","","","",""
"","null","html-keyboard-response","162","601462","0.0-32.0-0.5","SS1613099615233","","","null","","","","","<p><img src= images/blank.png width =""200"" height = ""200"" style = ""float:right""></p><p><img src=images/blank.png width =""800"" height = ""200""></p>","","","","","","","","","","","",""
"","5072.605000110343","sequential-stimulus-presentation","163","607344","0.0-32.0-1.5","SS1613099615233","trial","","40","800","5872.605000110343","images/stimuli/spore_stims/complex_17_B_b.gif","images/stimuli/spore_stims/complex_17_A_b.gif","","","","","8","complex_similar","images/stimuli/spore_stims/complex_17_B_b.gif","middle","","","","",""
"","null","html-keyboard-response","164","608335","0.0-32.0-0.6","SS1613099615233","","","null","","","","","<p><img src= images/blank.png width =""200"" height = ""200"" style = ""float:right""></p><p><img src=images/blank.png width =""800"" height = ""200""></p>","","","","","","","","","","","",""
"","4586.714999983087","sequential-stimulus-presentation","165","613746","0.0-32.0-1.6","SS1613099615233","trial","","40","800","5386.714999983087","images/stimuli/spore_stims/complex_17_B_b.gif","images/stimuli/spore_stims/complex_17_A_b.gif","","","","","8","complex_similar","images/stimuli/spore_stims/complex_17_A_b.gif","left","","","","",""
"","null","html-keyboard-response","166","614869","0.0-32.0-0.7","SS1613099615233","","","null","","","","","<p><img src= images/blank.png width =""200"" height = ""200"" style = ""float:right""></p><p><img src=images/blank.png width =""800"" height = ""200""></p>","","","","","","","","","","","",""
"","3260.5550000444055","sequential-stimulus-presentation","167","618943","0.0-32.0-1.7","SS1613099615233","trial","","40","800","4060.5550000444055","images/stimuli/spore_stims/complex_17_B_b.gif","images/stimuli/spore_stims/complex_17_A_b.gif","","","","","8","complex_similar","images/stimuli/spore_stims/complex_17_A_b.gif","left","","","","",""
"","2366.084999870509","html-keyboard-response","168","621317","0.0-33.0","SS1613099615233","pref_question","","98","","","","","<video width ='960' height = '540' style='padding-top:8%' autoplay muted><source src='images/stimuli/wall_pref.mp4' type='video/mp4'></video>","2","middle","45%","8","","","","","","","",""
"","5079.685000004247","sequential-stimulus-presentation","169","627213","0.0-34.0","SS1613099615233","pref_reveal","","40","800","5879.685000004247","null","null","","","","","8","","","","deviant","","","",""
"","null","html-keyboard-response","170","628332","0.0-35.0-0.0","SS1613099615233","","","null","","","","","<p><img src= images/blank.png width =""200"" height = ""200"" style = ""float:right""></p><p><img src=images/blank.png width =""800"" height = ""200""></p>","","","","","","","","","","","",""
"","4818.7700000125915","sequential-stimulus-presentation","171","633983","0.0-35.0-1.0","SS1613099615233","trial","","40","800","5618.7700000125915","images/stimuli/spore_stims/simple_11_B_c.gif","images/stimuli/spore_stims/simple_01_B_a.gif","","","","","9","simple_dissimilar","images/stimuli/spore_stims/simple_01_B_a.gif","right","","","","",""
"","null","html-keyboard-response","172","635284","0.0-35.0-0.1","SS1613099615233","","","null","","","","","<p><img src= images/blank.png width =""200"" height = ""200"" style = ""float:right""></p><p><img src=images/blank.png width =""800"" height = ""200""></p>","","","","","","","","","","","",""
"","2662.4549999833107","sequential-stimulus-presentation","173","638756","0.0-35.0-1.1","SS1613099615233","trial","","40","800","3462.4549999833107","images/stimuli/spore_stims/simple_11_B_c.gif","images/stimuli/spore_stims/simple_01_B_a.gif","","","","","9","simple_dissimilar","images/stimuli/spore_stims/simple_01_B_a.gif","right","","","","",""
"","null","html-keyboard-response","174","639607","0.0-35.0-0.2","SS1613099615233","","","null","","","","","<p><img src= images/blank.png width =""200"" height = ""200"" style = ""float:right""></p><p><img src=images/blank.png width =""800"" height = ""200""></p>","","","","","","","","","","","",""
"","2792.2949998173863","sequential-stimulus-presentation","175","643213","0.0-35.0-1.2","SS1613099615233","trial","","40","800","3592.2949998173863","images/stimuli/spore_stims/simple_11_B_c.gif","images/stimuli/spore_stims/simple_01_B_a.gif","","","","","9","simple_dissimilar","images/stimuli/spore_stims/simple_01_B_a.gif","right","","","","",""
"","null","html-keyboard-response","176","644182","0.0-35.0-0.3","SS1613099615233","","","null","","","","","<p><img src= images/blank.png width =""200"" height = ""200"" style = ""float:right""></p><p><img src=images/blank.png width =""800"" height = ""200""></p>","","","","","","","","","","","",""
"","1163.4850001428276","sequential-stimulus-presentation","177","646157","0.0-35.0-1.3","SS1613099615233","trial","","40","800","1963.4850001428276","images/stimuli/spore_stims/simple_11_B_c.gif","images/stimuli/spore_stims/simple_01_B_a.gif","","","","","9","simple_dissimilar","images/stimuli/spore_stims/simple_01_B_a.gif","right","","","","",""
"","null","html-keyboard-response","178","647334","0.0-35.0-0.4","SS1613099615233","","","null","","","","","<p><img src= images/blank.png width =""200"" height = ""200"" style = ""float:right""></p><p><img src=images/blank.png width =""800"" height = ""200""></p>","","","","","","","","","","","",""
"","529.3799999635667","sequential-stimulus-presentation","179","648693","0.0-35.0-1.4","SS1613099615233","trial","","40","800","1329.3799999635667","images/stimuli/spore_stims/simple_11_B_c.gif","images/stimuli/spore_stims/simple_01_B_a.gif","","","","","9","simple_dissimilar","images/stimuli/spore_stims/simple_01_B_a.gif","right","","","","",""
"","null","html-keyboard-response","180","649780","0.0-35.0-0.5","SS1613099615233","","","null","","","","","<p><img src= images/blank.png width =""200"" height = ""200"" style = ""float:right""></p><p><img src=images/blank.png width =""800"" height = ""200""></p>","","","","","","","","","","","",""
"","3960.7949999626726","sequential-stimulus-presentation","181","654557","0.0-35.0-1.5","SS1613099615233","trial","","40","800","4760.794999962673","images/stimuli/spore_stims/simple_11_B_c.gif","images/stimuli/spore_stims/simple_01_B_a.gif","","","","","9","simple_dissimilar","images/stimuli/spore_stims/simple_11_B_c.gif","left","","","","",""
"","null","html-keyboard-response","182","655653","0.0-35.0-0.6","SS1613099615233","","","null","","","","","<p><img src= images/blank.png width =""200"" height = ""200"" style = ""float:right""></p><p><img src=images/blank.png width =""800"" height = ""200""></p>","","","","","","","","","","","",""
"","1918.4049998875707","sequential-stimulus-presentation","183","658384","0.0-35.0-1.6","SS1613099615233","trial","","40","800","2718.4049998875707","images/stimuli/spore_stims/simple_11_B_c.gif","images/stimuli/spore_stims/simple_01_B_a.gif","","","","","9","simple_dissimilar","images/stimuli/spore_stims/simple_01_B_a.gif","right","","","","",""
"","null","html-keyboard-response","184","659419","0.0-35.0-0.7","SS1613099615233","","","null","","","","","<p><img src= images/blank.png width =""200"" height = ""200"" style = ""float:right""></p><p><img src=images/blank.png width =""800"" height = ""200""></p>","","","","","","","","","","","",""
"","762.1750000398606","sequential-stimulus-presentation","185","660989","0.0-35.0-1.7","SS1613099615233","trial","","40","800","1562.1750000398606","images/stimuli/spore_stims/simple_11_B_c.gif","images/stimuli/spore_stims/simple_01_B_a.gif","","","","","9","simple_dissimilar","images/stimuli/spore_stims/simple_01_B_a.gif","right","","","","",""
"","2588.149999966845","html-keyboard-response","186","663582","0.0-36.0","SS1613099615233","pref_question","","98","","","","","<video width ='960' height = '540' style='padding-top:8%' autoplay muted><source src='images/stimuli/wall_pref.mp4' type='video/mp4'></video>","2","middle","45%","9","","","","","","","",""
"","3275.855000130832","sequential-stimulus-presentation","187","667680","0.0-37.0","SS1613099615233","pref_reveal","","40","800","4075.855000130832","null","null","","","","","9","","","","novel","","","",""
"","null","html-keyboard-response","188","668989","0.0-38.0-0.0","SS1613099615233","","","null","","","","","<p><img src= images/blank.png width =""200"" height = ""200"" style = ""float:right""></p><p><img src=images/blank.png width =""800"" height = ""200""></p>","","","","","","","","","","","",""
"","3898.134999908507","sequential-stimulus-presentation","189","673702","0.0-38.0-1.0","SS1613099615233","trial","","40","800","4698.134999908507","images/stimuli/spore_stims/complex_09_A_d.gif","images/stimuli/spore_stims/complex_13_A_d.gif","","","","","10","complex_dissimilar","images/stimuli/spore_stims/complex_13_A_d.gif","left","","","","",""
"","null","html-keyboard-response","190","674919","0.0-38.0-0.1","SS1613099615233","","","null","","","","","<p><img src= images/blank.png width =""200"" height = ""200"" style = ""float:right""></p><p><img src=images/blank.png width =""800"" height = ""200""></p>","","","","","","","","","","","",""
"","1578.0250001698732","sequential-stimulus-presentation","191","677317","0.0-38.0-1.1","SS1613099615233","trial","","40","800","2378.0250001698732","images/stimuli/spore_stims/complex_09_A_d.gif","images/stimuli/spore_stims/complex_13_A_d.gif","","","","","10","complex_dissimilar","images/stimuli/spore_stims/complex_13_A_d.gif","left","","","","",""
"","null","html-keyboard-response","192","678386","0.0-38.0-0.2","SS1613099615233","","","null","","","","","<p><img src= images/blank.png width =""200"" height = ""200"" style = ""float:right""></p><p><img src=images/blank.png width =""800"" height = ""200""></p>","","","","","","","","","","","",""
"","3348.5799999907613","sequential-stimulus-presentation","193","682573","0.0-38.0-1.2","SS1613099615233","trial","","40","800","4148.579999990761","images/stimuli/spore_stims/complex_09_A_d.gif","images/stimuli/spore_stims/complex_13_A_d.gif","","","","","10","complex_dissimilar","images/stimuli/spore_stims/complex_09_A_d.gif","middle","","","","",""
"","null","html-keyboard-response","194","683738","0.0-38.0-0.3","SS1613099615233","","","null","","","","","<p><img src= images/blank.png width =""200"" height = ""200"" style = ""float:right""></p><p><img src=images/blank.png width =""800"" height = ""200""></p>","","","","","","","","","","","",""
"","2457.894999999553","sequential-stimulus-presentation","195","687021","0.0-38.0-1.3","SS1613099615233","trial","","40","800","3257.894999999553","images/stimuli/spore_stims/complex_09_A_d.gif","images/stimuli/spore_stims/complex_13_A_d.gif","","","","","10","complex_dissimilar","images/stimuli/spore_stims/complex_13_A_d.gif","left","","","","",""
"","null","html-keyboard-response","196","687968","0.0-38.0-0.4","SS1613099615233","","","null","","","","","<p><img src= images/blank.png width =""200"" height = ""200"" style = ""float:right""></p><p><img src=images/blank.png width =""800"" height = ""200""></p>","","","","","","","","","","","",""
"","1032.3900000657886","sequential-stimulus-presentation","197","689821","0.0-38.0-1.4","SS1613099615233","trial","","40","800","1832.3900000657886","images/stimuli/spore_stims/complex_09_A_d.gif","images/stimuli/spore_stims/complex_13_A_d.gif","","","","","10","complex_dissimilar","images/stimuli/spore_stims/complex_13_A_d.gif","left","","","","",""
"","null","html-keyboard-response","198","690891","0.0-38.0-0.5","SS1613099615233","","","null","","","","","<p><img src= images/blank.png width =""200"" height = ""200"" style = ""float:right""></p><p><img src=images/blank.png width =""800"" height = ""200""></p>","","","","","","","","","","","",""
"","1974.2349998559803","sequential-stimulus-presentation","199","693678","0.0-38.0-1.5","SS1613099615233","trial","","40","800","2774.2349998559803","images/stimuli/spore_stims/complex_09_A_d.gif","images/stimuli/spore_stims/complex_13_A_d.gif","","","","","10","complex_dissimilar","images/stimuli/spore_stims/complex_13_A_d.gif","left","","","","",""
"","null","html-keyboard-response","200","694845","0.0-38.0-0.6","SS1613099615233","","","null","","","","","<p><img src= images/blank.png width =""200"" height = ""200"" style = ""float:right""></p><p><img src=images/blank.png width =""800"" height = ""200""></p>","","","","","","","","","","","",""
"","1413.050000090152","sequential-stimulus-presentation","201","697070","0.0-38.0-1.6","SS1613099615233","trial","","40","800","2213.050000090152","images/stimuli/spore_stims/complex_09_A_d.gif","images/stimuli/spore_stims/complex_13_A_d.gif","","","","","10","complex_dissimilar","images/stimuli/spore_stims/complex_13_A_d.gif","left","","","","",""
"","null","html-keyboard-response","202","698093","0.0-38.0-0.7","SS1613099615233","","","null","","","","","<p><img src= images/blank.png width =""200"" height = ""200"" style = ""float:right""></p><p><img src=images/blank.png width =""800"" height = ""200""></p>","","","","","","","","","","","",""
"","3399.530000053346","sequential-stimulus-presentation","203","702309","0.0-38.0-1.7","SS1613099615233","trial","","40","800","4199.530000053346","images/stimuli/spore_stims/complex_09_A_d.gif","images/stimuli/spore_stims/complex_13_A_d.gif","","","","","10","complex_dissimilar","images/stimuli/spore_stims/complex_13_A_d.gif","left","","","","",""
"","2248.3500000089407","html-keyboard-response","204","704565","0.0-39.0","SS1613099615233","pref_question","","98","","","","","<video width ='960' height = '540' style='padding-top:8%' autoplay muted><source src='images/stimuli/wall_pref.mp4' type='video/mp4'></video>","2","middle","45%","10","","","","","","","",""
"","3436.354999896139","sequential-stimulus-presentation","205","708822","0.0-40.0","SS1613099615233","pref_reveal","","40","800","4236.354999896139","null","null","","","","","10","","","","deviant","","","",""
"","null","html-keyboard-response","206","709923","0.0-41.0-0.0","SS1613099615233","","","null","","","","","<p><img src= images/blank.png width =""200"" height = ""200"" style = ""float:right""></p><p><img src=images/blank.png width =""800"" height = ""200""></p>","","","","","","","","","","","",""
"","3779.575000051409","sequential-stimulus-presentation","207","714519","0.0-41.0-1.0","SS1613099615233","trial","","40","800","4579.575000051409","images/stimuli/spore_stims/complex_07_B_a.gif","images/stimuli/spore_stims/complex_07_A_a.gif","","","","","11","complex_similar","images/stimuli/spore_stims/complex_07_A_a.gif","middle","","","","",""
"","null","html-keyboard-response","208","715648","0.0-41.0-0.1","SS1613099615233","","","null","","","","","<p><img src= images/blank.png width =""200"" height = ""200"" style = ""float:right""></p><p><img src=images/blank.png width =""800"" height = ""200""></p>","","","","","","","","","","","",""
"","2808.6549998261034","sequential-stimulus-presentation","209","719293","0.0-41.0-1.1","SS1613099615233","trial","","40","800","3608.6549998261034","images/stimuli/spore_stims/complex_07_B_a.gif","images/stimuli/spore_stims/complex_07_A_a.gif","","","","","11","complex_similar","images/stimuli/spore_stims/complex_07_A_a.gif","middle","","","","",""
"","null","html-keyboard-response","210","720256","0.0-41.0-0.2","SS1613099615233","","","null","","","","","<p><img src= images/blank.png width =""200"" height = ""200"" style = ""float:right""></p><p><img src=images/blank.png width =""800"" height = ""200""></p>","","","","","","","","","","","",""
"","2226.79500002414","sequential-stimulus-presentation","211","723293","0.0-41.0-1.2","SS1613099615233","trial","","40","800","3026.79500002414","images/stimuli/spore_stims/complex_07_B_a.gif","images/stimuli/spore_stims/complex_07_A_a.gif","","","","","11","complex_similar","images/stimuli/spore_stims/complex_07_A_a.gif","middle","","","","",""
"","null","html-keyboard-response","212","724311","0.0-41.0-0.3","SS1613099615233","","","null","","","","","<p><img src= images/blank.png width =""200"" height = ""200"" style = ""float:right""></p><p><img src=images/blank.png width =""800"" height = ""200""></p>","","","","","","","","","","","",""
"","787.3200001195073","sequential-stimulus-presentation","213","725909","0.0-41.0-1.3","SS1613099615233","trial","","40","800","1587.3200001195073","images/stimuli/spore_stims/complex_07_B_a.gif","images/stimuli/spore_stims/complex_07_A_a.gif","","","","","11","complex_similar","images/stimuli/spore_stims/complex_07_A_a.gif","middle","","","","",""
"","null","html-keyboard-response","214","727223","0.0-41.0-0.4","SS1613099615233","","","null","","","","","<p><img src= images/blank.png width =""200"" height = ""200"" style = ""float:right""></p><p><img src=images/blank.png width =""800"" height = ""200""></p>","","","","","","","","","","","",""
"","2896.1249999701977","sequential-stimulus-presentation","215","730957","0.0-41.0-1.4","SS1613099615233","trial","","40","800","3696.1249999701977","images/stimuli/spore_stims/complex_07_B_a.gif","images/stimuli/spore_stims/complex_07_A_a.gif","","","","","11","complex_similar","images/stimuli/spore_stims/complex_07_B_a.gif","left","","","","",""
"","null","html-keyboard-response","216","731943","0.0-41.0-0.5","SS1613099615233","","","null","","","","","<p><img src= images/blank.png width =""200"" height = ""200"" style = ""float:right""></p><p><img src=images/blank.png width =""800"" height = ""200""></p>","","","","","","","","","","","",""
"","4569.595000008121","sequential-stimulus-presentation","217","737325","0.0-41.0-1.5","SS1613099615233","trial","","40","800","5369.595000008121","images/stimuli/spore_stims/complex_07_B_a.gif","images/stimuli/spore_stims/complex_07_A_a.gif","","","","","11","complex_similar","images/stimuli/spore_stims/complex_07_A_a.gif","middle","","","","",""
"","null","html-keyboard-response","218","738503","0.0-41.0-0.6","SS1613099615233","","","null","","","","","<p><img src= images/blank.png width =""200"" height = ""200"" style = ""float:right""></p><p><img src=images/blank.png width =""800"" height = ""200""></p>","","","","","","","","","","","",""
"","2200.6550000514835","sequential-stimulus-presentation","219","741518","0.0-41.0-1.6","SS1613099615233","trial","","40","800","3000.6550000514835","images/stimuli/spore_stims/complex_07_B_a.gif","images/stimuli/spore_stims/complex_07_A_a.gif","","","","","11","complex_similar","images/stimuli/spore_stims/complex_07_A_a.gif","middle","","","","",""
"","null","html-keyboard-response","220","742454","0.0-41.0-0.7","SS1613099615233","","","null","","","","","<p><img src= images/blank.png width =""200"" height = ""200"" style = ""float:right""></p><p><img src=images/blank.png width =""800"" height = ""200""></p>","","","","","","","","","","","",""
"","2360.090000089258","sequential-stimulus-presentation","221","745622","0.0-41.0-1.7","SS1613099615233","trial","","40","800","3160.090000089258","images/stimuli/spore_stims/complex_07_B_a.gif","images/stimuli/spore_stims/complex_07_A_a.gif","","","","","11","complex_similar","images/stimuli/spore_stims/complex_07_A_a.gif","middle","","","","",""
"","2027.1099999081343","html-keyboard-response","222","747655","0.0-42.0","SS1613099615233","pref_question","","99","","","","","<video width ='960' height = '540' style='padding-top:8%' autoplay muted><source src='images/stimuli/wall_pref.mp4' type='video/mp4'></video>","3","right","66%","11","","","","","","","",""
"","5535.009999992326","sequential-stimulus-presentation","223","754008","0.0-43.0","SS1613099615233","pref_reveal","","40","800","6335.009999992326","null","null","","","","","11","","","","novel","","","",""
"","null","html-keyboard-response","224","754854","0.0-44.0-0.0","SS1613099615233","","","null","","","","","<p><img src= images/blank.png width =""200"" height = ""200"" style = ""float:right""></p><p><img src=images/blank.png width =""800"" height = ""200""></p>","","","","","","","","","","","",""
"","3299.9249999411404","sequential-stimulus-presentation","225","758965","0.0-44.0-1.0","SS1613099615233","trial","","40","800","4099.92499994114","images/stimuli/spore_stims/simple_12_B_c.gif","images/stimuli/spore_stims/simple_12_A_c.gif","","","","","12","simple_similar","images/stimuli/spore_stims/simple_12_A_c.gif","middle","","","","",""
"","null","html-keyboard-response","226","760219","0.0-44.0-0.1","SS1613099615233","","","null","","","","","<p><img src= images/blank.png width =""200"" height = ""200"" style = ""float:right""></p><p><img src=images/blank.png width =""800"" height = ""200""></p>","","","","","","","","","","","",""
"","1829.84000002034","sequential-stimulus-presentation","227","762891","0.0-44.0-1.1","SS1613099615233","trial","","40","800","2629.84000002034","images/stimuli/spore_stims/simple_12_B_c.gif","images/stimuli/spore_stims/simple_12_A_c.gif","","","","","12","simple_similar","images/stimuli/spore_stims/simple_12_A_c.gif","middle","","","","",""
"","null","html-keyboard-response","228","764021","0.0-44.0-0.2","SS1613099615233","","","null","","","","","<p><img src= images/blank.png width =""200"" height = ""200"" style = ""float:right""></p><p><img src=images/blank.png width =""800"" height = ""200""></p>","","","","","","","","","","","",""
"","1615.5250000301749","sequential-stimulus-presentation","229","766445","0.0-44.0-1.2","SS1613099615233","trial","","40","800","2415.525000030175","images/stimuli/spore_stims/simple_12_B_c.gif","images/stimuli/spore_stims/simple_12_A_c.gif","","","","","12","simple_similar","images/stimuli/spore_stims/simple_12_A_c.gif","middle","","","","",""
"","null","html-keyboard-response","230","767626","0.0-44.0-0.3","SS1613099615233","","","null","","","","","<p><img src= images/blank.png width =""200"" height = ""200"" style = ""float:right""></p><p><img src=images/blank.png width =""800"" height = ""200""></p>","","","","","","","","","","","",""
"","1890.5899999663234","sequential-stimulus-presentation","231","770348","0.0-44.0-1.3","SS1613099615233","trial","","40","800","2690.5899999663234","images/stimuli/spore_stims/simple_12_B_c.gif","images/stimuli/spore_stims/simple_12_A_c.gif","","","","","12","simple_similar","images/stimuli/spore_stims/simple_12_A_c.gif","middle","","","","",""
"","null","html-keyboard-response","232","771331","0.0-44.0-0.4","SS1613099615233","","","null","","","","","<p><img src= images/blank.png width =""200"" height = ""200"" style = ""float:right""></p><p><img src=images/blank.png width =""800"" height = ""200""></p>","","","","","","","","","","","",""
"","2073.0550000444055","sequential-stimulus-presentation","233","774245","0.0-44.0-1.4","SS1613099615233","trial","","40","800","2873.0550000444055","images/stimuli/spore_stims/simple_12_B_c.gif","images/stimuli/spore_stims/simple_12_A_c.gif","","","","","12","simple_similar","images/stimuli/spore_stims/simple_12_A_c.gif","middle","","","","",""
"","null","html-keyboard-response","234","775535","0.0-44.0-0.5","SS1613099615233","","","null","","","","","<p><img src= images/blank.png width =""200"" height = ""200"" style = ""float:right""></p><p><img src=images/blank.png width =""800"" height = ""200""></p>","","","","","","","","","","","",""
"","523.7400000914931","sequential-stimulus-presentation","235","776872","0.0-44.0-1.5","SS1613099615233","trial","","40","800","1323.7400000914931","images/stimuli/spore_stims/simple_12_B_c.gif","images/stimuli/spore_stims/simple_12_A_c.gif","","","","","12","simple_similar","images/stimuli/spore_stims/simple_12_A_c.gif","middle","","","","",""
"","null","html-keyboard-response","236","778091","0.0-44.0-0.6","SS1613099615233","","","null","","","","","<p><img src= images/blank.png width =""200"" height = ""200"" style = ""float:right""></p><p><img src=images/blank.png width =""800"" height = ""200""></p>","","","","","","","","","","","",""
"","7445.550000062212","sequential-stimulus-presentation","237","786357","0.0-44.0-1.6","SS1613099615233","trial","","40","800","8245.550000062212","images/stimuli/spore_stims/simple_12_B_c.gif","images/stimuli/spore_stims/simple_12_A_c.gif","","","","","12","simple_similar","images/stimuli/spore_stims/simple_12_B_c.gif","right","","","","",""
"","null","html-keyboard-response","238","787329","0.0-44.0-0.7","SS1613099615233","","","null","","","","","<p><img src= images/blank.png width =""200"" height = ""200"" style = ""float:right""></p><p><img src=images/blank.png width =""800"" height = ""200""></p>","","","","","","","","","","","",""
"","6043.0699998978525","sequential-stimulus-presentation","239","794213","0.0-44.0-1.7","SS1613099615233","trial","","40","800","6843.0699998978525","images/stimuli/spore_stims/simple_12_B_c.gif","images/stimuli/spore_stims/simple_12_A_c.gif","","","","","12","simple_similar","images/stimuli/spore_stims/simple_12_A_c.gif","middle","","","","",""
"","2229.829999851063","html-keyboard-response","240","796454","0.0-45.0","SS1613099615233","pref_question","","97","","","","","<video width ='960' height = '540' style='padding-top:8%' autoplay muted><source src='images/stimuli/wall_pref.mp4' type='video/mp4'></video>","1","left","25%","12","","","","","","","",""
"","2795.18000013195","sequential-stimulus-presentation","241","800070","0.0-46.0","SS1613099615233","pref_reveal","","40","800","3595.18000013195","null","null","","","","","12","","","","novel","","","",""
"","null","html-keyboard-response","242","800940","0.0-47.0-0.0","SS1613099615233","","","null","","","","","<p><img src= images/blank.png width =""200"" height = ""200"" style = ""float:right""></p><p><img src=images/blank.png width =""800"" height = ""200""></p>","","","","","","","","","","","",""
"","1838.9850000385195","sequential-stimulus-presentation","243","803589","0.0-47.0-1.0","SS1613099615233","trial","","40","800","2638.9850000385195","images/stimuli/spore_stims/simple_08_A_a.gif","images/stimuli/spore_stims/simple_08_B_a.gif","","","","","13","simple_similar","images/stimuli/spore_stims/simple_08_B_a.gif","left","","","","",""
"","null","html-keyboard-response","244","804720","0.0-47.0-0.1","SS1613099615233","","","null","","","","","<p><img src= images/blank.png width =""200"" height = ""200"" style = ""float:right""></p><p><img src=images/blank.png width =""800"" height = ""200""></p>","","","","","","","","","","","",""
"","1963.1650000810623","sequential-stimulus-presentation","245","807492","0.0-47.0-1.1","SS1613099615233","trial","","40","800","2763.1650000810623","images/stimuli/spore_stims/simple_08_A_a.gif","images/stimuli/spore_stims/simple_08_B_a.gif","","","","","13","simple_similar","images/stimuli/spore_stims/simple_08_B_a.gif","left","","","","",""
"","null","html-keyboard-response","246","808608","0.0-47.0-0.2","SS1613099615233","","","null","","","","","<p><img src= images/blank.png width =""200"" height = ""200"" style = ""float:right""></p><p><img src=images/blank.png width =""800"" height = ""200""></p>","","","","","","","","","","","",""
"","2028.995000058785","sequential-stimulus-presentation","247","811461","0.0-47.0-1.2","SS1613099615233","trial","","40","800","2828.995000058785","images/stimuli/spore_stims/simple_08_A_a.gif","images/stimuli/spore_stims/simple_08_B_a.gif","","","","","13","simple_similar","images/stimuli/spore_stims/simple_08_A_a.gif","right","","","","",""
"","null","html-keyboard-response","248","812652","0.0-47.0-0.3","SS1613099615233","","","null","","","","","<p><img src= images/blank.png width =""200"" height = ""200"" style = ""float:right""></p><p><img src=images/blank.png width =""800"" height = ""200""></p>","","","","","","","","","","","",""
"","1338.4099998511374","sequential-stimulus-presentation","249","814821","0.0-47.0-1.3","SS1613099615233","trial","","40","800","2138.4099998511374","images/stimuli/spore_stims/simple_08_A_a.gif","images/stimuli/spore_stims/simple_08_B_a.gif","","","","","13","simple_similar","images/stimuli/spore_stims/simple_08_B_a.gif","left","","","","",""
"","null","html-keyboard-response","250","815823","0.0-47.0-0.4","SS1613099615233","","","null","","","","","<p><img src= images/blank.png width =""200"" height = ""200"" style = ""float:right""></p><p><img src=images/blank.png width =""800"" height = ""200""></p>","","","","","","","","","","","",""
"","841.7199999094009","sequential-stimulus-presentation","251","817476","0.0-47.0-1.4","SS1613099615233","trial","","40","800","1641.719999909401","images/stimuli/spore_stims/simple_08_A_a.gif","images/stimuli/spore_stims/simple_08_B_a.gif","","","","","13","simple_similar","images/stimuli/spore_stims/simple_08_B_a.gif","left","","","","",""
"","null","html-keyboard-response","252","818288","0.0-47.0-0.5","SS1613099615233","","","null","","","","","<p><img src= images/blank.png width =""200"" height = ""200"" style = ""float:right""></p><p><img src=images/blank.png width =""800"" height = ""200""></p>","","","","","","","","","","","",""
"","659.2350001446903","sequential-stimulus-presentation","253","819764","0.0-47.0-1.5","SS1613099615233","trial","","40","800","1459.2350001446903","images/stimuli/spore_stims/simple_08_A_a.gif","images/stimuli/spore_stims/simple_08_B_a.gif","","","","","13","simple_similar","images/stimuli/spore_stims/simple_08_B_a.gif","left","","","","",""
"","null","html-keyboard-response","254","820936","0.0-47.0-0.6","SS1613099615233","","","null","","","","","<p><img src= images/blank.png width =""200"" height = ""200"" style = ""float:right""></p><p><img src=images/blank.png width =""800"" height = ""200""></p>","","","","","","","","","","","",""
"","561.2749999854714","sequential-stimulus-presentation","255","822309","0.0-47.0-1.6","SS1613099615233","trial","","40","800","1361.2749999854714","images/stimuli/spore_stims/simple_08_A_a.gif","images/stimuli/spore_stims/simple_08_B_a.gif","","","","","13","simple_similar","images/stimuli/spore_stims/simple_08_B_a.gif","left","","","","",""
"","null","html-keyboard-response","256","823322","0.0-47.0-0.7","SS1613099615233","","","null","","","","","<p><img src= images/blank.png width =""200"" height = ""200"" style = ""float:right""></p><p><img src=images/blank.png width =""800"" height = ""200""></p>","","","","","","","","","","","",""
"","470.74000001884997","sequential-stimulus-presentation","257","824612","0.0-47.0-1.7","SS1613099615233","trial","","40","800","1270.74000001885","images/stimuli/spore_stims/simple_08_A_a.gif","images/stimuli/spore_stims/simple_08_B_a.gif","","","","","13","simple_similar","images/stimuli/spore_stims/simple_08_B_a.gif","left","","","","",""
"","2064.460000023246","html-keyboard-response","258","826684","0.0-48.0","SS1613099615233","pref_question","","98","","","","","<video width ='960' height = '540' style='padding-top:8%' autoplay muted><source src='images/stimuli/wall_pref.mp4' type='video/mp4'></video>","2","middle","45%","13","","","","","","","",""
"","2130.8599999174476","sequential-stimulus-presentation","259","829641","0.0-49.0","SS1613099615233","pref_reveal","","40","800","2930.8599999174476","null","null","","","","","13","","","","novel","","","",""
"","null","html-keyboard-response","260","830878","0.0-50.0-0.0","SS1613099615233","","","null","","","","","<p><img src= images/blank.png width =""200"" height = ""200"" style = ""float:right""></p><p><img src=images/blank.png width =""800"" height = ""200""></p>","","","","","","","","","","","",""
"","3785.799999954179","sequential-stimulus-presentation","261","835510","0.0-50.0-1.0","SS1613099615233","trial","","40","800","4585.799999954179","images/stimuli/spore_stims/complex_19_B_a.gif","images/stimuli/spore_stims/complex_19_A_a.gif","","","","","14","complex_similar","images/stimuli/spore_stims/complex_19_A_a.gif","right","","","","",""
"","null","html-keyboard-response","262","836710","0.0-50.0-0.1","SS1613099615233","","","null","","","","","<p><img src= images/blank.png width =""200"" height = ""200"" style = ""float:right""></p><p><img src=images/blank.png width =""800"" height = ""200""></p>","","","","","","","","","","","",""
"","2736.079999944195","sequential-stimulus-presentation","263","840253","0.0-50.0-1.1","SS1613099615233","trial","","40","800","3536.079999944195","images/stimuli/spore_stims/complex_19_B_a.gif","images/stimuli/spore_stims/complex_19_A_a.gif","","","","","14","complex_similar","images/stimuli/spore_stims/complex_19_A_a.gif","right","","","","",""
"","null","html-keyboard-response","264","841530","0.0-50.0-0.2","SS1613099615233","","","null","","","","","<p><img src= images/blank.png width =""200"" height = ""200"" style = ""float:right""></p><p><img src=images/blank.png width =""800"" height = ""200""></p>","","","","","","","","","","","",""
"","564.2949999310076","sequential-stimulus-presentation","265","842909","0.0-50.0-1.2","SS1613099615233","trial","","40","800","1364.2949999310076","images/stimuli/spore_stims/complex_19_B_a.gif","images/stimuli/spore_stims/complex_19_A_a.gif","","","","","14","complex_similar","images/stimuli/spore_stims/complex_19_A_a.gif","right","","","","",""
"","null","html-keyboard-response","266","843991","0.0-50.0-0.3","SS1613099615233","","","null","","","","","<p><img src= images/blank.png width =""200"" height = ""200"" style = ""float:right""></p><p><img src=images/blank.png width =""800"" height = ""200""></p>","","","","","","","","","","","",""
"","915.0000000372529","sequential-stimulus-presentation","267","845726","0.0-50.0-1.3","SS1613099615233","trial","","40","800","1715.000000037253","images/stimuli/spore_stims/complex_19_B_a.gif","images/stimuli/spore_stims/complex_19_A_a.gif","","","","","14","complex_similar","images/stimuli/spore_stims/complex_19_A_a.gif","right","","","","",""
"","null","html-keyboard-response","268","846812","0.0-50.0-0.4","SS1613099615233","","","null","","","","","<p><img src= images/blank.png width =""200"" height = ""200"" style = ""float:right""></p><p><img src=images/blank.png width =""800"" height = ""200""></p>","","","","","","","","","","","",""
"","595.8549999631941","sequential-stimulus-presentation","269","848216","0.0-50.0-1.4","SS1613099615233","trial","","40","800","1395.8549999631941","images/stimuli/spore_stims/complex_19_B_a.gif","images/stimuli/spore_stims/complex_19_A_a.gif","","","","","14","complex_similar","images/stimuli/spore_stims/complex_19_A_a.gif","right","","","","",""
"","null","html-keyboard-response","270","849298","0.0-50.0-0.5","SS1613099615233","","","null","","","","","<p><img src= images/blank.png width =""200"" height = ""200"" style = ""float:right""></p><p><img src=images/blank.png width =""800"" height = ""200""></p>","","","","","","","","","","","",""
"","2574.219999834895","sequential-stimulus-presentation","271","852686","0.0-50.0-1.5","SS1613099615233","trial","","40","800","3374.219999834895","images/stimuli/spore_stims/complex_19_B_a.gif","images/stimuli/spore_stims/complex_19_A_a.gif","","","","","14","complex_similar","images/stimuli/spore_stims/complex_19_B_a.gif","middle","","","","",""
"","null","html-keyboard-response","272","853917","0.0-50.0-0.6","SS1613099615233","","","null","","","","","<p><img src= images/blank.png width =""200"" height = ""200"" style = ""float:right""></p><p><img src=images/blank.png width =""800"" height = ""200""></p>","","","","","","","","","","","",""
"","1853.3349998760968","sequential-stimulus-presentation","273","856590","0.0-50.0-1.6","SS1613099615233","trial","","40","800","2653.334999876097","images/stimuli/spore_stims/complex_19_B_a.gif","images/stimuli/spore_stims/complex_19_A_a.gif","","","","","14","complex_similar","images/stimuli/spore_stims/complex_19_A_a.gif","right","","","","",""
"","null","html-keyboard-response","274","857575","0.0-50.0-0.7","SS1613099615233","","","null","","","","","<p><img src= images/blank.png width =""200"" height = ""200"" style = ""float:right""></p><p><img src=images/blank.png width =""800"" height = ""200""></p>","","","","","","","","","","","",""
"","651.4350001234561","sequential-stimulus-presentation","275","859053","0.0-50.0-1.7","SS1613099615233","trial","","40","800","1451.4350001234561","images/stimuli/spore_stims/complex_19_B_a.gif","images/stimuli/spore_stims/complex_19_A_a.gif","","","","","14","complex_similar","images/stimuli/spore_stims/complex_19_A_a.gif","right","","","","",""
"","2846.495000179857","html-keyboard-response","276","861909","0.0-51.0","SS1613099615233","pref_question","","97","","","","","<video width ='960' height = '540' style='padding-top:8%' autoplay muted><source src='images/stimuli/wall_pref.mp4' type='video/mp4'></video>","1","left","25%","14","","","","","","","",""
"","4725.790000054985","sequential-stimulus-presentation","277","867446","0.0-52.0","SS1613099615233","pref_reveal","","40","800","5525.790000054985","null","null","","","","","14","","","","novel","","","",""
"","null","html-keyboard-response","278","868582","0.0-53.0-0.0","SS1613099615233","","","null","","","","","<p><img src= images/blank.png width =""200"" height = ""200"" style = ""float:right""></p><p><img src=images/blank.png width =""800"" height = ""200""></p>","","","","","","","","","","","",""
"","1674.3550000246614","sequential-stimulus-presentation","279","871093","0.0-53.0-1.0","SS1613099615233","trial","","40","800","2474.3550000246614","images/stimuli/spore_stims/complex_04_B_b.gif","images/stimuli/spore_stims/complex_15_A_a.gif","","","","","15","complex_dissimilar","images/stimuli/spore_stims/complex_15_A_a.gif","right","","","","",""
"","null","html-keyboard-response","280","872125","0.0-53.0-0.1","SS1613099615233","","","null","","","","","<p><img src= images/blank.png width =""200"" height = ""200"" style = ""float:right""></p><p><img src=images/blank.png width =""800"" height = ""200""></p>","","","","","","","","","","","",""
"","547.6400000043213","sequential-stimulus-presentation","281","873493","0.0-53.0-1.1","SS1613099615233","trial","","40","800","1347.6400000043213","images/stimuli/spore_stims/complex_04_B_b.gif","images/stimuli/spore_stims/complex_15_A_a.gif","","","","","15","complex_dissimilar","images/stimuli/spore_stims/complex_15_A_a.gif","right","","","","",""
"","null","html-keyboard-response","282","874664","0.0-53.0-0.2","SS1613099615233","","","null","","","","","<p><img src= images/blank.png width =""200"" height = ""200"" style = ""float:right""></p><p><img src=images/blank.png width =""800"" height = ""200""></p>","","","","","","","","","","","",""
"","1135.7150000985712","sequential-stimulus-presentation","283","876614","0.0-53.0-1.2","SS1613099615233","trial","","40","800","1935.7150000985712","images/stimuli/spore_stims/complex_04_B_b.gif","images/stimuli/spore_stims/complex_15_A_a.gif","","","","","15","complex_dissimilar","images/stimuli/spore_stims/complex_04_B_b.gif","middle","","","","",""
"","null","html-keyboard-response","284","877797","0.0-53.0-0.3","SS1613099615233","","","null","","","","","<p><img src= images/blank.png width =""200"" height = ""200"" style = ""float:right""></p><p><img src=images/blank.png width =""800"" height = ""200""></p>","","","","","","","","","","","",""
"","994.6449999697506","sequential-stimulus-presentation","285","879613","0.0-53.0-1.3","SS1613099615233","trial","","40","800","1794.6449999697506","images/stimuli/spore_stims/complex_04_B_b.gif","images/stimuli/spore_stims/complex_15_A_a.gif","","","","","15","complex_dissimilar","images/stimuli/spore_stims/complex_15_A_a.gif","right","","","","",""
"","null","html-keyboard-response","286","880565","0.0-53.0-0.4","SS1613099615233","","","null","","","","","<p><img src= images/blank.png width =""200"" height = ""200"" style = ""float:right""></p><p><img src=images/blank.png width =""800"" height = ""200""></p>","","","","","","","","","","","",""
"","3836.475000018254","sequential-stimulus-presentation","287","885213","0.0-53.0-1.4","SS1613099615233","trial","","40","800","4636.475000018254","images/stimuli/spore_stims/complex_04_B_b.gif","images/stimuli/spore_stims/complex_15_A_a.gif","","","","","15","complex_dissimilar","images/stimuli/spore_stims/complex_15_A_a.gif","right","","","","",""
"","null","html-keyboard-response","288","886060","0.0-53.0-0.5","SS1613099615233","","","null","","","","","<p><img src= images/blank.png width =""200"" height = ""200"" style = ""float:right""></p><p><img src=images/blank.png width =""800"" height = ""200""></p>","","","","","","","","","","","",""
"","541.9600000604987","sequential-stimulus-presentation","289","887413","0.0-53.0-1.5","SS1613099615233","trial","","40","800","1341.9600000604987","images/stimuli/spore_stims/complex_04_B_b.gif","images/stimuli/spore_stims/complex_15_A_a.gif","","","","","15","complex_dissimilar","images/stimuli/spore_stims/complex_15_A_a.gif","right","","","","",""
"","null","html-keyboard-response","290","888686","0.0-53.0-0.6","SS1613099615233","","","null","","","","","<p><img src= images/blank.png width =""200"" height = ""200"" style = ""float:right""></p><p><img src=images/blank.png width =""800"" height = ""200""></p>","","","","","","","","","","","",""
"","771.9900000374764","sequential-stimulus-presentation","291","890279","0.0-53.0-1.6","SS1613099615233","trial","","40","800","1571.9900000374764","images/stimuli/spore_stims/complex_04_B_b.gif","images/stimuli/spore_stims/complex_15_A_a.gif","","","","","15","complex_dissimilar","images/stimuli/spore_stims/complex_15_A_a.gif","right","","","","",""
"","null","html-keyboard-response","292","891513","0.0-53.0-0.7","SS1613099615233","","","null","","","","","<p><img src= images/blank.png width =""200"" height = ""200"" style = ""float:right""></p><p><img src=images/blank.png width =""800"" height = ""200""></p>","","","","","","","","","","","",""
"","1645.1350001152605","sequential-stimulus-presentation","293","893973","0.0-53.0-1.7","SS1613099615233","trial","","40","800","2445.1350001152605","images/stimuli/spore_stims/complex_04_B_b.gif","images/stimuli/spore_stims/complex_15_A_a.gif","","","","","15","complex_dissimilar","images/stimuli/spore_stims/complex_15_A_a.gif","right","","","","",""
"","2173.75999991782","html-keyboard-response","294","896157","0.0-54.0","SS1613099615233","pref_question","","98","","","","","<video width ='960' height = '540' style='padding-top:8%' autoplay muted><source src='images/stimuli/wall_pref.mp4' type='video/mp4'></video>","2","middle","45%","15","","","","","","","",""
"","2214.7049999330193","sequential-stimulus-presentation","295","899189","0.0-55.0","SS1613099615233","pref_reveal","","40","800","3014.7049999330193","null","null","","","","","15","","","","deviant","","","",""
"","null","html-keyboard-response","296","900409","0.0-56.0-0.0","SS1613099615233","","","null","","","","","<p><img src= images/blank.png width =""200"" height = ""200"" style = ""float:right""></p><p><img src=images/blank.png width =""800"" height = ""200""></p>","","","","","","","","","","","",""
"","2381.654999917373","sequential-stimulus-presentation","297","903614","0.0-56.0-1.0","SS1613099615233","trial","","40","800","3181.654999917373","images/stimuli/spore_stims/simple_13_A_b.gif","images/stimuli/spore_stims/simple_13_B_b.gif","","","","","16","simple_similar","images/stimuli/spore_stims/simple_13_B_b.gif","right","","","","",""
"","null","html-keyboard-response","298","904830","0.0-56.0-0.1","SS1613099615233","","","null","","","","","<p><img src= images/blank.png width =""200"" height = ""200"" style = ""float:right""></p><p><img src=images/blank.png width =""800"" height = ""200""></p>","","","","","","","","","","","",""
"","2129.135000053793","sequential-stimulus-presentation","299","907782","0.0-56.0-1.1","SS1613099615233","trial","","40","800","2929.135000053793","images/stimuli/spore_stims/simple_13_A_b.gif","images/stimuli/spore_stims/simple_13_B_b.gif","","","","","16","simple_similar","images/stimuli/spore_stims/simple_13_B_b.gif","right","","","","",""
"","null","html-keyboard-response","300","908767","0.0-56.0-0.2","SS1613099615233","","","null","","","","","<p><img src= images/blank.png width =""200"" height = ""200"" style = ""float:right""></p><p><img src=images/blank.png width =""800"" height = ""200""></p>","","","","","","","","","","","",""
"","2022.6850002072752","sequential-stimulus-presentation","301","911605","0.0-56.0-1.2","SS1613099615233","trial","","40","800","2822.685000207275","images/stimuli/spore_stims/simple_13_A_b.gif","images/stimuli/spore_stims/simple_13_B_b.gif","","","","","16","simple_similar","images/stimuli/spore_stims/simple_13_A_b.gif","middle","","","","",""
"","null","html-keyboard-response","302","912855","0.0-56.0-0.3","SS1613099615233","","","null","","","","","<p><img src= images/blank.png width =""200"" height = ""200"" style = ""float:right""></p><p><img src=images/blank.png width =""800"" height = ""200""></p>","","","","","","","","","","","",""
"","1764.7150000557303","sequential-stimulus-presentation","303","915462","0.0-56.0-1.3","SS1613099615233","trial","","40","800","2564.7150000557303","images/stimuli/spore_stims/simple_13_A_b.gif","images/stimuli/spore_stims/simple_13_B_b.gif","","","","","16","simple_similar","images/stimuli/spore_stims/simple_13_B_b.gif","right","","","","",""
"","null","html-keyboard-response","304","916741","0.0-56.0-0.4","SS1613099615233","","","null","","","","","<p><img src= images/blank.png width =""200"" height = ""200"" style = ""float:right""></p><p><img src=images/blank.png width =""800"" height = ""200""></p>","","","","","","","","","","","",""
"","466.3299999665469","sequential-stimulus-presentation","305","918021","0.0-56.0-1.4","SS1613099615233","trial","","40","800","1266.329999966547","images/stimuli/spore_stims/simple_13_A_b.gif","images/stimuli/spore_stims/simple_13_B_b.gif","","","","","16","simple_similar","images/stimuli/spore_stims/simple_13_B_b.gif","right","","","","",""
"","null","html-keyboard-response","306","919093","0.0-56.0-0.5","SS1613099615233","","","null","","","","","<p><img src= images/blank.png width =""200"" height = ""200"" style = ""float:right""></p><p><img src=images/blank.png width =""800"" height = ""200""></p>","","","","","","","","","","","",""
"","451.6449999064207","sequential-stimulus-presentation","307","920366","0.0-56.0-1.5","SS1613099615233","trial","","40","800","1251.6449999064207","images/stimuli/spore_stims/simple_13_A_b.gif","images/stimuli/spore_stims/simple_13_B_b.gif","","","","","16","simple_similar","images/stimuli/spore_stims/simple_13_B_b.gif","right","","","","",""
"","null","html-keyboard-response","308","921177","0.0-56.0-0.6","SS1613099615233","","","null","","","","","<p><img src= images/blank.png width =""200"" height = ""200"" style = ""float:right""></p><p><img src=images/blank.png width =""800"" height = ""200""></p>","","","","","","","","","","","",""
"","698.9949999842793","sequential-stimulus-presentation","309","922685","0.0-56.0-1.6","SS1613099615233","trial","","40","800","1498.9949999842793","images/stimuli/spore_stims/simple_13_A_b.gif","images/stimuli/spore_stims/simple_13_B_b.gif","","","","","16","simple_similar","images/stimuli/spore_stims/simple_13_B_b.gif","right","","","","",""
"","null","html-keyboard-response","310","923926","0.0-56.0-0.7","SS1613099615233","","","null","","","","","<p><img src= images/blank.png width =""200"" height = ""200"" style = ""float:right""></p><p><img src=images/blank.png width =""800"" height = ""200""></p>","","","","","","","","","","","",""
"","615.1300000492483","sequential-stimulus-presentation","311","925365","0.0-56.0-1.7","SS1613099615233","trial","","40","800","1415.1300000492483","images/stimuli/spore_stims/simple_13_A_b.gif","images/stimuli/spore_stims/simple_13_B_b.gif","","","","","16","simple_similar","images/stimuli/spore_stims/simple_13_B_b.gif","right","","","","",""
"","3016.079999972135","html-keyboard-response","312","928388","0.0-57.0","SS1613099615233","pref_question","","97","","","","","<video width ='960' height = '540' style='padding-top:8%' autoplay muted><source src='images/stimuli/wall_pref.mp4' type='video/mp4'></video>","1","left","25%","16","","","","","","","",""
