"view_history","rt","trial_type","trial_index","time_elapsed","internal_node_id","subject","stimulus_type","trial_stimulus","key_press","minimum_viewing_duration","trial_looking_time","block_deviant","block_background","stimulus","wall_pref","location","location_percent","block_number","block_type","stimulus_displayed","position_displayed","stim_type_selected","responses","question_order","stimulus_left","stimulus_right"
"[{""page_index"":0,""viewing_time"":156113.48500000895}]","156114.08500000834","instructions","0","156118","0.0-0.0","SS1613103369725","","","","","","","","","","","","","","","","","","","",""
"[{""page_index"":0,""viewing_time"":1315.4799999902025},{""page_index"":1,""viewing_time"":2503.6350000009406}]","3819.5399999967776","instructions","1","161941","0.0-1.0","SS1613103369725","instructions","","","","","","","","","","","","","","","","","","",""
"","9716.95999999065","sequential-stimulus-presentation","2","172483","0.0-2.0","SS1613103369725","","","40","800","10516.95999999065","null","null","","","","","","","","","","","","",""
"","7431.7449999798555","sequential-stimulus-presentation","3","180721","0.0-3.0","SS1613103369725","","","40","800","8231.744999979855","null","null","","","","","","","","","","","","",""
"[{""page_index"":0,""viewing_time"":1689.8999999975786}]","1690.260000003036","instructions","4","182413","0.0-4.0","SS1613103369725","instructions","","","","","","","","","","","","","","","","","","",""
"","15030.885000014678","html-keyboard-response","5","197449","0.0-5.0","SS1613103369725","instructions","","98","","","","","<video width ='960' height = '540' autoplay muted><source src='images/stimuli/wall_pref.mp4' type='video/mp4'></video>","2","middle","45%","","","","","","","","",""
"","3582.7750000171363","sequential-stimulus-presentation","6","201840","0.0-6.0","SS1613103369725","pref_reveal","","40","800","4382.775000017136","null","null","","","","","","","","","","","","",""
"[{""page_index"":0,""viewing_time"":1642.359999998007},{""page_index"":1,""viewing_time"":2703.9850000001024},{""page_index"":2,""viewing_time"":1287.9749999847263},{""page_index"":3,""viewing_time"":1567.960000014864}]","7202.62999998522","instructions","7","209044","0.0-7.0","SS1613103369725","instructions","","","","","","","","","","","","","","","","","","",""
"","null","html-keyboard-response","8","209930","0.0-8.0-0.0","SS1613103369725","","","null","","","","","<p><img src= images/blank.png width =""200"" height = ""200"" style = ""float:right""></p><p><img src=images/blank.png width =""800"" height = ""200""></p>","","","","","","","","","","","",""
"","4262.259999988601","sequential-stimulus-presentation","9","215002","0.0-8.0-1.0","SS1613103369725","trial","","40","800","5062.259999988601","images/stimuli/spore_stims/complex_02_B_a.gif","images/stimuli/spore_stims/complex_04_A_a.gif","","","","","0","complex_dissimilar","images/stimuli/spore_stims/complex_04_A_a.gif","right","","","","",""
"","null","html-keyboard-response","10","216007","0.0-8.0-0.1","SS1613103369725","","","null","","","","","<p><img src= images/blank.png width =""200"" height = ""200"" style = ""float:right""></p><p><img src=images/blank.png width =""800"" height = ""200""></p>","","","","","","","","","","","",""
"","723.1900000188034","sequential-stimulus-presentation","11","217537","0.0-8.0-1.1","SS1613103369725","trial","","40","800","1523.1900000188034","images/stimuli/spore_stims/complex_02_B_a.gif","images/stimuli/spore_stims/complex_04_A_a.gif","","","","","0","complex_dissimilar","images/stimuli/spore_stims/complex_04_A_a.gif","right","","","","",""
"","null","html-keyboard-response","12","218700","0.0-8.0-0.2","SS1613103369725","","","null","","","","","<p><img src= images/blank.png width =""200"" height = ""200"" style = ""float:right""></p><p><img src=images/blank.png width =""800"" height = ""200""></p>","","","","","","","","","","","",""
"","459.9400000006426","sequential-stimulus-presentation","13","219969","0.0-8.0-1.2","SS1613103369725","trial","","40","800","1259.9400000006426","images/stimuli/spore_stims/complex_02_B_a.gif","images/stimuli/spore_stims/complex_04_A_a.gif","","","","","0","complex_dissimilar","images/stimuli/spore_stims/complex_04_A_a.gif","right","","","","",""
"","null","html-keyboard-response","14","220851","0.0-8.0-0.3","SS1613103369725","","","null","","","","","<p><img src= images/blank.png width =""200"" height = ""200"" style = ""float:right""></p><p><img src=images/blank.png width =""800"" height = ""200""></p>","","","","","","","","","","","",""
"","1079.6449999907054","sequential-stimulus-presentation","15","222737","0.0-8.0-1.3","SS1613103369725","trial","","40","800","1879.6449999907054","images/stimuli/spore_stims/complex_02_B_a.gif","images/stimuli/spore_stims/complex_04_A_a.gif","","","","","0","complex_dissimilar","images/stimuli/spore_stims/complex_04_A_a.gif","right","","","","",""
"","null","html-keyboard-response","16","223849","0.0-8.0-0.4","SS1613103369725","","","null","","","","","<p><img src= images/blank.png width =""200"" height = ""200"" style = ""float:right""></p><p><img src=images/blank.png width =""800"" height = ""200""></p>","","","","","","","","","","","",""
"","193.15999999525957","sequential-stimulus-presentation","17","224849","0.0-8.0-1.4","SS1613103369725","trial","","40","800","993.1599999952596","images/stimuli/spore_stims/complex_02_B_a.gif","images/stimuli/spore_stims/complex_04_A_a.gif","","","","","0","complex_dissimilar","images/stimuli/spore_stims/complex_02_B_a.gif","left","","","","",""
"","null","html-keyboard-response","18","225811","0.0-8.0-0.5","SS1613103369725","","","null","","","","","<p><img src= images/blank.png width =""200"" height = ""200"" style = ""float:right""></p><p><img src=images/blank.png width =""800"" height = ""200""></p>","","","","","","","","","","","",""
"","538.7449999980163","sequential-stimulus-presentation","19","227184","0.0-8.0-1.5","SS1613103369725","trial","","40","800","1338.7449999980163","images/stimuli/spore_stims/complex_02_B_a.gif","images/stimuli/spore_stims/complex_04_A_a.gif","","","","","0","complex_dissimilar","images/stimuli/spore_stims/complex_04_A_a.gif","right","","","","",""
"","null","html-keyboard-response","20","228481","0.0-8.0-0.6","SS1613103369725","","","null","","","","","<p><img src= images/blank.png width =""200"" height = ""200"" style = ""float:right""></p><p><img src=images/blank.png width =""800"" height = ""200""></p>","","","","","","","","","","","",""
"","289.2549999814946","sequential-stimulus-presentation","21","229577","0.0-8.0-1.6","SS1613103369725","trial","","40","800","1089.2549999814946","images/stimuli/spore_stims/complex_02_B_a.gif","images/stimuli/spore_stims/complex_04_A_a.gif","","","","","0","complex_dissimilar","images/stimuli/spore_stims/complex_04_A_a.gif","right","","","","",""
"","null","html-keyboard-response","22","230624","0.0-8.0-0.7","SS1613103369725","","","null","","","","","<p><img src= images/blank.png width =""200"" height = ""200"" style = ""float:right""></p><p><img src=images/blank.png width =""800"" height = ""200""></p>","","","","","","","","","","","",""
"","450.010000000475","sequential-stimulus-presentation","23","231880","0.0-8.0-1.7","SS1613103369725","trial","","40","800","1250.010000000475","images/stimuli/spore_stims/complex_02_B_a.gif","images/stimuli/spore_stims/complex_04_A_a.gif","","","","","0","complex_dissimilar","images/stimuli/spore_stims/complex_04_A_a.gif","right","","","","",""
"","2827.5699999940116","html-keyboard-response","24","234713","0.0-9.0","SS1613103369725","pref_question","","99","","","","","<video width ='960' height = '540' style='padding-top:8%' autoplay muted><source src='images/stimuli/wall_pref.mp4' type='video/mp4'></video>","3","right","66%","0","","","","","","","",""
"","721.7249999812339","sequential-stimulus-presentation","25","236241","0.0-10.0","SS1613103369725","pref_reveal","","40","800","1521.7249999812339","null","null","","","","","0","","","","background","","","",""
"","null","html-keyboard-response","26","237046","0.0-11.0-0.0","SS1613103369725","","","null","","","","","<p><img src= images/blank.png width =""200"" height = ""200"" style = ""float:right""></p><p><img src=images/blank.png width =""800"" height = ""200""></p>","","","","","","","","","","","",""
"","251.86000001849607","sequential-stimulus-presentation","27","238105","0.0-11.0-1.0","SS1613103369725","trial","","40","800","1051.860000018496","images/stimuli/spore_stims/simple_04_B_a.gif","images/stimuli/spore_stims/simple_14_A_c.gif","","","","","1","simple_dissimilar","images/stimuli/spore_stims/simple_14_A_c.gif","left","","","","",""
"","null","html-keyboard-response","28","239153","0.0-11.0-0.1","SS1613103369725","","","null","","","","","<p><img src= images/blank.png width =""200"" height = ""200"" style = ""float:right""></p><p><img src=images/blank.png width =""800"" height = ""200""></p>","","","","","","","","","","","",""
"","914.4749999977648","sequential-stimulus-presentation","29","240872","0.0-11.0-1.1","SS1613103369725","trial","","40","800","1714.4749999977648","images/stimuli/spore_stims/simple_04_B_a.gif","images/stimuli/spore_stims/simple_14_A_c.gif","","","","","1","simple_dissimilar","images/stimuli/spore_stims/simple_14_A_c.gif","left","","","","",""
"","null","html-keyboard-response","30","242065","0.0-11.0-0.2","SS1613103369725","","","null","","","","","<p><img src= images/blank.png width =""200"" height = ""200"" style = ""float:right""></p><p><img src=images/blank.png width =""800"" height = ""200""></p>","","","","","","","","","","","",""
"","1375.9999999892898","sequential-stimulus-presentation","31","244249","0.0-11.0-1.2","SS1613103369725","trial","","40","800","2175.99999998929","images/stimuli/spore_stims/simple_04_B_a.gif","images/stimuli/spore_stims/simple_14_A_c.gif","","","","","1","simple_dissimilar","images/stimuli/spore_stims/simple_04_B_a.gif","middle","","","","",""
"","null","html-keyboard-response","32","245530","0.0-11.0-0.3","SS1613103369725","","","null","","","","","<p><img src= images/blank.png width =""200"" height = ""200"" style = ""float:right""></p><p><img src=images/blank.png width =""800"" height = ""200""></p>","","","","","","","","","","","",""
"","223.79499999806285","sequential-stimulus-presentation","33","246562","0.0-11.0-1.3","SS1613103369725","trial","","40","800","1023.7949999980628","images/stimuli/spore_stims/simple_04_B_a.gif","images/stimuli/spore_stims/simple_14_A_c.gif","","","","","1","simple_dissimilar","images/stimuli/spore_stims/simple_14_A_c.gif","left","","","","",""
"","null","html-keyboard-response","34","247471","0.0-11.0-0.4","SS1613103369725","","","null","","","","","<p><img src= images/blank.png width =""200"" height = ""200"" style = ""float:right""></p><p><img src=images/blank.png width =""800"" height = ""200""></p>","","","","","","","","","","","",""
"","280.8399999921676","sequential-stimulus-presentation","35","248577","0.0-11.0-1.4","SS1613103369725","trial","","40","800","1080.8399999921676","images/stimuli/spore_stims/simple_04_B_a.gif","images/stimuli/spore_stims/simple_14_A_c.gif","","","","","1","simple_dissimilar","images/stimuli/spore_stims/simple_14_A_c.gif","left","","","","",""
"","null","html-keyboard-response","36","249646","0.0-11.0-0.5","SS1613103369725","","","null","","","","","<p><img src= images/blank.png width =""200"" height = ""200"" style = ""float:right""></p><p><img src=images/blank.png width =""800"" height = ""200""></p>","","","","","","","","","","","",""
"","515.8400000073016","sequential-stimulus-presentation","37","250968","0.0-11.0-1.5","SS1613103369725","trial","","40","800","1315.8400000073016","images/stimuli/spore_stims/simple_04_B_a.gif","images/stimuli/spore_stims/simple_14_A_c.gif","","","","","1","simple_dissimilar","images/stimuli/spore_stims/simple_14_A_c.gif","left","","","","",""
"","null","html-keyboard-response","38","251833","0.0-11.0-0.6","SS1613103369725","","","null","","","","","<p><img src= images/blank.png width =""200"" height = ""200"" style = ""float:right""></p><p><img src=images/blank.png width =""800"" height = ""200""></p>","","","","","","","","","","","",""
"","304.7099999967031","sequential-stimulus-presentation","39","252944","0.0-11.0-1.6","SS1613103369725","trial","","40","800","1104.7099999967031","images/stimuli/spore_stims/simple_04_B_a.gif","images/stimuli/spore_stims/simple_14_A_c.gif","","","","","1","simple_dissimilar","images/stimuli/spore_stims/simple_14_A_c.gif","left","","","","",""
"","null","html-keyboard-response","40","253987","0.0-11.0-0.7","SS1613103369725","","","null","","","","","<p><img src= images/blank.png width =""200"" height = ""200"" style = ""float:right""></p><p><img src=images/blank.png width =""800"" height = ""200""></p>","","","","","","","","","","","",""
"","230.5750000232365","sequential-stimulus-presentation","41","255024","0.0-11.0-1.7","SS1613103369725","trial","","40","800","1030.5750000232365","images/stimuli/spore_stims/simple_04_B_a.gif","images/stimuli/spore_stims/simple_14_A_c.gif","","","","","1","simple_dissimilar","images/stimuli/spore_stims/simple_14_A_c.gif","left","","","","",""
"","1395.5950000090525","html-keyboard-response","42","256424","0.0-12.0","SS1613103369725","pref_question","","97","","","","","<video width ='960' height = '540' style='padding-top:8%' autoplay muted><source src='images/stimuli/wall_pref.mp4' type='video/mp4'></video>","1","left","25%","1","","","","","","","",""
"","561.6950000112411","sequential-stimulus-presentation","43","257792","0.0-13.0","SS1613103369725","pref_reveal","","40","800","1361.695000011241","null","null","","","","","1","","","","background","","","",""
"","null","html-keyboard-response","44","258892","0.0-14.0-0.0","SS1613103369725","","","null","","","","","<p><img src= images/blank.png width =""200"" height = ""200"" style = ""float:right""></p><p><img src=images/blank.png width =""800"" height = ""200""></p>","","","","","","","","","","","",""
"","373.2449999952223","sequential-stimulus-presentation","45","260072","0.0-14.0-1.0","SS1613103369725","trial","","40","800","1173.2449999952223","images/stimuli/spore_stims/complex_07_A_c.gif","images/stimuli/spore_stims/complex_20_B_a.gif","","","","","2","complex_dissimilar","images/stimuli/spore_stims/complex_20_B_a.gif","right","","","","",""
"","null","html-keyboard-response","46","261317","0.0-14.0-0.1","SS1613103369725","","","null","","","","","<p><img src= images/blank.png width =""200"" height = ""200"" style = ""float:right""></p><p><img src=images/blank.png width =""800"" height = ""200""></p>","","","","","","","","","","","",""
"","387.4599999981001","sequential-stimulus-presentation","47","262512","0.0-14.0-1.1","SS1613103369725","trial","","40","800","1187.4599999981","images/stimuli/spore_stims/complex_07_A_c.gif","images/stimuli/spore_stims/complex_20_B_a.gif","","","","","2","complex_dissimilar","images/stimuli/spore_stims/complex_20_B_a.gif","right","","","","",""
"","null","html-keyboard-response","48","263589","0.0-14.0-0.2","SS1613103369725","","","null","","","","","<p><img src= images/blank.png width =""200"" height = ""200"" style = ""float:right""></p><p><img src=images/blank.png width =""800"" height = ""200""></p>","","","","","","","","","","","",""
"","332.010000012815","sequential-stimulus-presentation","49","264728","0.0-14.0-1.2","SS1613103369725","trial","","40","800","1132.010000012815","images/stimuli/spore_stims/complex_07_A_c.gif","images/stimuli/spore_stims/complex_20_B_a.gif","","","","","2","complex_dissimilar","images/stimuli/spore_stims/complex_20_B_a.gif","right","","","","",""
"","null","html-keyboard-response","50","265690","0.0-14.0-0.3","SS1613103369725","","","null","","","","","<p><img src= images/blank.png width =""200"" height = ""200"" style = ""float:right""></p><p><img src=images/blank.png width =""800"" height = ""200""></p>","","","","","","","","","","","",""
"","461.7900000012014","sequential-stimulus-presentation","51","266960","0.0-14.0-1.3","SS1613103369725","trial","","40","800","1261.7900000012014","images/stimuli/spore_stims/complex_07_A_c.gif","images/stimuli/spore_stims/complex_20_B_a.gif","","","","","2","complex_dissimilar","images/stimuli/spore_stims/complex_20_B_a.gif","right","","","","",""
"","null","html-keyboard-response","52","267871","0.0-14.0-0.4","SS1613103369725","","","null","","","","","<p><img src= images/blank.png width =""200"" height = ""200"" style = ""float:right""></p><p><img src=images/blank.png width =""800"" height = ""200""></p>","","","","","","","","","","","",""
"","248.410000000149","sequential-stimulus-presentation","53","268928","0.0-14.0-1.4","SS1613103369725","trial","","40","800","1048.410000000149","images/stimuli/spore_stims/complex_07_A_c.gif","images/stimuli/spore_stims/complex_20_B_a.gif","","","","","2","complex_dissimilar","images/stimuli/spore_stims/complex_07_A_c.gif","middle","","","","",""
"","null","html-keyboard-response","54","270060","0.0-14.0-0.5","SS1613103369725","","","null","","","","","<p><img src= images/blank.png width =""200"" height = ""200"" style = ""float:right""></p><p><img src=images/blank.png width =""800"" height = ""200""></p>","","","","","","","","","","","",""
"","253.38000000920147","sequential-stimulus-presentation","55","271120","0.0-14.0-1.5","SS1613103369725","trial","","40","800","1053.3800000092015","images/stimuli/spore_stims/complex_07_A_c.gif","images/stimuli/spore_stims/complex_20_B_a.gif","","","","","2","complex_dissimilar","images/stimuli/spore_stims/complex_20_B_a.gif","right","","","","",""
"","null","html-keyboard-response","56","272185","0.0-14.0-0.6","SS1613103369725","","","null","","","","","<p><img src= images/blank.png width =""200"" height = ""200"" style = ""float:right""></p><p><img src=images/blank.png width =""800"" height = ""200""></p>","","","","","","","","","","","",""
"","336.09999998589046","sequential-stimulus-presentation","57","273352","0.0-14.0-1.6","SS1613103369725","trial","","40","800","1136.0999999858905","images/stimuli/spore_stims/complex_07_A_c.gif","images/stimuli/spore_stims/complex_20_B_a.gif","","","","","2","complex_dissimilar","images/stimuli/spore_stims/complex_20_B_a.gif","right","","","","",""
"","null","html-keyboard-response","58","274210","0.0-14.0-0.7","SS1613103369725","","","null","","","","","<p><img src= images/blank.png width =""200"" height = ""200"" style = ""float:right""></p><p><img src=images/blank.png width =""800"" height = ""200""></p>","","","","","","","","","","","",""
"","429.51499999617226","sequential-stimulus-presentation","59","275449","0.0-14.0-1.7","SS1613103369725","trial","","40","800","1229.5149999961723","images/stimuli/spore_stims/complex_07_A_c.gif","images/stimuli/spore_stims/complex_20_B_a.gif","","","","","2","complex_dissimilar","images/stimuli/spore_stims/complex_20_B_a.gif","right","","","","",""
"","1658.2499999785796","html-keyboard-response","60","277113","0.0-15.0","SS1613103369725","pref_question","","99","","","","","<video width ='960' height = '540' style='padding-top:8%' autoplay muted><source src='images/stimuli/wall_pref.mp4' type='video/mp4'></video>","3","right","66%","2","","","","","","","",""
"","441.08499999856576","sequential-stimulus-presentation","61","278361","0.0-16.0","SS1613103369725","pref_reveal","","40","800","1241.0849999985658","null","null","","","","","2","","","","background","","","",""
"","null","html-keyboard-response","62","279377","0.0-17.0-0.0","SS1613103369725","","","null","","","","","<p><img src= images/blank.png width =""200"" height = ""200"" style = ""float:right""></p><p><img src=images/blank.png width =""800"" height = ""200""></p>","","","","","","","","","","","",""
"","481.4699999988079","sequential-stimulus-presentation","63","280665","0.0-17.0-1.0","SS1613103369725","trial","","40","800","1281.469999998808","images/stimuli/spore_stims/simple_15_B_d.gif","images/stimuli/spore_stims/simple_15_A_d.gif","","","","","3","simple_similar","images/stimuli/spore_stims/simple_15_A_d.gif","left","","","","",""
"","null","html-keyboard-response","64","281514","0.0-17.0-0.1","SS1613103369725","","","null","","","","","<p><img src= images/blank.png width =""200"" height = ""200"" style = ""float:right""></p><p><img src=images/blank.png width =""800"" height = ""200""></p>","","","","","","","","","","","",""
"","303.99999997462146","sequential-stimulus-presentation","65","282625","0.0-17.0-1.1","SS1613103369725","trial","","40","800","1103.9999999746215","images/stimuli/spore_stims/simple_15_B_d.gif","images/stimuli/spore_stims/simple_15_A_d.gif","","","","","3","simple_similar","images/stimuli/spore_stims/simple_15_A_d.gif","left","","","","",""
"","null","html-keyboard-response","66","283836","0.0-17.0-0.2","SS1613103369725","","","null","","","","","<p><img src= images/blank.png width =""200"" height = ""200"" style = ""float:right""></p><p><img src=images/blank.png width =""800"" height = ""200""></p>","","","","","","","","","","","",""
"","318.7800000014249","sequential-stimulus-presentation","67","284961","0.0-17.0-1.2","SS1613103369725","trial","","40","800","1118.780000001425","images/stimuli/spore_stims/simple_15_B_d.gif","images/stimuli/spore_stims/simple_15_A_d.gif","","","","","3","simple_similar","images/stimuli/spore_stims/simple_15_B_d.gif","middle","","","","",""
"","null","html-keyboard-response","68","285793","0.0-17.0-0.3","SS1613103369725","","","null","","","","","<p><img src= images/blank.png width =""200"" height = ""200"" style = ""float:right""></p><p><img src=images/blank.png width =""800"" height = ""200""></p>","","","","","","","","","","","",""
"","271.6550000186544","sequential-stimulus-presentation","69","286873","0.0-17.0-1.3","SS1613103369725","trial","","40","800","1071.6550000186544","images/stimuli/spore_stims/simple_15_B_d.gif","images/stimuli/spore_stims/simple_15_A_d.gif","","","","","3","simple_similar","images/stimuli/spore_stims/simple_15_A_d.gif","left","","","","",""
"","null","html-keyboard-response","70","287793","0.0-17.0-0.4","SS1613103369725","","","null","","","","","<p><img src= images/blank.png width =""200"" height = ""200"" style = ""float:right""></p><p><img src=images/blank.png width =""800"" height = ""200""></p>","","","","","","","","","","","",""
"","297.5950000109151","sequential-stimulus-presentation","71","288897","0.0-17.0-1.4","SS1613103369725","trial","","40","800","1097.595000010915","images/stimuli/spore_stims/simple_15_B_d.gif","images/stimuli/spore_stims/simple_15_A_d.gif","","","","","3","simple_similar","images/stimuli/spore_stims/simple_15_A_d.gif","left","","","","",""
"","null","html-keyboard-response","72","290161","0.0-17.0-0.5","SS1613103369725","","","null","","","","","<p><img src= images/blank.png width =""200"" height = ""200"" style = ""float:right""></p><p><img src=images/blank.png width =""800"" height = ""200""></p>","","","","","","","","","","","",""
"","537.7800000132993","sequential-stimulus-presentation","73","291505","0.0-17.0-1.5","SS1613103369725","trial","","40","800","1337.7800000132993","images/stimuli/spore_stims/simple_15_B_d.gif","images/stimuli/spore_stims/simple_15_A_d.gif","","","","","3","simple_similar","images/stimuli/spore_stims/simple_15_A_d.gif","left","","","","",""
"","null","html-keyboard-response","74","292639","0.0-17.0-0.6","SS1613103369725","","","null","","","","","<p><img src= images/blank.png width =""200"" height = ""200"" style = ""float:right""></p><p><img src=images/blank.png width =""800"" height = ""200""></p>","","","","","","","","","","","",""
"","321.235000010347","sequential-stimulus-presentation","75","293769","0.0-17.0-1.6","SS1613103369725","trial","","40","800","1121.235000010347","images/stimuli/spore_stims/simple_15_B_d.gif","images/stimuli/spore_stims/simple_15_A_d.gif","","","","","3","simple_similar","images/stimuli/spore_stims/simple_15_A_d.gif","left","","","","",""
"","null","html-keyboard-response","76","294779","0.0-17.0-0.7","SS1613103369725","","","null","","","","","<p><img src= images/blank.png width =""200"" height = ""200"" style = ""float:right""></p><p><img src=images/blank.png width =""800"" height = ""200""></p>","","","","","","","","","","","",""
"","589.9649999919347","sequential-stimulus-presentation","77","296176","0.0-17.0-1.7","SS1613103369725","trial","","40","800","1389.9649999919347","images/stimuli/spore_stims/simple_15_B_d.gif","images/stimuli/spore_stims/simple_15_A_d.gif","","","","","3","simple_similar","images/stimuli/spore_stims/simple_15_A_d.gif","left","","","","",""
"","1249.9899999820627","html-keyboard-response","78","297433","0.0-18.0","SS1613103369725","pref_question","","98","","","","","<video width ='960' height = '540' style='padding-top:8%' autoplay muted><source src='images/stimuli/wall_pref.mp4' type='video/mp4'></video>","2","middle","45%","3","","","","","","","",""
"","568.8999999838416","sequential-stimulus-presentation","79","298808","0.0-19.0","SS1613103369725","pref_reveal","","40","800","1368.8999999838416","null","null","","","","","3","","","","deviant","","","",""
"","null","html-keyboard-response","80","299636","0.0-20.0-0.0","SS1613103369725","","","null","","","","","<p><img src= images/blank.png width =""200"" height = ""200"" style = ""float:right""></p><p><img src=images/blank.png width =""800"" height = ""200""></p>","","","","","","","","","","","",""
"","242.4499999906402","sequential-stimulus-presentation","81","300688","0.0-20.0-1.0","SS1613103369725","trial","","40","800","1042.4499999906402","images/stimuli/spore_stims/simple_02_B_a.gif","images/stimuli/spore_stims/simple_02_A_a.gif","","","","","4","simple_similar","images/stimuli/spore_stims/simple_02_A_a.gif","left","","","","",""
"","null","html-keyboard-response","82","301866","0.0-20.0-0.1","SS1613103369725","","","null","","","","","<p><img src= images/blank.png width =""200"" height = ""200"" style = ""float:right""></p><p><img src=images/blank.png width =""800"" height = ""200""></p>","","","","","","","","","","","",""
"","607.5750000018161","sequential-stimulus-presentation","83","303281","0.0-20.0-1.1","SS1613103369725","trial","","40","800","1407.575000001816","images/stimuli/spore_stims/simple_02_B_a.gif","images/stimuli/spore_stims/simple_02_A_a.gif","","","","","4","simple_similar","images/stimuli/spore_stims/simple_02_A_a.gif","left","","","","",""
"","null","html-keyboard-response","84","304376","0.0-20.0-0.2","SS1613103369725","","","null","","","","","<p><img src= images/blank.png width =""200"" height = ""200"" style = ""float:right""></p><p><img src=images/blank.png width =""800"" height = ""200""></p>","","","","","","","","","","","",""
"","393.3850000030361","sequential-stimulus-presentation","85","305576","0.0-20.0-1.2","SS1613103369725","trial","","40","800","1193.385000003036","images/stimuli/spore_stims/simple_02_B_a.gif","images/stimuli/spore_stims/simple_02_A_a.gif","","","","","4","simple_similar","images/stimuli/spore_stims/simple_02_A_a.gif","left","","","","",""
"","null","html-keyboard-response","86","306785","0.0-20.0-0.3","SS1613103369725","","","null","","","","","<p><img src= images/blank.png width =""200"" height = ""200"" style = ""float:right""></p><p><img src=images/blank.png width =""800"" height = ""200""></p>","","","","","","","","","","","",""
"","1463.259999989532","sequential-stimulus-presentation","87","309056","0.0-20.0-1.3","SS1613103369725","trial","","40","800","2263.259999989532","images/stimuli/spore_stims/simple_02_B_a.gif","images/stimuli/spore_stims/simple_02_A_a.gif","","","","","4","simple_similar","images/stimuli/spore_stims/simple_02_B_a.gif","middle","","","","",""
"","null","html-keyboard-response","88","310298","0.0-20.0-0.4","SS1613103369725","","","null","","","","","<p><img src= images/blank.png width =""200"" height = ""200"" style = ""float:right""></p><p><img src=images/blank.png width =""800"" height = ""200""></p>","","","","","","","","","","","",""
"","669.8500000056811","sequential-stimulus-presentation","89","311776","0.0-20.0-1.4","SS1613103369725","trial","","40","800","1469.850000005681","images/stimuli/spore_stims/simple_02_B_a.gif","images/stimuli/spore_stims/simple_02_A_a.gif","","","","","4","simple_similar","images/stimuli/spore_stims/simple_02_A_a.gif","left","","","","",""
"","null","html-keyboard-response","90","312901","0.0-20.0-0.5","SS1613103369725","","","null","","","","","<p><img src= images/blank.png width =""200"" height = ""200"" style = ""float:right""></p><p><img src=images/blank.png width =""800"" height = ""200""></p>","","","","","","","","","","","",""
"","941.209999989951","sequential-stimulus-presentation","91","314649","0.0-20.0-1.5","SS1613103369725","trial","","40","800","1741.209999989951","images/stimuli/spore_stims/simple_02_B_a.gif","images/stimuli/spore_stims/simple_02_A_a.gif","","","","","4","simple_similar","images/stimuli/spore_stims/simple_02_A_a.gif","left","","","","",""
"","null","html-keyboard-response","92","315733","0.0-20.0-0.6","SS1613103369725","","","null","","","","","<p><img src= images/blank.png width =""200"" height = ""200"" style = ""float:right""></p><p><img src=images/blank.png width =""800"" height = ""200""></p>","","","","","","","","","","","",""
"","1354.5800000138115","sequential-stimulus-presentation","93","317896","0.0-20.0-1.6","SS1613103369725","trial","","40","800","2154.5800000138115","images/stimuli/spore_stims/simple_02_B_a.gif","images/stimuli/spore_stims/simple_02_A_a.gif","","","","","4","simple_similar","images/stimuli/spore_stims/simple_02_A_a.gif","left","","","","",""
"","null","html-keyboard-response","94","319172","0.0-20.0-0.7","SS1613103369725","","","null","","","","","<p><img src= images/blank.png width =""200"" height = ""200"" style = ""float:right""></p><p><img src=images/blank.png width =""800"" height = ""200""></p>","","","","","","","","","","","",""
"","511.17499999236315","sequential-stimulus-presentation","95","320488","0.0-20.0-1.7","SS1613103369725","trial","","40","800","1311.1749999923632","images/stimuli/spore_stims/simple_02_B_a.gif","images/stimuli/spore_stims/simple_02_A_a.gif","","","","","4","simple_similar","images/stimuli/spore_stims/simple_02_A_a.gif","left","","","","",""
"","1753.9350000151899","html-keyboard-response","96","322248","0.0-21.0","SS1613103369725","pref_question","","97","","","","","<video width ='960' height = '540' style='padding-top:8%' autoplay muted><source src='images/stimuli/wall_pref.mp4' type='video/mp4'></video>","1","left","25%","4","","","","","","","",""
"","120.26999998488463","sequential-stimulus-presentation","97","323176","0.0-22.0","SS1613103369725","pref_reveal","","40","800","920.2699999848846","null","null","","","","","4","","","","background","","","",""
"","null","html-keyboard-response","98","324163","0.0-23.0-0.0","SS1613103369725","","","null","","","","","<p><img src= images/blank.png width =""200"" height = ""200"" style = ""float:right""></p><p><img src=images/blank.png width =""800"" height = ""200""></p>","","","","","","","","","","","",""
"","500.6199999770615","sequential-stimulus-presentation","99","325472","0.0-23.0-1.0","SS1613103369725","trial","","40","800","1300.6199999770615","images/stimuli/spore_stims/complex_13_B_b.gif","images/stimuli/spore_stims/complex_13_A_b.gif","","","","","5","complex_similar","images/stimuli/spore_stims/complex_13_A_b.gif","left","","","","",""
"","null","html-keyboard-response","100","326494","0.0-23.0-0.1","SS1613103369725","","","null","","","","","<p><img src= images/blank.png width =""200"" height = ""200"" style = ""float:right""></p><p><img src=images/blank.png width =""800"" height = ""200""></p>","","","","","","","","","","","",""
"","305.95499998889863","sequential-stimulus-presentation","101","327608","0.0-23.0-1.1","SS1613103369725","trial","","40","800","1105.9549999888986","images/stimuli/spore_stims/complex_13_B_b.gif","images/stimuli/spore_stims/complex_13_A_b.gif","","","","","5","complex_similar","images/stimuli/spore_stims/complex_13_A_b.gif","left","","","","",""
"","null","html-keyboard-response","102","328635","0.0-23.0-0.2","SS1613103369725","","","null","","","","","<p><img src= images/blank.png width =""200"" height = ""200"" style = ""float:right""></p><p><img src=images/blank.png width =""800"" height = ""200""></p>","","","","","","","","","","","",""
"","426.4549999788869","sequential-stimulus-presentation","103","329872","0.0-23.0-1.2","SS1613103369725","trial","","40","800","1226.454999978887","images/stimuli/spore_stims/complex_13_B_b.gif","images/stimuli/spore_stims/complex_13_A_b.gif","","","","","5","complex_similar","images/stimuli/spore_stims/complex_13_A_b.gif","left","","","","",""
"","null","html-keyboard-response","104","330736","0.0-23.0-0.3","SS1613103369725","","","null","","","","","<p><img src= images/blank.png width =""200"" height = ""200"" style = ""float:right""></p><p><img src=images/blank.png width =""800"" height = ""200""></p>","","","","","","","","","","","",""
"","383.7599999969825","sequential-stimulus-presentation","105","331928","0.0-23.0-1.3","SS1613103369725","trial","","40","800","1183.7599999969825","images/stimuli/spore_stims/complex_13_B_b.gif","images/stimuli/spore_stims/complex_13_A_b.gif","","","","","5","complex_similar","images/stimuli/spore_stims/complex_13_A_b.gif","left","","","","",""
"","null","html-keyboard-response","106","332983","0.0-23.0-0.4","SS1613103369725","","","null","","","","","<p><img src= images/blank.png width =""200"" height = ""200"" style = ""float:right""></p><p><img src=images/blank.png width =""800"" height = ""200""></p>","","","","","","","","","","","",""
"","1121.66000000434","sequential-stimulus-presentation","107","334912","0.0-23.0-1.4","SS1613103369725","trial","","40","800","1921.66000000434","images/stimuli/spore_stims/complex_13_B_b.gif","images/stimuli/spore_stims/complex_13_A_b.gif","","","","","5","complex_similar","images/stimuli/spore_stims/complex_13_A_b.gif","left","","","","",""
"","null","html-keyboard-response","108","335921","0.0-23.0-0.5","SS1613103369725","","","null","","","","","<p><img src= images/blank.png width =""200"" height = ""200"" style = ""float:right""></p><p><img src=images/blank.png width =""800"" height = ""200""></p>","","","","","","","","","","","",""
"","972.8750000067521","sequential-stimulus-presentation","109","337704","0.0-23.0-1.5","SS1613103369725","trial","","40","800","1772.875000006752","images/stimuli/spore_stims/complex_13_B_b.gif","images/stimuli/spore_stims/complex_13_A_b.gif","","","","","5","complex_similar","images/stimuli/spore_stims/complex_13_B_b.gif","middle","","","","",""
"","null","html-keyboard-response","110","338634","0.0-23.0-0.6","SS1613103369725","","","null","","","","","<p><img src= images/blank.png width =""200"" height = ""200"" style = ""float:right""></p><p><img src=images/blank.png width =""800"" height = ""200""></p>","","","","","","","","","","","",""
"","462.2199999867007","sequential-stimulus-presentation","111","339904","0.0-23.0-1.6","SS1613103369725","trial","","40","800","1262.2199999867007","images/stimuli/spore_stims/complex_13_B_b.gif","images/stimuli/spore_stims/complex_13_A_b.gif","","","","","5","complex_similar","images/stimuli/spore_stims/complex_13_A_b.gif","left","","","","",""
"","null","html-keyboard-response","112","340876","0.0-23.0-0.7","SS1613103369725","","","null","","","","","<p><img src= images/blank.png width =""200"" height = ""200"" style = ""float:right""></p><p><img src=images/blank.png width =""800"" height = ""200""></p>","","","","","","","","","","","",""
"","1684.5249999896623","sequential-stimulus-presentation","113","343368","0.0-23.0-1.7","SS1613103369725","trial","","40","800","2484.5249999896623","images/stimuli/spore_stims/complex_13_B_b.gif","images/stimuli/spore_stims/complex_13_A_b.gif","","","","","5","complex_similar","images/stimuli/spore_stims/complex_13_A_b.gif","left","","","","",""
"","1712.6650000282098","html-keyboard-response","114","345088","0.0-24.0","SS1613103369725","pref_question","","97","","","","","<video width ='960' height = '540' style='padding-top:8%' autoplay muted><source src='images/stimuli/wall_pref.mp4' type='video/mp4'></video>","1","left","25%","5","","","","","","","",""
"","393.6399999947753","sequential-stimulus-presentation","115","346288","0.0-25.0","SS1613103369725","pref_reveal","","40","800","1193.6399999947753","null","null","","","","","5","","","","background","","","",""
"","null","html-keyboard-response","116","347405","0.0-26.0-0.0","SS1613103369725","","","null","","","","","<p><img src= images/blank.png width =""200"" height = ""200"" style = ""float:right""></p><p><img src=images/blank.png width =""800"" height = ""200""></p>","","","","","","","","","","","",""
"","3977.2550000052433","sequential-stimulus-presentation","117","352192","0.0-26.0-1.0","SS1613103369725","trial","","40","800","4777.255000005243","images/stimuli/spore_stims/simple_13_B_c.gif","images/stimuli/spore_stims/simple_09_B_d.gif","","","","","6","simple_dissimilar","images/stimuli/spore_stims/simple_09_B_d.gif","left","","","","",""
"","null","html-keyboard-response","118","353267","0.0-26.0-0.1","SS1613103369725","","","null","","","","","<p><img src= images/blank.png width =""200"" height = ""200"" style = ""float:right""></p><p><img src=images/blank.png width =""800"" height = ""200""></p>","","","","","","","","","","","",""
"","2453.0050000175834","sequential-stimulus-presentation","119","356535","0.0-26.0-1.1","SS1613103369725","trial","","40","800","3253.0050000175834","images/stimuli/spore_stims/simple_13_B_c.gif","images/stimuli/spore_stims/simple_09_B_d.gif","","","","","6","simple_dissimilar","images/stimuli/spore_stims/simple_09_B_d.gif","left","","","","",""
"","null","html-keyboard-response","120","357793","0.0-26.0-0.2","SS1613103369725","","","null","","","","","<p><img src= images/blank.png width =""200"" height = ""200"" style = ""float:right""></p><p><img src=images/blank.png width =""800"" height = ""200""></p>","","","","","","","","","","","",""
"","3004.8400000086986","sequential-stimulus-presentation","121","361607","0.0-26.0-1.2","SS1613103369725","trial","","40","800","3804.8400000086986","images/stimuli/spore_stims/simple_13_B_c.gif","images/stimuli/spore_stims/simple_09_B_d.gif","","","","","6","simple_dissimilar","images/stimuli/spore_stims/simple_09_B_d.gif","left","","","","",""
"","null","html-keyboard-response","122","362713","0.0-26.0-0.3","SS1613103369725","","","null","","","","","<p><img src= images/blank.png width =""200"" height = ""200"" style = ""float:right""></p><p><img src=images/blank.png width =""800"" height = ""200""></p>","","","","","","","","","","","",""
"","3085.800000000745","sequential-stimulus-presentation","123","366607","0.0-26.0-1.3","SS1613103369725","trial","","40","800","3885.800000000745","images/stimuli/spore_stims/simple_13_B_c.gif","images/stimuli/spore_stims/simple_09_B_d.gif","","","","","6","simple_dissimilar","images/stimuli/spore_stims/simple_09_B_d.gif","left","","","","",""
"","null","html-keyboard-response","124","367749","0.0-26.0-0.4","SS1613103369725","","","null","","","","","<p><img src= images/blank.png width =""200"" height = ""200"" style = ""float:right""></p><p><img src=images/blank.png width =""800"" height = ""200""></p>","","","","","","","","","","","",""
"","552.8049999848008","sequential-stimulus-presentation","125","369112","0.0-26.0-1.4","SS1613103369725","trial","","40","800","1352.8049999848008","images/stimuli/spore_stims/simple_13_B_c.gif","images/stimuli/spore_stims/simple_09_B_d.gif","","","","","6","simple_dissimilar","images/stimuli/spore_stims/simple_13_B_c.gif","right","","","","",""
"","null","html-keyboard-response","126","370267","0.0-26.0-0.5","SS1613103369725","","","null","","","","","<p><img src= images/blank.png width =""200"" height = ""200"" style = ""float:right""></p><p><img src=images/blank.png width =""800"" height = ""200""></p>","","","","","","","","","","","",""
"","517.2049999819137","sequential-stimulus-presentation","127","371591","0.0-26.0-1.5","SS1613103369725","trial","","40","800","1317.2049999819137","images/stimuli/spore_stims/simple_13_B_c.gif","images/stimuli/spore_stims/simple_09_B_d.gif","","","","","6","simple_dissimilar","images/stimuli/spore_stims/simple_09_B_d.gif","left","","","","",""
"","null","html-keyboard-response","128","372657","0.0-26.0-0.6","SS1613103369725","","","null","","","","","<p><img src= images/blank.png width =""200"" height = ""200"" style = ""float:right""></p><p><img src=images/blank.png width =""800"" height = ""200""></p>","","","","","","","","","","","",""
"","406.11000001081266","sequential-stimulus-presentation","129","373871","0.0-26.0-1.6","SS1613103369725","trial","","40","800","1206.1100000108127","images/stimuli/spore_stims/simple_13_B_c.gif","images/stimuli/spore_stims/simple_09_B_d.gif","","","","","6","simple_dissimilar","images/stimuli/spore_stims/simple_09_B_d.gif","left","","","","",""
"","null","html-keyboard-response","130","374791","0.0-26.0-0.7","SS1613103369725","","","null","","","","","<p><img src= images/blank.png width =""200"" height = ""200"" style = ""float:right""></p><p><img src=images/blank.png width =""800"" height = ""200""></p>","","","","","","","","","","","",""
"","455.8649999962654","sequential-stimulus-presentation","131","376055","0.0-26.0-1.7","SS1613103369725","trial","","40","800","1255.8649999962654","images/stimuli/spore_stims/simple_13_B_c.gif","images/stimuli/spore_stims/simple_09_B_d.gif","","","","","6","simple_dissimilar","images/stimuli/spore_stims/simple_09_B_d.gif","left","","","","",""
"","6329.41999999457","html-keyboard-response","132","382391","0.0-27.0","SS1613103369725","pref_question","","97","","","","","<video width ='960' height = '540' style='padding-top:8%' autoplay muted><source src='images/stimuli/wall_pref.mp4' type='video/mp4'></video>","1","left","25%","6","","","","","","","",""
"","1028.8799999980256","sequential-stimulus-presentation","133","384231","0.0-28.0","SS1613103369725","pref_reveal","","40","800","1828.8799999980256","null","null","","","","","6","","","","background","","","",""
"","null","html-keyboard-response","134","385345","0.0-29.0-0.0","SS1613103369725","","","null","","","","","<p><img src= images/blank.png width =""200"" height = ""200"" style = ""float:right""></p><p><img src=images/blank.png width =""800"" height = ""200""></p>","","","","","","","","","","","",""
"","325.2949999878183","sequential-stimulus-presentation","135","386479","0.0-29.0-1.0","SS1613103369725","trial","","40","800","1125.2949999878183","images/stimuli/spore_stims/simple_02_B_d.gif","images/stimuli/spore_stims/simple_20_B_a.gif","","","","","7","simple_dissimilar","images/stimuli/spore_stims/simple_20_B_a.gif","left","","","","",""
"","null","html-keyboard-response","136","387602","0.0-29.0-0.1","SS1613103369725","","","null","","","","","<p><img src= images/blank.png width =""200"" height = ""200"" style = ""float:right""></p><p><img src=images/blank.png width =""800"" height = ""200""></p>","","","","","","","","","","","",""
"","521.3750000111759","sequential-stimulus-presentation","137","388935","0.0-29.0-1.1","SS1613103369725","trial","","40","800","1321.3750000111759","images/stimuli/spore_stims/simple_02_B_d.gif","images/stimuli/spore_stims/simple_20_B_a.gif","","","","","7","simple_dissimilar","images/stimuli/spore_stims/simple_20_B_a.gif","left","","","","",""
"","null","html-keyboard-response","138","390165","0.0-29.0-0.2","SS1613103369725","","","null","","","","","<p><img src= images/blank.png width =""200"" height = ""200"" style = ""float:right""></p><p><img src=images/blank.png width =""800"" height = ""200""></p>","","","","","","","","","","","",""
"","280.73999998741783","sequential-stimulus-presentation","139","391254","0.0-29.0-1.2","SS1613103369725","trial","","40","800","1080.7399999874178","images/stimuli/spore_stims/simple_02_B_d.gif","images/stimuli/spore_stims/simple_20_B_a.gif","","","","","7","simple_dissimilar","images/stimuli/spore_stims/simple_20_B_a.gif","left","","","","",""
"","null","html-keyboard-response","140","392255","0.0-29.0-0.3","SS1613103369725","","","null","","","","","<p><img src= images/blank.png width =""200"" height = ""200"" style = ""float:right""></p><p><img src=images/blank.png width =""800"" height = ""200""></p>","","","","","","","","","","","",""
"","692.1600000059698","sequential-stimulus-presentation","141","393760","0.0-29.0-1.3","SS1613103369725","trial","","40","800","1492.1600000059698","images/stimuli/spore_stims/simple_02_B_d.gif","images/stimuli/spore_stims/simple_20_B_a.gif","","","","","7","simple_dissimilar","images/stimuli/spore_stims/simple_20_B_a.gif","left","","","","",""
"","null","html-keyboard-response","142","394899","0.0-29.0-0.4","SS1613103369725","","","null","","","","","<p><img src= images/blank.png width =""200"" height = ""200"" style = ""float:right""></p><p><img src=images/blank.png width =""800"" height = ""200""></p>","","","","","","","","","","","",""
"","393.0149999796413","sequential-stimulus-presentation","143","396104","0.0-29.0-1.4","SS1613103369725","trial","","40","800","1193.0149999796413","images/stimuli/spore_stims/simple_02_B_d.gif","images/stimuli/spore_stims/simple_20_B_a.gif","","","","","7","simple_dissimilar","images/stimuli/spore_stims/simple_20_B_a.gif","left","","","","",""
"","null","html-keyboard-response","144","397133","0.0-29.0-0.5","SS1613103369725","","","null","","","","","<p><img src= images/blank.png width =""200"" height = ""200"" style = ""float:right""></p><p><img src=images/blank.png width =""800"" height = ""200""></p>","","","","","","","","","","","",""
"","7085.445000004256","sequential-stimulus-presentation","145","405033","0.0-29.0-1.5","SS1613103369725","trial","","40","800","7885.445000004256","images/stimuli/spore_stims/simple_02_B_d.gif","images/stimuli/spore_stims/simple_20_B_a.gif","","","","","7","simple_dissimilar","images/stimuli/spore_stims/simple_20_B_a.gif","left","","","","",""
"","null","html-keyboard-response","146","406286","0.0-29.0-0.6","SS1613103369725","","","null","","","","","<p><img src= images/blank.png width =""200"" height = ""200"" style = ""float:right""></p><p><img src=images/blank.png width =""800"" height = ""200""></p>","","","","","","","","","","","",""
"","694.9150000000373","sequential-stimulus-presentation","147","407792","0.0-29.0-1.6","SS1613103369725","trial","","40","800","1494.9150000000373","images/stimuli/spore_stims/simple_02_B_d.gif","images/stimuli/spore_stims/simple_20_B_a.gif","","","","","7","simple_dissimilar","images/stimuli/spore_stims/simple_20_B_a.gif","left","","","","",""
"","null","html-keyboard-response","148","408856","0.0-29.0-0.7","SS1613103369725","","","null","","","","","<p><img src= images/blank.png width =""200"" height = ""200"" style = ""float:right""></p><p><img src=images/blank.png width =""800"" height = ""200""></p>","","","","","","","","","","","",""
"","8280.025000014575","sequential-stimulus-presentation","149","417944","0.0-29.0-1.7","SS1613103369725","trial","","40","800","9080.025000014575","images/stimuli/spore_stims/simple_02_B_d.gif","images/stimuli/spore_stims/simple_20_B_a.gif","","","","","7","simple_dissimilar","images/stimuli/spore_stims/simple_02_B_d.gif","middle","","","","",""
"","1784.1349999944214","html-keyboard-response","150","419736","0.0-30.0","SS1613103369725","pref_question","","99","","","","","<video width ='960' height = '540' style='padding-top:8%' autoplay muted><source src='images/stimuli/wall_pref.mp4' type='video/mp4'></video>","3","right","66%","7","","","","","","","",""
"","672.0149999891873","sequential-stimulus-presentation","151","421216","0.0-31.0","SS1613103369725","pref_reveal","","40","800","1472.0149999891873","null","null","","","","","7","","","","novel","","","",""
"","null","html-keyboard-response","152","422296","0.0-32.0-0.0","SS1613103369725","","","null","","","","","<p><img src= images/blank.png width =""200"" height = ""200"" style = ""float:right""></p><p><img src=images/blank.png width =""800"" height = ""200""></p>","","","","","","","","","","","",""
"","565.8349999866914","sequential-stimulus-presentation","153","423671","0.0-32.0-1.0","SS1613103369725","trial","","40","800","1365.8349999866914","images/stimuli/spore_stims/complex_08_A_b.gif","images/stimuli/spore_stims/complex_08_B_b.gif","","","","","8","complex_similar","images/stimuli/spore_stims/complex_08_B_b.gif","middle","","","","",""
"","null","html-keyboard-response","154","424705","0.0-32.0-0.1","SS1613103369725","","","null","","","","","<p><img src= images/blank.png width =""200"" height = ""200"" style = ""float:right""></p><p><img src=images/blank.png width =""800"" height = ""200""></p>","","","","","","","","","","","",""
"","399.1200000164099","sequential-stimulus-presentation","155","425935","0.0-32.0-1.1","SS1613103369725","trial","","40","800","1199.12000001641","images/stimuli/spore_stims/complex_08_A_b.gif","images/stimuli/spore_stims/complex_08_B_b.gif","","","","","8","complex_similar","images/stimuli/spore_stims/complex_08_B_b.gif","middle","","","","",""
"","null","html-keyboard-response","156","427155","0.0-32.0-0.2","SS1613103369725","","","null","","","","","<p><img src= images/blank.png width =""200"" height = ""200"" style = ""float:right""></p><p><img src=images/blank.png width =""800"" height = ""200""></p>","","","","","","","","","","","",""
"","319.3749999918509","sequential-stimulus-presentation","157","428287","0.0-32.0-1.2","SS1613103369725","trial","","40","800","1119.374999991851","images/stimuli/spore_stims/complex_08_A_b.gif","images/stimuli/spore_stims/complex_08_B_b.gif","","","","","8","complex_similar","images/stimuli/spore_stims/complex_08_B_b.gif","middle","","","","",""
"","null","html-keyboard-response","158","429489","0.0-32.0-0.3","SS1613103369725","","","null","","","","","<p><img src= images/blank.png width =""200"" height = ""200"" style = ""float:right""></p><p><img src=images/blank.png width =""800"" height = ""200""></p>","","","","","","","","","","","",""
"","477.66000000410713","sequential-stimulus-presentation","159","430778","0.0-32.0-1.3","SS1613103369725","trial","","40","800","1277.6600000041071","images/stimuli/spore_stims/complex_08_A_b.gif","images/stimuli/spore_stims/complex_08_B_b.gif","","","","","8","complex_similar","images/stimuli/spore_stims/complex_08_B_b.gif","middle","","","","",""
"","null","html-keyboard-response","160","431805","0.0-32.0-0.4","SS1613103369725","","","null","","","","","<p><img src= images/blank.png width =""200"" height = ""200"" style = ""float:right""></p><p><img src=images/blank.png width =""800"" height = ""200""></p>","","","","","","","","","","","",""
"","650.1500000013039","sequential-stimulus-presentation","161","433263","0.0-32.0-1.4","SS1613103369725","trial","","40","800","1450.1500000013039","images/stimuli/spore_stims/complex_08_A_b.gif","images/stimuli/spore_stims/complex_08_B_b.gif","","","","","8","complex_similar","images/stimuli/spore_stims/complex_08_B_b.gif","middle","","","","",""
"","null","html-keyboard-response","162","434277","0.0-32.0-0.5","SS1613103369725","","","null","","","","","<p><img src= images/blank.png width =""200"" height = ""200"" style = ""float:right""></p><p><img src=images/blank.png width =""800"" height = ""200""></p>","","","","","","","","","","","",""
"","1577.0149999880232","sequential-stimulus-presentation","163","436663","0.0-32.0-1.5","SS1613103369725","trial","","40","800","2377.014999988023","images/stimuli/spore_stims/complex_08_A_b.gif","images/stimuli/spore_stims/complex_08_B_b.gif","","","","","8","complex_similar","images/stimuli/spore_stims/complex_08_A_b.gif","left","","","","",""
"","null","html-keyboard-response","164","437867","0.0-32.0-0.6","SS1613103369725","","","null","","","","","<p><img src= images/blank.png width =""200"" height = ""200"" style = ""float:right""></p><p><img src=images/blank.png width =""800"" height = ""200""></p>","","","","","","","","","","","",""
"","1411.0649999929592","sequential-stimulus-presentation","165","440087","0.0-32.0-1.6","SS1613103369725","trial","","40","800","2211.064999992959","images/stimuli/spore_stims/complex_08_A_b.gif","images/stimuli/spore_stims/complex_08_B_b.gif","","","","","8","complex_similar","images/stimuli/spore_stims/complex_08_B_b.gif","middle","","","","",""
"","null","html-keyboard-response","166","441157","0.0-32.0-0.7","SS1613103369725","","","null","","","","","<p><img src= images/blank.png width =""200"" height = ""200"" style = ""float:right""></p><p><img src=images/blank.png width =""800"" height = ""200""></p>","","","","","","","","","","","",""
"","1335.785000002943","sequential-stimulus-presentation","167","443304","0.0-32.0-1.7","SS1613103369725","trial","","40","800","2135.785000002943","images/stimuli/spore_stims/complex_08_A_b.gif","images/stimuli/spore_stims/complex_08_B_b.gif","","","","","8","complex_similar","images/stimuli/spore_stims/complex_08_B_b.gif","middle","","","","",""
"","2358.5949999978766","html-keyboard-response","168","445671","0.0-33.0","SS1613103369725","pref_question","","98","","","","","<video width ='960' height = '540' style='padding-top:8%' autoplay muted><source src='images/stimuli/wall_pref.mp4' type='video/mp4'></video>","2","middle","45%","8","","","","","","","",""
"","502.47499998658895","sequential-stimulus-presentation","169","446983","0.0-34.0","SS1613103369725","pref_reveal","","40","800","1302.474999986589","null","null","","","","","8","","","","background","","","",""
"","null","html-keyboard-response","170","448198","0.0-35.0-0.0","SS1613103369725","","","null","","","","","<p><img src= images/blank.png width =""200"" height = ""200"" style = ""float:right""></p><p><img src=images/blank.png width =""800"" height = ""200""></p>","","","","","","","","","","","",""
"","230.9850000019651","sequential-stimulus-presentation","171","449239","0.0-35.0-1.0","SS1613103369725","trial","","40","800","1030.985000001965","images/stimuli/spore_stims/complex_18_B_b.gif","images/stimuli/spore_stims/complex_05_A_c.gif","","","","","9","complex_dissimilar","images/stimuli/spore_stims/complex_05_A_c.gif","left","","","","",""
"","null","html-keyboard-response","172","450532","0.0-35.0-0.1","SS1613103369725","","","null","","","","","<p><img src= images/blank.png width =""200"" height = ""200"" style = ""float:right""></p><p><img src=images/blank.png width =""800"" height = ""200""></p>","","","","","","","","","","","",""
"","647.3899999982677","sequential-stimulus-presentation","173","452007","0.0-35.0-1.1","SS1613103369725","trial","","40","800","1447.3899999982677","images/stimuli/spore_stims/complex_18_B_b.gif","images/stimuli/spore_stims/complex_05_A_c.gif","","","","","9","complex_dissimilar","images/stimuli/spore_stims/complex_05_A_c.gif","left","","","","",""
"","null","html-keyboard-response","174","453053","0.0-35.0-0.2","SS1613103369725","","","null","","","","","<p><img src= images/blank.png width =""200"" height = ""200"" style = ""float:right""></p><p><img src=images/blank.png width =""800"" height = ""200""></p>","","","","","","","","","","","",""
"","512.9399999859743","sequential-stimulus-presentation","175","454375","0.0-35.0-1.2","SS1613103369725","trial","","40","800","1312.9399999859743","images/stimuli/spore_stims/complex_18_B_b.gif","images/stimuli/spore_stims/complex_05_A_c.gif","","","","","9","complex_dissimilar","images/stimuli/spore_stims/complex_05_A_c.gif","left","","","","",""
"","null","html-keyboard-response","176","455554","0.0-35.0-0.3","SS1613103369725","","","null","","","","","<p><img src= images/blank.png width =""200"" height = ""200"" style = ""float:right""></p><p><img src=images/blank.png width =""800"" height = ""200""></p>","","","","","","","","","","","",""
"","907.0549999887589","sequential-stimulus-presentation","177","457272","0.0-35.0-1.3","SS1613103369725","trial","","40","800","1707.054999988759","images/stimuli/spore_stims/complex_18_B_b.gif","images/stimuli/spore_stims/complex_05_A_c.gif","","","","","9","complex_dissimilar","images/stimuli/spore_stims/complex_18_B_b.gif","middle","","","","",""
"","null","html-keyboard-response","178","458474","0.0-35.0-0.4","SS1613103369725","","","null","","","","","<p><img src= images/blank.png width =""200"" height = ""200"" style = ""float:right""></p><p><img src=images/blank.png width =""800"" height = ""200""></p>","","","","","","","","","","","",""
"","1724.4000000064261","sequential-stimulus-presentation","179","461008","0.0-35.0-1.4","SS1613103369725","trial","","40","800","2524.400000006426","images/stimuli/spore_stims/complex_18_B_b.gif","images/stimuli/spore_stims/complex_05_A_c.gif","","","","","9","complex_dissimilar","images/stimuli/spore_stims/complex_05_A_c.gif","left","","","","",""
"","null","html-keyboard-response","180","461967","0.0-35.0-0.5","SS1613103369725","","","null","","","","","<p><img src= images/blank.png width =""200"" height = ""200"" style = ""float:right""></p><p><img src=images/blank.png width =""800"" height = ""200""></p>","","","","","","","","","","","",""
"","278.61499998834915","sequential-stimulus-presentation","181","463056","0.0-35.0-1.5","SS1613103369725","trial","","40","800","1078.6149999883492","images/stimuli/spore_stims/complex_18_B_b.gif","images/stimuli/spore_stims/complex_05_A_c.gif","","","","","9","complex_dissimilar","images/stimuli/spore_stims/complex_05_A_c.gif","left","","","","",""
"","null","html-keyboard-response","182","464283","0.0-35.0-0.6","SS1613103369725","","","null","","","","","<p><img src= images/blank.png width =""200"" height = ""200"" style = ""float:right""></p><p><img src=images/blank.png width =""800"" height = ""200""></p>","","","","","","","","","","","",""
"","71.93500001449138","sequential-stimulus-presentation","183","465168","0.0-35.0-1.6","SS1613103369725","trial","","40","800","871.9350000144914","images/stimuli/spore_stims/complex_18_B_b.gif","images/stimuli/spore_stims/complex_05_A_c.gif","","","","","9","complex_dissimilar","images/stimuli/spore_stims/complex_05_A_c.gif","left","","","","",""
"","null","html-keyboard-response","184","466214","0.0-35.0-0.7","SS1613103369725","","","null","","","","","<p><img src= images/blank.png width =""200"" height = ""200"" style = ""float:right""></p><p><img src=images/blank.png width =""800"" height = ""200""></p>","","","","","","","","","","","",""
"","840.0050000054762","sequential-stimulus-presentation","185","467863","0.0-35.0-1.7","SS1613103369725","trial","","40","800","1640.0050000054762","images/stimuli/spore_stims/complex_18_B_b.gif","images/stimuli/spore_stims/complex_05_A_c.gif","","","","","9","complex_dissimilar","images/stimuli/spore_stims/complex_05_A_c.gif","left","","","","",""
"","1983.9849999989383","html-keyboard-response","186","469855","0.0-36.0","SS1613103369725","pref_question","","98","","","","","<video width ='960' height = '540' style='padding-top:8%' autoplay muted><source src='images/stimuli/wall_pref.mp4' type='video/mp4'></video>","2","middle","45%","9","","","","","","","",""
"","1067.559999995865","sequential-stimulus-presentation","187","471752","0.0-37.0","SS1613103369725","pref_reveal","","40","800","1867.559999995865","null","null","","","","","9","","","","deviant","","","",""
"","null","html-keyboard-response","188","472836","0.0-38.0-0.0","SS1613103369725","","","null","","","","","<p><img src= images/blank.png width =""200"" height = ""200"" style = ""float:right""></p><p><img src=images/blank.png width =""800"" height = ""200""></p>","","","","","","","","","","","",""
"","568.4600000095088","sequential-stimulus-presentation","189","474215","0.0-38.0-1.0","SS1613103369725","trial","","40","800","1368.4600000095088","images/stimuli/spore_stims/complex_01_B_c.gif","images/stimuli/spore_stims/complex_06_A_b.gif","","","","","10","complex_dissimilar","images/stimuli/spore_stims/complex_06_A_b.gif","left","","","","",""
"","null","html-keyboard-response","190","475041","0.0-38.0-0.1","SS1613103369725","","","null","","","","","<p><img src= images/blank.png width =""200"" height = ""200"" style = ""float:right""></p><p><img src=images/blank.png width =""800"" height = ""200""></p>","","","","","","","","","","","",""
"","1108.364999992773","sequential-stimulus-presentation","191","476959","0.0-38.0-1.1","SS1613103369725","trial","","40","800","1908.364999992773","images/stimuli/spore_stims/complex_01_B_c.gif","images/stimuli/spore_stims/complex_06_A_b.gif","","","","","10","complex_dissimilar","images/stimuli/spore_stims/complex_06_A_b.gif","left","","","","",""
"","null","html-keyboard-response","192","478140","0.0-38.0-0.2","SS1613103369725","","","null","","","","","<p><img src= images/blank.png width =""200"" height = ""200"" style = ""float:right""></p><p><img src=images/blank.png width =""800"" height = ""200""></p>","","","","","","","","","","","",""
"","432.30500002391636","sequential-stimulus-presentation","193","479384","0.0-38.0-1.2","SS1613103369725","trial","","40","800","1232.3050000239164","images/stimuli/spore_stims/complex_01_B_c.gif","images/stimuli/spore_stims/complex_06_A_b.gif","","","","","10","complex_dissimilar","images/stimuli/spore_stims/complex_01_B_c.gif","middle","","","","",""
"","null","html-keyboard-response","194","480608","0.0-38.0-0.3","SS1613103369725","","","null","","","","","<p><img src= images/blank.png width =""200"" height = ""200"" style = ""float:right""></p><p><img src=images/blank.png width =""800"" height = ""200""></p>","","","","","","","","","","","",""
"","882.2400000062771","sequential-stimulus-presentation","195","482304","0.0-38.0-1.3","SS1613103369725","trial","","40","800","1682.2400000062771","images/stimuli/spore_stims/complex_01_B_c.gif","images/stimuli/spore_stims/complex_06_A_b.gif","","","","","10","complex_dissimilar","images/stimuli/spore_stims/complex_06_A_b.gif","left","","","","",""
"","null","html-keyboard-response","196","483424","0.0-38.0-0.4","SS1613103369725","","","null","","","","","<p><img src= images/blank.png width =""200"" height = ""200"" style = ""float:right""></p><p><img src=images/blank.png width =""800"" height = ""200""></p>","","","","","","","","","","","",""
"","2422.2399999853224","sequential-stimulus-presentation","197","486655","0.0-38.0-1.4","SS1613103369725","trial","","40","800","3222.2399999853224","images/stimuli/spore_stims/complex_01_B_c.gif","images/stimuli/spore_stims/complex_06_A_b.gif","","","","","10","complex_dissimilar","images/stimuli/spore_stims/complex_06_A_b.gif","left","","","","",""
"","null","html-keyboard-response","198","487544","0.0-38.0-0.5","SS1613103369725","","","null","","","","","<p><img src= images/blank.png width =""200"" height = ""200"" style = ""float:right""></p><p><img src=images/blank.png width =""800"" height = ""200""></p>","","","","","","","","","","","",""
"","715.6149999937043","sequential-stimulus-presentation","199","489079","0.0-38.0-1.5","SS1613103369725","trial","","40","800","1515.6149999937043","images/stimuli/spore_stims/complex_01_B_c.gif","images/stimuli/spore_stims/complex_06_A_b.gif","","","","","10","complex_dissimilar","images/stimuli/spore_stims/complex_06_A_b.gif","left","","","","",""
"","null","html-keyboard-response","200","490361","0.0-38.0-0.6","SS1613103369725","","","null","","","","","<p><img src= images/blank.png width =""200"" height = ""200"" style = ""float:right""></p><p><img src=images/blank.png width =""800"" height = ""200""></p>","","","","","","","","","","","",""
"","506.98500001453795","sequential-stimulus-presentation","201","491679","0.0-38.0-1.6","SS1613103369725","trial","","40","800","1306.985000014538","images/stimuli/spore_stims/complex_01_B_c.gif","images/stimuli/spore_stims/complex_06_A_b.gif","","","","","10","complex_dissimilar","images/stimuli/spore_stims/complex_06_A_b.gif","left","","","","",""
"","null","html-keyboard-response","202","492715","0.0-38.0-0.7","SS1613103369725","","","null","","","","","<p><img src= images/blank.png width =""200"" height = ""200"" style = ""float:right""></p><p><img src=images/blank.png width =""800"" height = ""200""></p>","","","","","","","","","","","",""
"","1823.0899999907706","sequential-stimulus-presentation","203","495354","0.0-38.0-1.7","SS1613103369725","trial","","40","800","2623.0899999907706","images/stimuli/spore_stims/complex_01_B_c.gif","images/stimuli/spore_stims/complex_06_A_b.gif","","","","","10","complex_dissimilar","images/stimuli/spore_stims/complex_06_A_b.gif","left","","","","",""
"","8676.474999985658","html-keyboard-response","204","504039","0.0-39.0","SS1613103369725","pref_question","","98","","","","","<video width ='960' height = '540' style='padding-top:8%' autoplay muted><source src='images/stimuli/wall_pref.mp4' type='video/mp4'></video>","2","middle","45%","10","","","","","","","",""
"","1879.38500000746","sequential-stimulus-presentation","205","506728","0.0-40.0","SS1613103369725","pref_reveal","","40","800","2679.38500000746","null","null","","","","","10","","","","deviant","","","",""
"","null","html-keyboard-response","206","507934","0.0-41.0-0.0","SS1613103369725","","","null","","","","","<p><img src= images/blank.png width =""200"" height = ""200"" style = ""float:right""></p><p><img src=images/blank.png width =""800"" height = ""200""></p>","","","","","","","","","","","",""
"","2638.3999999961816","sequential-stimulus-presentation","207","511383","0.0-41.0-1.0","SS1613103369725","trial","","40","800","3438.3999999961816","images/stimuli/spore_stims/complex_01_A_a.gif","images/stimuli/spore_stims/complex_14_B_c.gif","","","","","11","complex_dissimilar","images/stimuli/spore_stims/complex_14_B_c.gif","right","","","","",""
"","null","html-keyboard-response","208","512348","0.0-41.0-0.1","SS1613103369725","","","null","","","","","<p><img src= images/blank.png width =""200"" height = ""200"" style = ""float:right""></p><p><img src=images/blank.png width =""800"" height = ""200""></p>","","","","","","","","","","","",""
"","480.0950000062585","sequential-stimulus-presentation","209","513638","0.0-41.0-1.1","SS1613103369725","trial","","40","800","1280.0950000062585","images/stimuli/spore_stims/complex_01_A_a.gif","images/stimuli/spore_stims/complex_14_B_c.gif","","","","","11","complex_dissimilar","images/stimuli/spore_stims/complex_14_B_c.gif","right","","","","",""
"","null","html-keyboard-response","210","514566","0.0-41.0-0.2","SS1613103369725","","","null","","","","","<p><img src= images/blank.png width =""200"" height = ""200"" style = ""float:right""></p><p><img src=images/blank.png width =""800"" height = ""200""></p>","","","","","","","","","","","",""
"","506.1850000056438","sequential-stimulus-presentation","211","515887","0.0-41.0-1.2","SS1613103369725","trial","","40","800","1306.1850000056438","images/stimuli/spore_stims/complex_01_A_a.gif","images/stimuli/spore_stims/complex_14_B_c.gif","","","","","11","complex_dissimilar","images/stimuli/spore_stims/complex_14_B_c.gif","right","","","","",""
"","null","html-keyboard-response","212","517042","0.0-41.0-0.3","SS1613103369725","","","null","","","","","<p><img src= images/blank.png width =""200"" height = ""200"" style = ""float:right""></p><p><img src=images/blank.png width =""800"" height = ""200""></p>","","","","","","","","","","","",""
"","4838.009999977658","sequential-stimulus-presentation","213","522689","0.0-41.0-1.3","SS1613103369725","trial","","40","800","5638.009999977658","images/stimuli/spore_stims/complex_01_A_a.gif","images/stimuli/spore_stims/complex_14_B_c.gif","","","","","11","complex_dissimilar","images/stimuli/spore_stims/complex_14_B_c.gif","right","","","","",""
"","null","html-keyboard-response","214","523785","0.0-41.0-0.4","SS1613103369725","","","null","","","","","<p><img src= images/blank.png width =""200"" height = ""200"" style = ""float:right""></p><p><img src=images/blank.png width =""800"" height = ""200""></p>","","","","","","","","","","","",""
"","1139.3600000010338","sequential-stimulus-presentation","215","525735","0.0-41.0-1.4","SS1613103369725","trial","","40","800","1939.3600000010338","images/stimuli/spore_stims/complex_01_A_a.gif","images/stimuli/spore_stims/complex_14_B_c.gif","","","","","11","complex_dissimilar","images/stimuli/spore_stims/complex_01_A_a.gif","middle","","","","",""
"","null","html-keyboard-response","216","526735","0.0-41.0-0.5","SS1613103369725","","","null","","","","","<p><img src= images/blank.png width =""200"" height = ""200"" style = ""float:right""></p><p><img src=images/blank.png width =""800"" height = ""200""></p>","","","","","","","","","","","",""
"","2276.7499999899883","sequential-stimulus-presentation","217","529823","0.0-41.0-1.5","SS1613103369725","trial","","40","800","3076.7499999899883","images/stimuli/spore_stims/complex_01_A_a.gif","images/stimuli/spore_stims/complex_14_B_c.gif","","","","","11","complex_dissimilar","images/stimuli/spore_stims/complex_14_B_c.gif","right","","","","",""
"","null","html-keyboard-response","218","531007","0.0-41.0-0.6","SS1613103369725","","","null","","","","","<p><img src= images/blank.png width =""200"" height = ""200"" style = ""float:right""></p><p><img src=images/blank.png width =""800"" height = ""200""></p>","","","","","","","","","","","",""
"","2209.4550000038","sequential-stimulus-presentation","219","534031","0.0-41.0-1.6","SS1613103369725","trial","","40","800","3009.4550000038","images/stimuli/spore_stims/complex_01_A_a.gif","images/stimuli/spore_stims/complex_14_B_c.gif","","","","","11","complex_dissimilar","images/stimuli/spore_stims/complex_14_B_c.gif","right","","","","",""
"","null","html-keyboard-response","220","535223","0.0-41.0-0.7","SS1613103369725","","","null","","","","","<p><img src= images/blank.png width =""200"" height = ""200"" style = ""float:right""></p><p><img src=images/blank.png width =""800"" height = ""200""></p>","","","","","","","","","","","",""
"","454.07999999588355","sequential-stimulus-presentation","221","536486","0.0-41.0-1.7","SS1613103369725","trial","","40","800","1254.0799999958836","images/stimuli/spore_stims/complex_01_A_a.gif","images/stimuli/spore_stims/complex_14_B_c.gif","","","","","11","complex_dissimilar","images/stimuli/spore_stims/complex_14_B_c.gif","right","","","","",""
"","1054.9750000063796","html-keyboard-response","222","537550","0.0-42.0","SS1613103369725","pref_question","","98","","","","","<video width ='960' height = '540' style='padding-top:8%' autoplay muted><source src='images/stimuli/wall_pref.mp4' type='video/mp4'></video>","2","middle","45%","11","","","","","","","",""
"","258.3699999959208","sequential-stimulus-presentation","223","538616","0.0-43.0","SS1613103369725","pref_reveal","","40","800","1058.3699999959208","null","null","","","","","11","","","","deviant","","","",""
"","null","html-keyboard-response","224","539859","0.0-44.0-0.0","SS1613103369725","","","null","","","","","<p><img src= images/blank.png width =""200"" height = ""200"" style = ""float:right""></p><p><img src=images/blank.png width =""800"" height = ""200""></p>","","","","","","","","","","","",""
"","141.44499998656102","sequential-stimulus-presentation","225","540806","0.0-44.0-1.0","SS1613103369725","trial","","40","800","941.444999986561","images/stimuli/spore_stims/complex_11_A_a.gif","images/stimuli/spore_stims/complex_11_B_a.gif","","","","","12","complex_similar","images/stimuli/spore_stims/complex_11_B_a.gif","left","","","","",""
"","null","html-keyboard-response","226","541703","0.0-44.0-0.1","SS1613103369725","","","null","","","","","<p><img src= images/blank.png width =""200"" height = ""200"" style = ""float:right""></p><p><img src=images/blank.png width =""800"" height = ""200""></p>","","","","","","","","","","","",""
"","182.19500000122935","sequential-stimulus-presentation","227","542694","0.0-44.0-1.1","SS1613103369725","trial","","40","800","982.1950000012293","images/stimuli/spore_stims/complex_11_A_a.gif","images/stimuli/spore_stims/complex_11_B_a.gif","","","","","12","complex_similar","images/stimuli/spore_stims/complex_11_B_a.gif","left","","","","",""
"","null","html-keyboard-response","228","543715","0.0-44.0-0.2","SS1613103369725","","","null","","","","","<p><img src= images/blank.png width =""200"" height = ""200"" style = ""float:right""></p><p><img src=images/blank.png width =""800"" height = ""200""></p>","","","","","","","","","","","",""
"","258.15499998861924","sequential-stimulus-presentation","229","544782","0.0-44.0-1.2","SS1613103369725","trial","","40","800","1058.1549999886192","images/stimuli/spore_stims/complex_11_A_a.gif","images/stimuli/spore_stims/complex_11_B_a.gif","","","","","12","complex_similar","images/stimuli/spore_stims/complex_11_B_a.gif","left","","","","",""
"","null","html-keyboard-response","230","545912","0.0-44.0-0.3","SS1613103369725","","","null","","","","","<p><img src= images/blank.png width =""200"" height = ""200"" style = ""float:right""></p><p><img src=images/blank.png width =""800"" height = ""200""></p>","","","","","","","","","","","",""
"","19.059999991441146","sequential-stimulus-presentation","231","546743","0.0-44.0-1.3","SS1613103369725","trial","","40","800","819.0599999914411","images/stimuli/spore_stims/complex_11_A_a.gif","images/stimuli/spore_stims/complex_11_B_a.gif","","","","","12","complex_similar","images/stimuli/spore_stims/complex_11_B_a.gif","left","","","","",""
"","null","html-keyboard-response","232","547552","0.0-44.0-0.4","SS1613103369725","","","null","","","","","<p><img src= images/blank.png width =""200"" height = ""200"" style = ""float:right""></p><p><img src=images/blank.png width =""800"" height = ""200""></p>","","","","","","","","","","","",""
"","276.79500001249835","sequential-stimulus-presentation","233","548638","0.0-44.0-1.4","SS1613103369725","trial","","40","800","1076.7950000124983","images/stimuli/spore_stims/complex_11_A_a.gif","images/stimuli/spore_stims/complex_11_B_a.gif","","","","","12","complex_similar","images/stimuli/spore_stims/complex_11_B_a.gif","left","","","","",""
"","null","html-keyboard-response","234","549502","0.0-44.0-0.5","SS1613103369725","","","null","","","","","<p><img src= images/blank.png width =""200"" height = ""200"" style = ""float:right""></p><p><img src=images/blank.png width =""800"" height = ""200""></p>","","","","","","","","","","","",""
"","350.66500000539236","sequential-stimulus-presentation","235","550662","0.0-44.0-1.5","SS1613103369725","trial","","40","800","1150.6650000053924","images/stimuli/spore_stims/complex_11_A_a.gif","images/stimuli/spore_stims/complex_11_B_a.gif","","","","","12","complex_similar","images/stimuli/spore_stims/complex_11_B_a.gif","left","","","","",""
"","null","html-keyboard-response","236","551618","0.0-44.0-0.6","SS1613103369725","","","null","","","","","<p><img src= images/blank.png width =""200"" height = ""200"" style = ""float:right""></p><p><img src=images/blank.png width =""800"" height = ""200""></p>","","","","","","","","","","","",""
"","338.5800000105519","sequential-stimulus-presentation","237","552766","0.0-44.0-1.6","SS1613103369725","trial","","40","800","1138.5800000105519","images/stimuli/spore_stims/complex_11_A_a.gif","images/stimuli/spore_stims/complex_11_B_a.gif","","","","","12","complex_similar","images/stimuli/spore_stims/complex_11_B_a.gif","left","","","","",""
"","null","html-keyboard-response","238","553724","0.0-44.0-0.7","SS1613103369725","","","null","","","","","<p><img src= images/blank.png width =""200"" height = ""200"" style = ""float:right""></p><p><img src=images/blank.png width =""800"" height = ""200""></p>","","","","","","","","","","","",""
"","320.3299999877345","sequential-stimulus-presentation","239","554854","0.0-44.0-1.7","SS1613103369725","trial","","40","800","1120.3299999877345","images/stimuli/spore_stims/complex_11_A_a.gif","images/stimuli/spore_stims/complex_11_B_a.gif","","","","","12","complex_similar","images/stimuli/spore_stims/complex_11_A_a.gif","middle","","","","",""
"","1903.3549999876413","html-keyboard-response","240","556766","0.0-45.0","SS1613103369725","pref_question","","98","","","","","<video width ='960' height = '540' style='padding-top:8%' autoplay muted><source src='images/stimuli/wall_pref.mp4' type='video/mp4'></video>","2","middle","45%","12","","","","","","","",""
"","365.1450000179466","sequential-stimulus-presentation","241","557942","0.0-46.0","SS1613103369725","pref_reveal","","40","800","1165.1450000179466","null","null","","","","","12","","","","deviant","","","",""
"","null","html-keyboard-response","242","558856","0.0-47.0-0.0","SS1613103369725","","","null","","","","","<p><img src= images/blank.png width =""200"" height = ""200"" style = ""float:right""></p><p><img src=images/blank.png width =""800"" height = ""200""></p>","","","","","","","","","","","",""
"","162.9899999825284","sequential-stimulus-presentation","243","559830","0.0-47.0-1.0","SS1613103369725","trial","","40","800","962.9899999825284","images/stimuli/spore_stims/simple_11_B_a.gif","images/stimuli/spore_stims/simple_19_A_b.gif","","","","","13","simple_dissimilar","images/stimuli/spore_stims/simple_19_A_b.gif","middle","","","","",""
"","null","html-keyboard-response","244","560873","0.0-47.0-0.1","SS1613103369725","","","null","","","","","<p><img src= images/blank.png width =""200"" height = ""200"" style = ""float:right""></p><p><img src=images/blank.png width =""800"" height = ""200""></p>","","","","","","","","","","","",""
"","6.880000000819564","sequential-stimulus-presentation","245","561695","0.0-47.0-1.1","SS1613103369725","trial","","40","800","806.8800000008196","images/stimuli/spore_stims/simple_11_B_a.gif","images/stimuli/spore_stims/simple_19_A_b.gif","","","","","13","simple_dissimilar","images/stimuli/spore_stims/simple_19_A_b.gif","middle","","","","",""
"","null","html-keyboard-response","246","562876","0.0-47.0-0.2","SS1613103369725","","","null","","","","","<p><img src= images/blank.png width =""200"" height = ""200"" style = ""float:right""></p><p><img src=images/blank.png width =""800"" height = ""200""></p>","","","","","","","","","","","",""
"","522.2699999867473","sequential-stimulus-presentation","247","564214","0.0-47.0-1.2","SS1613103369725","trial","","40","800","1322.2699999867473","images/stimuli/spore_stims/simple_11_B_a.gif","images/stimuli/spore_stims/simple_19_A_b.gif","","","","","13","simple_dissimilar","images/stimuli/spore_stims/simple_11_B_a.gif","left","","","","",""
"","null","html-keyboard-response","248","565459","0.0-47.0-0.3","SS1613103369725","","","null","","","","","<p><img src= images/blank.png width =""200"" height = ""200"" style = ""float:right""></p><p><img src=images/blank.png width =""800"" height = ""200""></p>","","","","","","","","","","","",""
"","223.27499999664724","sequential-stimulus-presentation","249","566494","0.0-47.0-1.3","SS1613103369725","trial","","40","800","1023.2749999966472","images/stimuli/spore_stims/simple_11_B_a.gif","images/stimuli/spore_stims/simple_19_A_b.gif","","","","","13","simple_dissimilar","images/stimuli/spore_stims/simple_19_A_b.gif","middle","","","","",""
"","null","html-keyboard-response","250","567649","0.0-47.0-0.4","SS1613103369725","","","null","","","","","<p><img src= images/blank.png width =""200"" height = ""200"" style = ""float:right""></p><p><img src=images/blank.png width =""800"" height = ""200""></p>","","","","","","","","","","","",""
"","82.59999999427237","sequential-stimulus-presentation","251","568542","0.0-47.0-1.4","SS1613103369725","trial","","40","800","882.5999999942724","images/stimuli/spore_stims/simple_11_B_a.gif","images/stimuli/spore_stims/simple_19_A_b.gif","","","","","13","simple_dissimilar","images/stimuli/spore_stims/simple_19_A_b.gif","middle","","","","",""
"","null","html-keyboard-response","252","569413","0.0-47.0-0.5","SS1613103369725","","","null","","","","","<p><img src= images/blank.png width =""200"" height = ""200"" style = ""float:right""></p><p><img src=images/blank.png width =""800"" height = ""200""></p>","","","","","","","","","","","",""
"","319.28500000503846","sequential-stimulus-presentation","253","570543","0.0-47.0-1.5","SS1613103369725","trial","","40","800","1119.2850000050385","images/stimuli/spore_stims/simple_11_B_a.gif","images/stimuli/spore_stims/simple_19_A_b.gif","","","","","13","simple_dissimilar","images/stimuli/spore_stims/simple_19_A_b.gif","middle","","","","",""
"","null","html-keyboard-response","254","571660","0.0-47.0-0.6","SS1613103369725","","","null","","","","","<p><img src= images/blank.png width =""200"" height = ""200"" style = ""float:right""></p><p><img src=images/blank.png width =""800"" height = ""200""></p>","","","","","","","","","","","",""
"","61.62000002223067","sequential-stimulus-presentation","255","572534","0.0-47.0-1.6","SS1613103369725","trial","","40","800","861.6200000222307","images/stimuli/spore_stims/simple_11_B_a.gif","images/stimuli/spore_stims/simple_19_A_b.gif","","","","","13","simple_dissimilar","images/stimuli/spore_stims/simple_19_A_b.gif","middle","","","","",""
"","null","html-keyboard-response","256","573534","0.0-47.0-0.7","SS1613103369725","","","null","","","","","<p><img src= images/blank.png width =""200"" height = ""200"" style = ""float:right""></p><p><img src=images/blank.png width =""800"" height = ""200""></p>","","","","","","","","","","","",""
"","122.19500000355765","sequential-stimulus-presentation","257","574486","0.0-47.0-1.7","SS1613103369725","trial","","40","800","922.1950000035577","images/stimuli/spore_stims/simple_11_B_a.gif","images/stimuli/spore_stims/simple_19_A_b.gif","","","","","13","simple_dissimilar","images/stimuli/spore_stims/simple_19_A_b.gif","middle","","","","",""
"","3779.0600000007544","html-keyboard-response","258","578279","0.0-48.0","SS1613103369725","pref_question","","98","","","","","<video width ='960' height = '540' style='padding-top:8%' autoplay muted><source src='images/stimuli/wall_pref.mp4' type='video/mp4'></video>","2","middle","45%","13","","","","","","","",""
"","83.55499999015592","sequential-stimulus-presentation","259","579175","0.0-49.0","SS1613103369725","pref_reveal","","40","800","883.5549999901559","null","null","","","","","13","","","","background","","","",""
"","null","html-keyboard-response","260","580215","0.0-50.0-0.0","SS1613103369725","","","null","","","","","<p><img src= images/blank.png width =""200"" height = ""200"" style = ""float:right""></p><p><img src=images/blank.png width =""800"" height = ""200""></p>","","","","","","","","","","","",""
"","171.3549999985844","sequential-stimulus-presentation","261","581198","0.0-50.0-1.0","SS1613103369725","trial","","40","800","971.3549999985844","images/stimuli/spore_stims/simple_07_B_d.gif","images/stimuli/spore_stims/simple_07_A_d.gif","","","","","14","simple_similar","images/stimuli/spore_stims/simple_07_A_d.gif","left","","","","",""
"","null","html-keyboard-response","262","582472","0.0-50.0-0.1","SS1613103369725","","","null","","","","","<p><img src= images/blank.png width =""200"" height = ""200"" style = ""float:right""></p><p><img src=images/blank.png width =""800"" height = ""200""></p>","","","","","","","","","","","",""
"","83.45000000554137","sequential-stimulus-presentation","263","583383","0.0-50.0-1.1","SS1613103369725","trial","","40","800","883.4500000055414","images/stimuli/spore_stims/simple_07_B_d.gif","images/stimuli/spore_stims/simple_07_A_d.gif","","","","","14","simple_similar","images/stimuli/spore_stims/simple_07_A_d.gif","left","","","","",""
"","null","html-keyboard-response","264","584353","0.0-50.0-0.2","SS1613103369725","","","null","","","","","<p><img src= images/blank.png width =""200"" height = ""200"" style = ""float:right""></p><p><img src=images/blank.png width =""800"" height = ""200""></p>","","","","","","","","","","","",""
"","20915.234999993118","sequential-stimulus-presentation","265","606102","0.0-50.0-1.2","SS1613103369725","trial","","40","800","21715.234999993118","images/stimuli/spore_stims/simple_07_B_d.gif","images/stimuli/spore_stims/simple_07_A_d.gif","","","","","14","simple_similar","images/stimuli/spore_stims/simple_07_A_d.gif","left","","","","",""
"","null","html-keyboard-response","266","607206","0.0-50.0-0.3","SS1613103369725","","","null","","","","","<p><img src= images/blank.png width =""200"" height = ""200"" style = ""float:right""></p><p><img src=images/blank.png width =""800"" height = ""200""></p>","","","","","","","","","","","",""
"","812.4649999954272","sequential-stimulus-presentation","267","608830","0.0-50.0-1.3","SS1613103369725","trial","","40","800","1612.4649999954272","images/stimuli/spore_stims/simple_07_B_d.gif","images/stimuli/spore_stims/simple_07_A_d.gif","","","","","14","simple_similar","images/stimuli/spore_stims/simple_07_A_d.gif","left","","","","",""
"","null","html-keyboard-response","268","610124","0.0-50.0-0.4","SS1613103369725","","","null","","","","","<p><img src= images/blank.png width =""200"" height = ""200"" style = ""float:right""></p><p><img src=images/blank.png width =""800"" height = ""200""></p>","","","","","","","","","","","",""
"","119.65499998768792","sequential-stimulus-presentation","269","611054","0.0-50.0-1.4","SS1613103369725","trial","","40","800","919.6549999876879","images/stimuli/spore_stims/simple_07_B_d.gif","images/stimuli/spore_stims/simple_07_A_d.gif","","","","","14","simple_similar","images/stimuli/spore_stims/simple_07_A_d.gif","left","","","","",""
"","null","html-keyboard-response","270","612290","0.0-50.0-0.5","SS1613103369725","","","null","","","","","<p><img src= images/blank.png width =""200"" height = ""200"" style = ""float:right""></p><p><img src=images/blank.png width =""800"" height = ""200""></p>","","","","","","","","","","","",""
"","1441.6150000179186","sequential-stimulus-presentation","271","614542","0.0-50.0-1.5","SS1613103369725","trial","","40","800","2241.6150000179186","images/stimuli/spore_stims/simple_07_B_d.gif","images/stimuli/spore_stims/simple_07_A_d.gif","","","","","14","simple_similar","images/stimuli/spore_stims/simple_07_A_d.gif","left","","","","",""
"","null","html-keyboard-response","272","615500","0.0-50.0-0.6","SS1613103369725","","","null","","","","","<p><img src= images/blank.png width =""200"" height = ""200"" style = ""float:right""></p><p><img src=images/blank.png width =""800"" height = ""200""></p>","","","","","","","","","","","",""
"","52.47500000405125","sequential-stimulus-presentation","273","616366","0.0-50.0-1.6","SS1613103369725","trial","","40","800","852.4750000040513","images/stimuli/spore_stims/simple_07_B_d.gif","images/stimuli/spore_stims/simple_07_A_d.gif","","","","","14","simple_similar","images/stimuli/spore_stims/simple_07_B_d.gif","middle","","","","",""
"","null","html-keyboard-response","274","617467","0.0-50.0-0.7","SS1613103369725","","","null","","","","","<p><img src= images/blank.png width =""200"" height = ""200"" style = ""float:right""></p><p><img src=images/blank.png width =""800"" height = ""200""></p>","","","","","","","","","","","",""
"","0.4749999789055437","sequential-stimulus-presentation","275","618278","0.0-50.0-1.7","SS1613103369725","trial","","40","800","800.4749999789055","images/stimuli/spore_stims/simple_07_B_d.gif","images/stimuli/spore_stims/simple_07_A_d.gif","","","","","14","simple_similar","images/stimuli/spore_stims/simple_07_A_d.gif","left","","","","",""
"","5404.18499999214","html-keyboard-response","276","623694","0.0-51.0","SS1613103369725","pref_question","","98","","","","","<video width ='960' height = '540' style='padding-top:8%' autoplay muted><source src='images/stimuli/wall_pref.mp4' type='video/mp4'></video>","2","middle","45%","14","","","","","","","",""
"","1651.834999996936","sequential-stimulus-presentation","277","626158","0.0-52.0","SS1613103369725","pref_reveal","","40","800","2451.834999996936","null","null","","","","","14","","","","deviant","","","",""
"","null","html-keyboard-response","278","627193","0.0-53.0-0.0","SS1613103369725","","","null","","","","","<p><img src= images/blank.png width =""200"" height = ""200"" style = ""float:right""></p><p><img src=images/blank.png width =""800"" height = ""200""></p>","","","","","","","","","","","",""
"","92.68000000156462","sequential-stimulus-presentation","279","628094","0.0-53.0-1.0","SS1613103369725","trial","","40","800","892.6800000015646","images/stimuli/spore_stims/complex_16_A_c.gif","images/stimuli/spore_stims/complex_16_B_c.gif","","","","","15","complex_similar","images/stimuli/spore_stims/complex_16_B_c.gif","right","","","","",""
"","null","html-keyboard-response","280","629174","0.0-53.0-0.1","SS1613103369725","","","null","","","","","<p><img src= images/blank.png width =""200"" height = ""200"" style = ""float:right""></p><p><img src=images/blank.png width =""800"" height = ""200""></p>","","","","","","","","","","","",""
"","376.59999998868443","sequential-stimulus-presentation","281","630358","0.0-53.0-1.1","SS1613103369725","trial","","40","800","1176.5999999886844","images/stimuli/spore_stims/complex_16_A_c.gif","images/stimuli/spore_stims/complex_16_B_c.gif","","","","","15","complex_similar","images/stimuli/spore_stims/complex_16_B_c.gif","right","","","","",""
"","null","html-keyboard-response","282","631453","0.0-53.0-0.2","SS1613103369725","","","null","","","","","<p><img src= images/blank.png width =""200"" height = ""200"" style = ""float:right""></p><p><img src=images/blank.png width =""800"" height = ""200""></p>","","","","","","","","","","","",""
"","454.89500000257976","sequential-stimulus-presentation","283","632718","0.0-53.0-1.2","SS1613103369725","trial","","40","800","1254.8950000025798","images/stimuli/spore_stims/complex_16_A_c.gif","images/stimuli/spore_stims/complex_16_B_c.gif","","","","","15","complex_similar","images/stimuli/spore_stims/complex_16_B_c.gif","right","","","","",""
"","null","html-keyboard-response","284","633942","0.0-53.0-0.3","SS1613103369725","","","null","","","","","<p><img src= images/blank.png width =""200"" height = ""200"" style = ""float:right""></p><p><img src=images/blank.png width =""800"" height = ""200""></p>","","","","","","","","","","","",""
"","317.2999999951571","sequential-stimulus-presentation","285","635069","0.0-53.0-1.3","SS1613103369725","trial","","40","800","1117.2999999951571","images/stimuli/spore_stims/complex_16_A_c.gif","images/stimuli/spore_stims/complex_16_B_c.gif","","","","","15","complex_similar","images/stimuli/spore_stims/complex_16_B_c.gif","right","","","","",""
"","null","html-keyboard-response","286","636329","0.0-53.0-0.4","SS1613103369725","","","null","","","","","<p><img src= images/blank.png width =""200"" height = ""200"" style = ""float:right""></p><p><img src=images/blank.png width =""800"" height = ""200""></p>","","","","","","","","","","","",""
"","923.0749999987893","sequential-stimulus-presentation","287","638062","0.0-53.0-1.4","SS1613103369725","trial","","40","800","1723.0749999987893","images/stimuli/spore_stims/complex_16_A_c.gif","images/stimuli/spore_stims/complex_16_B_c.gif","","","","","15","complex_similar","images/stimuli/spore_stims/complex_16_B_c.gif","right","","","","",""
"","null","html-keyboard-response","288","639044","0.0-53.0-0.5","SS1613103369725","","","null","","","","","<p><img src= images/blank.png width =""200"" height = ""200"" style = ""float:right""></p><p><img src=images/blank.png width =""800"" height = ""200""></p>","","","","","","","","","","","",""
"","382.01000000117347","sequential-stimulus-presentation","289","640238","0.0-53.0-1.5","SS1613103369725","trial","","40","800","1182.0100000011735","images/stimuli/spore_stims/complex_16_A_c.gif","images/stimuli/spore_stims/complex_16_B_c.gif","","","","","15","complex_similar","images/stimuli/spore_stims/complex_16_A_c.gif","middle","","","","",""
"","null","html-keyboard-response","290","641368","0.0-53.0-0.6","SS1613103369725","","","null","","","","","<p><img src= images/blank.png width =""200"" height = ""200"" style = ""float:right""></p><p><img src=images/blank.png width =""800"" height = ""200""></p>","","","","","","","","","","","",""
"","363.8199999986682","sequential-stimulus-presentation","291","642542","0.0-53.0-1.6","SS1613103369725","trial","","40","800","1163.8199999986682","images/stimuli/spore_stims/complex_16_A_c.gif","images/stimuli/spore_stims/complex_16_B_c.gif","","","","","15","complex_similar","images/stimuli/spore_stims/complex_16_B_c.gif","right","","","","",""
"","null","html-keyboard-response","292","643807","0.0-53.0-0.7","SS1613103369725","","","null","","","","","<p><img src= images/blank.png width =""200"" height = ""200"" style = ""float:right""></p><p><img src=images/blank.png width =""800"" height = ""200""></p>","","","","","","","","","","","",""
"","917.0649999869056","sequential-stimulus-presentation","293","645535","0.0-53.0-1.7","SS1613103369725","trial","","40","800","1717.0649999869056","images/stimuli/spore_stims/complex_16_A_c.gif","images/stimuli/spore_stims/complex_16_B_c.gif","","","","","15","complex_similar","images/stimuli/spore_stims/complex_16_B_c.gif","right","","","","",""
"","5742.440000001807","html-keyboard-response","294","651286","0.0-54.0","SS1613103369725","pref_question","","98","","","","","<video width ='960' height = '540' style='padding-top:8%' autoplay muted><source src='images/stimuli/wall_pref.mp4' type='video/mp4'></video>","2","middle","45%","15","","","","","","","",""
"","294.4150000112131","sequential-stimulus-presentation","295","652415","0.0-55.0","SS1613103369725","pref_reveal","","40","800","1094.4150000112131","null","null","","","","","15","","","","deviant","","","",""
"","null","html-keyboard-response","296","653700","0.0-56.0-0.0","SS1613103369725","","","null","","","","","<p><img src= images/blank.png width =""200"" height = ""200"" style = ""float:right""></p><p><img src=images/blank.png width =""800"" height = ""200""></p>","","","","","","","","","","","",""
"","540.6150000053458","sequential-stimulus-presentation","297","655054","0.0-56.0-1.0","SS1613103369725","trial","","40","800","1340.6150000053458","images/stimuli/spore_stims/simple_18_A_a.gif","images/stimuli/spore_stims/simple_18_B_a.gif","","","","","16","simple_similar","images/stimuli/spore_stims/simple_18_B_a.gif","left","","","","",""
"","null","html-keyboard-response","298","656127","0.0-56.0-0.1","SS1613103369725","","","null","","","","","<p><img src= images/blank.png width =""200"" height = ""200"" style = ""float:right""></p><p><img src=images/blank.png width =""800"" height = ""200""></p>","","","","","","","","","","","",""
"","171.80999999982305","sequential-stimulus-presentation","299","657110","0.0-56.0-1.1","SS1613103369725","trial","","40","800","971.809999999823","images/stimuli/spore_stims/simple_18_A_a.gif","images/stimuli/spore_stims/simple_18_B_a.gif","","","","","16","simple_similar","images/stimuli/spore_stims/simple_18_B_a.gif","left","","","","",""
"","null","html-keyboard-response","300","658082","0.0-56.0-0.2","SS1613103369725","","","null","","","","","<p><img src= images/blank.png width =""200"" height = ""200"" style = ""float:right""></p><p><img src=images/blank.png width =""800"" height = ""200""></p>","","","","","","","","","","","",""
"","1184.3550000048708","sequential-stimulus-presentation","301","660078","0.0-56.0-1.2","SS1613103369725","trial","","40","800","1984.3550000048708","images/stimuli/spore_stims/simple_18_A_a.gif","images/stimuli/spore_stims/simple_18_B_a.gif","","","","","16","simple_similar","images/stimuli/spore_stims/simple_18_B_a.gif","left","","","","",""
"","null","html-keyboard-response","302","661208","0.0-56.0-0.3","SS1613103369725","","","null","","","","","<p><img src= images/blank.png width =""200"" height = ""200"" style = ""float:right""></p><p><img src=images/blank.png width =""800"" height = ""200""></p>","","","","","","","","","","","",""
"","118.55499999364838","sequential-stimulus-presentation","303","662142","0.0-56.0-1.3","SS1613103369725","trial","","40","800","918.5549999936484","images/stimuli/spore_stims/simple_18_A_a.gif","images/stimuli/spore_stims/simple_18_B_a.gif","","","","","16","simple_similar","images/stimuli/spore_stims/simple_18_A_a.gif","middle","","","","",""
"","null","html-keyboard-response","304","663303","0.0-56.0-0.4","SS1613103369725","","","null","","","","","<p><img src= images/blank.png width =""200"" height = ""200"" style = ""float:right""></p><p><img src=images/blank.png width =""800"" height = ""200""></p>","","","","","","","","","","","",""
"","1012.3049999820068","sequential-stimulus-presentation","305","665126","0.0-56.0-1.4","SS1613103369725","trial","","40","800","1812.3049999820068","images/stimuli/spore_stims/simple_18_A_a.gif","images/stimuli/spore_stims/simple_18_B_a.gif","","","","","16","simple_similar","images/stimuli/spore_stims/simple_18_B_a.gif","left","","","","",""
"","null","html-keyboard-response","306","666011","0.0-56.0-0.5","SS1613103369725","","","null","","","","","<p><img src= images/blank.png width =""200"" height = ""200"" style = ""float:right""></p><p><img src=images/blank.png width =""800"" height = ""200""></p>","","","","","","","","","","","",""
"","614.2950000066776","sequential-stimulus-presentation","307","667438","0.0-56.0-1.5","SS1613103369725","trial","","40","800","1414.2950000066776","images/stimuli/spore_stims/simple_18_A_a.gif","images/stimuli/spore_stims/simple_18_B_a.gif","","","","","16","simple_similar","images/stimuli/spore_stims/simple_18_B_a.gif","left","","","","",""
"","null","html-keyboard-response","308","668353","0.0-56.0-0.6","SS1613103369725","","","null","","","","","<p><img src= images/blank.png width =""200"" height = ""200"" style = ""float:right""></p><p><img src=images/blank.png width =""800"" height = ""200""></p>","","","","","","","","","","","",""
"","129.45499998750165","sequential-stimulus-presentation","309","669294","0.0-56.0-1.6","SS1613103369725","trial","","40","800","929.4549999875017","images/stimuli/spore_stims/simple_18_A_a.gif","images/stimuli/spore_stims/simple_18_B_a.gif","","","","","16","simple_similar","images/stimuli/spore_stims/simple_18_B_a.gif","left","","","","",""
"","null","html-keyboard-response","310","670373","0.0-56.0-0.7","SS1613103369725","","","null","","","","","<p><img src= images/blank.png width =""200"" height = ""200"" style = ""float:right""></p><p><img src=images/blank.png width =""800"" height = ""200""></p>","","","","","","","","","","","",""
"","237.1700000076089","sequential-stimulus-presentation","311","671422","0.0-56.0-1.7","SS1613103369725","trial","","40","800","1037.170000007609","images/stimuli/spore_stims/simple_18_A_a.gif","images/stimuli/spore_stims/simple_18_B_a.gif","","","","","16","simple_similar","images/stimuli/spore_stims/simple_18_B_a.gif","left","","","","",""
"","1414.150000025984","html-keyboard-response","312","672846","0.0-57.0","SS1613103369725","pref_question","","98","","","","","<video width ='960' height = '540' style='padding-top:8%' autoplay muted><source src='images/stimuli/wall_pref.mp4' type='video/mp4'></video>","2","middle","45%","16","","","","","","","",""
