"view_history","rt","trial_type","trial_index","time_elapsed","internal_node_id","subject","stimulus_type","trial_stimulus","key_press","minimum_viewing_duration","trial_looking_time","block_deviant","block_background","stimulus","wall_pref","location","location_percent","block_number","block_type","stimulus_displayed","position_displayed","stim_type_selected","responses","question_order","stimulus_left","stimulus_right"
"[{""page_index"":0,""viewing_time"":163770.9999999788}]","163772.9999999865","instructions","0","163778","0.0-0.0","SS1613100545388","","","","","","","","","","","","","","","","","","","",""
"[{""page_index"":0,""viewing_time"":38815.00000000233},{""page_index"":1,""viewing_time"":21198.999999993248}]","60014.999999984866","instructions","1","225801","0.0-1.0","SS1613100545388","instructions","","","","","","","","","","","","","","","","","","",""
"","17160.000000003492","sequential-stimulus-presentation","2","243794","0.0-2.0","SS1613100545388","","","40","800","17960.000000003492","null","null","","","","","","","","","","","","",""
"","6115.999999979977","sequential-stimulus-presentation","3","250718","0.0-3.0","SS1613100545388","","","40","800","6915.999999979977","null","null","","","","","","","","","","","","",""
"[{""page_index"":0,""viewing_time"":13005.000000004657}]","13005.999999993946","instructions","4","263726","0.0-4.0","SS1613100545388","instructions","","","","","","","","","","","","","","","","","","",""
"","29629.999999975553","html-keyboard-response","5","293366","0.0-5.0","SS1613100545388","instructions","","49","","","","","<video width ='960' height = '540' autoplay muted><source src='images/stimuli/wall_pref.mp4' type='video/mp4'></video>","1","left","25%","","","","","","","","",""
"","5959.000000002561","sequential-stimulus-presentation","6","300147","0.0-6.0","SS1613100545388","pref_reveal","","40","800","6759.000000002561","null","null","","","","","","","","","","","","",""
"[{""page_index"":0,""viewing_time"":14478.000000002794},{""page_index"":1,""viewing_time"":8880.000000004657},{""page_index"":2,""viewing_time"":3558.999999979278},{""page_index"":3,""viewing_time"":2264.00000002468}]","29182.0000000007","instructions","7","329331","0.0-7.0","SS1613100545388","instructions","","","","","","","","","","","","","","","","","","",""
"","null","html-keyboard-response","8","330253","0.0-8.0-0.0","SS1613100545388","","","null","","","","","<p><img src= images/blank.png width =""200"" height = ""200"" style = ""float:right""></p><p><img src=images/blank.png width =""800"" height = ""200""></p>","","","","","","","","","","","",""
"","18652.999999991152","sequential-stimulus-presentation","9","349718","0.0-8.0-1.0","SS1613100545388","trial","","40","800","19452.999999991152","images/stimuli/spore_stims/simple_09_A_d.gif","images/stimuli/spore_stims/simple_05_A_b.gif","","","","","0","simple_dissimilar","images/stimuli/spore_stims/simple_05_A_b.gif","left","","","","",""
"","null","html-keyboard-response","10","350775","0.0-8.0-0.1","SS1613100545388","","","null","","","","","<p><img src= images/blank.png width =""200"" height = ""200"" style = ""float:right""></p><p><img src=images/blank.png width =""800"" height = ""200""></p>","","","","","","","","","","","",""
"","12369.999999995343","sequential-stimulus-presentation","11","363965","0.0-8.0-1.1","SS1613100545388","trial","","40","800","13169.999999995343","images/stimuli/spore_stims/simple_09_A_d.gif","images/stimuli/spore_stims/simple_05_A_b.gif","","","","","0","simple_dissimilar","images/stimuli/spore_stims/simple_05_A_b.gif","left","","","","",""
"","null","html-keyboard-response","12","364774","0.0-8.0-0.2","SS1613100545388","","","null","","","","","<p><img src= images/blank.png width =""200"" height = ""200"" style = ""float:right""></p><p><img src=images/blank.png width =""800"" height = ""200""></p>","","","","","","","","","","","",""
"","3190.0000000023283","sequential-stimulus-presentation","13","368789","0.0-8.0-1.2","SS1613100545388","trial","","40","800","3990.0000000023283","images/stimuli/spore_stims/simple_09_A_d.gif","images/stimuli/spore_stims/simple_05_A_b.gif","","","","","0","simple_dissimilar","images/stimuli/spore_stims/simple_05_A_b.gif","left","","","","",""
"","null","html-keyboard-response","14","369761","0.0-8.0-0.3","SS1613100545388","","","null","","","","","<p><img src= images/blank.png width =""200"" height = ""200"" style = ""float:right""></p><p><img src=images/blank.png width =""800"" height = ""200""></p>","","","","","","","","","","","",""
"","4229.999999981374","sequential-stimulus-presentation","15","374799","0.0-8.0-1.3","SS1613100545388","trial","","40","800","5029.999999981374","images/stimuli/spore_stims/simple_09_A_d.gif","images/stimuli/spore_stims/simple_05_A_b.gif","","","","","0","simple_dissimilar","images/stimuli/spore_stims/simple_09_A_d.gif","middle","","","","",""
"","null","html-keyboard-response","16","375891","0.0-8.0-0.4","SS1613100545388","","","null","","","","","<p><img src= images/blank.png width =""200"" height = ""200"" style = ""float:right""></p><p><img src=images/blank.png width =""800"" height = ""200""></p>","","","","","","","","","","","",""
"","5574.000000022352","sequential-stimulus-presentation","17","382280","0.0-8.0-1.4","SS1613100545388","trial","","40","800","6374.000000022352","images/stimuli/spore_stims/simple_09_A_d.gif","images/stimuli/spore_stims/simple_05_A_b.gif","","","","","0","simple_dissimilar","images/stimuli/spore_stims/simple_05_A_b.gif","left","","","","",""
"","null","html-keyboard-response","18","383434","0.0-8.0-0.5","SS1613100545388","","","null","","","","","<p><img src= images/blank.png width =""200"" height = ""200"" style = ""float:right""></p><p><img src=images/blank.png width =""800"" height = ""200""></p>","","","","","","","","","","","",""
"","3581.9999999948777","sequential-stimulus-presentation","19","387830","0.0-8.0-1.5","SS1613100545388","trial","","40","800","4381.999999994878","images/stimuli/spore_stims/simple_09_A_d.gif","images/stimuli/spore_stims/simple_05_A_b.gif","","","","","0","simple_dissimilar","images/stimuli/spore_stims/simple_05_A_b.gif","left","","","","",""
"","null","html-keyboard-response","20","388833","0.0-8.0-0.6","SS1613100545388","","","null","","","","","<p><img src= images/blank.png width =""200"" height = ""200"" style = ""float:right""></p><p><img src=images/blank.png width =""800"" height = ""200""></p>","","","","","","","","","","","",""
"","2305.999999982305","sequential-stimulus-presentation","21","391956","0.0-8.0-1.6","SS1613100545388","trial","","40","800","3105.999999982305","images/stimuli/spore_stims/simple_09_A_d.gif","images/stimuli/spore_stims/simple_05_A_b.gif","","","","","0","simple_dissimilar","images/stimuli/spore_stims/simple_05_A_b.gif","left","","","","",""
"","null","html-keyboard-response","22","392765","0.0-8.0-0.7","SS1613100545388","","","null","","","","","<p><img src= images/blank.png width =""200"" height = ""200"" style = ""float:right""></p><p><img src=images/blank.png width =""800"" height = ""200""></p>","","","","","","","","","","","",""
"","2399.0000000048894","sequential-stimulus-presentation","23","395979","0.0-8.0-1.7","SS1613100545388","trial","","40","800","3199.0000000048894","images/stimuli/spore_stims/simple_09_A_d.gif","images/stimuli/spore_stims/simple_05_A_b.gif","","","","","0","simple_dissimilar","images/stimuli/spore_stims/simple_05_A_b.gif","left","","","","",""
"","9899.99999999418","html-keyboard-response","24","405884","0.0-9.0","SS1613100545388","pref_question","","51","","","","","<video width ='960' height = '540' style='padding-top:8%' autoplay muted><source src='images/stimuli/wall_pref.mp4' type='video/mp4'></video>","3","right","66%","0","","","","","","","",""
"","5449.000000022352","sequential-stimulus-presentation","25","412143","0.0-10.0","SS1613100545388","pref_reveal","","40","800","6249.000000022352","null","null","","","","","0","","","","novel","","","",""
"","null","html-keyboard-response","26","413304","0.0-11.0-0.0","SS1613100545388","","","null","","","","","<p><img src= images/blank.png width =""200"" height = ""200"" style = ""float:right""></p><p><img src=images/blank.png width =""800"" height = ""200""></p>","","","","","","","","","","","",""
"","3054.0000000037253","sequential-stimulus-presentation","27","417171","0.0-11.0-1.0","SS1613100545388","trial","","40","800","3854.0000000037253","images/stimuli/spore_stims/simple_17_B_b.gif","images/stimuli/spore_stims/simple_06_A_b.gif","","","","","1","simple_dissimilar","images/stimuli/spore_stims/simple_06_A_b.gif","left","","","","",""
"","null","html-keyboard-response","28","418406","0.0-11.0-0.1","SS1613100545388","","","null","","","","","<p><img src= images/blank.png width =""200"" height = ""200"" style = ""float:right""></p><p><img src=images/blank.png width =""800"" height = ""200""></p>","","","","","","","","","","","",""
"","866.9999999983702","sequential-stimulus-presentation","29","420087","0.0-11.0-1.1","SS1613100545388","trial","","40","800","1666.9999999983702","images/stimuli/spore_stims/simple_17_B_b.gif","images/stimuli/spore_stims/simple_06_A_b.gif","","","","","1","simple_dissimilar","images/stimuli/spore_stims/simple_06_A_b.gif","left","","","","",""
"","null","html-keyboard-response","30","421302","0.0-11.0-0.2","SS1613100545388","","","null","","","","","<p><img src= images/blank.png width =""200"" height = ""200"" style = ""float:right""></p><p><img src=images/blank.png width =""800"" height = ""200""></p>","","","","","","","","","","","",""
"","2321.9999999855645","sequential-stimulus-presentation","31","424442","0.0-11.0-1.2","SS1613100545388","trial","","40","800","3121.9999999855645","images/stimuli/spore_stims/simple_17_B_b.gif","images/stimuli/spore_stims/simple_06_A_b.gif","","","","","1","simple_dissimilar","images/stimuli/spore_stims/simple_17_B_b.gif","middle","","","","",""
"","null","html-keyboard-response","32","425342","0.0-11.0-0.3","SS1613100545388","","","null","","","","","<p><img src= images/blank.png width =""200"" height = ""200"" style = ""float:right""></p><p><img src=images/blank.png width =""800"" height = ""200""></p>","","","","","","","","","","","",""
"","788.9999999897555","sequential-stimulus-presentation","33","426938","0.0-11.0-1.3","SS1613100545388","trial","","40","800","1588.9999999897555","images/stimuli/spore_stims/simple_17_B_b.gif","images/stimuli/spore_stims/simple_06_A_b.gif","","","","","1","simple_dissimilar","images/stimuli/spore_stims/simple_06_A_b.gif","left","","","","",""
"","null","html-keyboard-response","34","428022","0.0-11.0-0.4","SS1613100545388","","","null","","","","","<p><img src= images/blank.png width =""200"" height = ""200"" style = ""float:right""></p><p><img src=images/blank.png width =""800"" height = ""200""></p>","","","","","","","","","","","",""
"","1399.0000000048894","sequential-stimulus-presentation","35","430244","0.0-11.0-1.4","SS1613100545388","trial","","40","800","2199.0000000048894","images/stimuli/spore_stims/simple_17_B_b.gif","images/stimuli/spore_stims/simple_06_A_b.gif","","","","","1","simple_dissimilar","images/stimuli/spore_stims/simple_06_A_b.gif","left","","","","",""
"","null","html-keyboard-response","36","431077","0.0-11.0-0.5","SS1613100545388","","","null","","","","","<p><img src= images/blank.png width =""200"" height = ""200"" style = ""float:right""></p><p><img src=images/blank.png width =""800"" height = ""200""></p>","","","","","","","","","","","",""
"","983.0000000074506","sequential-stimulus-presentation","37","432868","0.0-11.0-1.5","SS1613100545388","trial","","40","800","1783.0000000074506","images/stimuli/spore_stims/simple_17_B_b.gif","images/stimuli/spore_stims/simple_06_A_b.gif","","","","","1","simple_dissimilar","images/stimuli/spore_stims/simple_06_A_b.gif","left","","","","",""
"","null","html-keyboard-response","38","433710","0.0-11.0-0.6","SS1613100545388","","","null","","","","","<p><img src= images/blank.png width =""200"" height = ""200"" style = ""float:right""></p><p><img src=images/blank.png width =""800"" height = ""200""></p>","","","","","","","","","","","",""
"","1441.999999980908","sequential-stimulus-presentation","39","435963","0.0-11.0-1.6","SS1613100545388","trial","","40","800","2241.999999980908","images/stimuli/spore_stims/simple_17_B_b.gif","images/stimuli/spore_stims/simple_06_A_b.gif","","","","","1","simple_dissimilar","images/stimuli/spore_stims/simple_06_A_b.gif","left","","","","",""
"","null","html-keyboard-response","40","436963","0.0-11.0-0.7","SS1613100545388","","","null","","","","","<p><img src= images/blank.png width =""200"" height = ""200"" style = ""float:right""></p><p><img src=images/blank.png width =""800"" height = ""200""></p>","","","","","","","","","","","",""
"","1212.9999999888241","sequential-stimulus-presentation","41","438996","0.0-11.0-1.7","SS1613100545388","trial","","40","800","2012.9999999888241","images/stimuli/spore_stims/simple_17_B_b.gif","images/stimuli/spore_stims/simple_06_A_b.gif","","","","","1","simple_dissimilar","images/stimuli/spore_stims/simple_06_A_b.gif","left","","","","",""
"","3288.0000000004657","html-keyboard-response","42","442289","0.0-12.0","SS1613100545388","pref_question","","51","","","","","<video width ='960' height = '540' style='padding-top:8%' autoplay muted><source src='images/stimuli/wall_pref.mp4' type='video/mp4'></video>","3","right","66%","1","","","","","","","",""
"","4450.0000000116415","sequential-stimulus-presentation","43","447556","0.0-13.0","SS1613100545388","pref_reveal","","40","800","5250.0000000116415","null","null","","","","","1","","","","novel","","","",""
"","null","html-keyboard-response","44","448590","0.0-14.0-0.0","SS1613100545388","","","null","","","","","<p><img src= images/blank.png width =""200"" height = ""200"" style = ""float:right""></p><p><img src=images/blank.png width =""800"" height = ""200""></p>","","","","","","","","","","","",""
"","2315.999999991618","sequential-stimulus-presentation","45","451723","0.0-14.0-1.0","SS1613100545388","trial","","40","800","3115.999999991618","images/stimuli/spore_stims/complex_18_B_b.gif","images/stimuli/spore_stims/complex_09_A_b.gif","","","","","2","complex_dissimilar","images/stimuli/spore_stims/complex_09_A_b.gif","right","","","","",""
"","null","html-keyboard-response","46","452967","0.0-14.0-0.1","SS1613100545388","","","null","","","","","<p><img src= images/blank.png width =""200"" height = ""200"" style = ""float:right""></p><p><img src=images/blank.png width =""800"" height = ""200""></p>","","","","","","","","","","","",""
"","2460.0000000209548","sequential-stimulus-presentation","47","456244","0.0-14.0-1.1","SS1613100545388","trial","","40","800","3260.0000000209548","images/stimuli/spore_stims/complex_18_B_b.gif","images/stimuli/spore_stims/complex_09_A_b.gif","","","","","2","complex_dissimilar","images/stimuli/spore_stims/complex_09_A_b.gif","right","","","","",""
"","null","html-keyboard-response","48","457333","0.0-14.0-0.2","SS1613100545388","","","null","","","","","<p><img src= images/blank.png width =""200"" height = ""200"" style = ""float:right""></p><p><img src=images/blank.png width =""800"" height = ""200""></p>","","","","","","","","","","","",""
"","2480.0000000104774","sequential-stimulus-presentation","49","460628","0.0-14.0-1.2","SS1613100545388","trial","","40","800","3280.0000000104774","images/stimuli/spore_stims/complex_18_B_b.gif","images/stimuli/spore_stims/complex_09_A_b.gif","","","","","2","complex_dissimilar","images/stimuli/spore_stims/complex_09_A_b.gif","right","","","","",""
"","null","html-keyboard-response","50","461559","0.0-14.0-0.3","SS1613100545388","","","null","","","","","<p><img src= images/blank.png width =""200"" height = ""200"" style = ""float:right""></p><p><img src=images/blank.png width =""800"" height = ""200""></p>","","","","","","","","","","","",""
"","1849.000000016531","sequential-stimulus-presentation","51","464234","0.0-14.0-1.3","SS1613100545388","trial","","40","800","2649.000000016531","images/stimuli/spore_stims/complex_18_B_b.gif","images/stimuli/spore_stims/complex_09_A_b.gif","","","","","2","complex_dissimilar","images/stimuli/spore_stims/complex_09_A_b.gif","right","","","","",""
"","null","html-keyboard-response","52","465220","0.0-14.0-0.4","SS1613100545388","","","null","","","","","<p><img src= images/blank.png width =""200"" height = ""200"" style = ""float:right""></p><p><img src=images/blank.png width =""800"" height = ""200""></p>","","","","","","","","","","","",""
"","4581.000000005588","sequential-stimulus-presentation","53","470613","0.0-14.0-1.4","SS1613100545388","trial","","40","800","5381.000000005588","images/stimuli/spore_stims/complex_18_B_b.gif","images/stimuli/spore_stims/complex_09_A_b.gif","","","","","2","complex_dissimilar","images/stimuli/spore_stims/complex_18_B_b.gif","left","","","","",""
"","null","html-keyboard-response","54","471492","0.0-14.0-0.5","SS1613100545388","","","null","","","","","<p><img src= images/blank.png width =""200"" height = ""200"" style = ""float:right""></p><p><img src=images/blank.png width =""800"" height = ""200""></p>","","","","","","","","","","","",""
"","1899.0000000048894","sequential-stimulus-presentation","55","474207","0.0-14.0-1.5","SS1613100545388","trial","","40","800","2699.0000000048894","images/stimuli/spore_stims/complex_18_B_b.gif","images/stimuli/spore_stims/complex_09_A_b.gif","","","","","2","complex_dissimilar","images/stimuli/spore_stims/complex_09_A_b.gif","right","","","","",""
"","null","html-keyboard-response","56","475402","0.0-14.0-0.6","SS1613100545388","","","null","","","","","<p><img src= images/blank.png width =""200"" height = ""200"" style = ""float:right""></p><p><img src=images/blank.png width =""800"" height = ""200""></p>","","","","","","","","","","","",""
"","875","sequential-stimulus-presentation","57","477091","0.0-14.0-1.6","SS1613100545388","trial","","40","800","1675","images/stimuli/spore_stims/complex_18_B_b.gif","images/stimuli/spore_stims/complex_09_A_b.gif","","","","","2","complex_dissimilar","images/stimuli/spore_stims/complex_09_A_b.gif","right","","","","",""
"","null","html-keyboard-response","58","478133","0.0-14.0-0.7","SS1613100545388","","","null","","","","","<p><img src= images/blank.png width =""200"" height = ""200"" style = ""float:right""></p><p><img src=images/blank.png width =""800"" height = ""200""></p>","","","","","","","","","","","",""
"","800.0000000174623","sequential-stimulus-presentation","59","479750","0.0-14.0-1.7","SS1613100545388","trial","","40","800","1600.0000000174623","images/stimuli/spore_stims/complex_18_B_b.gif","images/stimuli/spore_stims/complex_09_A_b.gif","","","","","2","complex_dissimilar","images/stimuli/spore_stims/complex_09_A_b.gif","right","","","","",""
"","3336.0000000102445","html-keyboard-response","60","483095","0.0-15.0","SS1613100545388","pref_question","","50","","","","","<video width ='960' height = '540' style='padding-top:8%' autoplay muted><source src='images/stimuli/wall_pref.mp4' type='video/mp4'></video>","2","middle","45%","2","","","","","","","",""
"","22606.999999989057","sequential-stimulus-presentation","61","506516","0.0-16.0","SS1613100545388","pref_reveal","","40","800","23406.999999989057","null","null","","","","","2","","","","novel","","","",""
"","null","html-keyboard-response","62","507666","0.0-17.0-0.0","SS1613100545388","","","null","","","","","<p><img src= images/blank.png width =""200"" height = ""200"" style = ""float:right""></p><p><img src=images/blank.png width =""800"" height = ""200""></p>","","","","","","","","","","","",""
"","1831.9999999948777","sequential-stimulus-presentation","63","510307","0.0-17.0-1.0","SS1613100545388","trial","","40","800","2631.9999999948777","images/stimuli/spore_stims/simple_16_B_d.gif","images/stimuli/spore_stims/simple_16_A_d.gif","","","","","3","simple_similar","images/stimuli/spore_stims/simple_16_A_d.gif","right","","","","",""
"","null","html-keyboard-response","64","511152","0.0-17.0-0.1","SS1613100545388","","","null","","","","","<p><img src= images/blank.png width =""200"" height = ""200"" style = ""float:right""></p><p><img src=images/blank.png width =""800"" height = ""200""></p>","","","","","","","","","","","",""
"","752.9999999969732","sequential-stimulus-presentation","65","512718","0.0-17.0-1.1","SS1613100545388","trial","","40","800","1552.9999999969732","images/stimuli/spore_stims/simple_16_B_d.gif","images/stimuli/spore_stims/simple_16_A_d.gif","","","","","3","simple_similar","images/stimuli/spore_stims/simple_16_A_d.gif","right","","","","",""
"","null","html-keyboard-response","66","514004","0.0-17.0-0.2","SS1613100545388","","","null","","","","","<p><img src= images/blank.png width =""200"" height = ""200"" style = ""float:right""></p><p><img src=images/blank.png width =""800"" height = ""200""></p>","","","","","","","","","","","",""
"","560.9999999869615","sequential-stimulus-presentation","67","515374","0.0-17.0-1.2","SS1613100545388","trial","","40","800","1360.9999999869615","images/stimuli/spore_stims/simple_16_B_d.gif","images/stimuli/spore_stims/simple_16_A_d.gif","","","","","3","simple_similar","images/stimuli/spore_stims/simple_16_A_d.gif","right","","","","",""
"","null","html-keyboard-response","68","516203","0.0-17.0-0.3","SS1613100545388","","","null","","","","","<p><img src= images/blank.png width =""200"" height = ""200"" style = ""float:right""></p><p><img src=images/blank.png width =""800"" height = ""200""></p>","","","","","","","","","","","",""
"","888.0000000062864","sequential-stimulus-presentation","69","517898","0.0-17.0-1.3","SS1613100545388","trial","","40","800","1688.0000000062864","images/stimuli/spore_stims/simple_16_B_d.gif","images/stimuli/spore_stims/simple_16_A_d.gif","","","","","3","simple_similar","images/stimuli/spore_stims/simple_16_A_d.gif","right","","","","",""
"","null","html-keyboard-response","70","518842","0.0-17.0-0.4","SS1613100545388","","","null","","","","","<p><img src= images/blank.png width =""200"" height = ""200"" style = ""float:right""></p><p><img src=images/blank.png width =""800"" height = ""200""></p>","","","","","","","","","","","",""
"","2675.9999999776483","sequential-stimulus-presentation","71","522338","0.0-17.0-1.4","SS1613100545388","trial","","40","800","3475.9999999776483","images/stimuli/spore_stims/simple_16_B_d.gif","images/stimuli/spore_stims/simple_16_A_d.gif","","","","","3","simple_similar","images/stimuli/spore_stims/simple_16_B_d.gif","middle","","","","",""
"","null","html-keyboard-response","72","523598","0.0-17.0-0.5","SS1613100545388","","","null","","","","","<p><img src= images/blank.png width =""200"" height = ""200"" style = ""float:right""></p><p><img src=images/blank.png width =""800"" height = ""200""></p>","","","","","","","","","","","",""
"","304.9999999930151","sequential-stimulus-presentation","73","524729","0.0-17.0-1.5","SS1613100545388","trial","","40","800","1104.999999993015","images/stimuli/spore_stims/simple_16_B_d.gif","images/stimuli/spore_stims/simple_16_A_d.gif","","","","","3","simple_similar","images/stimuli/spore_stims/simple_16_A_d.gif","right","","","","",""
"","null","html-keyboard-response","74","525903","0.0-17.0-0.6","SS1613100545388","","","null","","","","","<p><img src= images/blank.png width =""200"" height = ""200"" style = ""float:right""></p><p><img src=images/blank.png width =""800"" height = ""200""></p>","","","","","","","","","","","",""
"","340.00000002561137","sequential-stimulus-presentation","75","527058","0.0-17.0-1.6","SS1613100545388","trial","","40","800","1140.0000000256114","images/stimuli/spore_stims/simple_16_B_d.gif","images/stimuli/spore_stims/simple_16_A_d.gif","","","","","3","simple_similar","images/stimuli/spore_stims/simple_16_A_d.gif","right","","","","",""
"","null","html-keyboard-response","76","528007","0.0-17.0-0.7","SS1613100545388","","","null","","","","","<p><img src= images/blank.png width =""200"" height = ""200"" style = ""float:right""></p><p><img src=images/blank.png width =""800"" height = ""200""></p>","","","","","","","","","","","",""
"","750","sequential-stimulus-presentation","77","529562","0.0-17.0-1.7","SS1613100545388","trial","","40","800","1550","images/stimuli/spore_stims/simple_16_B_d.gif","images/stimuli/spore_stims/simple_16_A_d.gif","","","","","3","simple_similar","images/stimuli/spore_stims/simple_16_A_d.gif","right","","","","",""
"","2149.0000000048894","html-keyboard-response","78","531715","0.0-18.0","SS1613100545388","pref_question","","49","","","","","<video width ='960' height = '540' style='padding-top:8%' autoplay muted><source src='images/stimuli/wall_pref.mp4' type='video/mp4'></video>","1","left","25%","3","","","","","","","",""
"","2752.0000000076834","sequential-stimulus-presentation","79","535316","0.0-19.0","SS1613100545388","pref_reveal","","40","800","3552.0000000076834","null","null","","","","","3","","","","novel","","","",""
"","null","html-keyboard-response","80","536275","0.0-20.0-0.0","SS1613100545388","","","null","","","","","<p><img src= images/blank.png width =""200"" height = ""200"" style = ""float:right""></p><p><img src=images/blank.png width =""800"" height = ""200""></p>","","","","","","","","","","","",""
"","2445.9999999962747","sequential-stimulus-presentation","81","539532","0.0-20.0-1.0","SS1613100545388","trial","","40","800","3245.9999999962747","images/stimuli/spore_stims/complex_19_B_d.gif","images/stimuli/spore_stims/complex_19_A_d.gif","","","","","4","complex_similar","images/stimuli/spore_stims/complex_19_A_d.gif","right","","","","",""
"","null","html-keyboard-response","82","540791","0.0-20.0-0.1","SS1613100545388","","","null","","","","","<p><img src= images/blank.png width =""200"" height = ""200"" style = ""float:right""></p><p><img src=images/blank.png width =""800"" height = ""200""></p>","","","","","","","","","","","",""
"","1019.0000000002328","sequential-stimulus-presentation","83","542618","0.0-20.0-1.1","SS1613100545388","trial","","40","800","1819.0000000002328","images/stimuli/spore_stims/complex_19_B_d.gif","images/stimuli/spore_stims/complex_19_A_d.gif","","","","","4","complex_similar","images/stimuli/spore_stims/complex_19_A_d.gif","right","","","","",""
"","null","html-keyboard-response","84","543615","0.0-20.0-0.2","SS1613100545388","","","null","","","","","<p><img src= images/blank.png width =""200"" height = ""200"" style = ""float:right""></p><p><img src=images/blank.png width =""800"" height = ""200""></p>","","","","","","","","","","","",""
"","871.000000013737","sequential-stimulus-presentation","85","545302","0.0-20.0-1.2","SS1613100545388","trial","","40","800","1671.000000013737","images/stimuli/spore_stims/complex_19_B_d.gif","images/stimuli/spore_stims/complex_19_A_d.gif","","","","","4","complex_similar","images/stimuli/spore_stims/complex_19_A_d.gif","right","","","","",""
"","null","html-keyboard-response","86","546491","0.0-20.0-0.3","SS1613100545388","","","null","","","","","<p><img src= images/blank.png width =""200"" height = ""200"" style = ""float:right""></p><p><img src=images/blank.png width =""800"" height = ""200""></p>","","","","","","","","","","","",""
"","2848.999999987427","sequential-stimulus-presentation","87","550151","0.0-20.0-1.3","SS1613100545388","trial","","40","800","3648.999999987427","images/stimuli/spore_stims/complex_19_B_d.gif","images/stimuli/spore_stims/complex_19_A_d.gif","","","","","4","complex_similar","images/stimuli/spore_stims/complex_19_B_d.gif","left","","","","",""
"","null","html-keyboard-response","88","550973","0.0-20.0-0.4","SS1613100545388","","","null","","","","","<p><img src= images/blank.png width =""200"" height = ""200"" style = ""float:right""></p><p><img src=images/blank.png width =""800"" height = ""200""></p>","","","","","","","","","","","",""
"","1665.9999999974389","sequential-stimulus-presentation","89","553452","0.0-20.0-1.4","SS1613100545388","trial","","40","800","2465.999999997439","images/stimuli/spore_stims/complex_19_B_d.gif","images/stimuli/spore_stims/complex_19_A_d.gif","","","","","4","complex_similar","images/stimuli/spore_stims/complex_19_A_d.gif","right","","","","",""
"","null","html-keyboard-response","90","554703","0.0-20.0-0.5","SS1613100545388","","","null","","","","","<p><img src= images/blank.png width =""200"" height = ""200"" style = ""float:right""></p><p><img src=images/blank.png width =""800"" height = ""200""></p>","","","","","","","","","","","",""
"","799.9999999883585","sequential-stimulus-presentation","91","556315","0.0-20.0-1.5","SS1613100545388","trial","","40","800","1599.9999999883585","images/stimuli/spore_stims/complex_19_B_d.gif","images/stimuli/spore_stims/complex_19_A_d.gif","","","","","4","complex_similar","images/stimuli/spore_stims/complex_19_A_d.gif","right","","","","",""
"","null","html-keyboard-response","92","557453","0.0-20.0-0.6","SS1613100545388","","","null","","","","","<p><img src= images/blank.png width =""200"" height = ""200"" style = ""float:right""></p><p><img src=images/blank.png width =""800"" height = ""200""></p>","","","","","","","","","","","",""
"","975.0000000058208","sequential-stimulus-presentation","93","559236","0.0-20.0-1.6","SS1613100545388","trial","","40","800","1775.0000000058208","images/stimuli/spore_stims/complex_19_B_d.gif","images/stimuli/spore_stims/complex_19_A_d.gif","","","","","4","complex_similar","images/stimuli/spore_stims/complex_19_A_d.gif","right","","","","",""
"","null","html-keyboard-response","94","560338","0.0-20.0-0.7","SS1613100545388","","","null","","","","","<p><img src= images/blank.png width =""200"" height = ""200"" style = ""float:right""></p><p><img src=images/blank.png width =""800"" height = ""200""></p>","","","","","","","","","","","",""
"","690.9999999916181","sequential-stimulus-presentation","95","561840","0.0-20.0-1.7","SS1613100545388","trial","","40","800","1490.999999991618","images/stimuli/spore_stims/complex_19_B_d.gif","images/stimuli/spore_stims/complex_19_A_d.gif","","","","","4","complex_similar","images/stimuli/spore_stims/complex_19_A_d.gif","right","","","","",""
"","1858.9999999967404","html-keyboard-response","96","563707","0.0-21.0","SS1613100545388","pref_question","","50","","","","","<video width ='960' height = '540' style='padding-top:8%' autoplay muted><source src='images/stimuli/wall_pref.mp4' type='video/mp4'></video>","2","middle","45%","4","","","","","","","",""
"","4090.9999999857973","sequential-stimulus-presentation","97","568620","0.0-22.0","SS1613100545388","pref_reveal","","40","800","4890.999999985797","null","null","","","","","4","","","","novel","","","",""
"","null","html-keyboard-response","98","569778","0.0-23.0-0.0","SS1613100545388","","","null","","","","","<p><img src= images/blank.png width =""200"" height = ""200"" style = ""float:right""></p><p><img src=images/blank.png width =""800"" height = ""200""></p>","","","","","","","","","","","",""
"","1989.9999999906868","sequential-stimulus-presentation","99","572614","0.0-23.0-1.0","SS1613100545388","trial","","40","800","2789.999999990687","images/stimuli/spore_stims/complex_06_B_d.gif","images/stimuli/spore_stims/complex_07_A_c.gif","","","","","5","complex_dissimilar","images/stimuli/spore_stims/complex_07_A_c.gif","middle","","","","",""
"","null","html-keyboard-response","100","573550","0.0-23.0-0.1","SS1613100545388","","","null","","","","","<p><img src= images/blank.png width =""200"" height = ""200"" style = ""float:right""></p><p><img src=images/blank.png width =""800"" height = ""200""></p>","","","","","","","","","","","",""
"","730.9999999997672","sequential-stimulus-presentation","101","575098","0.0-23.0-1.1","SS1613100545388","trial","","40","800","1530.9999999997672","images/stimuli/spore_stims/complex_06_B_d.gif","images/stimuli/spore_stims/complex_07_A_c.gif","","","","","5","complex_dissimilar","images/stimuli/spore_stims/complex_07_A_c.gif","middle","","","","",""
"","null","html-keyboard-response","102","575995","0.0-23.0-0.2","SS1613100545388","","","null","","","","","<p><img src= images/blank.png width =""200"" height = ""200"" style = ""float:right""></p><p><img src=images/blank.png width =""800"" height = ""200""></p>","","","","","","","","","","","",""
"","1001.0000000183936","sequential-stimulus-presentation","103","577820","0.0-23.0-1.2","SS1613100545388","trial","","40","800","1801.0000000183936","images/stimuli/spore_stims/complex_06_B_d.gif","images/stimuli/spore_stims/complex_07_A_c.gif","","","","","5","complex_dissimilar","images/stimuli/spore_stims/complex_06_B_d.gif","right","","","","",""
"","null","html-keyboard-response","104","579105","0.0-23.0-0.3","SS1613100545388","","","null","","","","","<p><img src= images/blank.png width =""200"" height = ""200"" style = ""float:right""></p><p><img src=images/blank.png width =""800"" height = ""200""></p>","","","","","","","","","","","",""
"","1035.9999999927823","sequential-stimulus-presentation","105","580958","0.0-23.0-1.3","SS1613100545388","trial","","40","800","1835.9999999927823","images/stimuli/spore_stims/complex_06_B_d.gif","images/stimuli/spore_stims/complex_07_A_c.gif","","","","","5","complex_dissimilar","images/stimuli/spore_stims/complex_07_A_c.gif","middle","","","","",""
"","null","html-keyboard-response","106","582077","0.0-23.0-0.4","SS1613100545388","","","null","","","","","<p><img src= images/blank.png width =""200"" height = ""200"" style = ""float:right""></p><p><img src=images/blank.png width =""800"" height = ""200""></p>","","","","","","","","","","","",""
"","2170.0000000128057","sequential-stimulus-presentation","107","585078","0.0-23.0-1.4","SS1613100545388","trial","","40","800","2970.0000000128057","images/stimuli/spore_stims/complex_06_B_d.gif","images/stimuli/spore_stims/complex_07_A_c.gif","","","","","5","complex_dissimilar","images/stimuli/spore_stims/complex_07_A_c.gif","middle","","","","",""
"","null","html-keyboard-response","108","586004","0.0-23.0-0.5","SS1613100545388","","","null","","","","","<p><img src= images/blank.png width =""200"" height = ""200"" style = ""float:right""></p><p><img src=images/blank.png width =""800"" height = ""200""></p>","","","","","","","","","","","",""
"","1331.9999999948777","sequential-stimulus-presentation","109","588157","0.0-23.0-1.5","SS1613100545388","trial","","40","800","2131.9999999948777","images/stimuli/spore_stims/complex_06_B_d.gif","images/stimuli/spore_stims/complex_07_A_c.gif","","","","","5","complex_dissimilar","images/stimuli/spore_stims/complex_07_A_c.gif","middle","","","","",""
"","null","html-keyboard-response","110","589012","0.0-23.0-0.6","SS1613100545388","","","null","","","","","<p><img src= images/blank.png width =""200"" height = ""200"" style = ""float:right""></p><p><img src=images/blank.png width =""800"" height = ""200""></p>","","","","","","","","","","","",""
"","937.0000000053551","sequential-stimulus-presentation","111","590769","0.0-23.0-1.6","SS1613100545388","trial","","40","800","1737.000000005355","images/stimuli/spore_stims/complex_06_B_d.gif","images/stimuli/spore_stims/complex_07_A_c.gif","","","","","5","complex_dissimilar","images/stimuli/spore_stims/complex_07_A_c.gif","middle","","","","",""
"","null","html-keyboard-response","112","591870","0.0-23.0-0.7","SS1613100545388","","","null","","","","","<p><img src= images/blank.png width =""200"" height = ""200"" style = ""float:right""></p><p><img src=images/blank.png width =""800"" height = ""200""></p>","","","","","","","","","","","",""
"","906.0000000172295","sequential-stimulus-presentation","113","593596","0.0-23.0-1.7","SS1613100545388","trial","","40","800","1706.0000000172295","images/stimuli/spore_stims/complex_06_B_d.gif","images/stimuli/spore_stims/complex_07_A_c.gif","","","","","5","complex_dissimilar","images/stimuli/spore_stims/complex_07_A_c.gif","middle","","","","",""
"","1155.9999999881256","html-keyboard-response","114","594761","0.0-24.0","SS1613100545388","pref_question","","49","","","","","<video width ='960' height = '540' style='padding-top:8%' autoplay muted><source src='images/stimuli/wall_pref.mp4' type='video/mp4'></video>","1","left","25%","5","","","","","","","",""
"","2378.999999986263","sequential-stimulus-presentation","115","597952","0.0-25.0","SS1613100545388","pref_reveal","","40","800","3178.999999986263","null","null","","","","","5","","","","novel","","","",""
"","null","html-keyboard-response","116","598889","0.0-26.0-0.0","SS1613100545388","","","null","","","","","<p><img src= images/blank.png width =""200"" height = ""200"" style = ""float:right""></p><p><img src=images/blank.png width =""800"" height = ""200""></p>","","","","","","","","","","","",""
"","1249.0000000107102","sequential-stimulus-presentation","117","600959","0.0-26.0-1.0","SS1613100545388","trial","","40","800","2049.00000001071","images/stimuli/spore_stims/complex_13_B_c.gif","images/stimuli/spore_stims/complex_13_A_c.gif","","","","","6","complex_similar","images/stimuli/spore_stims/complex_13_A_c.gif","middle","","","","",""
"","null","html-keyboard-response","118","601977","0.0-26.0-0.1","SS1613100545388","","","null","","","","","<p><img src= images/blank.png width =""200"" height = ""200"" style = ""float:right""></p><p><img src=images/blank.png width =""800"" height = ""200""></p>","","","","","","","","","","","",""
"","860.000000015134","sequential-stimulus-presentation","119","603649","0.0-26.0-1.1","SS1613100545388","trial","","40","800","1660.000000015134","images/stimuli/spore_stims/complex_13_B_c.gif","images/stimuli/spore_stims/complex_13_A_c.gif","","","","","6","complex_similar","images/stimuli/spore_stims/complex_13_A_c.gif","middle","","","","",""
"","null","html-keyboard-response","120","604471","0.0-26.0-0.2","SS1613100545388","","","null","","","","","<p><img src= images/blank.png width =""200"" height = ""200"" style = ""float:right""></p><p><img src=images/blank.png width =""800"" height = ""200""></p>","","","","","","","","","","","",""
"","788.0000000004657","sequential-stimulus-presentation","121","606078","0.0-26.0-1.2","SS1613100545388","trial","","40","800","1588.0000000004657","images/stimuli/spore_stims/complex_13_B_c.gif","images/stimuli/spore_stims/complex_13_A_c.gif","","","","","6","complex_similar","images/stimuli/spore_stims/complex_13_A_c.gif","middle","","","","",""
"","null","html-keyboard-response","122","607300","0.0-26.0-0.3","SS1613100545388","","","null","","","","","<p><img src= images/blank.png width =""200"" height = ""200"" style = ""float:right""></p><p><img src=images/blank.png width =""800"" height = ""200""></p>","","","","","","","","","","","",""
"","725.9999999951106","sequential-stimulus-presentation","123","608845","0.0-26.0-1.3","SS1613100545388","trial","","40","800","1525.9999999951106","images/stimuli/spore_stims/complex_13_B_c.gif","images/stimuli/spore_stims/complex_13_A_c.gif","","","","","6","complex_similar","images/stimuli/spore_stims/complex_13_A_c.gif","middle","","","","",""
"","null","html-keyboard-response","124","610107","0.0-26.0-0.4","SS1613100545388","","","null","","","","","<p><img src= images/blank.png width =""200"" height = ""200"" style = ""float:right""></p><p><img src=images/blank.png width =""800"" height = ""200""></p>","","","","","","","","","","","",""
"","2139.00000002468","sequential-stimulus-presentation","125","613060","0.0-26.0-1.4","SS1613100545388","trial","","40","800","2939.00000002468","images/stimuli/spore_stims/complex_13_B_c.gif","images/stimuli/spore_stims/complex_13_A_c.gif","","","","","6","complex_similar","images/stimuli/spore_stims/complex_13_B_c.gif","right","","","","",""
"","null","html-keyboard-response","126","614030","0.0-26.0-0.5","SS1613100545388","","","null","","","","","<p><img src= images/blank.png width =""200"" height = ""200"" style = ""float:right""></p><p><img src=images/blank.png width =""800"" height = ""200""></p>","","","","","","","","","","","",""
"","887.0000000169966","sequential-stimulus-presentation","127","615753","0.0-26.0-1.5","SS1613100545388","trial","","40","800","1687.0000000169966","images/stimuli/spore_stims/complex_13_B_c.gif","images/stimuli/spore_stims/complex_13_A_c.gif","","","","","6","complex_similar","images/stimuli/spore_stims/complex_13_A_c.gif","middle","","","","",""
"","null","html-keyboard-response","128","616879","0.0-26.0-0.6","SS1613100545388","","","null","","","","","<p><img src= images/blank.png width =""200"" height = ""200"" style = ""float:right""></p><p><img src=images/blank.png width =""800"" height = ""200""></p>","","","","","","","","","","","",""
"","76.00000000093132","sequential-stimulus-presentation","129","617781","0.0-26.0-1.6","SS1613100545388","trial","","40","800","876.0000000009313","images/stimuli/spore_stims/complex_13_B_c.gif","images/stimuli/spore_stims/complex_13_A_c.gif","","","","","6","complex_similar","images/stimuli/spore_stims/complex_13_A_c.gif","middle","","","","",""
"","null","html-keyboard-response","130","618620","0.0-26.0-0.7","SS1613100545388","","","null","","","","","<p><img src= images/blank.png width =""200"" height = ""200"" style = ""float:right""></p><p><img src=images/blank.png width =""800"" height = ""200""></p>","","","","","","","","","","","",""
"","728.000000002794","sequential-stimulus-presentation","131","620191","0.0-26.0-1.7","SS1613100545388","trial","","40","800","1528.000000002794","images/stimuli/spore_stims/complex_13_B_c.gif","images/stimuli/spore_stims/complex_13_A_c.gif","","","","","6","complex_similar","images/stimuli/spore_stims/complex_13_A_c.gif","middle","","","","",""
"","1739.9999999906868","html-keyboard-response","132","621973","0.0-27.0","SS1613100545388","pref_question","","49","","","","","<video width ='960' height = '540' style='padding-top:8%' autoplay muted><source src='images/stimuli/wall_pref.mp4' type='video/mp4'></video>","1","left","25%","6","","","","","","","",""
"","5858.000000007451","sequential-stimulus-presentation","133","628647","0.0-28.0","SS1613100545388","pref_reveal","","40","800","6658.000000007451","null","null","","","","","6","","","","novel","","","",""
"","null","html-keyboard-response","134","629917","0.0-29.0-0.0","SS1613100545388","","","null","","","","","<p><img src= images/blank.png width =""200"" height = ""200"" style = ""float:right""></p><p><img src=images/blank.png width =""800"" height = ""200""></p>","","","","","","","","","","","",""
"","798.0000000097789","sequential-stimulus-presentation","135","631526","0.0-29.0-1.0","SS1613100545388","trial","","40","800","1598.000000009779","images/stimuli/spore_stims/simple_01_B_c.gif","images/stimuli/spore_stims/simple_03_B_d.gif","","","","","7","simple_dissimilar","images/stimuli/spore_stims/simple_03_B_d.gif","middle","","","","",""
"","null","html-keyboard-response","136","632547","0.0-29.0-0.1","SS1613100545388","","","null","","","","","<p><img src= images/blank.png width =""200"" height = ""200"" style = ""float:right""></p><p><img src=images/blank.png width =""800"" height = ""200""></p>","","","","","","","","","","","",""
"","80.9999999764841","sequential-stimulus-presentation","137","633478","0.0-29.0-1.1","SS1613100545388","trial","","40","800","880.9999999764841","images/stimuli/spore_stims/simple_01_B_c.gif","images/stimuli/spore_stims/simple_03_B_d.gif","","","","","7","simple_dissimilar","images/stimuli/spore_stims/simple_03_B_d.gif","middle","","","","",""
"","null","html-keyboard-response","138","634682","0.0-29.0-0.2","SS1613100545388","","","null","","","","","<p><img src= images/blank.png width =""200"" height = ""200"" style = ""float:right""></p><p><img src=images/blank.png width =""800"" height = ""200""></p>","","","","","","","","","","","",""
"","728.9999999920838","sequential-stimulus-presentation","139","636224","0.0-29.0-1.2","SS1613100545388","trial","","40","800","1528.9999999920838","images/stimuli/spore_stims/simple_01_B_c.gif","images/stimuli/spore_stims/simple_03_B_d.gif","","","","","7","simple_dissimilar","images/stimuli/spore_stims/simple_03_B_d.gif","middle","","","","",""
"","null","html-keyboard-response","140","637513","0.0-29.0-0.3","SS1613100545388","","","null","","","","","<p><img src= images/blank.png width =""200"" height = ""200"" style = ""float:right""></p><p><img src=images/blank.png width =""800"" height = ""200""></p>","","","","","","","","","","","",""
"","766.0000000032596","sequential-stimulus-presentation","141","639102","0.0-29.0-1.3","SS1613100545388","trial","","40","800","1566.0000000032596","images/stimuli/spore_stims/simple_01_B_c.gif","images/stimuli/spore_stims/simple_03_B_d.gif","","","","","7","simple_dissimilar","images/stimuli/spore_stims/simple_03_B_d.gif","middle","","","","",""
"","null","html-keyboard-response","142","640382","0.0-29.0-0.4","SS1613100545388","","","null","","","","","<p><img src= images/blank.png width =""200"" height = ""200"" style = ""float:right""></p><p><img src=images/blank.png width =""800"" height = ""200""></p>","","","","","","","","","","","",""
"","2203.9999999979045","sequential-stimulus-presentation","143","643430","0.0-29.0-1.4","SS1613100545388","trial","","40","800","3003.9999999979045","images/stimuli/spore_stims/simple_01_B_c.gif","images/stimuli/spore_stims/simple_03_B_d.gif","","","","","7","simple_dissimilar","images/stimuli/spore_stims/simple_01_B_c.gif","right","","","","",""
"","null","html-keyboard-response","144","644603","0.0-29.0-0.5","SS1613100545388","","","null","","","","","<p><img src= images/blank.png width =""200"" height = ""200"" style = ""float:right""></p><p><img src=images/blank.png width =""800"" height = ""200""></p>","","","","","","","","","","","",""
"","159.00000001420267","sequential-stimulus-presentation","145","645570","0.0-29.0-1.5","SS1613100545388","trial","","40","800","959.0000000142027","images/stimuli/spore_stims/simple_01_B_c.gif","images/stimuli/spore_stims/simple_03_B_d.gif","","","","","7","simple_dissimilar","images/stimuli/spore_stims/simple_03_B_d.gif","middle","","","","",""
"","null","html-keyboard-response","146","646614","0.0-29.0-0.6","SS1613100545388","","","null","","","","","<p><img src= images/blank.png width =""200"" height = ""200"" style = ""float:right""></p><p><img src=images/blank.png width =""800"" height = ""200""></p>","","","","","","","","","","","",""
"","1078.9999999979045","sequential-stimulus-presentation","147","648526","0.0-29.0-1.6","SS1613100545388","trial","","40","800","1878.9999999979045","images/stimuli/spore_stims/simple_01_B_c.gif","images/stimuli/spore_stims/simple_03_B_d.gif","","","","","7","simple_dissimilar","images/stimuli/spore_stims/simple_03_B_d.gif","middle","","","","",""
"","null","html-keyboard-response","148","649702","0.0-29.0-0.7","SS1613100545388","","","null","","","","","<p><img src= images/blank.png width =""200"" height = ""200"" style = ""float:right""></p><p><img src=images/blank.png width =""800"" height = ""200""></p>","","","","","","","","","","","",""
"","22999.00000001071","sequential-stimulus-presentation","149","673513","0.0-29.0-1.7","SS1613100545388","trial","","40","800","23799.00000001071","images/stimuli/spore_stims/simple_01_B_c.gif","images/stimuli/spore_stims/simple_03_B_d.gif","","","","","7","simple_dissimilar","images/stimuli/spore_stims/simple_03_B_d.gif","middle","","","","",""
"","1746.999999973923","html-keyboard-response","150","675267","0.0-30.0","SS1613100545388","pref_question","","49","","","","","<video width ='960' height = '540' style='padding-top:8%' autoplay muted><source src='images/stimuli/wall_pref.mp4' type='video/mp4'></video>","1","left","25%","7","","","","","","","",""
"","2124.00000001071","sequential-stimulus-presentation","151","678199","0.0-31.0","SS1613100545388","pref_reveal","","40","800","2924.00000001071","null","null","","","","","7","","","","novel","","","",""
"","null","html-keyboard-response","152","679259","0.0-32.0-0.0","SS1613100545388","","","null","","","","","<p><img src= images/blank.png width =""200"" height = ""200"" style = ""float:right""></p><p><img src=images/blank.png width =""800"" height = ""200""></p>","","","","","","","","","","","",""
"","1375","sequential-stimulus-presentation","153","681452","0.0-32.0-1.0","SS1613100545388","trial","","40","800","2175","images/stimuli/spore_stims/simple_11_A_b.gif","images/stimuli/spore_stims/simple_02_B_c.gif","","","","","8","simple_dissimilar","images/stimuli/spore_stims/simple_02_B_c.gif","middle","","","","",""
"","null","html-keyboard-response","154","682353","0.0-32.0-0.1","SS1613100545388","","","null","","","","","<p><img src= images/blank.png width =""200"" height = ""200"" style = ""float:right""></p><p><img src=images/blank.png width =""800"" height = ""200""></p>","","","","","","","","","","","",""
"","961.9999999995343","sequential-stimulus-presentation","155","684134","0.0-32.0-1.1","SS1613100545388","trial","","40","800","1761.9999999995343","images/stimuli/spore_stims/simple_11_A_b.gif","images/stimuli/spore_stims/simple_02_B_c.gif","","","","","8","simple_dissimilar","images/stimuli/spore_stims/simple_02_B_c.gif","middle","","","","",""
"","null","html-keyboard-response","156","685439","0.0-32.0-0.2","SS1613100545388","","","null","","","","","<p><img src= images/blank.png width =""200"" height = ""200"" style = ""float:right""></p><p><img src=images/blank.png width =""800"" height = ""200""></p>","","","","","","","","","","","",""
"","889.999999984866","sequential-stimulus-presentation","157","687142","0.0-32.0-1.2","SS1613100545388","trial","","40","800","1689.999999984866","images/stimuli/spore_stims/simple_11_A_b.gif","images/stimuli/spore_stims/simple_02_B_c.gif","","","","","8","simple_dissimilar","images/stimuli/spore_stims/simple_02_B_c.gif","middle","","","","",""
"","null","html-keyboard-response","158","688129","0.0-32.0-0.3","SS1613100545388","","","null","","","","","<p><img src= images/blank.png width =""200"" height = ""200"" style = ""float:right""></p><p><img src=images/blank.png width =""800"" height = ""200""></p>","","","","","","","","","","","",""
"","1646.999999997206","sequential-stimulus-presentation","159","690584","0.0-32.0-1.3","SS1613100545388","trial","","40","800","2446.999999997206","images/stimuli/spore_stims/simple_11_A_b.gif","images/stimuli/spore_stims/simple_02_B_c.gif","","","","","8","simple_dissimilar","images/stimuli/spore_stims/simple_11_A_b.gif","right","","","","",""
"","null","html-keyboard-response","160","691632","0.0-32.0-0.4","SS1613100545388","","","null","","","","","<p><img src= images/blank.png width =""200"" height = ""200"" style = ""float:right""></p><p><img src=images/blank.png width =""800"" height = ""200""></p>","","","","","","","","","","","",""
"","894.0000000002328","sequential-stimulus-presentation","161","693336","0.0-32.0-1.4","SS1613100545388","trial","","40","800","1694.0000000002328","images/stimuli/spore_stims/simple_11_A_b.gif","images/stimuli/spore_stims/simple_02_B_c.gif","","","","","8","simple_dissimilar","images/stimuli/spore_stims/simple_02_B_c.gif","middle","","","","",""
"","null","html-keyboard-response","162","694197","0.0-32.0-0.5","SS1613100545388","","","null","","","","","<p><img src= images/blank.png width =""200"" height = ""200"" style = ""float:right""></p><p><img src=images/blank.png width =""800"" height = ""200""></p>","","","","","","","","","","","",""
"","921.9999999913853","sequential-stimulus-presentation","163","695950","0.0-32.0-1.5","SS1613100545388","trial","","40","800","1721.9999999913853","images/stimuli/spore_stims/simple_11_A_b.gif","images/stimuli/spore_stims/simple_02_B_c.gif","","","","","8","simple_dissimilar","images/stimuli/spore_stims/simple_02_B_c.gif","middle","","","","",""
"","null","html-keyboard-response","164","697080","0.0-32.0-0.6","SS1613100545388","","","null","","","","","<p><img src= images/blank.png width =""200"" height = ""200"" style = ""float:right""></p><p><img src=images/blank.png width =""800"" height = ""200""></p>","","","","","","","","","","","",""
"","1003.999999986263","sequential-stimulus-presentation","165","698930","0.0-32.0-1.6","SS1613100545388","trial","","40","800","1803.999999986263","images/stimuli/spore_stims/simple_11_A_b.gif","images/stimuli/spore_stims/simple_02_B_c.gif","","","","","8","simple_dissimilar","images/stimuli/spore_stims/simple_02_B_c.gif","middle","","","","",""
"","null","html-keyboard-response","166","700004","0.0-32.0-0.7","SS1613100545388","","","null","","","","","<p><img src= images/blank.png width =""200"" height = ""200"" style = ""float:right""></p><p><img src=images/blank.png width =""800"" height = ""200""></p>","","","","","","","","","","","",""
"","1141.0000000032596","sequential-stimulus-presentation","167","701962","0.0-32.0-1.7","SS1613100545388","trial","","40","800","1941.0000000032596","images/stimuli/spore_stims/simple_11_A_b.gif","images/stimuli/spore_stims/simple_02_B_c.gif","","","","","8","simple_dissimilar","images/stimuli/spore_stims/simple_02_B_c.gif","middle","","","","",""
"","1282.0000000065193","html-keyboard-response","168","703275","0.0-33.0","SS1613100545388","pref_question","","49","","","","","<video width ='960' height = '540' style='padding-top:8%' autoplay muted><source src='images/stimuli/wall_pref.mp4' type='video/mp4'></video>","1","left","25%","8","","","","","","","",""
"","14493.000000016764","sequential-stimulus-presentation","169","718580","0.0-34.0","SS1613100545388","pref_reveal","","40","800","15293.000000016764","null","null","","","","","8","","","","novel","","","",""
"","null","html-keyboard-response","170","719716","0.0-35.0-0.0","SS1613100545388","","","null","","","","","<p><img src= images/blank.png width =""200"" height = ""200"" style = ""float:right""></p><p><img src=images/blank.png width =""800"" height = ""200""></p>","","","","","","","","","","","",""
"","1110.000000015134","sequential-stimulus-presentation","171","721664","0.0-35.0-1.0","SS1613100545388","trial","","40","800","1910.000000015134","images/stimuli/spore_stims/simple_13_A_c.gif","images/stimuli/spore_stims/simple_13_B_c.gif","","","","","9","simple_similar","images/stimuli/spore_stims/simple_13_B_c.gif","left","","","","",""
"","null","html-keyboard-response","172","722874","0.0-35.0-0.1","SS1613100545388","","","null","","","","","<p><img src= images/blank.png width =""200"" height = ""200"" style = ""float:right""></p><p><img src=images/blank.png width =""800"" height = ""200""></p>","","","","","","","","","","","",""
"","785.0000000034925","sequential-stimulus-presentation","173","724480","0.0-35.0-1.1","SS1613100545388","trial","","40","800","1585.0000000034925","images/stimuli/spore_stims/simple_13_A_c.gif","images/stimuli/spore_stims/simple_13_B_c.gif","","","","","9","simple_similar","images/stimuli/spore_stims/simple_13_B_c.gif","left","","","","",""
"","null","html-keyboard-response","174","725709","0.0-35.0-0.2","SS1613100545388","","","null","","","","","<p><img src= images/blank.png width =""200"" height = ""200"" style = ""float:right""></p><p><img src=images/blank.png width =""800"" height = ""200""></p>","","","","","","","","","","","",""
"","833.9999999734573","sequential-stimulus-presentation","175","727355","0.0-35.0-1.2","SS1613100545388","trial","","40","800","1633.9999999734573","images/stimuli/spore_stims/simple_13_A_c.gif","images/stimuli/spore_stims/simple_13_B_c.gif","","","","","9","simple_similar","images/stimuli/spore_stims/simple_13_B_c.gif","left","","","","",""
"","null","html-keyboard-response","176","728487","0.0-35.0-0.3","SS1613100545388","","","null","","","","","<p><img src= images/blank.png width =""200"" height = ""200"" style = ""float:right""></p><p><img src=images/blank.png width =""800"" height = ""200""></p>","","","","","","","","","","","",""
"","803.0000000144355","sequential-stimulus-presentation","177","730100","0.0-35.0-1.3","SS1613100545388","trial","","40","800","1603.0000000144355","images/stimuli/spore_stims/simple_13_A_c.gif","images/stimuli/spore_stims/simple_13_B_c.gif","","","","","9","simple_similar","images/stimuli/spore_stims/simple_13_B_c.gif","left","","","","",""
"","null","html-keyboard-response","178","731240","0.0-35.0-0.4","SS1613100545388","","","null","","","","","<p><img src= images/blank.png width =""200"" height = ""200"" style = ""float:right""></p><p><img src=images/blank.png width =""800"" height = ""200""></p>","","","","","","","","","","","",""
"","1554.0000000037253","sequential-stimulus-presentation","179","733620","0.0-35.0-1.4","SS1613100545388","trial","","40","800","2354.0000000037253","images/stimuli/spore_stims/simple_13_A_c.gif","images/stimuli/spore_stims/simple_13_B_c.gif","","","","","9","simple_similar","images/stimuli/spore_stims/simple_13_A_c.gif","middle","","","","",""
"","null","html-keyboard-response","180","734836","0.0-35.0-0.5","SS1613100545388","","","null","","","","","<p><img src= images/blank.png width =""200"" height = ""200"" style = ""float:right""></p><p><img src=images/blank.png width =""800"" height = ""200""></p>","","","","","","","","","","","",""
"","1293.0000000051223","sequential-stimulus-presentation","181","736960","0.0-35.0-1.5","SS1613100545388","trial","","40","800","2093.0000000051223","images/stimuli/spore_stims/simple_13_A_c.gif","images/stimuli/spore_stims/simple_13_B_c.gif","","","","","9","simple_similar","images/stimuli/spore_stims/simple_13_B_c.gif","left","","","","",""
"","null","html-keyboard-response","182","738212","0.0-35.0-0.6","SS1613100545388","","","null","","","","","<p><img src= images/blank.png width =""200"" height = ""200"" style = ""float:right""></p><p><img src=images/blank.png width =""800"" height = ""200""></p>","","","","","","","","","","","",""
"","1128.999999986263","sequential-stimulus-presentation","183","740159","0.0-35.0-1.6","SS1613100545388","trial","","40","800","1928.999999986263","images/stimuli/spore_stims/simple_13_A_c.gif","images/stimuli/spore_stims/simple_13_B_c.gif","","","","","9","simple_similar","images/stimuli/spore_stims/simple_13_B_c.gif","left","","","","",""
"","null","html-keyboard-response","184","741336","0.0-35.0-0.7","SS1613100545388","","","null","","","","","<p><img src= images/blank.png width =""200"" height = ""200"" style = ""float:right""></p><p><img src=images/blank.png width =""800"" height = ""200""></p>","","","","","","","","","","","",""
"","864.000000001397","sequential-stimulus-presentation","185","743025","0.0-35.0-1.7","SS1613100545388","trial","","40","800","1664.000000001397","images/stimuli/spore_stims/simple_13_A_c.gif","images/stimuli/spore_stims/simple_13_B_c.gif","","","","","9","simple_similar","images/stimuli/spore_stims/simple_13_B_c.gif","left","","","","",""
"","1693.9999999885913","html-keyboard-response","186","744729","0.0-36.0","SS1613100545388","pref_question","","51","","","","","<video width ='960' height = '540' style='padding-top:8%' autoplay muted><source src='images/stimuli/wall_pref.mp4' type='video/mp4'></video>","3","right","66%","9","","","","","","","",""
"","1686.9999999762513","sequential-stimulus-presentation","187","747231","0.0-37.0","SS1613100545388","pref_reveal","","40","800","2486.9999999762513","null","null","","","","","9","","","","novel","","","",""
"","null","html-keyboard-response","188","748092","0.0-38.0-0.0","SS1613100545388","","","null","","","","","<p><img src= images/blank.png width =""200"" height = ""200"" style = ""float:right""></p><p><img src=images/blank.png width =""800"" height = ""200""></p>","","","","","","","","","","","",""
"","1961.9999999995343","sequential-stimulus-presentation","189","750876","0.0-38.0-1.0","SS1613100545388","trial","","40","800","2761.9999999995343","images/stimuli/spore_stims/complex_10_B_b.gif","images/stimuli/spore_stims/complex_10_A_b.gif","","","","","10","complex_similar","images/stimuli/spore_stims/complex_10_A_b.gif","right","","","","",""
"","null","html-keyboard-response","190","752158","0.0-38.0-0.1","SS1613100545388","","","null","","","","","<p><img src= images/blank.png width =""200"" height = ""200"" style = ""float:right""></p><p><img src=images/blank.png width =""800"" height = ""200""></p>","","","","","","","","","","","",""
"","345.99999999045394","sequential-stimulus-presentation","191","753322","0.0-38.0-1.1","SS1613100545388","trial","","40","800","1145.999999990454","images/stimuli/spore_stims/complex_10_B_b.gif","images/stimuli/spore_stims/complex_10_A_b.gif","","","","","10","complex_similar","images/stimuli/spore_stims/complex_10_A_b.gif","right","","","","",""
"","null","html-keyboard-response","192","754256","0.0-38.0-0.2","SS1613100545388","","","null","","","","","<p><img src= images/blank.png width =""200"" height = ""200"" style = ""float:right""></p><p><img src=images/blank.png width =""800"" height = ""200""></p>","","","","","","","","","","","",""
"","1637.9999999771826","sequential-stimulus-presentation","193","756704","0.0-38.0-1.2","SS1613100545388","trial","","40","800","2437.9999999771826","images/stimuli/spore_stims/complex_10_B_b.gif","images/stimuli/spore_stims/complex_10_A_b.gif","","","","","10","complex_similar","images/stimuli/spore_stims/complex_10_A_b.gif","right","","","","",""
"","null","html-keyboard-response","194","757677","0.0-38.0-0.3","SS1613100545388","","","null","","","","","<p><img src= images/blank.png width =""200"" height = ""200"" style = ""float:right""></p><p><img src=images/blank.png width =""800"" height = ""200""></p>","","","","","","","","","","","",""
"","757.00000001234","sequential-stimulus-presentation","195","759267","0.0-38.0-1.3","SS1613100545388","trial","","40","800","1557.00000001234","images/stimuli/spore_stims/complex_10_B_b.gif","images/stimuli/spore_stims/complex_10_A_b.gif","","","","","10","complex_similar","images/stimuli/spore_stims/complex_10_A_b.gif","right","","","","",""
"","null","html-keyboard-response","196","760100","0.0-38.0-0.4","SS1613100545388","","","null","","","","","<p><img src= images/blank.png width =""200"" height = ""200"" style = ""float:right""></p><p><img src=images/blank.png width =""800"" height = ""200""></p>","","","","","","","","","","","",""
"","1976.9999999844003","sequential-stimulus-presentation","197","762895","0.0-38.0-1.4","SS1613100545388","trial","","40","800","2776.9999999844003","images/stimuli/spore_stims/complex_10_B_b.gif","images/stimuli/spore_stims/complex_10_A_b.gif","","","","","10","complex_similar","images/stimuli/spore_stims/complex_10_A_b.gif","right","","","","",""
"","null","html-keyboard-response","198","764005","0.0-38.0-0.5","SS1613100545388","","","null","","","","","<p><img src= images/blank.png width =""200"" height = ""200"" style = ""float:right""></p><p><img src=images/blank.png width =""800"" height = ""200""></p>","","","","","","","","","","","",""
"","2451.0000000009313","sequential-stimulus-presentation","199","767278","0.0-38.0-1.5","SS1613100545388","trial","","40","800","3251.0000000009313","images/stimuli/spore_stims/complex_10_B_b.gif","images/stimuli/spore_stims/complex_10_A_b.gif","","","","","10","complex_similar","images/stimuli/spore_stims/complex_10_B_b.gif","left","","","","",""
"","null","html-keyboard-response","200","768093","0.0-38.0-0.6","SS1613100545388","","","null","","","","","<p><img src= images/blank.png width =""200"" height = ""200"" style = ""float:right""></p><p><img src=images/blank.png width =""800"" height = ""200""></p>","","","","","","","","","","","",""
"","1290.000000008149","sequential-stimulus-presentation","201","770195","0.0-38.0-1.6","SS1613100545388","trial","","40","800","2090.000000008149","images/stimuli/spore_stims/complex_10_B_b.gif","images/stimuli/spore_stims/complex_10_A_b.gif","","","","","10","complex_similar","images/stimuli/spore_stims/complex_10_A_b.gif","right","","","","",""
"","null","html-keyboard-response","202","771320","0.0-38.0-0.7","SS1613100545388","","","null","","","","","<p><img src= images/blank.png width =""200"" height = ""200"" style = ""float:right""></p><p><img src=images/blank.png width =""800"" height = ""200""></p>","","","","","","","","","","","",""
"","797.999999980675","sequential-stimulus-presentation","203","772942","0.0-38.0-1.7","SS1613100545388","trial","","40","800","1597.999999980675","images/stimuli/spore_stims/complex_10_B_b.gif","images/stimuli/spore_stims/complex_10_A_b.gif","","","","","10","complex_similar","images/stimuli/spore_stims/complex_10_A_b.gif","right","","","","",""
"","1255.0000000046566","html-keyboard-response","204","774207","0.0-39.0","SS1613100545388","pref_question","","50","","","","","<video width ='960' height = '540' style='padding-top:8%' autoplay muted><source src='images/stimuli/wall_pref.mp4' type='video/mp4'></video>","2","middle","45%","10","","","","","","","",""
"","1505.9999999939464","sequential-stimulus-presentation","205","776562","0.0-40.0","SS1613100545388","pref_reveal","","40","800","2305.9999999939464","null","null","","","","","10","","","","novel","","","",""
"","null","html-keyboard-response","206","777866","0.0-41.0-0.0","SS1613100545388","","","null","","","","","<p><img src= images/blank.png width =""200"" height = ""200"" style = ""float:right""></p><p><img src=images/blank.png width =""800"" height = ""200""></p>","","","","","","","","","","","",""
"","1850.0000000058208","sequential-stimulus-presentation","207","780536","0.0-41.0-1.0","SS1613100545388","trial","","40","800","2650.0000000058208","images/stimuli/spore_stims/complex_15_A_b.gif","images/stimuli/spore_stims/complex_03_B_b.gif","","","","","11","complex_dissimilar","images/stimuli/spore_stims/complex_03_B_b.gif","middle","","","","",""
"","null","html-keyboard-response","208","781359","0.0-41.0-0.1","SS1613100545388","","","null","","","","","<p><img src= images/blank.png width =""200"" height = ""200"" style = ""float:right""></p><p><img src=images/blank.png width =""800"" height = ""200""></p>","","","","","","","","","","","",""
"","817.0000000100117","sequential-stimulus-presentation","209","783016","0.0-41.0-1.1","SS1613100545388","trial","","40","800","1617.0000000100117","images/stimuli/spore_stims/complex_15_A_b.gif","images/stimuli/spore_stims/complex_03_B_b.gif","","","","","11","complex_dissimilar","images/stimuli/spore_stims/complex_03_B_b.gif","middle","","","","",""
"","null","html-keyboard-response","210","784183","0.0-41.0-0.2","SS1613100545388","","","null","","","","","<p><img src= images/blank.png width =""200"" height = ""200"" style = ""float:right""></p><p><img src=images/blank.png width =""800"" height = ""200""></p>","","","","","","","","","","","",""
"","767.9999999818392","sequential-stimulus-presentation","211","785772","0.0-41.0-1.2","SS1613100545388","trial","","40","800","1567.9999999818392","images/stimuli/spore_stims/complex_15_A_b.gif","images/stimuli/spore_stims/complex_03_B_b.gif","","","","","11","complex_dissimilar","images/stimuli/spore_stims/complex_03_B_b.gif","middle","","","","",""
"","null","html-keyboard-response","212","787066","0.0-41.0-0.3","SS1613100545388","","","null","","","","","<p><img src= images/blank.png width =""200"" height = ""200"" style = ""float:right""></p><p><img src=images/blank.png width =""800"" height = ""200""></p>","","","","","","","","","","","",""
"","767.0000000216532","sequential-stimulus-presentation","213","788649","0.0-41.0-1.3","SS1613100545388","trial","","40","800","1567.0000000216532","images/stimuli/spore_stims/complex_15_A_b.gif","images/stimuli/spore_stims/complex_03_B_b.gif","","","","","11","complex_dissimilar","images/stimuli/spore_stims/complex_03_B_b.gif","middle","","","","",""
"","null","html-keyboard-response","214","789541","0.0-41.0-0.4","SS1613100545388","","","null","","","","","<p><img src= images/blank.png width =""200"" height = ""200"" style = ""float:right""></p><p><img src=images/blank.png width =""800"" height = ""200""></p>","","","","","","","","","","","",""
"","2051.999999996042","sequential-stimulus-presentation","215","792411","0.0-41.0-1.4","SS1613100545388","trial","","40","800","2851.999999996042","images/stimuli/spore_stims/complex_15_A_b.gif","images/stimuli/spore_stims/complex_03_B_b.gif","","","","","11","complex_dissimilar","images/stimuli/spore_stims/complex_15_A_b.gif","left","","","","",""
"","null","html-keyboard-response","216","793626","0.0-41.0-0.5","SS1613100545388","","","null","","","","","<p><img src= images/blank.png width =""200"" height = ""200"" style = ""float:right""></p><p><img src=images/blank.png width =""800"" height = ""200""></p>","","","","","","","","","","","",""
"","739.000000001397","sequential-stimulus-presentation","217","795185","0.0-41.0-1.5","SS1613100545388","trial","","40","800","1539.000000001397","images/stimuli/spore_stims/complex_15_A_b.gif","images/stimuli/spore_stims/complex_03_B_b.gif","","","","","11","complex_dissimilar","images/stimuli/spore_stims/complex_03_B_b.gif","middle","","","","",""
"","null","html-keyboard-response","218","796257","0.0-41.0-0.6","SS1613100545388","","","null","","","","","<p><img src= images/blank.png width =""200"" height = ""200"" style = ""float:right""></p><p><img src=images/blank.png width =""800"" height = ""200""></p>","","","","","","","","","","","",""
"","2027.9999999911524","sequential-stimulus-presentation","219","799130","0.0-41.0-1.6","SS1613100545388","trial","","40","800","2827.9999999911524","images/stimuli/spore_stims/complex_15_A_b.gif","images/stimuli/spore_stims/complex_03_B_b.gif","","","","","11","complex_dissimilar","images/stimuli/spore_stims/complex_03_B_b.gif","middle","","","","",""
"","null","html-keyboard-response","220","799988","0.0-41.0-0.7","SS1613100545388","","","null","","","","","<p><img src= images/blank.png width =""200"" height = ""200"" style = ""float:right""></p><p><img src=images/blank.png width =""800"" height = ""200""></p>","","","","","","","","","","","",""
"","1833.0000000132713","sequential-stimulus-presentation","221","802678","0.0-41.0-1.7","SS1613100545388","trial","","40","800","2633.0000000132713","images/stimuli/spore_stims/complex_15_A_b.gif","images/stimuli/spore_stims/complex_03_B_b.gif","","","","","11","complex_dissimilar","images/stimuli/spore_stims/complex_03_B_b.gif","middle","","","","",""
"","1220.0000000011642","html-keyboard-response","222","803912","0.0-42.0","SS1613100545388","pref_question","","51","","","","","<video width ='960' height = '540' style='padding-top:8%' autoplay muted><source src='images/stimuli/wall_pref.mp4' type='video/mp4'></video>","3","right","66%","11","","","","","","","",""
"","10429.000000003725","sequential-stimulus-presentation","223","815161","0.0-43.0","SS1613100545388","pref_reveal","","40","800","11229.000000003725","null","null","","","","","11","","","","novel","","","",""
"","null","html-keyboard-response","224","816297","0.0-44.0-0.0","SS1613100545388","","","null","","","","","<p><img src= images/blank.png width =""200"" height = ""200"" style = ""float:right""></p><p><img src=images/blank.png width =""800"" height = ""200""></p>","","","","","","","","","","","",""
"","2150.999999983469","sequential-stimulus-presentation","225","819261","0.0-44.0-1.0","SS1613100545388","trial","","40","800","2950.999999983469","images/stimuli/spore_stims/complex_20_B_c.gif","images/stimuli/spore_stims/complex_12_B_a.gif","","","","","12","complex_dissimilar","images/stimuli/spore_stims/complex_12_B_a.gif","right","","","","",""
"","null","html-keyboard-response","226","820386","0.0-44.0-0.1","SS1613100545388","","","null","","","","","<p><img src= images/blank.png width =""200"" height = ""200"" style = ""float:right""></p><p><img src=images/blank.png width =""800"" height = ""200""></p>","","","","","","","","","","","",""
"","969.0000000118744","sequential-stimulus-presentation","227","822184","0.0-44.0-1.1","SS1613100545388","trial","","40","800","1769.0000000118744","images/stimuli/spore_stims/complex_20_B_c.gif","images/stimuli/spore_stims/complex_12_B_a.gif","","","","","12","complex_dissimilar","images/stimuli/spore_stims/complex_12_B_a.gif","right","","","","",""
"","null","html-keyboard-response","228","823332","0.0-44.0-0.2","SS1613100545388","","","null","","","","","<p><img src= images/blank.png width =""200"" height = ""200"" style = ""float:right""></p><p><img src=images/blank.png width =""800"" height = ""200""></p>","","","","","","","","","","","",""
"","1502.0000000076834","sequential-stimulus-presentation","229","825647","0.0-44.0-1.2","SS1613100545388","trial","","40","800","2302.0000000076834","images/stimuli/spore_stims/complex_20_B_c.gif","images/stimuli/spore_stims/complex_12_B_a.gif","","","","","12","complex_dissimilar","images/stimuli/spore_stims/complex_12_B_a.gif","right","","","","",""
"","null","html-keyboard-response","230","826699","0.0-44.0-0.3","SS1613100545388","","","null","","","","","<p><img src= images/blank.png width =""200"" height = ""200"" style = ""float:right""></p><p><img src=images/blank.png width =""800"" height = ""200""></p>","","","","","","","","","","","",""
"","1305.9999999823049","sequential-stimulus-presentation","231","828814","0.0-44.0-1.3","SS1613100545388","trial","","40","800","2105.999999982305","images/stimuli/spore_stims/complex_20_B_c.gif","images/stimuli/spore_stims/complex_12_B_a.gif","","","","","12","complex_dissimilar","images/stimuli/spore_stims/complex_12_B_a.gif","right","","","","",""
"","null","html-keyboard-response","232","830071","0.0-44.0-0.4","SS1613100545388","","","null","","","","","<p><img src= images/blank.png width =""200"" height = ""200"" style = ""float:right""></p><p><img src=images/blank.png width =""800"" height = ""200""></p>","","","","","","","","","","","",""
"","842.000000004191","sequential-stimulus-presentation","233","831729","0.0-44.0-1.4","SS1613100545388","trial","","40","800","1642.000000004191","images/stimuli/spore_stims/complex_20_B_c.gif","images/stimuli/spore_stims/complex_12_B_a.gif","","","","","12","complex_dissimilar","images/stimuli/spore_stims/complex_12_B_a.gif","right","","","","",""
"","null","html-keyboard-response","234","832978","0.0-44.0-0.5","SS1613100545388","","","null","","","","","<p><img src= images/blank.png width =""200"" height = ""200"" style = ""float:right""></p><p><img src=images/blank.png width =""800"" height = ""200""></p>","","","","","","","","","","","",""
"","733.0000000074506","sequential-stimulus-presentation","235","834535","0.0-44.0-1.5","SS1613100545388","trial","","40","800","1533.0000000074506","images/stimuli/spore_stims/complex_20_B_c.gif","images/stimuli/spore_stims/complex_12_B_a.gif","","","","","12","complex_dissimilar","images/stimuli/spore_stims/complex_12_B_a.gif","right","","","","",""
"","null","html-keyboard-response","236","835720","0.0-44.0-0.6","SS1613100545388","","","null","","","","","<p><img src= images/blank.png width =""200"" height = ""200"" style = ""float:right""></p><p><img src=images/blank.png width =""800"" height = ""200""></p>","","","","","","","","","","","",""
"","696.0000000253785","sequential-stimulus-presentation","237","837234","0.0-44.0-1.6","SS1613100545388","trial","","40","800","1496.0000000253785","images/stimuli/spore_stims/complex_20_B_c.gif","images/stimuli/spore_stims/complex_12_B_a.gif","","","","","12","complex_dissimilar","images/stimuli/spore_stims/complex_12_B_a.gif","right","","","","",""
"","null","html-keyboard-response","238","838200","0.0-44.0-0.7","SS1613100545388","","","null","","","","","<p><img src= images/blank.png width =""200"" height = ""200"" style = ""float:right""></p><p><img src=images/blank.png width =""800"" height = ""200""></p>","","","","","","","","","","","",""
"","2111.000000004424","sequential-stimulus-presentation","239","841134","0.0-44.0-1.7","SS1613100545388","trial","","40","800","2911.000000004424","images/stimuli/spore_stims/complex_20_B_c.gif","images/stimuli/spore_stims/complex_12_B_a.gif","","","","","12","complex_dissimilar","images/stimuli/spore_stims/complex_20_B_c.gif","middle","","","","",""
"","1257.00000001234","html-keyboard-response","240","842411","0.0-45.0","SS1613100545388","pref_question","","49","","","","","<video width ='960' height = '540' style='padding-top:8%' autoplay muted><source src='images/stimuli/wall_pref.mp4' type='video/mp4'></video>","1","left","25%","12","","","","","","","",""
"","1698.0000000039581","sequential-stimulus-presentation","241","844927","0.0-46.0","SS1613100545388","pref_reveal","","40","800","2498.000000003958","null","null","","","","","12","","","","novel","","","",""
"","null","html-keyboard-response","242","846197","0.0-47.0-0.0","SS1613100545388","","","null","","","","","<p><img src= images/blank.png width =""200"" height = ""200"" style = ""float:right""></p><p><img src=images/blank.png width =""800"" height = ""200""></p>","","","","","","","","","","","",""
"","1456.000000005588","sequential-stimulus-presentation","243","848468","0.0-47.0-1.0","SS1613100545388","trial","","40","800","2256.000000005588","images/stimuli/spore_stims/simple_12_B_c.gif","images/stimuli/spore_stims/simple_02_A_b.gif","","","","","13","simple_dissimilar","images/stimuli/spore_stims/simple_02_A_b.gif","middle","","","","",""
"","null","html-keyboard-response","244","849776","0.0-47.0-0.1","SS1613100545388","","","null","","","","","<p><img src= images/blank.png width =""200"" height = ""200"" style = ""float:right""></p><p><img src=images/blank.png width =""800"" height = ""200""></p>","","","","","","","","","","","",""
"","687.0000000053551","sequential-stimulus-presentation","245","851313","0.0-47.0-1.1","SS1613100545388","trial","","40","800","1487.000000005355","images/stimuli/spore_stims/simple_12_B_c.gif","images/stimuli/spore_stims/simple_02_A_b.gif","","","","","13","simple_dissimilar","images/stimuli/spore_stims/simple_02_A_b.gif","middle","","","","",""
"","null","html-keyboard-response","246","852131","0.0-47.0-0.2","SS1613100545388","","","null","","","","","<p><img src= images/blank.png width =""200"" height = ""200"" style = ""float:right""></p><p><img src=images/blank.png width =""800"" height = ""200""></p>","","","","","","","","","","","",""
"","983.0000000074506","sequential-stimulus-presentation","247","853946","0.0-47.0-1.2","SS1613100545388","trial","","40","800","1783.0000000074506","images/stimuli/spore_stims/simple_12_B_c.gif","images/stimuli/spore_stims/simple_02_A_b.gif","","","","","13","simple_dissimilar","images/stimuli/spore_stims/simple_12_B_c.gif","left","","","","",""
"","null","html-keyboard-response","248","855070","0.0-47.0-0.3","SS1613100545388","","","null","","","","","<p><img src= images/blank.png width =""200"" height = ""200"" style = ""float:right""></p><p><img src=images/blank.png width =""800"" height = ""200""></p>","","","","","","","","","","","",""
"","470.00000000116415","sequential-stimulus-presentation","249","856361","0.0-47.0-1.3","SS1613100545388","trial","","40","800","1270.0000000011642","images/stimuli/spore_stims/simple_12_B_c.gif","images/stimuli/spore_stims/simple_02_A_b.gif","","","","","13","simple_dissimilar","images/stimuli/spore_stims/simple_02_A_b.gif","middle","","","","",""
"","null","html-keyboard-response","250","857454","0.0-47.0-0.4","SS1613100545388","","","null","","","","","<p><img src= images/blank.png width =""200"" height = ""200"" style = ""float:right""></p><p><img src=images/blank.png width =""800"" height = ""200""></p>","","","","","","","","","","","",""
"","612.9999999830034","sequential-stimulus-presentation","251","858893","0.0-47.0-1.4","SS1613100545388","trial","","40","800","1412.9999999830034","images/stimuli/spore_stims/simple_12_B_c.gif","images/stimuli/spore_stims/simple_02_A_b.gif","","","","","13","simple_dissimilar","images/stimuli/spore_stims/simple_02_A_b.gif","middle","","","","",""
"","null","html-keyboard-response","252","860161","0.0-47.0-0.5","SS1613100545388","","","null","","","","","<p><img src= images/blank.png width =""200"" height = ""200"" style = ""float:right""></p><p><img src=images/blank.png width =""800"" height = ""200""></p>","","","","","","","","","","","",""
"","507.00000001234","sequential-stimulus-presentation","253","861480","0.0-47.0-1.5","SS1613100545388","trial","","40","800","1307.00000001234","images/stimuli/spore_stims/simple_12_B_c.gif","images/stimuli/spore_stims/simple_02_A_b.gif","","","","","13","simple_dissimilar","images/stimuli/spore_stims/simple_02_A_b.gif","middle","","","","",""
"","null","html-keyboard-response","254","862585","0.0-47.0-0.6","SS1613100545388","","","null","","","","","<p><img src= images/blank.png width =""200"" height = ""200"" style = ""float:right""></p><p><img src=images/blank.png width =""800"" height = ""200""></p>","","","","","","","","","","","",""
"","865.9999999799766","sequential-stimulus-presentation","255","864298","0.0-47.0-1.6","SS1613100545388","trial","","40","800","1665.9999999799766","images/stimuli/spore_stims/simple_12_B_c.gif","images/stimuli/spore_stims/simple_02_A_b.gif","","","","","13","simple_dissimilar","images/stimuli/spore_stims/simple_02_A_b.gif","middle","","","","",""
"","null","html-keyboard-response","256","865384","0.0-47.0-0.7","SS1613100545388","","","null","","","","","<p><img src= images/blank.png width =""200"" height = ""200"" style = ""float:right""></p><p><img src=images/blank.png width =""800"" height = ""200""></p>","","","","","","","","","","","",""
"","718.9999999827705","sequential-stimulus-presentation","257","866914","0.0-47.0-1.7","SS1613100545388","trial","","40","800","1518.9999999827705","images/stimuli/spore_stims/simple_12_B_c.gif","images/stimuli/spore_stims/simple_02_A_b.gif","","","","","13","simple_dissimilar","images/stimuli/spore_stims/simple_02_A_b.gif","middle","","","","",""
"","1191.000000020722","html-keyboard-response","258","868118","0.0-48.0","SS1613100545388","pref_question","","51","","","","","<video width ='960' height = '540' style='padding-top:8%' autoplay muted><source src='images/stimuli/wall_pref.mp4' type='video/mp4'></video>","3","right","66%","13","","","","","","","",""
"","1413.0000000004657","sequential-stimulus-presentation","259","870370","0.0-49.0","SS1613100545388","pref_reveal","","40","800","2213.0000000004657","null","null","","","","","13","","","","novel","","","",""
"","null","html-keyboard-response","260","871450","0.0-50.0-0.0","SS1613100545388","","","null","","","","","<p><img src= images/blank.png width =""200"" height = ""200"" style = ""float:right""></p><p><img src=images/blank.png width =""800"" height = ""200""></p>","","","","","","","","","","","",""
"","998.0000000214204","sequential-stimulus-presentation","261","873270","0.0-50.0-1.0","SS1613100545388","trial","","40","800","1798.0000000214204","images/stimuli/spore_stims/complex_06_B_b.gif","images/stimuli/spore_stims/complex_06_A_b.gif","","","","","14","complex_similar","images/stimuli/spore_stims/complex_06_A_b.gif","right","","","","",""
"","null","html-keyboard-response","262","874170","0.0-50.0-0.1","SS1613100545388","","","null","","","","","<p><img src= images/blank.png width =""200"" height = ""200"" style = ""float:right""></p><p><img src=images/blank.png width =""800"" height = ""200""></p>","","","","","","","","","","","",""
"","764.999999984866","sequential-stimulus-presentation","263","875762","0.0-50.0-1.1","SS1613100545388","trial","","40","800","1564.999999984866","images/stimuli/spore_stims/complex_06_B_b.gif","images/stimuli/spore_stims/complex_06_A_b.gif","","","","","14","complex_similar","images/stimuli/spore_stims/complex_06_A_b.gif","right","","","","",""
"","null","html-keyboard-response","264","876869","0.0-50.0-0.2","SS1613100545388","","","null","","","","","<p><img src= images/blank.png width =""200"" height = ""200"" style = ""float:right""></p><p><img src=images/blank.png width =""800"" height = ""200""></p>","","","","","","","","","","","",""
"","722.0000000088476","sequential-stimulus-presentation","265","878416","0.0-50.0-1.2","SS1613100545388","trial","","40","800","1522.0000000088476","images/stimuli/spore_stims/complex_06_B_b.gif","images/stimuli/spore_stims/complex_06_A_b.gif","","","","","14","complex_similar","images/stimuli/spore_stims/complex_06_A_b.gif","right","","","","",""
"","null","html-keyboard-response","266","879328","0.0-50.0-0.3","SS1613100545388","","","null","","","","","<p><img src= images/blank.png width =""200"" height = ""200"" style = ""float:right""></p><p><img src=images/blank.png width =""800"" height = ""200""></p>","","","","","","","","","","","",""
"","1022.0000000263099","sequential-stimulus-presentation","267","881175","0.0-50.0-1.3","SS1613100545388","trial","","40","800","1822.0000000263099","images/stimuli/spore_stims/complex_06_B_b.gif","images/stimuli/spore_stims/complex_06_A_b.gif","","","","","14","complex_similar","images/stimuli/spore_stims/complex_06_A_b.gif","right","","","","",""
"","null","html-keyboard-response","268","882386","0.0-50.0-0.4","SS1613100545388","","","null","","","","","<p><img src= images/blank.png width =""200"" height = ""200"" style = ""float:right""></p><p><img src=images/blank.png width =""800"" height = ""200""></p>","","","","","","","","","","","",""
"","742.99999998766","sequential-stimulus-presentation","269","883942","0.0-50.0-1.4","SS1613100545388","trial","","40","800","1542.99999998766","images/stimuli/spore_stims/complex_06_B_b.gif","images/stimuli/spore_stims/complex_06_A_b.gif","","","","","14","complex_similar","images/stimuli/spore_stims/complex_06_A_b.gif","right","","","","",""
"","null","html-keyboard-response","270","884947","0.0-50.0-0.5","SS1613100545388","","","null","","","","","<p><img src= images/blank.png width =""200"" height = ""200"" style = ""float:right""></p><p><img src=images/blank.png width =""800"" height = ""200""></p>","","","","","","","","","","","",""
"","1505.0000000046566","sequential-stimulus-presentation","271","887266","0.0-50.0-1.5","SS1613100545388","trial","","40","800","2305.0000000046566","images/stimuli/spore_stims/complex_06_B_b.gif","images/stimuli/spore_stims/complex_06_A_b.gif","","","","","14","complex_similar","images/stimuli/spore_stims/complex_06_A_b.gif","right","","","","",""
"","null","html-keyboard-response","272","888296","0.0-50.0-0.6","SS1613100545388","","","null","","","","","<p><img src= images/blank.png width =""200"" height = ""200"" style = ""float:right""></p><p><img src=images/blank.png width =""800"" height = ""200""></p>","","","","","","","","","","","",""
"","1363.0000000121072","sequential-stimulus-presentation","273","890486","0.0-50.0-1.6","SS1613100545388","trial","","40","800","2163.000000012107","images/stimuli/spore_stims/complex_06_B_b.gif","images/stimuli/spore_stims/complex_06_A_b.gif","","","","","14","complex_similar","images/stimuli/spore_stims/complex_06_B_b.gif","left","","","","",""
"","null","html-keyboard-response","274","891377","0.0-50.0-0.7","SS1613100545388","","","null","","","","","<p><img src= images/blank.png width =""200"" height = ""200"" style = ""float:right""></p><p><img src=images/blank.png width =""800"" height = ""200""></p>","","","","","","","","","","","",""
"","964.0000000072177","sequential-stimulus-presentation","275","893151","0.0-50.0-1.7","SS1613100545388","trial","","40","800","1764.0000000072177","images/stimuli/spore_stims/complex_06_B_b.gif","images/stimuli/spore_stims/complex_06_A_b.gif","","","","","14","complex_similar","images/stimuli/spore_stims/complex_06_A_b.gif","right","","","","",""
"","1165.000000008149","html-keyboard-response","276","894326","0.0-51.0","SS1613100545388","pref_question","","50","","","","","<video width ='960' height = '540' style='padding-top:8%' autoplay muted><source src='images/stimuli/wall_pref.mp4' type='video/mp4'></video>","2","middle","45%","14","","","","","","","",""
"","1285.9999999927823","sequential-stimulus-presentation","277","896424","0.0-52.0","SS1613100545388","pref_reveal","","40","800","2085.9999999927823","null","null","","","","","14","","","","novel","","","",""
"","null","html-keyboard-response","278","897717","0.0-53.0-0.0","SS1613100545388","","","null","","","","","<p><img src= images/blank.png width =""200"" height = ""200"" style = ""float:right""></p><p><img src=images/blank.png width =""800"" height = ""200""></p>","","","","","","","","","","","",""
"","1866.0000000090804","sequential-stimulus-presentation","279","900416","0.0-53.0-1.0","SS1613100545388","trial","","40","800","2666.0000000090804","images/stimuli/spore_stims/simple_19_A_c.gif","images/stimuli/spore_stims/simple_19_B_c.gif","","","","","15","simple_similar","images/stimuli/spore_stims/simple_19_B_c.gif","left","","","","",""
"","null","html-keyboard-response","280","901678","0.0-53.0-0.1","SS1613100545388","","","null","","","","","<p><img src= images/blank.png width =""200"" height = ""200"" style = ""float:right""></p><p><img src=images/blank.png width =""800"" height = ""200""></p>","","","","","","","","","","","",""
"","733.9999999967404","sequential-stimulus-presentation","281","903230","0.0-53.0-1.1","SS1613100545388","trial","","40","800","1533.9999999967404","images/stimuli/spore_stims/simple_19_A_c.gif","images/stimuli/spore_stims/simple_19_B_c.gif","","","","","15","simple_similar","images/stimuli/spore_stims/simple_19_B_c.gif","left","","","","",""
"","null","html-keyboard-response","282","904077","0.0-53.0-0.2","SS1613100545388","","","null","","","","","<p><img src= images/blank.png width =""200"" height = ""200"" style = ""float:right""></p><p><img src=images/blank.png width =""800"" height = ""200""></p>","","","","","","","","","","","",""
"","1057.9999999899883","sequential-stimulus-presentation","283","905959","0.0-53.0-1.2","SS1613100545388","trial","","40","800","1857.9999999899883","images/stimuli/spore_stims/simple_19_A_c.gif","images/stimuli/spore_stims/simple_19_B_c.gif","","","","","15","simple_similar","images/stimuli/spore_stims/simple_19_B_c.gif","left","","","","",""
"","null","html-keyboard-response","284","907107","0.0-53.0-0.3","SS1613100545388","","","null","","","","","<p><img src= images/blank.png width =""200"" height = ""200"" style = ""float:right""></p><p><img src=images/blank.png width =""800"" height = ""200""></p>","","","","","","","","","","","",""
"","1641.0000000032596","sequential-stimulus-presentation","285","909582","0.0-53.0-1.3","SS1613100545388","trial","","40","800","2441.0000000032596","images/stimuli/spore_stims/simple_19_A_c.gif","images/stimuli/spore_stims/simple_19_B_c.gif","","","","","15","simple_similar","images/stimuli/spore_stims/simple_19_A_c.gif","right","","","","",""
"","null","html-keyboard-response","286","910723","0.0-53.0-0.4","SS1613100545388","","","null","","","","","<p><img src= images/blank.png width =""200"" height = ""200"" style = ""float:right""></p><p><img src=images/blank.png width =""800"" height = ""200""></p>","","","","","","","","","","","",""
"","689.0000000130385","sequential-stimulus-presentation","287","912242","0.0-53.0-1.4","SS1613100545388","trial","","40","800","1489.0000000130385","images/stimuli/spore_stims/simple_19_A_c.gif","images/stimuli/spore_stims/simple_19_B_c.gif","","","","","15","simple_similar","images/stimuli/spore_stims/simple_19_B_c.gif","left","","","","",""
"","null","html-keyboard-response","288","913096","0.0-53.0-0.5","SS1613100545388","","","null","","","","","<p><img src= images/blank.png width =""200"" height = ""200"" style = ""float:right""></p><p><img src=images/blank.png width =""800"" height = ""200""></p>","","","","","","","","","","","",""
"","1937.999999994645","sequential-stimulus-presentation","289","915863","0.0-53.0-1.5","SS1613100545388","trial","","40","800","2737.999999994645","images/stimuli/spore_stims/simple_19_A_c.gif","images/stimuli/spore_stims/simple_19_B_c.gif","","","","","15","simple_similar","images/stimuli/spore_stims/simple_19_B_c.gif","left","","","","",""
"","null","html-keyboard-response","290","916692","0.0-53.0-0.6","SS1613100545388","","","null","","","","","<p><img src= images/blank.png width =""200"" height = ""200"" style = ""float:right""></p><p><img src=images/blank.png width =""800"" height = ""200""></p>","","","","","","","","","","","",""
"","1467.9999999934807","sequential-stimulus-presentation","291","918982","0.0-53.0-1.6","SS1613100545388","trial","","40","800","2267.9999999934807","images/stimuli/spore_stims/simple_19_A_c.gif","images/stimuli/spore_stims/simple_19_B_c.gif","","","","","15","simple_similar","images/stimuli/spore_stims/simple_19_B_c.gif","left","","","","",""
"","null","html-keyboard-response","292","920131","0.0-53.0-0.7","SS1613100545388","","","null","","","","","<p><img src= images/blank.png width =""200"" height = ""200"" style = ""float:right""></p><p><img src=images/blank.png width =""800"" height = ""200""></p>","","","","","","","","","","","",""
"","961.9999999995343","sequential-stimulus-presentation","293","921921","0.0-53.0-1.7","SS1613100545388","trial","","40","800","1761.9999999995343","images/stimuli/spore_stims/simple_19_A_c.gif","images/stimuli/spore_stims/simple_19_B_c.gif","","","","","15","simple_similar","images/stimuli/spore_stims/simple_19_B_c.gif","left","","","","",""
"","1986.9999999937136","html-keyboard-response","294","923921","0.0-54.0","SS1613100545388","pref_question","","50","","","","","<video width ='960' height = '540' style='padding-top:8%' autoplay muted><source src='images/stimuli/wall_pref.mp4' type='video/mp4'></video>","2","middle","45%","15","","","","","","","",""
"","6119.999999995343","sequential-stimulus-presentation","295","930871","0.0-55.0","SS1613100545388","pref_reveal","","40","800","6919.999999995343","null","null","","","","","15","","","","novel","","","",""
"","null","html-keyboard-response","296","932174","0.0-56.0-0.0","SS1613100545388","","","null","","","","","<p><img src= images/blank.png width =""200"" height = ""200"" style = ""float:right""></p><p><img src=images/blank.png width =""800"" height = ""200""></p>","","","","","","","","","","","",""
"","3147.999999986496","sequential-stimulus-presentation","297","936145","0.0-56.0-1.0","SS1613100545388","trial","","40","800","3947.999999986496","images/stimuli/spore_stims/complex_16_A_a.gif","images/stimuli/spore_stims/complex_15_B_c.gif","","","","","16","complex_dissimilar","images/stimuli/spore_stims/complex_15_B_c.gif","left","","","","",""
"","null","html-keyboard-response","298","937061","0.0-56.0-0.1","SS1613100545388","","","null","","","","","<p><img src= images/blank.png width =""200"" height = ""200"" style = ""float:right""></p><p><img src=images/blank.png width =""800"" height = ""200""></p>","","","","","","","","","","","",""
"","1154.9999999988358","sequential-stimulus-presentation","299","939041","0.0-56.0-1.1","SS1613100545388","trial","","40","800","1954.9999999988358","images/stimuli/spore_stims/complex_16_A_a.gif","images/stimuli/spore_stims/complex_15_B_c.gif","","","","","16","complex_dissimilar","images/stimuli/spore_stims/complex_15_B_c.gif","left","","","","",""
"","null","html-keyboard-response","300","940128","0.0-56.0-0.2","SS1613100545388","","","null","","","","","<p><img src= images/blank.png width =""200"" height = ""200"" style = ""float:right""></p><p><img src=images/blank.png width =""800"" height = ""200""></p>","","","","","","","","","","","",""
"","896.999999997206","sequential-stimulus-presentation","301","941871","0.0-56.0-1.2","SS1613100545388","trial","","40","800","1696.999999997206","images/stimuli/spore_stims/complex_16_A_a.gif","images/stimuli/spore_stims/complex_15_B_c.gif","","","","","16","complex_dissimilar","images/stimuli/spore_stims/complex_15_B_c.gif","left","","","","",""
"","null","html-keyboard-response","302","943049","0.0-56.0-0.3","SS1613100545388","","","null","","","","","<p><img src= images/blank.png width =""200"" height = ""200"" style = ""float:right""></p><p><img src=images/blank.png width =""800"" height = ""200""></p>","","","","","","","","","","","",""
"","884.0000000200234","sequential-stimulus-presentation","303","944762","0.0-56.0-1.3","SS1613100545388","trial","","40","800","1684.0000000200234","images/stimuli/spore_stims/complex_16_A_a.gif","images/stimuli/spore_stims/complex_15_B_c.gif","","","","","16","complex_dissimilar","images/stimuli/spore_stims/complex_15_B_c.gif","left","","","","",""
"","null","html-keyboard-response","304","945694","0.0-56.0-0.4","SS1613100545388","","","null","","","","","<p><img src= images/blank.png width =""200"" height = ""200"" style = ""float:right""></p><p><img src=images/blank.png width =""800"" height = ""200""></p>","","","","","","","","","","","",""
"","857.0000000181608","sequential-stimulus-presentation","305","947369","0.0-56.0-1.4","SS1613100545388","trial","","40","800","1657.0000000181608","images/stimuli/spore_stims/complex_16_A_a.gif","images/stimuli/spore_stims/complex_15_B_c.gif","","","","","16","complex_dissimilar","images/stimuli/spore_stims/complex_15_B_c.gif","left","","","","",""
"","null","html-keyboard-response","306","948268","0.0-56.0-0.5","SS1613100545388","","","null","","","","","<p><img src= images/blank.png width =""200"" height = ""200"" style = ""float:right""></p><p><img src=images/blank.png width =""800"" height = ""200""></p>","","","","","","","","","","","",""
"","812.0000000053551","sequential-stimulus-presentation","307","949935","0.0-56.0-1.5","SS1613100545388","trial","","40","800","1612.000000005355","images/stimuli/spore_stims/complex_16_A_a.gif","images/stimuli/spore_stims/complex_15_B_c.gif","","","","","16","complex_dissimilar","images/stimuli/spore_stims/complex_16_A_a.gif","right","","","","",""
"","null","html-keyboard-response","308","950821","0.0-56.0-0.6","SS1613100545388","","","null","","","","","<p><img src= images/blank.png width =""200"" height = ""200"" style = ""float:right""></p><p><img src=images/blank.png width =""800"" height = ""200""></p>","","","","","","","","","","","",""
"","451.0000000009313","sequential-stimulus-presentation","309","952095","0.0-56.0-1.6","SS1613100545388","trial","","40","800","1251.0000000009313","images/stimuli/spore_stims/complex_16_A_a.gif","images/stimuli/spore_stims/complex_15_B_c.gif","","","","","16","complex_dissimilar","images/stimuli/spore_stims/complex_15_B_c.gif","left","","","","",""
"","null","html-keyboard-response","310","953393","0.0-56.0-0.7","SS1613100545388","","","null","","","","","<p><img src= images/blank.png width =""200"" height = ""200"" style = ""float:right""></p><p><img src=images/blank.png width =""800"" height = ""200""></p>","","","","","","","","","","","",""
"","674.9999999883585","sequential-stimulus-presentation","311","954878","0.0-56.0-1.7","SS1613100545388","trial","","40","800","1474.9999999883585","images/stimuli/spore_stims/complex_16_A_a.gif","images/stimuli/spore_stims/complex_15_B_c.gif","","","","","16","complex_dissimilar","images/stimuli/spore_stims/complex_15_B_c.gif","left","","","","",""
"","1269.9999999895226","html-keyboard-response","312","956161","0.0-57.0","SS1613100545388","pref_question","","50","","","","","<video width ='960' height = '540' style='padding-top:8%' autoplay muted><source src='images/stimuli/wall_pref.mp4' type='video/mp4'></video>","2","middle","45%","16","","","","","","","",""
