"view_history","rt","trial_type","trial_index","time_elapsed","internal_node_id","subject","stimulus_type","trial_stimulus","key_press","minimum_viewing_duration","trial_looking_time","block_deviant","block_background","stimulus","wall_pref","location","location_percent","block_number","block_type","stimulus_displayed","position_displayed","stim_type_selected","responses","question_order","stimulus_left","stimulus_right"
"[{""page_index"":0,""viewing_time"":5574.999999953434}]","5576.000000000931","instructions","0","5577","0.0-0.0","SS1613169716645","","","","","","","","","","","","","","","","","","","",""
"[{""page_index"":0,""viewing_time"":1106.9999999599531},{""page_index"":1,""viewing_time"":8655.999999959022}]","9763.999999966472","instructions","1","17343","0.0-1.0","SS1613169716645","instructions","","","","","","","","","","","","","","","","","","",""
"","7197.999999974854","sequential-stimulus-presentation","2","25349","0.0-2.0","SS1613169716645","","","40","800","7997.999999974854","null","null","","","","","","","","","","","","",""
"","48.99999999906868","sequential-stimulus-presentation","3","26205","0.0-3.0","SS1613169716645","","","40","800","848.9999999990687","null","null","","","","","","","","","","","","",""
"[{""page_index"":0,""viewing_time"":2447.000000043772}]","2447.000000043772","instructions","4","28655","0.0-4.0","SS1613169716645","instructions","","","","","","","","","","","","","","","","","","",""
"","8589.999999967404","html-keyboard-response","5","37248","0.0-5.0","SS1613169716645","instructions","","97","","","","","<video width ='960' height = '540' autoplay muted><source src='images/stimuli/wall_pref.mp4' type='video/mp4'></video>","1","left","25%","","","","","","","","",""
"","2415.999999968335","sequential-stimulus-presentation","6","40469","0.0-6.0","SS1613169716645","pref_reveal","","40","800","3215.999999968335","null","null","","","","","","","","","","","","",""
"[{""page_index"":0,""viewing_time"":2360.9999999171123},{""page_index"":1,""viewing_time"":1240.000000107102},{""page_index"":2,""viewing_time"":1967.9999999934807},{""page_index"":3,""viewing_time"":1279.9999999115244}]","6849.999999976717","instructions","7","47321","0.0-7.0","SS1613169716645","instructions","","","","","","","","","","","","","","","","","","",""
"","null","html-keyboard-response","8","48377","0.0-8.0-0.0","SS1613169716645","","","null","","","","","<p><img src= images/blank.png width =""200"" height = ""200"" style = ""float:right""></p><p><img src=images/blank.png width =""800"" height = ""200""></p>","","","","","","","","","","","",""
"","2077.999999979511","sequential-stimulus-presentation","9","51260","0.0-8.0-1.0","SS1613169716645","trial","","40","800","2877.999999979511","images/stimuli/spore_stims/simple_10_B_c.gif","images/stimuli/spore_stims/simple_10_A_c.gif","","","","","0","simple_similar","images/stimuli/spore_stims/simple_10_A_c.gif","left","","","","",""
"","null","html-keyboard-response","10","52245","0.0-8.0-0.1","SS1613169716645","","","null","","","","","<p><img src= images/blank.png width =""200"" height = ""200"" style = ""float:right""></p><p><img src=images/blank.png width =""800"" height = ""200""></p>","","","","","","","","","","","",""
"","1300.0000000465661","sequential-stimulus-presentation","11","54357","0.0-8.0-1.1","SS1613169716645","trial","","40","800","2100.000000046566","images/stimuli/spore_stims/simple_10_B_c.gif","images/stimuli/spore_stims/simple_10_A_c.gif","","","","","0","simple_similar","images/stimuli/spore_stims/simple_10_A_c.gif","left","","","","",""
"","null","html-keyboard-response","12","55429","0.0-8.0-0.2","SS1613169716645","","","null","","","","","<p><img src= images/blank.png width =""200"" height = ""200"" style = ""float:right""></p><p><img src=images/blank.png width =""800"" height = ""200""></p>","","","","","","","","","","","",""
"","4268.000000040047","sequential-stimulus-presentation","13","60513","0.0-8.0-1.2","SS1613169716645","trial","","40","800","5068.000000040047","images/stimuli/spore_stims/simple_10_B_c.gif","images/stimuli/spore_stims/simple_10_A_c.gif","","","","","0","simple_similar","images/stimuli/spore_stims/simple_10_A_c.gif","left","","","","",""
"","null","html-keyboard-response","14","61490","0.0-8.0-0.3","SS1613169716645","","","null","","","","","<p><img src= images/blank.png width =""200"" height = ""200"" style = ""float:right""></p><p><img src=images/blank.png width =""800"" height = ""200""></p>","","","","","","","","","","","",""
"","729.9999999813735","sequential-stimulus-presentation","15","63033","0.0-8.0-1.3","SS1613169716645","trial","","40","800","1529.9999999813735","images/stimuli/spore_stims/simple_10_B_c.gif","images/stimuli/spore_stims/simple_10_A_c.gif","","","","","0","simple_similar","images/stimuli/spore_stims/simple_10_A_c.gif","left","","","","",""
"","null","html-keyboard-response","16","64304","0.0-8.0-0.4","SS1613169716645","","","null","","","","","<p><img src= images/blank.png width =""200"" height = ""200"" style = ""float:right""></p><p><img src=images/blank.png width =""800"" height = ""200""></p>","","","","","","","","","","","",""
"","622.9999999050051","sequential-stimulus-presentation","17","65739","0.0-8.0-1.4","SS1613169716645","trial","","40","800","1422.999999905005","images/stimuli/spore_stims/simple_10_B_c.gif","images/stimuli/spore_stims/simple_10_A_c.gif","","","","","0","simple_similar","images/stimuli/spore_stims/simple_10_A_c.gif","left","","","","",""
"","null","html-keyboard-response","18","66779","0.0-8.0-0.5","SS1613169716645","","","null","","","","","<p><img src= images/blank.png width =""200"" height = ""200"" style = ""float:right""></p><p><img src=images/blank.png width =""800"" height = ""200""></p>","","","","","","","","","","","",""
"","714.0000000363216","sequential-stimulus-presentation","19","68300","0.0-8.0-1.5","SS1613169716645","trial","","40","800","1514.0000000363216","images/stimuli/spore_stims/simple_10_B_c.gif","images/stimuli/spore_stims/simple_10_A_c.gif","","","","","0","simple_similar","images/stimuli/spore_stims/simple_10_A_c.gif","left","","","","",""
"","null","html-keyboard-response","20","69494","0.0-8.0-0.6","SS1613169716645","","","null","","","","","<p><img src= images/blank.png width =""200"" height = ""200"" style = ""float:right""></p><p><img src=images/blank.png width =""800"" height = ""200""></p>","","","","","","","","","","","",""
"","32.00000000651926","sequential-stimulus-presentation","21","70347","0.0-8.0-1.6","SS1613169716645","trial","","40","800","832.0000000065193","images/stimuli/spore_stims/simple_10_B_c.gif","images/stimuli/spore_stims/simple_10_A_c.gif","","","","","0","simple_similar","images/stimuli/spore_stims/simple_10_B_c.gif","right","","","","",""
"","null","html-keyboard-response","22","71252","0.0-8.0-0.7","SS1613169716645","","","null","","","","","<p><img src= images/blank.png width =""200"" height = ""200"" style = ""float:right""></p><p><img src=images/blank.png width =""800"" height = ""200""></p>","","","","","","","","","","","",""
"","609.9999999860302","sequential-stimulus-presentation","23","72683","0.0-8.0-1.7","SS1613169716645","trial","","40","800","1409.9999999860302","images/stimuli/spore_stims/simple_10_B_c.gif","images/stimuli/spore_stims/simple_10_A_c.gif","","","","","0","simple_similar","images/stimuli/spore_stims/simple_10_A_c.gif","left","","","","",""
"","4093.000000109896","html-keyboard-response","24","76779","0.0-9.0","SS1613169716645","pref_question","","49","","","","","<video width ='960' height = '540' style='padding-top:8%' autoplay muted><source src='images/stimuli/wall_pref.mp4' type='video/mp4'></video>","1","left","25%","0","","","","","","","",""
"","1440.999999991618","sequential-stimulus-presentation","25","79027","0.0-10.0","SS1613169716645","pref_reveal","","40","800","2240.999999991618","null","null","","","","","0","","","","background","","","",""
"","null","html-keyboard-response","26","80309","0.0-11.0-0.0","SS1613169716645","","","null","","","","","<p><img src= images/blank.png width =""200"" height = ""200"" style = ""float:right""></p><p><img src=images/blank.png width =""800"" height = ""200""></p>","","","","","","","","","","","",""
"","408.0000000540167","sequential-stimulus-presentation","27","81527","0.0-11.0-1.0","SS1613169716645","trial","","40","800","1208.0000000540167","images/stimuli/spore_stims/complex_11_B_a.gif","images/stimuli/spore_stims/complex_11_A_a.gif","","","","","1","complex_similar","images/stimuli/spore_stims/complex_11_A_a.gif","right","","","","",""
"","null","html-keyboard-response","28","82758","0.0-11.0-0.1","SS1613169716645","","","null","","","","","<p><img src= images/blank.png width =""200"" height = ""200"" style = ""float:right""></p><p><img src=images/blank.png width =""800"" height = ""200""></p>","","","","","","","","","","","",""
"","437.99999996554106","sequential-stimulus-presentation","29","84007","0.0-11.0-1.1","SS1613169716645","trial","","40","800","1237.999999965541","images/stimuli/spore_stims/complex_11_B_a.gif","images/stimuli/spore_stims/complex_11_A_a.gif","","","","","1","complex_similar","images/stimuli/spore_stims/complex_11_A_a.gif","right","","","","",""
"","null","html-keyboard-response","30","84951","0.0-11.0-0.2","SS1613169716645","","","null","","","","","<p><img src= images/blank.png width =""200"" height = ""200"" style = ""float:right""></p><p><img src=images/blank.png width =""800"" height = ""200""></p>","","","","","","","","","","","",""
"","82.00000005308539","sequential-stimulus-presentation","31","85850","0.0-11.0-1.2","SS1613169716645","trial","","40","800","882.0000000530854","images/stimuli/spore_stims/complex_11_B_a.gif","images/stimuli/spore_stims/complex_11_A_a.gif","","","","","1","complex_similar","images/stimuli/spore_stims/complex_11_A_a.gif","right","","","","",""
"","null","html-keyboard-response","32","86968","0.0-11.0-0.3","SS1613169716645","","","null","","","","","<p><img src= images/blank.png width =""200"" height = ""200"" style = ""float:right""></p><p><img src=images/blank.png width =""800"" height = ""200""></p>","","","","","","","","","","","",""
"","111.99999996460974","sequential-stimulus-presentation","33","87885","0.0-11.0-1.3","SS1613169716645","trial","","40","800","911.9999999646097","images/stimuli/spore_stims/complex_11_B_a.gif","images/stimuli/spore_stims/complex_11_A_a.gif","","","","","1","complex_similar","images/stimuli/spore_stims/complex_11_B_a.gif","left","","","","",""
"","null","html-keyboard-response","34","88918","0.0-11.0-0.4","SS1613169716645","","","null","","","","","<p><img src= images/blank.png width =""200"" height = ""200"" style = ""float:right""></p><p><img src=images/blank.png width =""800"" height = ""200""></p>","","","","","","","","","","","",""
"","809.0000000083819","sequential-stimulus-presentation","35","90541","0.0-11.0-1.4","SS1613169716645","trial","","40","800","1609.000000008382","images/stimuli/spore_stims/complex_11_B_a.gif","images/stimuli/spore_stims/complex_11_A_a.gif","","","","","1","complex_similar","images/stimuli/spore_stims/complex_11_A_a.gif","right","","","","",""
"","null","html-keyboard-response","36","91759","0.0-11.0-0.5","SS1613169716645","","","null","","","","","<p><img src= images/blank.png width =""200"" height = ""200"" style = ""float:right""></p><p><img src=images/blank.png width =""800"" height = ""200""></p>","","","","","","","","","","","",""
"","641.9999999925494","sequential-stimulus-presentation","37","93213","0.0-11.0-1.5","SS1613169716645","trial","","40","800","1441.9999999925494","images/stimuli/spore_stims/complex_11_B_a.gif","images/stimuli/spore_stims/complex_11_A_a.gif","","","","","1","complex_similar","images/stimuli/spore_stims/complex_11_A_a.gif","right","","","","",""
"","null","html-keyboard-response","38","94493","0.0-11.0-0.6","SS1613169716645","","","null","","","","","<p><img src= images/blank.png width =""200"" height = ""200"" style = ""float:right""></p><p><img src=images/blank.png width =""800"" height = ""200""></p>","","","","","","","","","","","",""
"","97.99999999813735","sequential-stimulus-presentation","39","95402","0.0-11.0-1.6","SS1613169716645","trial","","40","800","897.9999999981374","images/stimuli/spore_stims/complex_11_B_a.gif","images/stimuli/spore_stims/complex_11_A_a.gif","","","","","1","complex_similar","images/stimuli/spore_stims/complex_11_A_a.gif","right","","","","",""
"","null","html-keyboard-response","40","96349","0.0-11.0-0.7","SS1613169716645","","","null","","","","","<p><img src= images/blank.png width =""200"" height = ""200"" style = ""float:right""></p><p><img src=images/blank.png width =""800"" height = ""200""></p>","","","","","","","","","","","",""
"","310.9999999869615","sequential-stimulus-presentation","41","97474","0.0-11.0-1.7","SS1613169716645","trial","","40","800","1110.9999999869615","images/stimuli/spore_stims/complex_11_B_a.gif","images/stimuli/spore_stims/complex_11_A_a.gif","","","","","1","complex_similar","images/stimuli/spore_stims/complex_11_A_a.gif","right","","","","",""
"","5582.9999999841675","html-keyboard-response","42","103061","0.0-12.0","SS1613169716645","pref_question","","50","","","","","<video width ='960' height = '540' style='padding-top:8%' autoplay muted><source src='images/stimuli/wall_pref.mp4' type='video/mp4'></video>","2","middle","45%","1","","","","","","","",""
"","1063.0000000819564","sequential-stimulus-presentation","43","104928","0.0-13.0","SS1613169716645","pref_reveal","","40","800","1863.0000000819564","null","null","","","","","1","","","","novel","","","",""
"","null","html-keyboard-response","44","105834","0.0-14.0-0.0","SS1613169716645","","","null","","","","","<p><img src= images/blank.png width =""200"" height = ""200"" style = ""float:right""></p><p><img src=images/blank.png width =""800"" height = ""200""></p>","","","","","","","","","","","",""
"","570.9999999962747","sequential-stimulus-presentation","45","107214","0.0-14.0-1.0","SS1613169716645","trial","","40","800","1370.9999999962747","images/stimuli/spore_stims/complex_07_A_a.gif","images/stimuli/spore_stims/complex_06_B_d.gif","","","","","2","complex_dissimilar","images/stimuli/spore_stims/complex_06_B_d.gif","middle","","","","",""
"","null","html-keyboard-response","46","108257","0.0-14.0-0.1","SS1613169716645","","","null","","","","","<p><img src= images/blank.png width =""200"" height = ""200"" style = ""float:right""></p><p><img src=images/blank.png width =""800"" height = ""200""></p>","","","","","","","","","","","",""
"","506.9999999832362","sequential-stimulus-presentation","47","109594","0.0-14.0-1.1","SS1613169716645","trial","","40","800","1306.9999999832362","images/stimuli/spore_stims/complex_07_A_a.gif","images/stimuli/spore_stims/complex_06_B_d.gif","","","","","2","complex_dissimilar","images/stimuli/spore_stims/complex_06_B_d.gif","middle","","","","",""
"","null","html-keyboard-response","48","110863","0.0-14.0-0.2","SS1613169716645","","","null","","","","","<p><img src= images/blank.png width =""200"" height = ""200"" style = ""float:right""></p><p><img src=images/blank.png width =""800"" height = ""200""></p>","","","","","","","","","","","",""
"","260.99999994039536","sequential-stimulus-presentation","49","111937","0.0-14.0-1.2","SS1613169716645","trial","","40","800","1060.9999999403954","images/stimuli/spore_stims/complex_07_A_a.gif","images/stimuli/spore_stims/complex_06_B_d.gif","","","","","2","complex_dissimilar","images/stimuli/spore_stims/complex_06_B_d.gif","middle","","","","",""
"","null","html-keyboard-response","50","112836","0.0-14.0-0.3","SS1613169716645","","","null","","","","","<p><img src= images/blank.png width =""200"" height = ""200"" style = ""float:right""></p><p><img src=images/blank.png width =""800"" height = ""200""></p>","","","","","","","","","","","",""
"","511.9999999878928","sequential-stimulus-presentation","51","114164","0.0-14.0-1.3","SS1613169716645","trial","","40","800","1311.9999999878928","images/stimuli/spore_stims/complex_07_A_a.gif","images/stimuli/spore_stims/complex_06_B_d.gif","","","","","2","complex_dissimilar","images/stimuli/spore_stims/complex_07_A_a.gif","left","","","","",""
"","null","html-keyboard-response","52","115333","0.0-14.0-0.4","SS1613169716645","","","null","","","","","<p><img src= images/blank.png width =""200"" height = ""200"" style = ""float:right""></p><p><img src=images/blank.png width =""800"" height = ""200""></p>","","","","","","","","","","","",""
"","82.00000005308539","sequential-stimulus-presentation","53","116225","0.0-14.0-1.4","SS1613169716645","trial","","40","800","882.0000000530854","images/stimuli/spore_stims/complex_07_A_a.gif","images/stimuli/spore_stims/complex_06_B_d.gif","","","","","2","complex_dissimilar","images/stimuli/spore_stims/complex_06_B_d.gif","middle","","","","",""
"","null","html-keyboard-response","54","117394","0.0-14.0-0.5","SS1613169716645","","","null","","","","","<p><img src= images/blank.png width =""200"" height = ""200"" style = ""float:right""></p><p><img src=images/blank.png width =""800"" height = ""200""></p>","","","","","","","","","","","",""
"","111.00000003352761","sequential-stimulus-presentation","55","118356","0.0-14.0-1.5","SS1613169716645","trial","","40","800","911.0000000335276","images/stimuli/spore_stims/complex_07_A_a.gif","images/stimuli/spore_stims/complex_06_B_d.gif","","","","","2","complex_dissimilar","images/stimuli/spore_stims/complex_06_B_d.gif","middle","","","","",""
"","null","html-keyboard-response","56","119445","0.0-14.0-0.6","SS1613169716645","","","null","","","","","<p><img src= images/blank.png width =""200"" height = ""200"" style = ""float:right""></p><p><img src=images/blank.png width =""800"" height = ""200""></p>","","","","","","","","","","","",""
"","342.99999999348074","sequential-stimulus-presentation","57","120598","0.0-14.0-1.6","SS1613169716645","trial","","40","800","1142.9999999934807","images/stimuli/spore_stims/complex_07_A_a.gif","images/stimuli/spore_stims/complex_06_B_d.gif","","","","","2","complex_dissimilar","images/stimuli/spore_stims/complex_06_B_d.gif","middle","","","","",""
"","null","html-keyboard-response","58","121471","0.0-14.0-0.7","SS1613169716645","","","null","","","","","<p><img src= images/blank.png width =""200"" height = ""200"" style = ""float:right""></p><p><img src=images/blank.png width =""800"" height = ""200""></p>","","","","","","","","","","","",""
"","136.9999999878928","sequential-stimulus-presentation","59","122412","0.0-14.0-1.7","SS1613169716645","trial","","40","800","936.9999999878928","images/stimuli/spore_stims/complex_07_A_a.gif","images/stimuli/spore_stims/complex_06_B_d.gif","","","","","2","complex_dissimilar","images/stimuli/spore_stims/complex_06_B_d.gif","middle","","","","",""
"","34.99999991618097","html-keyboard-response","60","122459","0.0-15.0","SS1613169716645","pref_question","","50","","","","","<video width ='960' height = '540' style='padding-top:8%' autoplay muted><source src='images/stimuli/wall_pref.mp4' type='video/mp4'></video>","2","middle","45%","2","","","","","","","",""
"","202.00000004842877","sequential-stimulus-presentation","61","123464","0.0-16.0","SS1613169716645","pref_reveal","","40","800","1002.0000000484288","null","null","","","","","2","","","","background","","","",""
"","null","html-keyboard-response","62","124778","0.0-17.0-0.0","SS1613169716645","","","null","","","","","<p><img src= images/blank.png width =""200"" height = ""200"" style = ""float:right""></p><p><img src=images/blank.png width =""800"" height = ""200""></p>","","","","","","","","","","","",""
"","37.999999942258","sequential-stimulus-presentation","63","125625","0.0-17.0-1.0","SS1613169716645","trial","","40","800","837.999999942258","images/stimuli/spore_stims/complex_04_A_a.gif","images/stimuli/spore_stims/complex_04_B_a.gif","","","","","3","complex_similar","images/stimuli/spore_stims/complex_04_B_a.gif","left","","","","",""
"","null","html-keyboard-response","64","126673","0.0-17.0-0.1","SS1613169716645","","","null","","","","","<p><img src= images/blank.png width =""200"" height = ""200"" style = ""float:right""></p><p><img src=images/blank.png width =""800"" height = ""200""></p>","","","","","","","","","","","",""
"","67.00000003911555","sequential-stimulus-presentation","65","127545","0.0-17.0-1.1","SS1613169716645","trial","","40","800","867.0000000391155","images/stimuli/spore_stims/complex_04_A_a.gif","images/stimuli/spore_stims/complex_04_B_a.gif","","","","","3","complex_similar","images/stimuli/spore_stims/complex_04_B_a.gif","left","","","","",""
"","null","html-keyboard-response","66","128722","0.0-17.0-0.2","SS1613169716645","","","null","","","","","<p><img src= images/blank.png width =""200"" height = ""200"" style = ""float:right""></p><p><img src=images/blank.png width =""800"" height = ""200""></p>","","","","","","","","","","","",""
"","94.0000000409782","sequential-stimulus-presentation","67","129625","0.0-17.0-1.2","SS1613169716645","trial","","40","800","894.0000000409782","images/stimuli/spore_stims/complex_04_A_a.gif","images/stimuli/spore_stims/complex_04_B_a.gif","","","","","3","complex_similar","images/stimuli/spore_stims/complex_04_B_a.gif","left","","","","",""
"","null","html-keyboard-response","68","130602","0.0-17.0-0.3","SS1613169716645","","","null","","","","","<p><img src= images/blank.png width =""200"" height = ""200"" style = ""float:right""></p><p><img src=images/blank.png width =""800"" height = ""200""></p>","","","","","","","","","","","",""
"","17.00000010896474","sequential-stimulus-presentation","69","131426","0.0-17.0-1.3","SS1613169716645","trial","","40","800","817.0000001089647","images/stimuli/spore_stims/complex_04_A_a.gif","images/stimuli/spore_stims/complex_04_B_a.gif","","","","","3","complex_similar","images/stimuli/spore_stims/complex_04_B_a.gif","left","","","","",""
"","null","html-keyboard-response","70","132710","0.0-17.0-0.4","SS1613169716645","","","null","","","","","<p><img src= images/blank.png width =""200"" height = ""200"" style = ""float:right""></p><p><img src=images/blank.png width =""800"" height = ""200""></p>","","","","","","","","","","","",""
"","175.99999997764826","sequential-stimulus-presentation","71","133691","0.0-17.0-1.4","SS1613169716645","trial","","40","800","975.9999999776483","images/stimuli/spore_stims/complex_04_A_a.gif","images/stimuli/spore_stims/complex_04_B_a.gif","","","","","3","complex_similar","images/stimuli/spore_stims/complex_04_B_a.gif","left","","","","",""
"","null","html-keyboard-response","72","134661","0.0-17.0-0.5","SS1613169716645","","","null","","","","","<p><img src= images/blank.png width =""200"" height = ""200"" style = ""float:right""></p><p><img src=images/blank.png width =""800"" height = ""200""></p>","","","","","","","","","","","",""
"","5.999999935738742","sequential-stimulus-presentation","73","135479","0.0-17.0-1.5","SS1613169716645","trial","","40","800","805.9999999357387","images/stimuli/spore_stims/complex_04_A_a.gif","images/stimuli/spore_stims/complex_04_B_a.gif","","","","","3","complex_similar","images/stimuli/spore_stims/complex_04_B_a.gif","left","","","","",""
"","null","html-keyboard-response","74","136418","0.0-17.0-0.6","SS1613169716645","","","null","","","","","<p><img src= images/blank.png width =""200"" height = ""200"" style = ""float:right""></p><p><img src=images/blank.png width =""800"" height = ""200""></p>","","","","","","","","","","","",""
"","284.99999991618097","sequential-stimulus-presentation","75","137517","0.0-17.0-1.6","SS1613169716645","trial","","40","800","1084.999999916181","images/stimuli/spore_stims/complex_04_A_a.gif","images/stimuli/spore_stims/complex_04_B_a.gif","","","","","3","complex_similar","images/stimuli/spore_stims/complex_04_A_a.gif","middle","","","","",""
"","null","html-keyboard-response","76","138336","0.0-17.0-0.7","SS1613169716645","","","null","","","","","<p><img src= images/blank.png width =""200"" height = ""200"" style = ""float:right""></p><p><img src=images/blank.png width =""800"" height = ""200""></p>","","","","","","","","","","","",""
"","84.00000003166497","sequential-stimulus-presentation","77","139229","0.0-17.0-1.7","SS1613169716645","trial","","40","800","884.000000031665","images/stimuli/spore_stims/complex_04_A_a.gif","images/stimuli/spore_stims/complex_04_B_a.gif","","","","","3","complex_similar","images/stimuli/spore_stims/complex_04_B_a.gif","left","","","","",""
"","159.99999991618097","html-keyboard-response","78","139393","0.0-18.0","SS1613169716645","pref_question","","49","","","","","<video width ='960' height = '540' style='padding-top:8%' autoplay muted><source src='images/stimuli/wall_pref.mp4' type='video/mp4'></video>","1","left","25%","3","","","","","","","",""
"","393.999999971129","sequential-stimulus-presentation","79","140595","0.0-19.0","SS1613169716645","pref_reveal","","40","800","1193.999999971129","null","null","","","","","3","","","","background","","","",""
"","null","html-keyboard-response","80","141467","0.0-20.0-0.0","SS1613169716645","","","null","","","","","<p><img src= images/blank.png width =""200"" height = ""200"" style = ""float:right""></p><p><img src=images/blank.png width =""800"" height = ""200""></p>","","","","","","","","","","","",""
"","492.9999999003485","sequential-stimulus-presentation","81","142768","0.0-20.0-1.0","SS1613169716645","trial","","40","800","1292.9999999003485","images/stimuli/spore_stims/simple_12_A_a.gif","images/stimuli/spore_stims/simple_12_B_a.gif","","","","","4","simple_similar","images/stimuli/spore_stims/simple_12_B_a.gif","left","","","","",""
"","null","html-keyboard-response","82","143994","0.0-20.0-0.1","SS1613169716645","","","null","","","","","<p><img src= images/blank.png width =""200"" height = ""200"" style = ""float:right""></p><p><img src=images/blank.png width =""800"" height = ""200""></p>","","","","","","","","","","","",""
"","80.0000000745058","sequential-stimulus-presentation","83","144896","0.0-20.0-1.1","SS1613169716645","trial","","40","800","880.0000000745058","images/stimuli/spore_stims/simple_12_A_a.gif","images/stimuli/spore_stims/simple_12_B_a.gif","","","","","4","simple_similar","images/stimuli/spore_stims/simple_12_B_a.gif","left","","","","",""
"","null","html-keyboard-response","84","145755","0.0-20.0-0.2","SS1613169716645","","","null","","","","","<p><img src= images/blank.png width =""200"" height = ""200"" style = ""float:right""></p><p><img src=images/blank.png width =""800"" height = ""200""></p>","","","","","","","","","","","",""
"","243.0000000167638","sequential-stimulus-presentation","85","146804","0.0-20.0-1.2","SS1613169716645","trial","","40","800","1043.0000000167638","images/stimuli/spore_stims/simple_12_A_a.gif","images/stimuli/spore_stims/simple_12_B_a.gif","","","","","4","simple_similar","images/stimuli/spore_stims/simple_12_B_a.gif","left","","","","",""
"","null","html-keyboard-response","86","148084","0.0-20.0-0.3","SS1613169716645","","","null","","","","","<p><img src= images/blank.png width =""200"" height = ""200"" style = ""float:right""></p><p><img src=images/blank.png width =""800"" height = ""200""></p>","","","","","","","","","","","",""
"","2.0000000949949026","sequential-stimulus-presentation","87","148895","0.0-20.0-1.3","SS1613169716645","trial","","40","800","802.0000000949949","images/stimuli/spore_stims/simple_12_A_a.gif","images/stimuli/spore_stims/simple_12_B_a.gif","","","","","4","simple_similar","images/stimuli/spore_stims/simple_12_B_a.gif","left","","","","",""
"","null","html-keyboard-response","88","150019","0.0-20.0-0.4","SS1613169716645","","","null","","","","","<p><img src= images/blank.png width =""200"" height = ""200"" style = ""float:right""></p><p><img src=images/blank.png width =""800"" height = ""200""></p>","","","","","","","","","","","",""
"","255.0000000046566","sequential-stimulus-presentation","89","151080","0.0-20.0-1.4","SS1613169716645","trial","","40","800","1055.0000000046566","images/stimuli/spore_stims/simple_12_A_a.gif","images/stimuli/spore_stims/simple_12_B_a.gif","","","","","4","simple_similar","images/stimuli/spore_stims/simple_12_A_a.gif","middle","","","","",""
"","null","html-keyboard-response","90","152244","0.0-20.0-0.5","SS1613169716645","","","null","","","","","<p><img src= images/blank.png width =""200"" height = ""200"" style = ""float:right""></p><p><img src=images/blank.png width =""800"" height = ""200""></p>","","","","","","","","","","","",""
"","77.00000004842877","sequential-stimulus-presentation","91","153130","0.0-20.0-1.5","SS1613169716645","trial","","40","800","877.0000000484288","images/stimuli/spore_stims/simple_12_A_a.gif","images/stimuli/spore_stims/simple_12_B_a.gif","","","","","4","simple_similar","images/stimuli/spore_stims/simple_12_B_a.gif","left","","","","",""
"","null","html-keyboard-response","92","154269","0.0-20.0-0.6","SS1613169716645","","","null","","","","","<p><img src= images/blank.png width =""200"" height = ""200"" style = ""float:right""></p><p><img src=images/blank.png width =""800"" height = ""200""></p>","","","","","","","","","","","",""
"","177.0000000251457","sequential-stimulus-presentation","93","155275","0.0-20.0-1.6","SS1613169716645","trial","","40","800","977.0000000251457","images/stimuli/spore_stims/simple_12_A_a.gif","images/stimuli/spore_stims/simple_12_B_a.gif","","","","","4","simple_similar","images/stimuli/spore_stims/simple_12_B_a.gif","left","","","","",""
"","null","html-keyboard-response","94","156311","0.0-20.0-0.7","SS1613169716645","","","null","","","","","<p><img src= images/blank.png width =""200"" height = ""200"" style = ""float:right""></p><p><img src=images/blank.png width =""800"" height = ""200""></p>","","","","","","","","","","","",""
"","37.00000001117587","sequential-stimulus-presentation","95","157153","0.0-20.0-1.7","SS1613169716645","trial","","40","800","837.0000000111759","images/stimuli/spore_stims/simple_12_A_a.gif","images/stimuli/spore_stims/simple_12_B_a.gif","","","","","4","simple_similar","images/stimuli/spore_stims/simple_12_B_a.gif","left","","","","",""
"","54.00000000372529","html-keyboard-response","96","157216","0.0-21.0","SS1613169716645","pref_question","","49","","","","","<video width ='960' height = '540' style='padding-top:8%' autoplay muted><source src='images/stimuli/wall_pref.mp4' type='video/mp4'></video>","1","left","25%","4","","","","","","","",""
"","439.99999994412065","sequential-stimulus-presentation","97","158467","0.0-22.0","SS1613169716645","pref_reveal","","40","800","1239.9999999441206","null","null","","","","","4","","","","background","","","",""
"","null","html-keyboard-response","98","159426","0.0-23.0-0.0","SS1613169716645","","","null","","","","","<p><img src= images/blank.png width =""200"" height = ""200"" style = ""float:right""></p><p><img src=images/blank.png width =""800"" height = ""200""></p>","","","","","","","","","","","",""
"","224.0000000456348","sequential-stimulus-presentation","99","160457","0.0-23.0-1.0","SS1613169716645","trial","","40","800","1024.0000000456348","images/stimuli/spore_stims/simple_14_B_c.gif","images/stimuli/spore_stims/simple_17_A_b.gif","","","","","5","simple_dissimilar","images/stimuli/spore_stims/simple_17_A_b.gif","left","","","","",""
"","null","html-keyboard-response","100","161753","0.0-23.0-0.1","SS1613169716645","","","null","","","","","<p><img src= images/blank.png width =""200"" height = ""200"" style = ""float:right""></p><p><img src=images/blank.png width =""800"" height = ""200""></p>","","","","","","","","","","","",""
"","184.0000000083819","sequential-stimulus-presentation","101","162750","0.0-23.0-1.1","SS1613169716645","trial","","40","800","984.0000000083819","images/stimuli/spore_stims/simple_14_B_c.gif","images/stimuli/spore_stims/simple_17_A_b.gif","","","","","5","simple_dissimilar","images/stimuli/spore_stims/simple_17_A_b.gif","left","","","","",""
"","null","html-keyboard-response","102","163646","0.0-23.0-0.2","SS1613169716645","","","null","","","","","<p><img src= images/blank.png width =""200"" height = ""200"" style = ""float:right""></p><p><img src=images/blank.png width =""800"" height = ""200""></p>","","","","","","","","","","","",""
"","42.000000015832484","sequential-stimulus-presentation","103","164502","0.0-23.0-1.2","SS1613169716645","trial","","40","800","842.0000000158325","images/stimuli/spore_stims/simple_14_B_c.gif","images/stimuli/spore_stims/simple_17_A_b.gif","","","","","5","simple_dissimilar","images/stimuli/spore_stims/simple_17_A_b.gif","left","","","","",""
"","null","html-keyboard-response","104","165540","0.0-23.0-0.3","SS1613169716645","","","null","","","","","<p><img src= images/blank.png width =""200"" height = ""200"" style = ""float:right""></p><p><img src=images/blank.png width =""800"" height = ""200""></p>","","","","","","","","","","","",""
"","67.00000003911555","sequential-stimulus-presentation","105","166434","0.0-23.0-1.3","SS1613169716645","trial","","40","800","867.0000000391155","images/stimuli/spore_stims/simple_14_B_c.gif","images/stimuli/spore_stims/simple_17_A_b.gif","","","","","5","simple_dissimilar","images/stimuli/spore_stims/simple_17_A_b.gif","left","","","","",""
"","null","html-keyboard-response","106","167704","0.0-23.0-0.4","SS1613169716645","","","null","","","","","<p><img src= images/blank.png width =""200"" height = ""200"" style = ""float:right""></p><p><img src=images/blank.png width =""800"" height = ""200""></p>","","","","","","","","","","","",""
"","76.00000000093132","sequential-stimulus-presentation","107","168618","0.0-23.0-1.4","SS1613169716645","trial","","40","800","876.0000000009313","images/stimuli/spore_stims/simple_14_B_c.gif","images/stimuli/spore_stims/simple_17_A_b.gif","","","","","5","simple_dissimilar","images/stimuli/spore_stims/simple_17_A_b.gif","left","","","","",""
"","null","html-keyboard-response","108","169768","0.0-23.0-0.5","SS1613169716645","","","null","","","","","<p><img src= images/blank.png width =""200"" height = ""200"" style = ""float:right""></p><p><img src=images/blank.png width =""800"" height = ""200""></p>","","","","","","","","","","","",""
"","190.9999999916181","sequential-stimulus-presentation","109","170782","0.0-23.0-1.5","SS1613169716645","trial","","40","800","990.9999999916181","images/stimuli/spore_stims/simple_14_B_c.gif","images/stimuli/spore_stims/simple_17_A_b.gif","","","","","5","simple_dissimilar","images/stimuli/spore_stims/simple_17_A_b.gif","left","","","","",""
"","null","html-keyboard-response","110","172081","0.0-23.0-0.6","SS1613169716645","","","null","","","","","<p><img src= images/blank.png width =""200"" height = ""200"" style = ""float:right""></p><p><img src=images/blank.png width =""800"" height = ""200""></p>","","","","","","","","","","","",""
"","2.0000000949949026","sequential-stimulus-presentation","111","172932","0.0-23.0-1.6","SS1613169716645","trial","","40","800","802.0000000949949","images/stimuli/spore_stims/simple_14_B_c.gif","images/stimuli/spore_stims/simple_17_A_b.gif","","","","","5","simple_dissimilar","images/stimuli/spore_stims/simple_14_B_c.gif","middle","","","","",""
"","null","html-keyboard-response","112","173899","0.0-23.0-0.7","SS1613169716645","","","null","","","","","<p><img src= images/blank.png width =""200"" height = ""200"" style = ""float:right""></p><p><img src=images/blank.png width =""800"" height = ""200""></p>","","","","","","","","","","","",""
"","81.00000000558794","sequential-stimulus-presentation","113","174792","0.0-23.0-1.7","SS1613169716645","trial","","40","800","881.0000000055879","images/stimuli/spore_stims/simple_14_B_c.gif","images/stimuli/spore_stims/simple_17_A_b.gif","","","","","5","simple_dissimilar","images/stimuli/spore_stims/simple_17_A_b.gif","left","","","","",""
"","183.00000007729977","html-keyboard-response","114","174980","0.0-24.0","SS1613169716645","pref_question","","49","","","","","<video width ='960' height = '540' style='padding-top:8%' autoplay muted><source src='images/stimuli/wall_pref.mp4' type='video/mp4'></video>","1","left","25%","5","","","","","","","",""
"","17.00000010896474","sequential-stimulus-presentation","115","175806","0.0-25.0","SS1613169716645","pref_reveal","","40","800","817.0000001089647","null","null","","","","","5","","","","background","","","",""
"","null","html-keyboard-response","116","176907","0.0-26.0-0.0","SS1613169716645","","","null","","","","","<p><img src= images/blank.png width =""200"" height = ""200"" style = ""float:right""></p><p><img src=images/blank.png width =""800"" height = ""200""></p>","","","","","","","","","","","",""
"","52.99999995622784","sequential-stimulus-presentation","117","177772","0.0-26.0-1.0","SS1613169716645","trial","","40","800","852.9999999562278","images/stimuli/spore_stims/simple_03_A_a.gif","images/stimuli/spore_stims/simple_05_B_b.gif","","","","","6","simple_dissimilar","images/stimuli/spore_stims/simple_05_B_b.gif","left","","","","",""
"","null","html-keyboard-response","118","178690","0.0-26.0-0.1","SS1613169716645","","","null","","","","","<p><img src= images/blank.png width =""200"" height = ""200"" style = ""float:right""></p><p><img src=images/blank.png width =""800"" height = ""200""></p>","","","","","","","","","","","",""
"","289.0000001061708","sequential-stimulus-presentation","119","179802","0.0-26.0-1.1","SS1613169716645","trial","","40","800","1089.0000001061708","images/stimuli/spore_stims/simple_03_A_a.gif","images/stimuli/spore_stims/simple_05_B_b.gif","","","","","6","simple_dissimilar","images/stimuli/spore_stims/simple_05_B_b.gif","left","","","","",""
"","null","html-keyboard-response","120","181014","0.0-26.0-0.2","SS1613169716645","","","null","","","","","<p><img src= images/blank.png width =""200"" height = ""200"" style = ""float:right""></p><p><img src=images/blank.png width =""800"" height = ""200""></p>","","","","","","","","","","","",""
"","79.00000002700835","sequential-stimulus-presentation","121","181902","0.0-26.0-1.2","SS1613169716645","trial","","40","800","879.0000000270084","images/stimuli/spore_stims/simple_03_A_a.gif","images/stimuli/spore_stims/simple_05_B_b.gif","","","","","6","simple_dissimilar","images/stimuli/spore_stims/simple_03_A_a.gif","middle","","","","",""
"","null","html-keyboard-response","122","182835","0.0-26.0-0.3","SS1613169716645","","","null","","","","","<p><img src= images/blank.png width =""200"" height = ""200"" style = ""float:right""></p><p><img src=images/blank.png width =""800"" height = ""200""></p>","","","","","","","","","","","",""
"","36.00000008009374","sequential-stimulus-presentation","123","183679","0.0-26.0-1.3","SS1613169716645","trial","","40","800","836.0000000800937","images/stimuli/spore_stims/simple_03_A_a.gif","images/stimuli/spore_stims/simple_05_B_b.gif","","","","","6","simple_dissimilar","images/stimuli/spore_stims/simple_05_B_b.gif","left","","","","",""
"","null","html-keyboard-response","124","184962","0.0-26.0-0.4","SS1613169716645","","","null","","","","","<p><img src= images/blank.png width =""200"" height = ""200"" style = ""float:right""></p><p><img src=images/blank.png width =""800"" height = ""200""></p>","","","","","","","","","","","",""
"","6.000000052154064","sequential-stimulus-presentation","125","185777","0.0-26.0-1.4","SS1613169716645","trial","","40","800","806.0000000521541","images/stimuli/spore_stims/simple_03_A_a.gif","images/stimuli/spore_stims/simple_05_B_b.gif","","","","","6","simple_dissimilar","images/stimuli/spore_stims/simple_05_B_b.gif","left","","","","",""
"","null","html-keyboard-response","126","186776","0.0-26.0-0.5","SS1613169716645","","","null","","","","","<p><img src= images/blank.png width =""200"" height = ""200"" style = ""float:right""></p><p><img src=images/blank.png width =""800"" height = ""200""></p>","","","","","","","","","","","",""
"","160.0000000325963","sequential-stimulus-presentation","127","187751","0.0-26.0-1.5","SS1613169716645","trial","","40","800","960.0000000325963","images/stimuli/spore_stims/simple_03_A_a.gif","images/stimuli/spore_stims/simple_05_B_b.gif","","","","","6","simple_dissimilar","images/stimuli/spore_stims/simple_05_B_b.gif","left","","","","",""
"","null","html-keyboard-response","128","188978","0.0-26.0-0.6","SS1613169716645","","","null","","","","","<p><img src= images/blank.png width =""200"" height = ""200"" style = ""float:right""></p><p><img src=images/blank.png width =""800"" height = ""200""></p>","","","","","","","","","","","",""
"","168.99999999441206","sequential-stimulus-presentation","129","189957","0.0-26.0-1.6","SS1613169716645","trial","","40","800","968.9999999944121","images/stimuli/spore_stims/simple_03_A_a.gif","images/stimuli/spore_stims/simple_05_B_b.gif","","","","","6","simple_dissimilar","images/stimuli/spore_stims/simple_05_B_b.gif","left","","","","",""
"","null","html-keyboard-response","130","190783","0.0-26.0-0.7","SS1613169716645","","","null","","","","","<p><img src= images/blank.png width =""200"" height = ""200"" style = ""float:right""></p><p><img src=images/blank.png width =""800"" height = ""200""></p>","","","","","","","","","","","",""
"","35.99999996367842","sequential-stimulus-presentation","131","191676","0.0-26.0-1.7","SS1613169716645","trial","","40","800","835.9999999636784","images/stimuli/spore_stims/simple_03_A_a.gif","images/stimuli/spore_stims/simple_05_B_b.gif","","","","","6","simple_dissimilar","images/stimuli/spore_stims/simple_05_B_b.gif","left","","","","",""
"","1881.9999999832362","html-keyboard-response","132","193566","0.0-27.0","SS1613169716645","pref_question","","51","","","","","<video width ='960' height = '540' style='padding-top:8%' autoplay muted><source src='images/stimuli/wall_pref.mp4' type='video/mp4'></video>","3","right","66%","6","","","","","","","",""
"","792.0000000158325","sequential-stimulus-presentation","133","195169","0.0-28.0","SS1613169716645","pref_reveal","","40","800","1592.0000000158325","null","null","","","","","6","","","","novel","","","",""
"","null","html-keyboard-response","134","196068","0.0-29.0-0.0","SS1613169716645","","","null","","","","","<p><img src= images/blank.png width =""200"" height = ""200"" style = ""float:right""></p><p><img src=images/blank.png width =""800"" height = ""200""></p>","","","","","","","","","","","",""
"","623.0000000214204","sequential-stimulus-presentation","135","197507","0.0-29.0-1.0","SS1613169716645","trial","","40","800","1423.0000000214204","images/stimuli/spore_stims/simple_08_A_d.gif","images/stimuli/spore_stims/simple_01_B_a.gif","","","","","7","simple_dissimilar","images/stimuli/spore_stims/simple_01_B_a.gif","middle","","","","",""
"","null","html-keyboard-response","136","198332","0.0-29.0-0.1","SS1613169716645","","","null","","","","","<p><img src= images/blank.png width =""200"" height = ""200"" style = ""float:right""></p><p><img src=images/blank.png width =""800"" height = ""200""></p>","","","","","","","","","","","",""
"","156.00000007543713","sequential-stimulus-presentation","137","199293","0.0-29.0-1.1","SS1613169716645","trial","","40","800","956.0000000754371","images/stimuli/spore_stims/simple_08_A_d.gif","images/stimuli/spore_stims/simple_01_B_a.gif","","","","","7","simple_dissimilar","images/stimuli/spore_stims/simple_01_B_a.gif","middle","","","","",""
"","null","html-keyboard-response","138","200230","0.0-29.0-0.2","SS1613169716645","","","null","","","","","<p><img src= images/blank.png width =""200"" height = ""200"" style = ""float:right""></p><p><img src=images/blank.png width =""800"" height = ""200""></p>","","","","","","","","","","","",""
"","205.0000000745058","sequential-stimulus-presentation","139","201253","0.0-29.0-1.2","SS1613169716645","trial","","40","800","1005.0000000745058","images/stimuli/spore_stims/simple_08_A_d.gif","images/stimuli/spore_stims/simple_01_B_a.gif","","","","","7","simple_dissimilar","images/stimuli/spore_stims/simple_01_B_a.gif","middle","","","","",""
"","null","html-keyboard-response","140","202140","0.0-29.0-0.3","SS1613169716645","","","null","","","","","<p><img src= images/blank.png width =""200"" height = ""200"" style = ""float:right""></p><p><img src=images/blank.png width =""800"" height = ""200""></p>","","","","","","","","","","","",""
"","40.0000000372529","sequential-stimulus-presentation","141","202987","0.0-29.0-1.3","SS1613169716645","trial","","40","800","840.0000000372529","images/stimuli/spore_stims/simple_08_A_d.gif","images/stimuli/spore_stims/simple_01_B_a.gif","","","","","7","simple_dissimilar","images/stimuli/spore_stims/simple_01_B_a.gif","middle","","","","",""
"","null","html-keyboard-response","142","203946","0.0-29.0-0.4","SS1613169716645","","","null","","","","","<p><img src= images/blank.png width =""200"" height = ""200"" style = ""float:right""></p><p><img src=images/blank.png width =""800"" height = ""200""></p>","","","","","","","","","","","",""
"","84.9999999627471","sequential-stimulus-presentation","143","204838","0.0-29.0-1.4","SS1613169716645","trial","","40","800","884.9999999627471","images/stimuli/spore_stims/simple_08_A_d.gif","images/stimuli/spore_stims/simple_01_B_a.gif","","","","","7","simple_dissimilar","images/stimuli/spore_stims/simple_08_A_d.gif","left","","","","",""
"","null","html-keyboard-response","144","205910","0.0-29.0-0.5","SS1613169716645","","","null","","","","","<p><img src= images/blank.png width =""200"" height = ""200"" style = ""float:right""></p><p><img src=images/blank.png width =""800"" height = ""200""></p>","","","","","","","","","","","",""
"","38.99999998975545","sequential-stimulus-presentation","145","206760","0.0-29.0-1.5","SS1613169716645","trial","","40","800","838.9999999897555","images/stimuli/spore_stims/simple_08_A_d.gif","images/stimuli/spore_stims/simple_01_B_a.gif","","","","","7","simple_dissimilar","images/stimuli/spore_stims/simple_01_B_a.gif","middle","","","","",""
"","null","html-keyboard-response","146","208040","0.0-29.0-0.6","SS1613169716645","","","null","","","","","<p><img src= images/blank.png width =""200"" height = ""200"" style = ""float:right""></p><p><img src=images/blank.png width =""800"" height = ""200""></p>","","","","","","","","","","","",""
"","62.000000034458935","sequential-stimulus-presentation","147","208948","0.0-29.0-1.6","SS1613169716645","trial","","40","800","862.0000000344589","images/stimuli/spore_stims/simple_08_A_d.gif","images/stimuli/spore_stims/simple_01_B_a.gif","","","","","7","simple_dissimilar","images/stimuli/spore_stims/simple_01_B_a.gif","middle","","","","",""
"","null","html-keyboard-response","148","209776","0.0-29.0-0.7","SS1613169716645","","","null","","","","","<p><img src= images/blank.png width =""200"" height = ""200"" style = ""float:right""></p><p><img src=images/blank.png width =""800"" height = ""200""></p>","","","","","","","","","","","",""
"","766.9999999925494","sequential-stimulus-presentation","149","211357","0.0-29.0-1.7","SS1613169716645","trial","","40","800","1566.9999999925494","images/stimuli/spore_stims/simple_08_A_d.gif","images/stimuli/spore_stims/simple_01_B_a.gif","","","","","7","simple_dissimilar","images/stimuli/spore_stims/simple_01_B_a.gif","middle","","","","",""
"","228.00000000279397","html-keyboard-response","150","211590","0.0-30.0","SS1613169716645","pref_question","","50","","","","","<video width ='960' height = '540' style='padding-top:8%' autoplay muted><source src='images/stimuli/wall_pref.mp4' type='video/mp4'></video>","2","middle","45%","7","","","","","","","",""
"","831.0000000055879","sequential-stimulus-presentation","151","213228","0.0-31.0","SS1613169716645","pref_reveal","","40","800","1631.000000005588","null","null","","","","","7","","","","background","","","",""
"","null","html-keyboard-response","152","214288","0.0-32.0-0.0","SS1613169716645","","","null","","","","","<p><img src= images/blank.png width =""200"" height = ""200"" style = ""float:right""></p><p><img src=images/blank.png width =""800"" height = ""200""></p>","","","","","","","","","","","",""
"","506.00000005215406","sequential-stimulus-presentation","153","215605","0.0-32.0-1.0","SS1613169716645","trial","","40","800","1306.000000052154","images/stimuli/spore_stims/complex_13_B_b.gif","images/stimuli/spore_stims/complex_16_B_a.gif","","","","","8","complex_dissimilar","images/stimuli/spore_stims/complex_16_B_a.gif","middle","","","","",""
"","null","html-keyboard-response","154","216544","0.0-32.0-0.1","SS1613169716645","","","null","","","","","<p><img src= images/blank.png width =""200"" height = ""200"" style = ""float:right""></p><p><img src=images/blank.png width =""800"" height = ""200""></p>","","","","","","","","","","","",""
"","314.99999994412065","sequential-stimulus-presentation","155","217666","0.0-32.0-1.1","SS1613169716645","trial","","40","800","1114.9999999441206","images/stimuli/spore_stims/complex_13_B_b.gif","images/stimuli/spore_stims/complex_16_B_a.gif","","","","","8","complex_dissimilar","images/stimuli/spore_stims/complex_16_B_a.gif","middle","","","","",""
"","null","html-keyboard-response","156","218657","0.0-32.0-0.2","SS1613169716645","","","null","","","","","<p><img src= images/blank.png width =""200"" height = ""200"" style = ""float:right""></p><p><img src=images/blank.png width =""800"" height = ""200""></p>","","","","","","","","","","","",""
"","202.9999999795109","sequential-stimulus-presentation","157","219672","0.0-32.0-1.2","SS1613169716645","trial","","40","800","1002.9999999795109","images/stimuli/spore_stims/complex_13_B_b.gif","images/stimuli/spore_stims/complex_16_B_a.gif","","","","","8","complex_dissimilar","images/stimuli/spore_stims/complex_16_B_a.gif","middle","","","","",""
"","null","html-keyboard-response","158","220481","0.0-32.0-0.3","SS1613169716645","","","null","","","","","<p><img src= images/blank.png width =""200"" height = ""200"" style = ""float:right""></p><p><img src=images/blank.png width =""800"" height = ""200""></p>","","","","","","","","","","","",""
"","255.0000000046566","sequential-stimulus-presentation","159","221545","0.0-32.0-1.3","SS1613169716645","trial","","40","800","1055.0000000046566","images/stimuli/spore_stims/complex_13_B_b.gif","images/stimuli/spore_stims/complex_16_B_a.gif","","","","","8","complex_dissimilar","images/stimuli/spore_stims/complex_13_B_b.gif","right","","","","",""
"","null","html-keyboard-response","160","222827","0.0-32.0-0.4","SS1613169716645","","","null","","","","","<p><img src= images/blank.png width =""200"" height = ""200"" style = ""float:right""></p><p><img src=images/blank.png width =""800"" height = ""200""></p>","","","","","","","","","","","",""
"","871.999999973923","sequential-stimulus-presentation","161","224518","0.0-32.0-1.4","SS1613169716645","trial","","40","800","1671.999999973923","images/stimuli/spore_stims/complex_13_B_b.gif","images/stimuli/spore_stims/complex_16_B_a.gif","","","","","8","complex_dissimilar","images/stimuli/spore_stims/complex_16_B_a.gif","middle","","","","",""
"","null","html-keyboard-response","162","225757","0.0-32.0-0.5","SS1613169716645","","","null","","","","","<p><img src= images/blank.png width =""200"" height = ""200"" style = ""float:right""></p><p><img src=images/blank.png width =""800"" height = ""200""></p>","","","","","","","","","","","",""
"","155.00000002793968","sequential-stimulus-presentation","163","226729","0.0-32.0-1.5","SS1613169716645","trial","","40","800","955.0000000279397","images/stimuli/spore_stims/complex_13_B_b.gif","images/stimuli/spore_stims/complex_16_B_a.gif","","","","","8","complex_dissimilar","images/stimuli/spore_stims/complex_16_B_a.gif","middle","","","","",""
"","null","html-keyboard-response","164","227879","0.0-32.0-0.6","SS1613169716645","","","null","","","","","<p><img src= images/blank.png width =""200"" height = ""200"" style = ""float:right""></p><p><img src=images/blank.png width =""800"" height = ""200""></p>","","","","","","","","","","","",""
"","189.00000001303852","sequential-stimulus-presentation","165","228884","0.0-32.0-1.6","SS1613169716645","trial","","40","800","989.0000000130385","images/stimuli/spore_stims/complex_13_B_b.gif","images/stimuli/spore_stims/complex_16_B_a.gif","","","","","8","complex_dissimilar","images/stimuli/spore_stims/complex_16_B_a.gif","middle","","","","",""
"","null","html-keyboard-response","166","229825","0.0-32.0-0.7","SS1613169716645","","","null","","","","","<p><img src= images/blank.png width =""200"" height = ""200"" style = ""float:right""></p><p><img src=images/blank.png width =""800"" height = ""200""></p>","","","","","","","","","","","",""
"","87.99999998882413","sequential-stimulus-presentation","167","230726","0.0-32.0-1.7","SS1613169716645","trial","","40","800","887.9999999888241","images/stimuli/spore_stims/complex_13_B_b.gif","images/stimuli/spore_stims/complex_16_B_a.gif","","","","","8","complex_dissimilar","images/stimuli/spore_stims/complex_16_B_a.gif","middle","","","","",""
"","2983.0000000074506","html-keyboard-response","168","233726","0.0-33.0","SS1613169716645","pref_question","","49","","","","","<video width ='960' height = '540' style='padding-top:8%' autoplay muted><source src='images/stimuli/wall_pref.mp4' type='video/mp4'></video>","1","left","25%","8","","","","","","","",""
"","756.9999999832362","sequential-stimulus-presentation","169","235287","0.0-34.0","SS1613169716645","pref_reveal","","40","800","1556.9999999832362","null","null","","","","","8","","","","novel","","","",""
"","null","html-keyboard-response","170","236429","0.0-35.0-0.0","SS1613169716645","","","null","","","","","<p><img src= images/blank.png width =""200"" height = ""200"" style = ""float:right""></p><p><img src=images/blank.png width =""800"" height = ""200""></p>","","","","","","","","","","","",""
"","15.999999945051968","sequential-stimulus-presentation","171","237259","0.0-35.0-1.0","SS1613169716645","trial","","40","800","815.999999945052","images/stimuli/spore_stims/simple_16_B_d.gif","images/stimuli/spore_stims/simple_20_B_b.gif","","","","","9","simple_dissimilar","images/stimuli/spore_stims/simple_20_B_b.gif","middle","","","","",""
"","null","html-keyboard-response","172","238188","0.0-35.0-0.1","SS1613169716645","","","null","","","","","<p><img src= images/blank.png width =""200"" height = ""200"" style = ""float:right""></p><p><img src=images/blank.png width =""800"" height = ""200""></p>","","","","","","","","","","","",""
"","50.99999997764826","sequential-stimulus-presentation","173","239043","0.0-35.0-1.1","SS1613169716645","trial","","40","800","850.9999999776483","images/stimuli/spore_stims/simple_16_B_d.gif","images/stimuli/spore_stims/simple_20_B_b.gif","","","","","9","simple_dissimilar","images/stimuli/spore_stims/simple_20_B_b.gif","middle","","","","",""
"","null","html-keyboard-response","174","239976","0.0-35.0-0.2","SS1613169716645","","","null","","","","","<p><img src= images/blank.png width =""200"" height = ""200"" style = ""float:right""></p><p><img src=images/blank.png width =""800"" height = ""200""></p>","","","","","","","","","","","",""
"","3.000000026077032","sequential-stimulus-presentation","175","240787","0.0-35.0-1.2","SS1613169716645","trial","","40","800","803.000000026077","images/stimuli/spore_stims/simple_16_B_d.gif","images/stimuli/spore_stims/simple_20_B_b.gif","","","","","9","simple_dissimilar","images/stimuli/spore_stims/simple_20_B_b.gif","middle","","","","",""
"","null","html-keyboard-response","176","241715","0.0-35.0-0.3","SS1613169716645","","","null","","","","","<p><img src= images/blank.png width =""200"" height = ""200"" style = ""float:right""></p><p><img src=images/blank.png width =""800"" height = ""200""></p>","","","","","","","","","","","",""
"","771.999999997206","sequential-stimulus-presentation","177","243300","0.0-35.0-1.3","SS1613169716645","trial","","40","800","1571.999999997206","images/stimuli/spore_stims/simple_16_B_d.gif","images/stimuli/spore_stims/simple_20_B_b.gif","","","","","9","simple_dissimilar","images/stimuli/spore_stims/simple_20_B_b.gif","middle","","","","",""
"","null","html-keyboard-response","178","244356","0.0-35.0-0.4","SS1613169716645","","","null","","","","","<p><img src= images/blank.png width =""200"" height = ""200"" style = ""float:right""></p><p><img src=images/blank.png width =""800"" height = ""200""></p>","","","","","","","","","","","",""
"","9.000000078231096","sequential-stimulus-presentation","179","245175","0.0-35.0-1.4","SS1613169716645","trial","","40","800","809.0000000782311","images/stimuli/spore_stims/simple_16_B_d.gif","images/stimuli/spore_stims/simple_20_B_b.gif","","","","","9","simple_dissimilar","images/stimuli/spore_stims/simple_16_B_d.gif","right","","","","",""
"","null","html-keyboard-response","180","246216","0.0-35.0-0.5","SS1613169716645","","","null","","","","","<p><img src= images/blank.png width =""200"" height = ""200"" style = ""float:right""></p><p><img src=images/blank.png width =""800"" height = ""200""></p>","","","","","","","","","","","",""
"","142.99999992363155","sequential-stimulus-presentation","181","247167","0.0-35.0-1.5","SS1613169716645","trial","","40","800","942.9999999236315","images/stimuli/spore_stims/simple_16_B_d.gif","images/stimuli/spore_stims/simple_20_B_b.gif","","","","","9","simple_dissimilar","images/stimuli/spore_stims/simple_20_B_b.gif","middle","","","","",""
"","null","html-keyboard-response","182","248087","0.0-35.0-0.6","SS1613169716645","","","null","","","","","<p><img src= images/blank.png width =""200"" height = ""200"" style = ""float:right""></p><p><img src=images/blank.png width =""800"" height = ""200""></p>","","","","","","","","","","","",""
"","95.00000008847564","sequential-stimulus-presentation","183","249041","0.0-35.0-1.6","SS1613169716645","trial","","40","800","895.0000000884756","images/stimuli/spore_stims/simple_16_B_d.gif","images/stimuli/spore_stims/simple_20_B_b.gif","","","","","9","simple_dissimilar","images/stimuli/spore_stims/simple_20_B_b.gif","middle","","","","",""
"","null","html-keyboard-response","184","250211","0.0-35.0-0.7","SS1613169716645","","","null","","","","","<p><img src= images/blank.png width =""200"" height = ""200"" style = ""float:right""></p><p><img src=images/blank.png width =""800"" height = ""200""></p>","","","","","","","","","","","",""
"","184.99999993946403","sequential-stimulus-presentation","185","251210","0.0-35.0-1.7","SS1613169716645","trial","","40","800","984.999999939464","images/stimuli/spore_stims/simple_16_B_d.gif","images/stimuli/spore_stims/simple_20_B_b.gif","","","","","9","simple_dissimilar","images/stimuli/spore_stims/simple_20_B_b.gif","middle","","","","",""
"","449.99999995343387","html-keyboard-response","186","251667","0.0-36.0","SS1613169716645","pref_question","","51","","","","","<video width ='960' height = '540' style='padding-top:8%' autoplay muted><source src='images/stimuli/wall_pref.mp4' type='video/mp4'></video>","3","right","66%","9","","","","","","","",""
"","175.00000004656613","sequential-stimulus-presentation","187","252651","0.0-37.0","SS1613169716645","pref_reveal","","40","800","975.0000000465661","null","null","","","","","9","","","","deviant","","","",""
"","null","html-keyboard-response","188","253855","0.0-38.0-0.0","SS1613169716645","","","null","","","","","<p><img src= images/blank.png width =""200"" height = ""200"" style = ""float:right""></p><p><img src=images/blank.png width =""800"" height = ""200""></p>","","","","","","","","","","","",""
"","5.999999935738742","sequential-stimulus-presentation","189","254673","0.0-38.0-1.0","SS1613169716645","trial","","40","800","805.9999999357387","images/stimuli/spore_stims/complex_12_B_b.gif","images/stimuli/spore_stims/complex_12_A_b.gif","","","","","10","complex_similar","images/stimuli/spore_stims/complex_12_A_b.gif","middle","","","","",""
"","null","html-keyboard-response","190","255532","0.0-38.0-0.1","SS1613169716645","","","null","","","","","<p><img src= images/blank.png width =""200"" height = ""200"" style = ""float:right""></p><p><img src=images/blank.png width =""800"" height = ""200""></p>","","","","","","","","","","","",""
"","3266.0000000614673","sequential-stimulus-presentation","191","259613","0.0-38.0-1.1","SS1613169716645","trial","","40","800","4066.0000000614673","images/stimuli/spore_stims/complex_12_B_b.gif","images/stimuli/spore_stims/complex_12_A_b.gif","","","","","10","complex_similar","images/stimuli/spore_stims/complex_12_A_b.gif","middle","","","","",""
"","null","html-keyboard-response","192","260882","0.0-38.0-0.2","SS1613169716645","","","null","","","","","<p><img src= images/blank.png width =""200"" height = ""200"" style = ""float:right""></p><p><img src=images/blank.png width =""800"" height = ""200""></p>","","","","","","","","","","","",""
"","265.00000001396984","sequential-stimulus-presentation","193","261960","0.0-38.0-1.2","SS1613169716645","trial","","40","800","1065.0000000139698","images/stimuli/spore_stims/complex_12_B_b.gif","images/stimuli/spore_stims/complex_12_A_b.gif","","","","","10","complex_similar","images/stimuli/spore_stims/complex_12_A_b.gif","middle","","","","",""
"","null","html-keyboard-response","194","263110","0.0-38.0-0.3","SS1613169716645","","","null","","","","","<p><img src= images/blank.png width =""200"" height = ""200"" style = ""float:right""></p><p><img src=images/blank.png width =""800"" height = ""200""></p>","","","","","","","","","","","",""
"","99.0000000456348","sequential-stimulus-presentation","195","264035","0.0-38.0-1.3","SS1613169716645","trial","","40","800","899.0000000456348","images/stimuli/spore_stims/complex_12_B_b.gif","images/stimuli/spore_stims/complex_12_A_b.gif","","","","","10","complex_similar","images/stimuli/spore_stims/complex_12_A_b.gif","middle","","","","",""
"","null","html-keyboard-response","196","265110","0.0-38.0-0.4","SS1613169716645","","","null","","","","","<p><img src= images/blank.png width =""200"" height = ""200"" style = ""float:right""></p><p><img src=images/blank.png width =""800"" height = ""200""></p>","","","","","","","","","","","",""
"","25.000000023283064","sequential-stimulus-presentation","197","265947","0.0-38.0-1.4","SS1613169716645","trial","","40","800","825.0000000232831","images/stimuli/spore_stims/complex_12_B_b.gif","images/stimuli/spore_stims/complex_12_A_b.gif","","","","","10","complex_similar","images/stimuli/spore_stims/complex_12_A_b.gif","middle","","","","",""
"","null","html-keyboard-response","198","267136","0.0-38.0-0.5","SS1613169716645","","","null","","","","","<p><img src= images/blank.png width =""200"" height = ""200"" style = ""float:right""></p><p><img src=images/blank.png width =""800"" height = ""200""></p>","","","","","","","","","","","",""
"","42.000000015832484","sequential-stimulus-presentation","199","267991","0.0-38.0-1.5","SS1613169716645","trial","","40","800","842.0000000158325","images/stimuli/spore_stims/complex_12_B_b.gif","images/stimuli/spore_stims/complex_12_A_b.gif","","","","","10","complex_similar","images/stimuli/spore_stims/complex_12_B_b.gif","left","","","","",""
"","null","html-keyboard-response","200","269063","0.0-38.0-0.6","SS1613169716645","","","null","","","","","<p><img src= images/blank.png width =""200"" height = ""200"" style = ""float:right""></p><p><img src=images/blank.png width =""800"" height = ""200""></p>","","","","","","","","","","","",""
"","13.999999966472387","sequential-stimulus-presentation","201","269894","0.0-38.0-1.6","SS1613169716645","trial","","40","800","813.9999999664724","images/stimuli/spore_stims/complex_12_B_b.gif","images/stimuli/spore_stims/complex_12_A_b.gif","","","","","10","complex_similar","images/stimuli/spore_stims/complex_12_A_b.gif","middle","","","","",""
"","null","html-keyboard-response","202","271029","0.0-38.0-0.7","SS1613169716645","","","null","","","","","<p><img src= images/blank.png width =""200"" height = ""200"" style = ""float:right""></p><p><img src=images/blank.png width =""800"" height = ""200""></p>","","","","","","","","","","","",""
"","103.00000000279397","sequential-stimulus-presentation","203","271947","0.0-38.0-1.7","SS1613169716645","trial","","40","800","903.000000002794","images/stimuli/spore_stims/complex_12_B_b.gif","images/stimuli/spore_stims/complex_12_A_b.gif","","","","","10","complex_similar","images/stimuli/spore_stims/complex_12_A_b.gif","middle","","","","",""
"","6.999999983236194","html-keyboard-response","204","271961","0.0-39.0","SS1613169716645","pref_question","","50","","","","","<video width ='960' height = '540' style='padding-top:8%' autoplay muted><source src='images/stimuli/wall_pref.mp4' type='video/mp4'></video>","2","middle","45%","10","","","","","","","",""
"","251.00000004749745","sequential-stimulus-presentation","205","273021","0.0-40.0","SS1613169716645","pref_reveal","","40","800","1051.0000000474975","null","null","","","","","10","","","","background","","","",""
"","null","html-keyboard-response","206","273912","0.0-41.0-0.0","SS1613169716645","","","null","","","","","<p><img src= images/blank.png width =""200"" height = ""200"" style = ""float:right""></p><p><img src=images/blank.png width =""800"" height = ""200""></p>","","","","","","","","","","","",""
"","430.99999998230487","sequential-stimulus-presentation","207","275153","0.0-41.0-1.0","SS1613169716645","trial","","40","800","1230.9999999823049","images/stimuli/spore_stims/complex_18_A_a.gif","images/stimuli/spore_stims/complex_16_A_c.gif","","","","","11","complex_dissimilar","images/stimuli/spore_stims/complex_16_A_c.gif","right","","","","",""
"","null","html-keyboard-response","208","276151","0.0-41.0-0.1","SS1613169716645","","","null","","","","","<p><img src= images/blank.png width =""200"" height = ""200"" style = ""float:right""></p><p><img src=images/blank.png width =""800"" height = ""200""></p>","","","","","","","","","","","",""
"","206.00000000558794","sequential-stimulus-presentation","209","277165","0.0-41.0-1.1","SS1613169716645","trial","","40","800","1006.0000000055879","images/stimuli/spore_stims/complex_18_A_a.gif","images/stimuli/spore_stims/complex_16_A_c.gif","","","","","11","complex_dissimilar","images/stimuli/spore_stims/complex_16_A_c.gif","right","","","","",""
"","null","html-keyboard-response","210","278208","0.0-41.0-0.2","SS1613169716645","","","null","","","","","<p><img src= images/blank.png width =""200"" height = ""200"" style = ""float:right""></p><p><img src=images/blank.png width =""800"" height = ""200""></p>","","","","","","","","","","","",""
"","135.99999994039536","sequential-stimulus-presentation","211","279151","0.0-41.0-1.2","SS1613169716645","trial","","40","800","935.9999999403954","images/stimuli/spore_stims/complex_18_A_a.gif","images/stimuli/spore_stims/complex_16_A_c.gif","","","","","11","complex_dissimilar","images/stimuli/spore_stims/complex_16_A_c.gif","right","","","","",""
"","null","html-keyboard-response","212","280002","0.0-41.0-0.3","SS1613169716645","","","null","","","","","<p><img src= images/blank.png width =""200"" height = ""200"" style = ""float:right""></p><p><img src=images/blank.png width =""800"" height = ""200""></p>","","","","","","","","","","","",""
"","298.9999999990687","sequential-stimulus-presentation","213","281116","0.0-41.0-1.3","SS1613169716645","trial","","40","800","1098.9999999990687","images/stimuli/spore_stims/complex_18_A_a.gif","images/stimuli/spore_stims/complex_16_A_c.gif","","","","","11","complex_dissimilar","images/stimuli/spore_stims/complex_18_A_a.gif","middle","","","","",""
"","null","html-keyboard-response","214","282355","0.0-41.0-0.4","SS1613169716645","","","null","","","","","<p><img src= images/blank.png width =""200"" height = ""200"" style = ""float:right""></p><p><img src=images/blank.png width =""800"" height = ""200""></p>","","","","","","","","","","","",""
"","189.00000001303852","sequential-stimulus-presentation","215","283355","0.0-41.0-1.4","SS1613169716645","trial","","40","800","989.0000000130385","images/stimuli/spore_stims/complex_18_A_a.gif","images/stimuli/spore_stims/complex_16_A_c.gif","","","","","11","complex_dissimilar","images/stimuli/spore_stims/complex_16_A_c.gif","right","","","","",""
"","null","html-keyboard-response","216","284260","0.0-41.0-0.5","SS1613169716645","","","null","","","","","<p><img src= images/blank.png width =""200"" height = ""200"" style = ""float:right""></p><p><img src=images/blank.png width =""800"" height = ""200""></p>","","","","","","","","","","","",""
"","22.99999992828816","sequential-stimulus-presentation","217","285151","0.0-41.0-1.5","SS1613169716645","trial","","40","800","822.9999999282882","images/stimuli/spore_stims/complex_18_A_a.gif","images/stimuli/spore_stims/complex_16_A_c.gif","","","","","11","complex_dissimilar","images/stimuli/spore_stims/complex_16_A_c.gif","right","","","","",""
"","null","html-keyboard-response","218","286138","0.0-41.0-0.6","SS1613169716645","","","null","","","","","<p><img src= images/blank.png width =""200"" height = ""200"" style = ""float:right""></p><p><img src=images/blank.png width =""800"" height = ""200""></p>","","","","","","","","","","","",""
"","181.999999913387","sequential-stimulus-presentation","219","287129","0.0-41.0-1.6","SS1613169716645","trial","","40","800","981.999999913387","images/stimuli/spore_stims/complex_18_A_a.gif","images/stimuli/spore_stims/complex_16_A_c.gif","","","","","11","complex_dissimilar","images/stimuli/spore_stims/complex_16_A_c.gif","right","","","","",""
"","null","html-keyboard-response","220","288194","0.0-41.0-0.7","SS1613169716645","","","null","","","","","<p><img src= images/blank.png width =""200"" height = ""200"" style = ""float:right""></p><p><img src=images/blank.png width =""800"" height = ""200""></p>","","","","","","","","","","","",""
"","5.000000004656613","sequential-stimulus-presentation","221","289012","0.0-41.0-1.7","SS1613169716645","trial","","40","800","805.0000000046566","images/stimuli/spore_stims/complex_18_A_a.gif","images/stimuli/spore_stims/complex_16_A_c.gif","","","","","11","complex_dissimilar","images/stimuli/spore_stims/complex_16_A_c.gif","right","","","","",""
"","3278.999999980442","html-keyboard-response","222","292298","0.0-42.0","SS1613169716645","pref_question","","51","","","","","<video width ='960' height = '540' style='padding-top:8%' autoplay muted><source src='images/stimuli/wall_pref.mp4' type='video/mp4'></video>","3","right","66%","11","","","","","","","",""
"","83.99999991524965","sequential-stimulus-presentation","223","293196","0.0-43.0","SS1613169716645","pref_reveal","","40","800","883.9999999152496","null","null","","","","","11","","","","background","","","",""
"","null","html-keyboard-response","224","294069","0.0-44.0-0.0","SS1613169716645","","","null","","","","","<p><img src= images/blank.png width =""200"" height = ""200"" style = ""float:right""></p><p><img src=images/blank.png width =""800"" height = ""200""></p>","","","","","","","","","","","",""
"","290.99999996833503","sequential-stimulus-presentation","225","295175","0.0-44.0-1.0","SS1613169716645","trial","","40","800","1090.999999968335","images/stimuli/spore_stims/simple_11_A_a.gif","images/stimuli/spore_stims/simple_11_B_a.gif","","","","","12","simple_similar","images/stimuli/spore_stims/simple_11_B_a.gif","middle","","","","",""
"","null","html-keyboard-response","226","296103","0.0-44.0-0.1","SS1613169716645","","","null","","","","","<p><img src= images/blank.png width =""200"" height = ""200"" style = ""float:right""></p><p><img src=images/blank.png width =""800"" height = ""200""></p>","","","","","","","","","","","",""
"","180.99999998230487","sequential-stimulus-presentation","227","297103","0.0-44.0-1.1","SS1613169716645","trial","","40","800","980.9999999823049","images/stimuli/spore_stims/simple_11_A_a.gif","images/stimuli/spore_stims/simple_11_B_a.gif","","","","","12","simple_similar","images/stimuli/spore_stims/simple_11_B_a.gif","middle","","","","",""
"","null","html-keyboard-response","228","298193","0.0-44.0-0.2","SS1613169716645","","","null","","","","","<p><img src= images/blank.png width =""200"" height = ""200"" style = ""float:right""></p><p><img src=images/blank.png width =""800"" height = ""200""></p>","","","","","","","","","","","",""
"","157.00000000651926","sequential-stimulus-presentation","229","299164","0.0-44.0-1.2","SS1613169716645","trial","","40","800","957.0000000065193","images/stimuli/spore_stims/simple_11_A_a.gif","images/stimuli/spore_stims/simple_11_B_a.gif","","","","","12","simple_similar","images/stimuli/spore_stims/simple_11_B_a.gif","middle","","","","",""
"","null","html-keyboard-response","230","300007","0.0-44.0-0.3","SS1613169716645","","","null","","","","","<p><img src= images/blank.png width =""200"" height = ""200"" style = ""float:right""></p><p><img src=images/blank.png width =""800"" height = ""200""></p>","","","","","","","","","","","",""
"","244.9999999953434","sequential-stimulus-presentation","231","301090","0.0-44.0-1.3","SS1613169716645","trial","","40","800","1044.9999999953434","images/stimuli/spore_stims/simple_11_A_a.gif","images/stimuli/spore_stims/simple_11_B_a.gif","","","","","12","simple_similar","images/stimuli/spore_stims/simple_11_B_a.gif","middle","","","","",""
"","null","html-keyboard-response","232","301991","0.0-44.0-0.4","SS1613169716645","","","null","","","","","<p><img src= images/blank.png width =""200"" height = ""200"" style = ""float:right""></p><p><img src=images/blank.png width =""800"" height = ""200""></p>","","","","","","","","","","","",""
"","479.99999998137355","sequential-stimulus-presentation","233","303288","0.0-44.0-1.4","SS1613169716645","trial","","40","800","1279.9999999813735","images/stimuli/spore_stims/simple_11_A_a.gif","images/stimuli/spore_stims/simple_11_B_a.gif","","","","","12","simple_similar","images/stimuli/spore_stims/simple_11_B_a.gif","middle","","","","",""
"","null","html-keyboard-response","234","304217","0.0-44.0-0.5","SS1613169716645","","","null","","","","","<p><img src= images/blank.png width =""200"" height = ""200"" style = ""float:right""></p><p><img src=images/blank.png width =""800"" height = ""200""></p>","","","","","","","","","","","",""
"","45.999999972991645","sequential-stimulus-presentation","235","305076","0.0-44.0-1.5","SS1613169716645","trial","","40","800","845.9999999729916","images/stimuli/spore_stims/simple_11_A_a.gif","images/stimuli/spore_stims/simple_11_B_a.gif","","","","","12","simple_similar","images/stimuli/spore_stims/simple_11_B_a.gif","middle","","","","",""
"","null","html-keyboard-response","236","306023","0.0-44.0-0.6","SS1613169716645","","","null","","","","","<p><img src= images/blank.png width =""200"" height = ""200"" style = ""float:right""></p><p><img src=images/blank.png width =""800"" height = ""200""></p>","","","","","","","","","","","",""
"","353.9999999338761","sequential-stimulus-presentation","237","307186","0.0-44.0-1.6","SS1613169716645","trial","","40","800","1153.999999933876","images/stimuli/spore_stims/simple_11_A_a.gif","images/stimuli/spore_stims/simple_11_B_a.gif","","","","","12","simple_similar","images/stimuli/spore_stims/simple_11_A_a.gif","left","","","","",""
"","null","html-keyboard-response","238","308258","0.0-44.0-0.7","SS1613169716645","","","null","","","","","<p><img src= images/blank.png width =""200"" height = ""200"" style = ""float:right""></p><p><img src=images/blank.png width =""800"" height = ""200""></p>","","","","","","","","","","","",""
"","68.000000086613","sequential-stimulus-presentation","239","309160","0.0-44.0-1.7","SS1613169716645","trial","","40","800","868.000000086613","images/stimuli/spore_stims/simple_11_A_a.gif","images/stimuli/spore_stims/simple_11_B_a.gif","","","","","12","simple_similar","images/stimuli/spore_stims/simple_11_B_a.gif","middle","","","","",""
"","18.00000004004687","html-keyboard-response","240","309190","0.0-45.0","SS1613169716645","pref_question","","50","","","","","<video width ='960' height = '540' style='padding-top:8%' autoplay muted><source src='images/stimuli/wall_pref.mp4' type='video/mp4'></video>","2","middle","45%","12","","","","","","","",""
"","69.99999994877726","sequential-stimulus-presentation","241","310071","0.0-46.0","SS1613169716645","pref_reveal","","40","800","869.9999999487773","null","null","","","","","12","","","","background","","","",""
"","null","html-keyboard-response","242","310989","0.0-47.0-0.0","SS1613169716645","","","null","","","","","<p><img src= images/blank.png width =""200"" height = ""200"" style = ""float:right""></p><p><img src=images/blank.png width =""800"" height = ""200""></p>","","","","","","","","","","","",""
"","52.00000002514571","sequential-stimulus-presentation","243","311910","0.0-47.0-1.0","SS1613169716645","trial","","40","800","852.0000000251457","images/stimuli/spore_stims/complex_19_A_d.gif","images/stimuli/spore_stims/complex_01_A_c.gif","","","","","13","complex_dissimilar","images/stimuli/spore_stims/complex_01_A_c.gif","right","","","","",""
"","null","html-keyboard-response","244","313003","0.0-47.0-0.1","SS1613169716645","","","null","","","","","<p><img src= images/blank.png width =""200"" height = ""200"" style = ""float:right""></p><p><img src=images/blank.png width =""800"" height = ""200""></p>","","","","","","","","","","","",""
"","78.99999991059303","sequential-stimulus-presentation","245","313892","0.0-47.0-1.1","SS1613169716645","trial","","40","800","878.999999910593","images/stimuli/spore_stims/complex_19_A_d.gif","images/stimuli/spore_stims/complex_01_A_c.gif","","","","","13","complex_dissimilar","images/stimuli/spore_stims/complex_01_A_c.gif","right","","","","",""
"","null","html-keyboard-response","246","315100","0.0-47.0-0.2","SS1613169716645","","","null","","","","","<p><img src= images/blank.png width =""200"" height = ""200"" style = ""float:right""></p><p><img src=images/blank.png width =""800"" height = ""200""></p>","","","","","","","","","","","",""
"","283.0000000540167","sequential-stimulus-presentation","247","316202","0.0-47.0-1.2","SS1613169716645","trial","","40","800","1083.0000000540167","images/stimuli/spore_stims/complex_19_A_d.gif","images/stimuli/spore_stims/complex_01_A_c.gif","","","","","13","complex_dissimilar","images/stimuli/spore_stims/complex_19_A_d.gif","left","","","","",""
"","null","html-keyboard-response","248","317372","0.0-47.0-0.3","SS1613169716645","","","null","","","","","<p><img src= images/blank.png width =""200"" height = ""200"" style = ""float:right""></p><p><img src=images/blank.png width =""800"" height = ""200""></p>","","","","","","","","","","","",""
"","580.0000000745058","sequential-stimulus-presentation","249","318760","0.0-47.0-1.3","SS1613169716645","trial","","40","800","1380.0000000745058","images/stimuli/spore_stims/complex_19_A_d.gif","images/stimuli/spore_stims/complex_01_A_c.gif","","","","","13","complex_dissimilar","images/stimuli/spore_stims/complex_01_A_c.gif","right","","","","",""
"","null","html-keyboard-response","250","319883","0.0-47.0-0.4","SS1613169716645","","","null","","","","","<p><img src= images/blank.png width =""200"" height = ""200"" style = ""float:right""></p><p><img src=images/blank.png width =""800"" height = ""200""></p>","","","","","","","","","","","",""
"","5.000000004656613","sequential-stimulus-presentation","251","320696","0.0-47.0-1.4","SS1613169716645","trial","","40","800","805.0000000046566","images/stimuli/spore_stims/complex_19_A_d.gif","images/stimuli/spore_stims/complex_01_A_c.gif","","","","","13","complex_dissimilar","images/stimuli/spore_stims/complex_01_A_c.gif","right","","","","",""
"","null","html-keyboard-response","252","321988","0.0-47.0-0.5","SS1613169716645","","","null","","","","","<p><img src= images/blank.png width =""200"" height = ""200"" style = ""float:right""></p><p><img src=images/blank.png width =""800"" height = ""200""></p>","","","","","","","","","","","",""
"","357.99999989103526","sequential-stimulus-presentation","253","323158","0.0-47.0-1.5","SS1613169716645","trial","","40","800","1157.9999998910353","images/stimuli/spore_stims/complex_19_A_d.gif","images/stimuli/spore_stims/complex_01_A_c.gif","","","","","13","complex_dissimilar","images/stimuli/spore_stims/complex_01_A_c.gif","right","","","","",""
"","null","html-keyboard-response","254","324443","0.0-47.0-0.6","SS1613169716645","","","null","","","","","<p><img src= images/blank.png width =""200"" height = ""200"" style = ""float:right""></p><p><img src=images/blank.png width =""800"" height = ""200""></p>","","","","","","","","","","","",""
"","28.999999980442226","sequential-stimulus-presentation","255","325296","0.0-47.0-1.6","SS1613169716645","trial","","40","800","828.9999999804422","images/stimuli/spore_stims/complex_19_A_d.gif","images/stimuli/spore_stims/complex_01_A_c.gif","","","","","13","complex_dissimilar","images/stimuli/spore_stims/complex_01_A_c.gif","right","","","","",""
"","null","html-keyboard-response","256","326441","0.0-47.0-0.7","SS1613169716645","","","null","","","","","<p><img src= images/blank.png width =""200"" height = ""200"" style = ""float:right""></p><p><img src=images/blank.png width =""800"" height = ""200""></p>","","","","","","","","","","","",""
"","1813.0000000819564","sequential-stimulus-presentation","257","329073","0.0-47.0-1.7","SS1613169716645","trial","","40","800","2613.0000000819564","images/stimuli/spore_stims/complex_19_A_d.gif","images/stimuli/spore_stims/complex_01_A_c.gif","","","","","13","complex_dissimilar","images/stimuli/spore_stims/complex_01_A_c.gif","right","","","","",""
"","0","html-keyboard-response","258","329085","0.0-48.0","SS1613169716645","pref_question","","51","","","","","<video width ='960' height = '540' style='padding-top:8%' autoplay muted><source src='images/stimuli/wall_pref.mp4' type='video/mp4'></video>","3","right","66%","13","","","","","","","",""
"","165.0000000372529","sequential-stimulus-presentation","259","330072","0.0-49.0","SS1613169716645","pref_reveal","","40","800","965.0000000372529","null","null","","","","","13","","","","background","","","",""
"","null","html-keyboard-response","260","331261","0.0-50.0-0.0","SS1613169716645","","","null","","","","","<p><img src= images/blank.png width =""200"" height = ""200"" style = ""float:right""></p><p><img src=images/blank.png width =""800"" height = ""200""></p>","","","","","","","","","","","",""
"","481.99999995995313","sequential-stimulus-presentation","261","332554","0.0-50.0-1.0","SS1613169716645","trial","","40","800","1281.9999999599531","images/stimuli/spore_stims/simple_07_B_b.gif","images/stimuli/spore_stims/simple_07_A_b.gif","","","","","14","simple_similar","images/stimuli/spore_stims/simple_07_A_b.gif","left","","","","",""
"","null","html-keyboard-response","262","333391","0.0-50.0-0.1","SS1613169716645","","","null","","","","","<p><img src= images/blank.png width =""200"" height = ""200"" style = ""float:right""></p><p><img src=images/blank.png width =""800"" height = ""200""></p>","","","","","","","","","","","",""
"","132.00000009965152","sequential-stimulus-presentation","263","334341","0.0-50.0-1.1","SS1613169716645","trial","","40","800","932.0000000996515","images/stimuli/spore_stims/simple_07_B_b.gif","images/stimuli/spore_stims/simple_07_A_b.gif","","","","","14","simple_similar","images/stimuli/spore_stims/simple_07_A_b.gif","left","","","","",""
"","null","html-keyboard-response","264","335442","0.0-50.0-0.2","SS1613169716645","","","null","","","","","<p><img src= images/blank.png width =""200"" height = ""200"" style = ""float:right""></p><p><img src=images/blank.png width =""800"" height = ""200""></p>","","","","","","","","","","","",""
"","5.999999935738742","sequential-stimulus-presentation","265","336304","0.0-50.0-1.2","SS1613169716645","trial","","40","800","805.9999999357387","images/stimuli/spore_stims/simple_07_B_b.gif","images/stimuli/spore_stims/simple_07_A_b.gif","","","","","14","simple_similar","images/stimuli/spore_stims/simple_07_A_b.gif","left","","","","",""
"","null","html-keyboard-response","266","337150","0.0-50.0-0.3","SS1613169716645","","","null","","","","","<p><img src= images/blank.png width =""200"" height = ""200"" style = ""float:right""></p><p><img src=images/blank.png width =""800"" height = ""200""></p>","","","","","","","","","","","",""
"","10.000000009313226","sequential-stimulus-presentation","267","337969","0.0-50.0-1.3","SS1613169716645","trial","","40","800","810.0000000093132","images/stimuli/spore_stims/simple_07_B_b.gif","images/stimuli/spore_stims/simple_07_A_b.gif","","","","","14","simple_similar","images/stimuli/spore_stims/simple_07_A_b.gif","left","","","","",""
"","null","html-keyboard-response","268","338811","0.0-50.0-0.4","SS1613169716645","","","null","","","","","<p><img src= images/blank.png width =""200"" height = ""200"" style = ""float:right""></p><p><img src=images/blank.png width =""800"" height = ""200""></p>","","","","","","","","","","","",""
"","2596.99999995064","sequential-stimulus-presentation","269","342225","0.0-50.0-1.4","SS1613169716645","trial","","40","800","3396.99999995064","images/stimuli/spore_stims/simple_07_B_b.gif","images/stimuli/spore_stims/simple_07_A_b.gif","","","","","14","simple_similar","images/stimuli/spore_stims/simple_07_A_b.gif","left","","","","",""
"","null","html-keyboard-response","270","343120","0.0-50.0-0.5","SS1613169716645","","","null","","","","","<p><img src= images/blank.png width =""200"" height = ""200"" style = ""float:right""></p><p><img src=images/blank.png width =""800"" height = ""200""></p>","","","","","","","","","","","",""
"","505.0000000046566","sequential-stimulus-presentation","271","344443","0.0-50.0-1.5","SS1613169716645","trial","","40","800","1305.0000000046566","images/stimuli/spore_stims/simple_07_B_b.gif","images/stimuli/spore_stims/simple_07_A_b.gif","","","","","14","simple_similar","images/stimuli/spore_stims/simple_07_B_b.gif","right","","","","",""
"","null","html-keyboard-response","272","345514","0.0-50.0-0.6","SS1613169716645","","","null","","","","","<p><img src= images/blank.png width =""200"" height = ""200"" style = ""float:right""></p><p><img src=images/blank.png width =""800"" height = ""200""></p>","","","","","","","","","","","",""
"","25141.99999999255","sequential-stimulus-presentation","273","371471","0.0-50.0-1.6","SS1613169716645","trial","","40","800","25941.99999999255","images/stimuli/spore_stims/simple_07_B_b.gif","images/stimuli/spore_stims/simple_07_A_b.gif","","","","","14","simple_similar","images/stimuli/spore_stims/simple_07_A_b.gif","left","","","","",""
"","null","html-keyboard-response","274","372769","0.0-50.0-0.7","SS1613169716645","","","null","","","","","<p><img src= images/blank.png width =""200"" height = ""200"" style = ""float:right""></p><p><img src=images/blank.png width =""800"" height = ""200""></p>","","","","","","","","","","","",""
"","32.00000000651926","sequential-stimulus-presentation","275","373626","0.0-50.0-1.7","SS1613169716645","trial","","40","800","832.0000000065193","images/stimuli/spore_stims/simple_07_B_b.gif","images/stimuli/spore_stims/simple_07_A_b.gif","","","","","14","simple_similar","images/stimuli/spore_stims/simple_07_A_b.gif","left","","","","",""
"","2551.9999999087304","html-keyboard-response","276","376187","0.0-51.0","SS1613169716645","pref_question","","50","","","","","<video width ='960' height = '540' style='padding-top:8%' autoplay muted><source src='images/stimuli/wall_pref.mp4' type='video/mp4'></video>","2","middle","45%","14","","","","","","","",""
"","118.0000000167638","sequential-stimulus-presentation","277","377134","0.0-52.0","SS1613169716645","pref_reveal","","40","800","918.0000000167638","null","null","","","","","14","","","","novel","","","",""
"","null","html-keyboard-response","278","378432","0.0-53.0-0.0","SS1613169716645","","","null","","","","","<p><img src= images/blank.png width =""200"" height = ""200"" style = ""float:right""></p><p><img src=images/blank.png width =""800"" height = ""200""></p>","","","","","","","","","","","",""
"","185.99999998696148","sequential-stimulus-presentation","279","379488","0.0-53.0-1.0","SS1613169716645","trial","","40","800","985.9999999869615","images/stimuli/spore_stims/complex_07_B_d.gif","images/stimuli/spore_stims/complex_05_A_b.gif","","","","","15","complex_dissimilar","images/stimuli/spore_stims/complex_05_A_b.gif","right","","","","",""
"","null","html-keyboard-response","280","380768","0.0-53.0-0.1","SS1613169716645","","","null","","","","","<p><img src= images/blank.png width =""200"" height = ""200"" style = ""float:right""></p><p><img src=images/blank.png width =""800"" height = ""200""></p>","","","","","","","","","","","",""
"","383.9999999618158","sequential-stimulus-presentation","281","381963","0.0-53.0-1.1","SS1613169716645","trial","","40","800","1183.9999999618158","images/stimuli/spore_stims/complex_07_B_d.gif","images/stimuli/spore_stims/complex_05_A_b.gif","","","","","15","complex_dissimilar","images/stimuli/spore_stims/complex_05_A_b.gif","right","","","","",""
"","null","html-keyboard-response","282","383172","0.0-53.0-0.2","SS1613169716645","","","null","","","","","<p><img src= images/blank.png width =""200"" height = ""200"" style = ""float:right""></p><p><img src=images/blank.png width =""800"" height = ""200""></p>","","","","","","","","","","","",""
"","121.00000004284084","sequential-stimulus-presentation","283","384104","0.0-53.0-1.2","SS1613169716645","trial","","40","800","921.0000000428408","images/stimuli/spore_stims/complex_07_B_d.gif","images/stimuli/spore_stims/complex_05_A_b.gif","","","","","15","complex_dissimilar","images/stimuli/spore_stims/complex_05_A_b.gif","right","","","","",""
"","null","html-keyboard-response","284","384959","0.0-53.0-0.3","SS1613169716645","","","null","","","","","<p><img src= images/blank.png width =""200"" height = ""200"" style = ""float:right""></p><p><img src=images/blank.png width =""800"" height = ""200""></p>","","","","","","","","","","","",""
"","77.9999999795109","sequential-stimulus-presentation","285","385852","0.0-53.0-1.3","SS1613169716645","trial","","40","800","877.9999999795109","images/stimuli/spore_stims/complex_07_B_d.gif","images/stimuli/spore_stims/complex_05_A_b.gif","","","","","15","complex_dissimilar","images/stimuli/spore_stims/complex_05_A_b.gif","right","","","","",""
"","null","html-keyboard-response","286","386680","0.0-53.0-0.4","SS1613169716645","","","null","","","","","<p><img src= images/blank.png width =""200"" height = ""200"" style = ""float:right""></p><p><img src=images/blank.png width =""800"" height = ""200""></p>","","","","","","","","","","","",""
"","126.00000004749745","sequential-stimulus-presentation","287","387621","0.0-53.0-1.4","SS1613169716645","trial","","40","800","926.0000000474975","images/stimuli/spore_stims/complex_07_B_d.gif","images/stimuli/spore_stims/complex_05_A_b.gif","","","","","15","complex_dissimilar","images/stimuli/spore_stims/complex_05_A_b.gif","right","","","","",""
"","null","html-keyboard-response","288","388506","0.0-53.0-0.5","SS1613169716645","","","null","","","","","<p><img src= images/blank.png width =""200"" height = ""200"" style = ""float:right""></p><p><img src=images/blank.png width =""800"" height = ""200""></p>","","","","","","","","","","","",""
"","130.0000000046566","sequential-stimulus-presentation","289","389449","0.0-53.0-1.5","SS1613169716645","trial","","40","800","930.0000000046566","images/stimuli/spore_stims/complex_07_B_d.gif","images/stimuli/spore_stims/complex_05_A_b.gif","","","","","15","complex_dissimilar","images/stimuli/spore_stims/complex_05_A_b.gif","right","","","","",""
"","null","html-keyboard-response","290","390281","0.0-53.0-0.6","SS1613169716645","","","null","","","","","<p><img src= images/blank.png width =""200"" height = ""200"" style = ""float:right""></p><p><img src=images/blank.png width =""800"" height = ""200""></p>","","","","","","","","","","","",""
"","64.99999994412065","sequential-stimulus-presentation","291","391161","0.0-53.0-1.6","SS1613169716645","trial","","40","800","864.9999999441206","images/stimuli/spore_stims/complex_07_B_d.gif","images/stimuli/spore_stims/complex_05_A_b.gif","","","","","15","complex_dissimilar","images/stimuli/spore_stims/complex_07_B_d.gif","middle","","","","",""
"","null","html-keyboard-response","292","392381","0.0-53.0-0.7","SS1613169716645","","","null","","","","","<p><img src= images/blank.png width =""200"" height = ""200"" style = ""float:right""></p><p><img src=images/blank.png width =""800"" height = ""200""></p>","","","","","","","","","","","",""
"","258.9999999618158","sequential-stimulus-presentation","293","393451","0.0-53.0-1.7","SS1613169716645","trial","","40","800","1058.9999999618158","images/stimuli/spore_stims/complex_07_B_d.gif","images/stimuli/spore_stims/complex_05_A_b.gif","","","","","15","complex_dissimilar","images/stimuli/spore_stims/complex_05_A_b.gif","right","","","","",""
"","261.9999999878928","html-keyboard-response","294","393722","0.0-54.0","SS1613169716645","pref_question","","51","","","","","<video width ='960' height = '540' style='padding-top:8%' autoplay muted><source src='images/stimuli/wall_pref.mp4' type='video/mp4'></video>","3","right","66%","15","","","","","","","",""
"","103.00000000279397","sequential-stimulus-presentation","295","394637","0.0-55.0","SS1613169716645","pref_reveal","","40","800","903.000000002794","null","null","","","","","15","","","","background","","","",""
"","null","html-keyboard-response","296","395936","0.0-56.0-0.0","SS1613169716645","","","null","","","","","<p><img src= images/blank.png width =""200"" height = ""200"" style = ""float:right""></p><p><img src=images/blank.png width =""800"" height = ""200""></p>","","","","","","","","","","","",""
"","152.00000000186265","sequential-stimulus-presentation","297","396894","0.0-56.0-1.0","SS1613169716645","trial","","40","800","952.0000000018626","images/stimuli/spore_stims/simple_19_B_d.gif","images/stimuli/spore_stims/simple_09_B_d.gif","","","","","16","simple_dissimilar","images/stimuli/spore_stims/simple_09_B_d.gif","middle","","","","",""
"","null","html-keyboard-response","298","397732","0.0-56.0-0.1","SS1613169716645","","","null","","","","","<p><img src= images/blank.png width =""200"" height = ""200"" style = ""float:right""></p><p><img src=images/blank.png width =""800"" height = ""200""></p>","","","","","","","","","","","",""
"","142.99999992363155","sequential-stimulus-presentation","299","398693","0.0-56.0-1.1","SS1613169716645","trial","","40","800","942.9999999236315","images/stimuli/spore_stims/simple_19_B_d.gif","images/stimuli/spore_stims/simple_09_B_d.gif","","","","","16","simple_dissimilar","images/stimuli/spore_stims/simple_09_B_d.gif","middle","","","","",""
"","null","html-keyboard-response","300","399680","0.0-56.0-0.2","SS1613169716645","","","null","","","","","<p><img src= images/blank.png width =""200"" height = ""200"" style = ""float:right""></p><p><img src=images/blank.png width =""800"" height = ""200""></p>","","","","","","","","","","","",""
"","21.000000066123903","sequential-stimulus-presentation","301","400510","0.0-56.0-1.2","SS1613169716645","trial","","40","800","821.0000000661239","images/stimuli/spore_stims/simple_19_B_d.gif","images/stimuli/spore_stims/simple_09_B_d.gif","","","","","16","simple_dissimilar","images/stimuli/spore_stims/simple_09_B_d.gif","middle","","","","",""
"","null","html-keyboard-response","302","401421","0.0-56.0-0.3","SS1613169716645","","","null","","","","","<p><img src= images/blank.png width =""200"" height = ""200"" style = ""float:right""></p><p><img src=images/blank.png width =""800"" height = ""200""></p>","","","","","","","","","","","",""
"","136.9999999878928","sequential-stimulus-presentation","303","402374","0.0-56.0-1.3","SS1613169716645","trial","","40","800","936.9999999878928","images/stimuli/spore_stims/simple_19_B_d.gif","images/stimuli/spore_stims/simple_09_B_d.gif","","","","","16","simple_dissimilar","images/stimuli/spore_stims/simple_09_B_d.gif","middle","","","","",""
"","null","html-keyboard-response","304","403430","0.0-56.0-0.4","SS1613169716645","","","null","","","","","<p><img src= images/blank.png width =""200"" height = ""200"" style = ""float:right""></p><p><img src=images/blank.png width =""800"" height = ""200""></p>","","","","","","","","","","","",""
"","150.9999999543652","sequential-stimulus-presentation","305","404392","0.0-56.0-1.4","SS1613169716645","trial","","40","800","950.9999999543652","images/stimuli/spore_stims/simple_19_B_d.gif","images/stimuli/spore_stims/simple_09_B_d.gif","","","","","16","simple_dissimilar","images/stimuli/spore_stims/simple_09_B_d.gif","middle","","","","",""
"","null","html-keyboard-response","306","405455","0.0-56.0-0.5","SS1613169716645","","","null","","","","","<p><img src= images/blank.png width =""200"" height = ""200"" style = ""float:right""></p><p><img src=images/blank.png width =""800"" height = ""200""></p>","","","","","","","","","","","",""
"","260.0000000093132","sequential-stimulus-presentation","307","406560","0.0-56.0-1.5","SS1613169716645","trial","","40","800","1060.0000000093132","images/stimuli/spore_stims/simple_19_B_d.gif","images/stimuli/spore_stims/simple_09_B_d.gif","","","","","16","simple_dissimilar","images/stimuli/spore_stims/simple_09_B_d.gif","middle","","","","",""
"","null","html-keyboard-response","308","407465","0.0-56.0-0.6","SS1613169716645","","","null","","","","","<p><img src= images/blank.png width =""200"" height = ""200"" style = ""float:right""></p><p><img src=images/blank.png width =""800"" height = ""200""></p>","","","","","","","","","","","",""
"","74.00000002235174","sequential-stimulus-presentation","309","408349","0.0-56.0-1.6","SS1613169716645","trial","","40","800","874.0000000223517","images/stimuli/spore_stims/simple_19_B_d.gif","images/stimuli/spore_stims/simple_09_B_d.gif","","","","","16","simple_dissimilar","images/stimuli/spore_stims/simple_19_B_d.gif","right","","","","",""
"","null","html-keyboard-response","310","409435","0.0-56.0-0.7","SS1613169716645","","","null","","","","","<p><img src= images/blank.png width =""200"" height = ""200"" style = ""float:right""></p><p><img src=images/blank.png width =""800"" height = ""200""></p>","","","","","","","","","","","",""
"","107.00000007636845","sequential-stimulus-presentation","311","410351","0.0-56.0-1.7","SS1613169716645","trial","","40","800","907.0000000763685","images/stimuli/spore_stims/simple_19_B_d.gif","images/stimuli/spore_stims/simple_09_B_d.gif","","","","","16","simple_dissimilar","images/stimuli/spore_stims/simple_09_B_d.gif","middle","","","","",""
"","1191.9999999227002","html-keyboard-response","312","411566","0.0-57.0","SS1613169716645","pref_question","","49","","","","","<video width ='960' height = '540' style='padding-top:8%' autoplay muted><source src='images/stimuli/wall_pref.mp4' type='video/mp4'></video>","1","left","25%","16","","","","","","","",""
