"view_history","rt","trial_type","trial_index","time_elapsed","internal_node_id","subject","stimulus_type","trial_stimulus","key_press","minimum_viewing_duration","trial_looking_time","block_deviant","block_background","stimulus","wall_pref","location","location_percent","block_number","block_type","stimulus_displayed","position_displayed","stim_type_selected","responses","question_order","stimulus_left","stimulus_right"
"[{""page_index"":0,""viewing_time"":4900.280000001658}]","4901.350000000093","instructions","0","4903","0.0-0.0","SS1613080139942","","","","","","","","","","","","","","","","","","","",""
"[{""page_index"":0,""viewing_time"":1890.4449999972712},{""page_index"":1,""viewing_time"":5688.705000007758}]","7579.595000017434","instructions","1","14486","0.0-1.0","SS1613080139942","instructions","","","","","","","","","","","","","","","","","","",""
"","4151.935000001686","sequential-stimulus-presentation","2","19445","0.0-2.0","SS1613080139942","","","40","800","4951.935000001686","null","null","","","","","","","","","","","","",""
"","3248.6550000030547","sequential-stimulus-presentation","3","23498","0.0-3.0","SS1613080139942","","","40","800","4048.6550000030547","null","null","","","","","","","","","","","","",""
"[{""page_index"":0,""viewing_time"":2715.460000006715}]","2715.775000018766","instructions","4","26215","0.0-4.0","SS1613080139942","instructions","","","","","","","","","","","","","","","","","","",""
"","11544.87500002142","html-keyboard-response","5","37765","0.0-5.0","SS1613080139942","instructions","","50","","","","","<video width ='960' height = '540' autoplay muted><source src='images/stimuli/wall_pref.mp4' type='video/mp4'></video>","2","middle","45%","","","","","","","","",""
"","1739.1099999949802","sequential-stimulus-presentation","6","40309","0.0-6.0","SS1613080139942","pref_reveal","","40","800","2539.10999999498","null","null","","","","","","","","","","","","",""
"[{""page_index"":0,""viewing_time"":2145.18500000122},{""page_index"":1,""viewing_time"":1552.9000000096858},{""page_index"":2,""viewing_time"":2125.869999988936},{""page_index"":3,""viewing_time"":1784.2900000105146}]","7608.565000002272","instructions","7","47919","0.0-7.0","SS1613080139942","instructions","","","","","","","","","","","","","","","","","","",""
"","null","html-keyboard-response","8","48724","0.0-8.0-0.0","SS1613080139942","","","null","","","","","<p><img src= images/blank.png width =""200"" height = ""200"" style = ""float:right""></p><p><img src=images/blank.png width =""800"" height = ""200""></p>","","","","","","","","","","","",""
"","1351.9950000045355","sequential-stimulus-presentation","9","50883","0.0-8.0-1.0","SS1613080139942","trial","","40","800","2151.9950000045355","images/stimuli/spore_stims/simple_19_A_d.gif","images/stimuli/spore_stims/simple_19_B_d.gif","","","","","0","simple_similar","images/stimuli/spore_stims/simple_19_B_d.gif","left","","","","",""
"","null","html-keyboard-response","10","52081","0.0-8.0-0.1","SS1613080139942","","","null","","","","","<p><img src= images/blank.png width =""200"" height = ""200"" style = ""float:right""></p><p><img src=images/blank.png width =""800"" height = ""200""></p>","","","","","","","","","","","",""
"","1453.0050000175834","sequential-stimulus-presentation","11","54339","0.0-8.0-1.1","SS1613080139942","trial","","40","800","2253.0050000175834","images/stimuli/spore_stims/simple_19_A_d.gif","images/stimuli/spore_stims/simple_19_B_d.gif","","","","","0","simple_similar","images/stimuli/spore_stims/simple_19_B_d.gif","left","","","","",""
"","null","html-keyboard-response","12","55506","0.0-8.0-0.2","SS1613080139942","","","null","","","","","<p><img src= images/blank.png width =""200"" height = ""200"" style = ""float:right""></p><p><img src=images/blank.png width =""800"" height = ""200""></p>","","","","","","","","","","","",""
"","806.5649999771267","sequential-stimulus-presentation","13","57117","0.0-8.0-1.2","SS1613080139942","trial","","40","800","1606.5649999771267","images/stimuli/spore_stims/simple_19_A_d.gif","images/stimuli/spore_stims/simple_19_B_d.gif","","","","","0","simple_similar","images/stimuli/spore_stims/simple_19_B_d.gif","left","","","","",""
"","null","html-keyboard-response","14","58102","0.0-8.0-0.3","SS1613080139942","","","null","","","","","<p><img src= images/blank.png width =""200"" height = ""200"" style = ""float:right""></p><p><img src=images/blank.png width =""800"" height = ""200""></p>","","","","","","","","","","","",""
"","1063.1149999971967","sequential-stimulus-presentation","15","59969","0.0-8.0-1.3","SS1613080139942","trial","","40","800","1863.1149999971967","images/stimuli/spore_stims/simple_19_A_d.gif","images/stimuli/spore_stims/simple_19_B_d.gif","","","","","0","simple_similar","images/stimuli/spore_stims/simple_19_B_d.gif","left","","","","",""
"","null","html-keyboard-response","16","61141","0.0-8.0-0.4","SS1613080139942","","","null","","","","","<p><img src= images/blank.png width =""200"" height = ""200"" style = ""float:right""></p><p><img src=images/blank.png width =""800"" height = ""200""></p>","","","","","","","","","","","",""
"","878.3999999868684","sequential-stimulus-presentation","17","62825","0.0-8.0-1.4","SS1613080139942","trial","","40","800","1678.3999999868684","images/stimuli/spore_stims/simple_19_A_d.gif","images/stimuli/spore_stims/simple_19_B_d.gif","","","","","0","simple_similar","images/stimuli/spore_stims/simple_19_A_d.gif","middle","","","","",""
"","null","html-keyboard-response","18","63880","0.0-8.0-0.5","SS1613080139942","","","null","","","","","<p><img src= images/blank.png width =""200"" height = ""200"" style = ""float:right""></p><p><img src=images/blank.png width =""800"" height = ""200""></p>","","","","","","","","","","","",""
"","1323.61000002129","sequential-stimulus-presentation","19","66014","0.0-8.0-1.5","SS1613080139942","trial","","40","800","2123.61000002129","images/stimuli/spore_stims/simple_19_A_d.gif","images/stimuli/spore_stims/simple_19_B_d.gif","","","","","0","simple_similar","images/stimuli/spore_stims/simple_19_B_d.gif","left","","","","",""
"","null","html-keyboard-response","20","66979","0.0-8.0-0.6","SS1613080139942","","","null","","","","","<p><img src= images/blank.png width =""200"" height = ""200"" style = ""float:right""></p><p><img src=images/blank.png width =""800"" height = ""200""></p>","","","","","","","","","","","",""
"","1044.400000013411","sequential-stimulus-presentation","21","68858","0.0-8.0-1.6","SS1613080139942","trial","","40","800","1844.400000013411","images/stimuli/spore_stims/simple_19_A_d.gif","images/stimuli/spore_stims/simple_19_B_d.gif","","","","","0","simple_similar","images/stimuli/spore_stims/simple_19_B_d.gif","left","","","","",""
"","null","html-keyboard-response","22","69998","0.0-8.0-0.7","SS1613080139942","","","null","","","","","<p><img src= images/blank.png width =""200"" height = ""200"" style = ""float:right""></p><p><img src=images/blank.png width =""800"" height = ""200""></p>","","","","","","","","","","","",""
"","644.7249999910127","sequential-stimulus-presentation","23","71447","0.0-8.0-1.7","SS1613080139942","trial","","40","800","1444.7249999910127","images/stimuli/spore_stims/simple_19_A_d.gif","images/stimuli/spore_stims/simple_19_B_d.gif","","","","","0","simple_similar","images/stimuli/spore_stims/simple_19_B_d.gif","left","","","","",""
"","1504.6349999902304","html-keyboard-response","24","72955","0.0-9.0","SS1613080139942","pref_question","","50","","","","","<video width ='960' height = '540' style='padding-top:8%' autoplay muted><source src='images/stimuli/wall_pref.mp4' type='video/mp4'></video>","2","middle","45%","0","","","","","","","",""
"","1013.6049999855459","sequential-stimulus-presentation","25","74775","0.0-10.0","SS1613080139942","pref_reveal","","40","800","1813.6049999855459","null","null","","","","","0","","","","deviant","","","",""
"","null","html-keyboard-response","26","75867","0.0-11.0-0.0","SS1613080139942","","","null","","","","","<p><img src= images/blank.png width =""200"" height = ""200"" style = ""float:right""></p><p><img src=images/blank.png width =""800"" height = ""200""></p>","","","","","","","","","","","",""
"","972.2100000071805","sequential-stimulus-presentation","27","77661","0.0-11.0-1.0","SS1613080139942","trial","","40","800","1772.2100000071805","images/stimuli/spore_stims/complex_14_B_c.gif","images/stimuli/spore_stims/complex_10_A_b.gif","","","","","1","complex_dissimilar","images/stimuli/spore_stims/complex_10_A_b.gif","middle","","","","",""
"","null","html-keyboard-response","28","78738","0.0-11.0-0.1","SS1613080139942","","","null","","","","","<p><img src= images/blank.png width =""200"" height = ""200"" style = ""float:right""></p><p><img src=images/blank.png width =""800"" height = ""200""></p>","","","","","","","","","","","",""
"","834.0700000117067","sequential-stimulus-presentation","29","80379","0.0-11.0-1.1","SS1613080139942","trial","","40","800","1634.0700000117067","images/stimuli/spore_stims/complex_14_B_c.gif","images/stimuli/spore_stims/complex_10_A_b.gif","","","","","1","complex_dissimilar","images/stimuli/spore_stims/complex_10_A_b.gif","middle","","","","",""
"","null","html-keyboard-response","30","81419","0.0-11.0-0.2","SS1613080139942","","","null","","","","","<p><img src= images/blank.png width =""200"" height = ""200"" style = ""float:right""></p><p><img src=images/blank.png width =""800"" height = ""200""></p>","","","","","","","","","","","",""
"","897.4450000096112","sequential-stimulus-presentation","31","83137","0.0-11.0-1.2","SS1613080139942","trial","","40","800","1697.4450000096112","images/stimuli/spore_stims/complex_14_B_c.gif","images/stimuli/spore_stims/complex_10_A_b.gif","","","","","1","complex_dissimilar","images/stimuli/spore_stims/complex_10_A_b.gif","middle","","","","",""
"","null","html-keyboard-response","32","84272","0.0-11.0-0.3","SS1613080139942","","","null","","","","","<p><img src= images/blank.png width =""200"" height = ""200"" style = ""float:right""></p><p><img src=images/blank.png width =""800"" height = ""200""></p>","","","","","","","","","","","",""
"","1105.6749999988824","sequential-stimulus-presentation","33","86183","0.0-11.0-1.3","SS1613080139942","trial","","40","800","1905.6749999988824","images/stimuli/spore_stims/complex_14_B_c.gif","images/stimuli/spore_stims/complex_10_A_b.gif","","","","","1","complex_dissimilar","images/stimuli/spore_stims/complex_10_A_b.gif","middle","","","","",""
"","null","html-keyboard-response","34","87390","0.0-11.0-0.4","SS1613080139942","","","null","","","","","<p><img src= images/blank.png width =""200"" height = ""200"" style = ""float:right""></p><p><img src=images/blank.png width =""800"" height = ""200""></p>","","","","","","","","","","","",""
"","180.95999999786727","sequential-stimulus-presentation","35","88377","0.0-11.0-1.4","SS1613080139942","trial","","40","800","980.9599999978673","images/stimuli/spore_stims/complex_14_B_c.gif","images/stimuli/spore_stims/complex_10_A_b.gif","","","","","1","complex_dissimilar","images/stimuli/spore_stims/complex_10_A_b.gif","middle","","","","",""
"","null","html-keyboard-response","36","89618","0.0-11.0-0.5","SS1613080139942","","","null","","","","","<p><img src= images/blank.png width =""200"" height = ""200"" style = ""float:right""></p><p><img src=images/blank.png width =""800"" height = ""200""></p>","","","","","","","","","","","",""
"","137.1050000016112","sequential-stimulus-presentation","37","90571","0.0-11.0-1.5","SS1613080139942","trial","","40","800","937.1050000016112","images/stimuli/spore_stims/complex_14_B_c.gif","images/stimuli/spore_stims/complex_10_A_b.gif","","","","","1","complex_dissimilar","images/stimuli/spore_stims/complex_10_A_b.gif","middle","","","","",""
"","null","html-keyboard-response","38","91649","0.0-11.0-0.6","SS1613080139942","","","null","","","","","<p><img src= images/blank.png width =""200"" height = ""200"" style = ""float:right""></p><p><img src=images/blank.png width =""800"" height = ""200""></p>","","","","","","","","","","","",""
"","2217.25499999593","sequential-stimulus-presentation","39","94671","0.0-11.0-1.6","SS1613080139942","trial","","40","800","3017.25499999593","images/stimuli/spore_stims/complex_14_B_c.gif","images/stimuli/spore_stims/complex_10_A_b.gif","","","","","1","complex_dissimilar","images/stimuli/spore_stims/complex_14_B_c.gif","left","","","","",""
"","null","html-keyboard-response","40","95800","0.0-11.0-0.7","SS1613080139942","","","null","","","","","<p><img src= images/blank.png width =""200"" height = ""200"" style = ""float:right""></p><p><img src=images/blank.png width =""800"" height = ""200""></p>","","","","","","","","","","","",""
"","610.5200000165496","sequential-stimulus-presentation","41","97216","0.0-11.0-1.7","SS1613080139942","trial","","40","800","1410.5200000165496","images/stimuli/spore_stims/complex_14_B_c.gif","images/stimuli/spore_stims/complex_10_A_b.gif","","","","","1","complex_dissimilar","images/stimuli/spore_stims/complex_10_A_b.gif","middle","","","","",""
"","3759.3399999896064","html-keyboard-response","42","100981","0.0-12.0","SS1613080139942","pref_question","","51","","","","","<video width ='960' height = '540' style='padding-top:8%' autoplay muted><source src='images/stimuli/wall_pref.mp4' type='video/mp4'></video>","3","right","66%","1","","","","","","","",""
"","334.61000001989305","sequential-stimulus-presentation","43","102129","0.0-13.0","SS1613080139942","pref_reveal","","40","800","1134.610000019893","null","null","","","","","1","","","","novel","","","",""
"","null","html-keyboard-response","44","103166","0.0-14.0-0.0","SS1613080139942","","","null","","","","","<p><img src= images/blank.png width =""200"" height = ""200"" style = ""float:right""></p><p><img src=images/blank.png width =""800"" height = ""200""></p>","","","","","","","","","","","",""
"","835.3200000128709","sequential-stimulus-presentation","45","104811","0.0-14.0-1.0","SS1613080139942","trial","","40","800","1635.3200000128709","images/stimuli/spore_stims/simple_12_A_b.gif","images/stimuli/spore_stims/simple_17_B_d.gif","","","","","2","simple_dissimilar","images/stimuli/spore_stims/simple_17_B_d.gif","left","","","","",""
"","null","html-keyboard-response","46","105854","0.0-14.0-0.1","SS1613080139942","","","null","","","","","<p><img src= images/blank.png width =""200"" height = ""200"" style = ""float:right""></p><p><img src=images/blank.png width =""800"" height = ""200""></p>","","","","","","","","","","","",""
"","571.8850000121165","sequential-stimulus-presentation","47","107234","0.0-14.0-1.1","SS1613080139942","trial","","40","800","1371.8850000121165","images/stimuli/spore_stims/simple_12_A_b.gif","images/stimuli/spore_stims/simple_17_B_d.gif","","","","","2","simple_dissimilar","images/stimuli/spore_stims/simple_17_B_d.gif","left","","","","",""
"","null","html-keyboard-response","48","108444","0.0-14.0-0.2","SS1613080139942","","","null","","","","","<p><img src= images/blank.png width =""200"" height = ""200"" style = ""float:right""></p><p><img src=images/blank.png width =""800"" height = ""200""></p>","","","","","","","","","","","",""
"","618.4300000022631","sequential-stimulus-presentation","49","109867","0.0-14.0-1.2","SS1613080139942","trial","","40","800","1418.4300000022631","images/stimuli/spore_stims/simple_12_A_b.gif","images/stimuli/spore_stims/simple_17_B_d.gif","","","","","2","simple_dissimilar","images/stimuli/spore_stims/simple_17_B_d.gif","left","","","","",""
"","null","html-keyboard-response","50","110829","0.0-14.0-0.3","SS1613080139942","","","null","","","","","<p><img src= images/blank.png width =""200"" height = ""200"" style = ""float:right""></p><p><img src=images/blank.png width =""800"" height = ""200""></p>","","","","","","","","","","","",""
"","565.2849999896716","sequential-stimulus-presentation","51","112199","0.0-14.0-1.3","SS1613080139942","trial","","40","800","1365.2849999896716","images/stimuli/spore_stims/simple_12_A_b.gif","images/stimuli/spore_stims/simple_17_B_d.gif","","","","","2","simple_dissimilar","images/stimuli/spore_stims/simple_17_B_d.gif","left","","","","",""
"","null","html-keyboard-response","52","113468","0.0-14.0-0.4","SS1613080139942","","","null","","","","","<p><img src= images/blank.png width =""200"" height = ""200"" style = ""float:right""></p><p><img src=images/blank.png width =""800"" height = ""200""></p>","","","","","","","","","","","",""
"","333.09500000905246","sequential-stimulus-presentation","53","114606","0.0-14.0-1.4","SS1613080139942","trial","","40","800","1133.0950000090525","images/stimuli/spore_stims/simple_12_A_b.gif","images/stimuli/spore_stims/simple_17_B_d.gif","","","","","2","simple_dissimilar","images/stimuli/spore_stims/simple_17_B_d.gif","left","","","","",""
"","null","html-keyboard-response","54","115626","0.0-14.0-0.5","SS1613080139942","","","null","","","","","<p><img src= images/blank.png width =""200"" height = ""200"" style = ""float:right""></p><p><img src=images/blank.png width =""800"" height = ""200""></p>","","","","","","","","","","","",""
"","541.479999985313","sequential-stimulus-presentation","55","116974","0.0-14.0-1.5","SS1613080139942","trial","","40","800","1341.479999985313","images/stimuli/spore_stims/simple_12_A_b.gif","images/stimuli/spore_stims/simple_17_B_d.gif","","","","","2","simple_dissimilar","images/stimuli/spore_stims/simple_17_B_d.gif","left","","","","",""
"","null","html-keyboard-response","56","117857","0.0-14.0-0.6","SS1613080139942","","","null","","","","","<p><img src= images/blank.png width =""200"" height = ""200"" style = ""float:right""></p><p><img src=images/blank.png width =""800"" height = ""200""></p>","","","","","","","","","","","",""
"","514.484999992419","sequential-stimulus-presentation","57","119180","0.0-14.0-1.6","SS1613080139942","trial","","40","800","1314.484999992419","images/stimuli/spore_stims/simple_12_A_b.gif","images/stimuli/spore_stims/simple_17_B_d.gif","","","","","2","simple_dissimilar","images/stimuli/spore_stims/simple_17_B_d.gif","left","","","","",""
"","null","html-keyboard-response","58","120006","0.0-14.0-0.7","SS1613080139942","","","null","","","","","<p><img src= images/blank.png width =""200"" height = ""200"" style = ""float:right""></p><p><img src=images/blank.png width =""800"" height = ""200""></p>","","","","","","","","","","","",""
"","780.5500000249594","sequential-stimulus-presentation","59","121592","0.0-14.0-1.7","SS1613080139942","trial","","40","800","1580.5500000249594","images/stimuli/spore_stims/simple_12_A_b.gif","images/stimuli/spore_stims/simple_17_B_d.gif","","","","","2","simple_dissimilar","images/stimuli/spore_stims/simple_12_A_b.gif","middle","","","","",""
"","1501.7050000024028","html-keyboard-response","60","123123","0.0-15.0","SS1613080139942","pref_question","","50","","","","","<video width ='960' height = '540' style='padding-top:8%' autoplay muted><source src='images/stimuli/wall_pref.mp4' type='video/mp4'></video>","2","middle","45%","2","","","","","","","",""
"","1358.6300000024494","sequential-stimulus-presentation","61","125285","0.0-16.0","SS1613080139942","pref_reveal","","40","800","2158.6300000024494","null","null","","","","","2","","","","deviant","","","",""
"","null","html-keyboard-response","62","126349","0.0-17.0-0.0","SS1613080139942","","","null","","","","","<p><img src= images/blank.png width =""200"" height = ""200"" style = ""float:right""></p><p><img src=images/blank.png width =""800"" height = ""200""></p>","","","","","","","","","","","",""
"","826.6049999801908","sequential-stimulus-presentation","63","127982","0.0-17.0-1.0","SS1613080139942","trial","","40","800","1626.6049999801908","images/stimuli/spore_stims/complex_01_B_c.gif","images/stimuli/spore_stims/complex_14_A_a.gif","","","","","3","complex_dissimilar","images/stimuli/spore_stims/complex_14_A_a.gif","right","","","","",""
"","null","html-keyboard-response","64","129248","0.0-17.0-0.1","SS1613080139942","","","null","","","","","<p><img src= images/blank.png width =""200"" height = ""200"" style = ""float:right""></p><p><img src=images/blank.png width =""800"" height = ""200""></p>","","","","","","","","","","","",""
"","621.4349999791011","sequential-stimulus-presentation","65","130677","0.0-17.0-1.1","SS1613080139942","trial","","40","800","1421.4349999791011","images/stimuli/spore_stims/complex_01_B_c.gif","images/stimuli/spore_stims/complex_14_A_a.gif","","","","","3","complex_dissimilar","images/stimuli/spore_stims/complex_14_A_a.gif","right","","","","",""
"","null","html-keyboard-response","66","131488","0.0-17.0-0.2","SS1613080139942","","","null","","","","","<p><img src= images/blank.png width =""200"" height = ""200"" style = ""float:right""></p><p><img src=images/blank.png width =""800"" height = ""200""></p>","","","","","","","","","","","",""
"","593.1500000006054","sequential-stimulus-presentation","67","132899","0.0-17.0-1.2","SS1613080139942","trial","","40","800","1393.1500000006054","images/stimuli/spore_stims/complex_01_B_c.gif","images/stimuli/spore_stims/complex_14_A_a.gif","","","","","3","complex_dissimilar","images/stimuli/spore_stims/complex_14_A_a.gif","right","","","","",""
"","null","html-keyboard-response","68","133856","0.0-17.0-0.3","SS1613080139942","","","null","","","","","<p><img src= images/blank.png width =""200"" height = ""200"" style = ""float:right""></p><p><img src=images/blank.png width =""800"" height = ""200""></p>","","","","","","","","","","","",""
"","791.4450000098441","sequential-stimulus-presentation","69","135452","0.0-17.0-1.3","SS1613080139942","trial","","40","800","1591.445000009844","images/stimuli/spore_stims/complex_01_B_c.gif","images/stimuli/spore_stims/complex_14_A_a.gif","","","","","3","complex_dissimilar","images/stimuli/spore_stims/complex_01_B_c.gif","left","","","","",""
"","null","html-keyboard-response","70","136688","0.0-17.0-0.4","SS1613080139942","","","null","","","","","<p><img src= images/blank.png width =""200"" height = ""200"" style = ""float:right""></p><p><img src=images/blank.png width =""800"" height = ""200""></p>","","","","","","","","","","","",""
"","654.804999998305","sequential-stimulus-presentation","71","138155","0.0-17.0-1.4","SS1613080139942","trial","","40","800","1454.804999998305","images/stimuli/spore_stims/complex_01_B_c.gif","images/stimuli/spore_stims/complex_14_A_a.gif","","","","","3","complex_dissimilar","images/stimuli/spore_stims/complex_14_A_a.gif","right","","","","",""
"","null","html-keyboard-response","72","139202","0.0-17.0-0.5","SS1613080139942","","","null","","","","","<p><img src= images/blank.png width =""200"" height = ""200"" style = ""float:right""></p><p><img src=images/blank.png width =""800"" height = ""200""></p>","","","","","","","","","","","",""
"","649.9000000185333","sequential-stimulus-presentation","73","140657","0.0-17.0-1.5","SS1613080139942","trial","","40","800","1449.9000000185333","images/stimuli/spore_stims/complex_01_B_c.gif","images/stimuli/spore_stims/complex_14_A_a.gif","","","","","3","complex_dissimilar","images/stimuli/spore_stims/complex_14_A_a.gif","right","","","","",""
"","null","html-keyboard-response","74","141481","0.0-17.0-0.6","SS1613080139942","","","null","","","","","<p><img src= images/blank.png width =""200"" height = ""200"" style = ""float:right""></p><p><img src=images/blank.png width =""800"" height = ""200""></p>","","","","","","","","","","","",""
"","656.9399999862071","sequential-stimulus-presentation","75","142949","0.0-17.0-1.6","SS1613080139942","trial","","40","800","1456.939999986207","images/stimuli/spore_stims/complex_01_B_c.gif","images/stimuli/spore_stims/complex_14_A_a.gif","","","","","3","complex_dissimilar","images/stimuli/spore_stims/complex_14_A_a.gif","right","","","","",""
"","null","html-keyboard-response","76","143975","0.0-17.0-0.7","SS1613080139942","","","null","","","","","<p><img src= images/blank.png width =""200"" height = ""200"" style = ""float:right""></p><p><img src=images/blank.png width =""800"" height = ""200""></p>","","","","","","","","","","","",""
"","687.7600000007078","sequential-stimulus-presentation","77","145468","0.0-17.0-1.7","SS1613080139942","trial","","40","800","1487.7600000007078","images/stimuli/spore_stims/complex_01_B_c.gif","images/stimuli/spore_stims/complex_14_A_a.gif","","","","","3","complex_dissimilar","images/stimuli/spore_stims/complex_14_A_a.gif","right","","","","",""
"","1618.400000006659","html-keyboard-response","78","147091","0.0-18.0","SS1613080139942","pref_question","","50","","","","","<video width ='960' height = '540' style='padding-top:8%' autoplay muted><source src='images/stimuli/wall_pref.mp4' type='video/mp4'></video>","2","middle","45%","3","","","","","","","",""
"","565.4900000081398","sequential-stimulus-presentation","79","148463","0.0-19.0","SS1613080139942","pref_reveal","","40","800","1365.4900000081398","null","null","","","","","3","","","","novel","","","",""
"","null","html-keyboard-response","80","149570","0.0-20.0-0.0","SS1613080139942","","","null","","","","","<p><img src= images/blank.png width =""200"" height = ""200"" style = ""float:right""></p><p><img src=images/blank.png width =""800"" height = ""200""></p>","","","","","","","","","","","",""
"","803.9299999945797","sequential-stimulus-presentation","81","151197","0.0-20.0-1.0","SS1613080139942","trial","","40","800","1603.9299999945797","images/stimuli/spore_stims/simple_15_A_c.gif","images/stimuli/spore_stims/simple_05_B_d.gif","","","","","4","simple_dissimilar","images/stimuli/spore_stims/simple_05_B_d.gif","right","","","","",""
"","null","html-keyboard-response","82","152015","0.0-20.0-0.1","SS1613080139942","","","null","","","","","<p><img src= images/blank.png width =""200"" height = ""200"" style = ""float:right""></p><p><img src=images/blank.png width =""800"" height = ""200""></p>","","","","","","","","","","","",""
"","559.8149999859743","sequential-stimulus-presentation","83","153381","0.0-20.0-1.1","SS1613080139942","trial","","40","800","1359.8149999859743","images/stimuli/spore_stims/simple_15_A_c.gif","images/stimuli/spore_stims/simple_05_B_d.gif","","","","","4","simple_dissimilar","images/stimuli/spore_stims/simple_05_B_d.gif","right","","","","",""
"","null","html-keyboard-response","84","154220","0.0-20.0-0.2","SS1613080139942","","","null","","","","","<p><img src= images/blank.png width =""200"" height = ""200"" style = ""float:right""></p><p><img src=images/blank.png width =""800"" height = ""200""></p>","","","","","","","","","","","",""
"","583.3949999941979","sequential-stimulus-presentation","85","155609","0.0-20.0-1.2","SS1613080139942","trial","","40","800","1383.3949999941979","images/stimuli/spore_stims/simple_15_A_c.gif","images/stimuli/spore_stims/simple_05_B_d.gif","","","","","4","simple_dissimilar","images/stimuli/spore_stims/simple_05_B_d.gif","right","","","","",""
"","null","html-keyboard-response","86","156724","0.0-20.0-0.3","SS1613080139942","","","null","","","","","<p><img src= images/blank.png width =""200"" height = ""200"" style = ""float:right""></p><p><img src=images/blank.png width =""800"" height = ""200""></p>","","","","","","","","","","","",""
"","615.6100000080187","sequential-stimulus-presentation","87","158155","0.0-20.0-1.3","SS1613080139942","trial","","40","800","1415.6100000080187","images/stimuli/spore_stims/simple_15_A_c.gif","images/stimuli/spore_stims/simple_05_B_d.gif","","","","","4","simple_dissimilar","images/stimuli/spore_stims/simple_05_B_d.gif","right","","","","",""
"","null","html-keyboard-response","88","159036","0.0-20.0-0.4","SS1613080139942","","","null","","","","","<p><img src= images/blank.png width =""200"" height = ""200"" style = ""float:right""></p><p><img src=images/blank.png width =""800"" height = ""200""></p>","","","","","","","","","","","",""
"","1006.1949999944773","sequential-stimulus-presentation","89","160847","0.0-20.0-1.4","SS1613080139942","trial","","40","800","1806.1949999944773","images/stimuli/spore_stims/simple_15_A_c.gif","images/stimuli/spore_stims/simple_05_B_d.gif","","","","","4","simple_dissimilar","images/stimuli/spore_stims/simple_05_B_d.gif","right","","","","",""
"","null","html-keyboard-response","90","161757","0.0-20.0-0.5","SS1613080139942","","","null","","","","","<p><img src= images/blank.png width =""200"" height = ""200"" style = ""float:right""></p><p><img src=images/blank.png width =""800"" height = ""200""></p>","","","","","","","","","","","",""
"","1989.5449999894481","sequential-stimulus-presentation","91","164551","0.0-20.0-1.5","SS1613080139942","trial","","40","800","2789.544999989448","images/stimuli/spore_stims/simple_15_A_c.gif","images/stimuli/spore_stims/simple_05_B_d.gif","","","","","4","simple_dissimilar","images/stimuli/spore_stims/simple_15_A_c.gif","middle","","","","",""
"","null","html-keyboard-response","92","165488","0.0-20.0-0.6","SS1613080139942","","","null","","","","","<p><img src= images/blank.png width =""200"" height = ""200"" style = ""float:right""></p><p><img src=images/blank.png width =""800"" height = ""200""></p>","","","","","","","","","","","",""
"","752.1600000036415","sequential-stimulus-presentation","93","167047","0.0-20.0-1.6","SS1613080139942","trial","","40","800","1552.1600000036415","images/stimuli/spore_stims/simple_15_A_c.gif","images/stimuli/spore_stims/simple_05_B_d.gif","","","","","4","simple_dissimilar","images/stimuli/spore_stims/simple_05_B_d.gif","right","","","","",""
"","null","html-keyboard-response","94","168129","0.0-20.0-0.7","SS1613080139942","","","null","","","","","<p><img src= images/blank.png width =""200"" height = ""200"" style = ""float:right""></p><p><img src=images/blank.png width =""800"" height = ""200""></p>","","","","","","","","","","","",""
"","541.2899999937508","sequential-stimulus-presentation","95","169481","0.0-20.0-1.7","SS1613080139942","trial","","40","800","1341.2899999937508","images/stimuli/spore_stims/simple_15_A_c.gif","images/stimuli/spore_stims/simple_05_B_d.gif","","","","","4","simple_dissimilar","images/stimuli/spore_stims/simple_05_B_d.gif","right","","","","",""
"","1258.689999987837","html-keyboard-response","96","170744","0.0-21.0","SS1613080139942","pref_question","","50","","","","","<video width ='960' height = '540' style='padding-top:8%' autoplay muted><source src='images/stimuli/wall_pref.mp4' type='video/mp4'></video>","2","middle","45%","4","","","","","","","",""
"","669.5699999982025","sequential-stimulus-presentation","97","172219","0.0-22.0","SS1613080139942","pref_reveal","","40","800","1469.5699999982025","null","null","","","","","4","","","","deviant","","","",""
"","null","html-keyboard-response","98","173491","0.0-23.0-0.0","SS1613080139942","","","null","","","","","<p><img src= images/blank.png width =""200"" height = ""200"" style = ""float:right""></p><p><img src=images/blank.png width =""800"" height = ""200""></p>","","","","","","","","","","","",""
"","1106.3650000141934","sequential-stimulus-presentation","99","175421","0.0-23.0-1.0","SS1613080139942","trial","","40","800","1906.3650000141934","images/stimuli/spore_stims/simple_18_B_a.gif","images/stimuli/spore_stims/simple_06_B_a.gif","","","","","5","simple_dissimilar","images/stimuli/spore_stims/simple_06_B_a.gif","right","","","","",""
"","null","html-keyboard-response","100","176247","0.0-23.0-0.1","SS1613080139942","","","null","","","","","<p><img src= images/blank.png width =""200"" height = ""200"" style = ""float:right""></p><p><img src=images/blank.png width =""800"" height = ""200""></p>","","","","","","","","","","","",""
"","629.7650000196882","sequential-stimulus-presentation","101","177683","0.0-23.0-1.1","SS1613080139942","trial","","40","800","1429.7650000196882","images/stimuli/spore_stims/simple_18_B_a.gif","images/stimuli/spore_stims/simple_06_B_a.gif","","","","","5","simple_dissimilar","images/stimuli/spore_stims/simple_06_B_a.gif","right","","","","",""
"","null","html-keyboard-response","102","178498","0.0-23.0-0.2","SS1613080139942","","","null","","","","","<p><img src= images/blank.png width =""200"" height = ""200"" style = ""float:right""></p><p><img src=images/blank.png width =""800"" height = ""200""></p>","","","","","","","","","","","",""
"","771.5200000093319","sequential-stimulus-presentation","103","180080","0.0-23.0-1.2","SS1613080139942","trial","","40","800","1571.5200000093319","images/stimuli/spore_stims/simple_18_B_a.gif","images/stimuli/spore_stims/simple_06_B_a.gif","","","","","5","simple_dissimilar","images/stimuli/spore_stims/simple_06_B_a.gif","right","","","","",""
"","null","html-keyboard-response","104","180891","0.0-23.0-0.3","SS1613080139942","","","null","","","","","<p><img src= images/blank.png width =""200"" height = ""200"" style = ""float:right""></p><p><img src=images/blank.png width =""800"" height = ""200""></p>","","","","","","","","","","","",""
"","587.0550000108778","sequential-stimulus-presentation","105","182283","0.0-23.0-1.3","SS1613080139942","trial","","40","800","1387.0550000108778","images/stimuli/spore_stims/simple_18_B_a.gif","images/stimuli/spore_stims/simple_06_B_a.gif","","","","","5","simple_dissimilar","images/stimuli/spore_stims/simple_06_B_a.gif","right","","","","",""
"","null","html-keyboard-response","106","183095","0.0-23.0-0.4","SS1613080139942","","","null","","","","","<p><img src= images/blank.png width =""200"" height = ""200"" style = ""float:right""></p><p><img src=images/blank.png width =""800"" height = ""200""></p>","","","","","","","","","","","",""
"","1147.2499999799766","sequential-stimulus-presentation","107","185050","0.0-23.0-1.4","SS1613080139942","trial","","40","800","1947.2499999799766","images/stimuli/spore_stims/simple_18_B_a.gif","images/stimuli/spore_stims/simple_06_B_a.gif","","","","","5","simple_dissimilar","images/stimuli/spore_stims/simple_18_B_a.gif","left","","","","",""
"","null","html-keyboard-response","108","185863","0.0-23.0-0.5","SS1613080139942","","","null","","","","","<p><img src= images/blank.png width =""200"" height = ""200"" style = ""float:right""></p><p><img src=images/blank.png width =""800"" height = ""200""></p>","","","","","","","","","","","",""
"","650.210000021616","sequential-stimulus-presentation","109","187318","0.0-23.0-1.5","SS1613080139942","trial","","40","800","1450.210000021616","images/stimuli/spore_stims/simple_18_B_a.gif","images/stimuli/spore_stims/simple_06_B_a.gif","","","","","5","simple_dissimilar","images/stimuli/spore_stims/simple_06_B_a.gif","right","","","","",""
"","null","html-keyboard-response","110","188425","0.0-23.0-0.6","SS1613080139942","","","null","","","","","<p><img src= images/blank.png width =""200"" height = ""200"" style = ""float:right""></p><p><img src=images/blank.png width =""800"" height = ""200""></p>","","","","","","","","","","","",""
"","4918.735000013839","sequential-stimulus-presentation","111","194151","0.0-23.0-1.6","SS1613080139942","trial","","40","800","5718.735000013839","images/stimuli/spore_stims/simple_18_B_a.gif","images/stimuli/spore_stims/simple_06_B_a.gif","","","","","5","simple_dissimilar","images/stimuli/spore_stims/simple_06_B_a.gif","right","","","","",""
"","null","html-keyboard-response","112","195330","0.0-23.0-0.7","SS1613080139942","","","null","","","","","<p><img src= images/blank.png width =""200"" height = ""200"" style = ""float:right""></p><p><img src=images/blank.png width =""800"" height = ""200""></p>","","","","","","","","","","","",""
"","746.8100000114646","sequential-stimulus-presentation","113","196883","0.0-23.0-1.7","SS1613080139942","trial","","40","800","1546.8100000114646","images/stimuli/spore_stims/simple_18_B_a.gif","images/stimuli/spore_stims/simple_06_B_a.gif","","","","","5","simple_dissimilar","images/stimuli/spore_stims/simple_06_B_a.gif","right","","","","",""
"","1108.8100000051782","html-keyboard-response","114","197996","0.0-24.0","SS1613080139942","pref_question","","50","","","","","<video width ='960' height = '540' style='padding-top:8%' autoplay muted><source src='images/stimuli/wall_pref.mp4' type='video/mp4'></video>","2","middle","45%","5","","","","","","","",""
"","539.9999999790452","sequential-stimulus-presentation","115","199341","0.0-25.0","SS1613080139942","pref_reveal","","40","800","1339.9999999790452","null","null","","","","","5","","","","novel","","","",""
"","null","html-keyboard-response","116","200176","0.0-26.0-0.0","SS1613080139942","","","null","","","","","<p><img src= images/blank.png width =""200"" height = ""200"" style = ""float:right""></p><p><img src=images/blank.png width =""800"" height = ""200""></p>","","","","","","","","","","","",""
"","530.6799999962095","sequential-stimulus-presentation","117","201516","0.0-26.0-1.0","SS1613080139942","trial","","40","800","1330.6799999962095","images/stimuli/spore_stims/simple_07_B_c.gif","images/stimuli/spore_stims/simple_07_A_c.gif","","","","","6","simple_similar","images/stimuli/spore_stims/simple_07_A_c.gif","right","","","","",""
"","null","html-keyboard-response","118","202386","0.0-26.0-0.1","SS1613080139942","","","null","","","","","<p><img src= images/blank.png width =""200"" height = ""200"" style = ""float:right""></p><p><img src=images/blank.png width =""800"" height = ""200""></p>","","","","","","","","","","","",""
"","548.9100000122562","sequential-stimulus-presentation","119","203742","0.0-26.0-1.1","SS1613080139942","trial","","40","800","1348.9100000122562","images/stimuli/spore_stims/simple_07_B_c.gif","images/stimuli/spore_stims/simple_07_A_c.gif","","","","","6","simple_similar","images/stimuli/spore_stims/simple_07_A_c.gif","right","","","","",""
"","null","html-keyboard-response","120","204610","0.0-26.0-0.2","SS1613080139942","","","null","","","","","<p><img src= images/blank.png width =""200"" height = ""200"" style = ""float:right""></p><p><img src=images/blank.png width =""800"" height = ""200""></p>","","","","","","","","","","","",""
"","4236.154999991413","sequential-stimulus-presentation","121","209684","0.0-26.0-1.2","SS1613080139942","trial","","40","800","5036.154999991413","images/stimuli/spore_stims/simple_07_B_c.gif","images/stimuli/spore_stims/simple_07_A_c.gif","","","","","6","simple_similar","images/stimuli/spore_stims/simple_07_A_c.gif","right","","","","",""
"","null","html-keyboard-response","122","210985","0.0-26.0-0.3","SS1613080139942","","","null","","","","","<p><img src= images/blank.png width =""200"" height = ""200"" style = ""float:right""></p><p><img src=images/blank.png width =""800"" height = ""200""></p>","","","","","","","","","","","",""
"","850.6699999852572","sequential-stimulus-presentation","123","212646","0.0-26.0-1.3","SS1613080139942","trial","","40","800","1650.6699999852572","images/stimuli/spore_stims/simple_07_B_c.gif","images/stimuli/spore_stims/simple_07_A_c.gif","","","","","6","simple_similar","images/stimuli/spore_stims/simple_07_B_c.gif","left","","","","",""
"","null","html-keyboard-response","124","213877","0.0-26.0-0.4","SS1613080139942","","","null","","","","","<p><img src= images/blank.png width =""200"" height = ""200"" style = ""float:right""></p><p><img src=images/blank.png width =""800"" height = ""200""></p>","","","","","","","","","","","",""
"","1051.70999999973","sequential-stimulus-presentation","125","215734","0.0-26.0-1.4","SS1613080139942","trial","","40","800","1851.70999999973","images/stimuli/spore_stims/simple_07_B_c.gif","images/stimuli/spore_stims/simple_07_A_c.gif","","","","","6","simple_similar","images/stimuli/spore_stims/simple_07_A_c.gif","right","","","","",""
"","null","html-keyboard-response","126","217002","0.0-26.0-0.5","SS1613080139942","","","null","","","","","<p><img src= images/blank.png width =""200"" height = ""200"" style = ""float:right""></p><p><img src=images/blank.png width =""800"" height = ""200""></p>","","","","","","","","","","","",""
"","1164.8949999944307","sequential-stimulus-presentation","127","218972","0.0-26.0-1.5","SS1613080139942","trial","","40","800","1964.8949999944307","images/stimuli/spore_stims/simple_07_B_c.gif","images/stimuli/spore_stims/simple_07_A_c.gif","","","","","6","simple_similar","images/stimuli/spore_stims/simple_07_A_c.gif","right","","","","",""
"","null","html-keyboard-response","128","220251","0.0-26.0-0.6","SS1613080139942","","","null","","","","","<p><img src= images/blank.png width =""200"" height = ""200"" style = ""float:right""></p><p><img src=images/blank.png width =""800"" height = ""200""></p>","","","","","","","","","","","",""
"","514.1600000206381","sequential-stimulus-presentation","129","221571","0.0-26.0-1.6","SS1613080139942","trial","","40","800","1314.160000020638","images/stimuli/spore_stims/simple_07_B_c.gif","images/stimuli/spore_stims/simple_07_A_c.gif","","","","","6","simple_similar","images/stimuli/spore_stims/simple_07_A_c.gif","right","","","","",""
"","null","html-keyboard-response","130","222832","0.0-26.0-0.7","SS1613080139942","","","null","","","","","<p><img src= images/blank.png width =""200"" height = ""200"" style = ""float:right""></p><p><img src=images/blank.png width =""800"" height = ""200""></p>","","","","","","","","","","","",""
"","364.7300000011455","sequential-stimulus-presentation","131","224003","0.0-26.0-1.7","SS1613080139942","trial","","40","800","1164.7300000011455","images/stimuli/spore_stims/simple_07_B_c.gif","images/stimuli/spore_stims/simple_07_A_c.gif","","","","","6","simple_similar","images/stimuli/spore_stims/simple_07_A_c.gif","right","","","","",""
"","1183.9299999992363","html-keyboard-response","132","225191","0.0-27.0","SS1613080139942","pref_question","","50","","","","","<video width ='960' height = '540' style='padding-top:8%' autoplay muted><source src='images/stimuli/wall_pref.mp4' type='video/mp4'></video>","2","middle","45%","6","","","","","","","",""
"","847.1250000002328","sequential-stimulus-presentation","133","226844","0.0-28.0","SS1613080139942","pref_reveal","","40","800","1647.1250000002328","null","null","","","","","6","","","","novel","","","",""
"","null","html-keyboard-response","134","228074","0.0-29.0-0.0","SS1613080139942","","","null","","","","","<p><img src= images/blank.png width =""200"" height = ""200"" style = ""float:right""></p><p><img src=images/blank.png width =""800"" height = ""200""></p>","","","","","","","","","","","",""
"","2282.1599999733735","sequential-stimulus-presentation","135","231164","0.0-29.0-1.0","SS1613080139942","trial","","40","800","3082.1599999733735","images/stimuli/spore_stims/simple_13_A_a.gif","images/stimuli/spore_stims/simple_13_B_a.gif","","","","","7","simple_similar","images/stimuli/spore_stims/simple_13_B_a.gif","left","","","","",""
"","null","html-keyboard-response","136","232098","0.0-29.0-0.1","SS1613080139942","","","null","","","","","<p><img src= images/blank.png width =""200"" height = ""200"" style = ""float:right""></p><p><img src=images/blank.png width =""800"" height = ""200""></p>","","","","","","","","","","","",""
"","656.5100000007078","sequential-stimulus-presentation","137","233566","0.0-29.0-1.1","SS1613080139942","trial","","40","800","1456.5100000007078","images/stimuli/spore_stims/simple_13_A_a.gif","images/stimuli/spore_stims/simple_13_B_a.gif","","","","","7","simple_similar","images/stimuli/spore_stims/simple_13_B_a.gif","left","","","","",""
"","null","html-keyboard-response","138","234773","0.0-29.0-0.2","SS1613080139942","","","null","","","","","<p><img src= images/blank.png width =""200"" height = ""200"" style = ""float:right""></p><p><img src=images/blank.png width =""800"" height = ""200""></p>","","","","","","","","","","","",""
"","197.02999998116866","sequential-stimulus-presentation","139","235779","0.0-29.0-1.2","SS1613080139942","trial","","40","800","997.0299999811687","images/stimuli/spore_stims/simple_13_A_a.gif","images/stimuli/spore_stims/simple_13_B_a.gif","","","","","7","simple_similar","images/stimuli/spore_stims/simple_13_B_a.gif","left","","","","",""
"","null","html-keyboard-response","140","236710","0.0-29.0-0.3","SS1613080139942","","","null","","","","","<p><img src= images/blank.png width =""200"" height = ""200"" style = ""float:right""></p><p><img src=images/blank.png width =""800"" height = ""200""></p>","","","","","","","","","","","",""
"","370.005000004312","sequential-stimulus-presentation","141","237886","0.0-29.0-1.3","SS1613080139942","trial","","40","800","1170.005000004312","images/stimuli/spore_stims/simple_13_A_a.gif","images/stimuli/spore_stims/simple_13_B_a.gif","","","","","7","simple_similar","images/stimuli/spore_stims/simple_13_B_a.gif","left","","","","",""
"","null","html-keyboard-response","142","238820","0.0-29.0-0.4","SS1613080139942","","","null","","","","","<p><img src= images/blank.png width =""200"" height = ""200"" style = ""float:right""></p><p><img src=images/blank.png width =""800"" height = ""200""></p>","","","","","","","","","","","",""
"","249.45499998284504","sequential-stimulus-presentation","143","239876","0.0-29.0-1.4","SS1613080139942","trial","","40","800","1049.454999982845","images/stimuli/spore_stims/simple_13_A_a.gif","images/stimuli/spore_stims/simple_13_B_a.gif","","","","","7","simple_similar","images/stimuli/spore_stims/simple_13_B_a.gif","left","","","","",""
"","null","html-keyboard-response","144","240698","0.0-29.0-0.5","SS1613080139942","","","null","","","","","<p><img src= images/blank.png width =""200"" height = ""200"" style = ""float:right""></p><p><img src=images/blank.png width =""800"" height = ""200""></p>","","","","","","","","","","","",""
"","365.7599999860395","sequential-stimulus-presentation","145","241869","0.0-29.0-1.5","SS1613080139942","trial","","40","800","1165.7599999860395","images/stimuli/spore_stims/simple_13_A_a.gif","images/stimuli/spore_stims/simple_13_B_a.gif","","","","","7","simple_similar","images/stimuli/spore_stims/simple_13_B_a.gif","left","","","","",""
"","null","html-keyboard-response","146","242992","0.0-29.0-0.6","SS1613080139942","","","null","","","","","<p><img src= images/blank.png width =""200"" height = ""200"" style = ""float:right""></p><p><img src=images/blank.png width =""800"" height = ""200""></p>","","","","","","","","","","","",""
"","333.07500000228174","sequential-stimulus-presentation","147","244130","0.0-29.0-1.6","SS1613080139942","trial","","40","800","1133.0750000022817","images/stimuli/spore_stims/simple_13_A_a.gif","images/stimuli/spore_stims/simple_13_B_a.gif","","","","","7","simple_similar","images/stimuli/spore_stims/simple_13_B_a.gif","left","","","","",""
"","null","html-keyboard-response","148","245114","0.0-29.0-0.7","SS1613080139942","","","null","","","","","<p><img src= images/blank.png width =""200"" height = ""200"" style = ""float:right""></p><p><img src=images/blank.png width =""800"" height = ""200""></p>","","","","","","","","","","","",""
"","484.5250000071246","sequential-stimulus-presentation","149","246415","0.0-29.0-1.7","SS1613080139942","trial","","40","800","1284.5250000071246","images/stimuli/spore_stims/simple_13_A_a.gif","images/stimuli/spore_stims/simple_13_B_a.gif","","","","","7","simple_similar","images/stimuli/spore_stims/simple_13_A_a.gif","right","","","","",""
"","1253.5750000097323","html-keyboard-response","150","247677","0.0-30.0","SS1613080139942","pref_question","","50","","","","","<video width ='960' height = '540' style='padding-top:8%' autoplay muted><source src='images/stimuli/wall_pref.mp4' type='video/mp4'></video>","2","middle","45%","7","","","","","","","",""
"","1437.5200000067707","sequential-stimulus-presentation","151","249930","0.0-31.0","SS1613080139942","pref_reveal","","40","800","2237.5200000067707","null","null","","","","","7","","","","novel","","","",""
"","null","html-keyboard-response","152","251038","0.0-32.0-0.0","SS1613080139942","","","null","","","","","<p><img src= images/blank.png width =""200"" height = ""200"" style = ""float:right""></p><p><img src=images/blank.png width =""800"" height = ""200""></p>","","","","","","","","","","","",""
"","1557.6449999934994","sequential-stimulus-presentation","153","253426","0.0-32.0-1.0","SS1613080139942","trial","","40","800","2357.6449999934994","images/stimuli/spore_stims/complex_02_A_b.gif","images/stimuli/spore_stims/complex_07_A_c.gif","","","","","8","complex_dissimilar","images/stimuli/spore_stims/complex_07_A_c.gif","middle","","","","",""
"","null","html-keyboard-response","154","254729","0.0-32.0-0.1","SS1613080139942","","","null","","","","","<p><img src= images/blank.png width =""200"" height = ""200"" style = ""float:right""></p><p><img src=images/blank.png width =""800"" height = ""200""></p>","","","","","","","","","","","",""
"","428.9299999945797","sequential-stimulus-presentation","155","255967","0.0-32.0-1.1","SS1613080139942","trial","","40","800","1228.9299999945797","images/stimuli/spore_stims/complex_02_A_b.gif","images/stimuli/spore_stims/complex_07_A_c.gif","","","","","8","complex_dissimilar","images/stimuli/spore_stims/complex_07_A_c.gif","middle","","","","",""
"","null","html-keyboard-response","156","257090","0.0-32.0-0.2","SS1613080139942","","","null","","","","","<p><img src= images/blank.png width =""200"" height = ""200"" style = ""float:right""></p><p><img src=images/blank.png width =""800"" height = ""200""></p>","","","","","","","","","","","",""
"","772.4549999984447","sequential-stimulus-presentation","157","258669","0.0-32.0-1.2","SS1613080139942","trial","","40","800","1572.4549999984447","images/stimuli/spore_stims/complex_02_A_b.gif","images/stimuli/spore_stims/complex_07_A_c.gif","","","","","8","complex_dissimilar","images/stimuli/spore_stims/complex_07_A_c.gif","middle","","","","",""
"","null","html-keyboard-response","158","259631","0.0-32.0-0.3","SS1613080139942","","","null","","","","","<p><img src= images/blank.png width =""200"" height = ""200"" style = ""float:right""></p><p><img src=images/blank.png width =""800"" height = ""200""></p>","","","","","","","","","","","",""
"","530.0750000169501","sequential-stimulus-presentation","159","260968","0.0-32.0-1.3","SS1613080139942","trial","","40","800","1330.07500001695","images/stimuli/spore_stims/complex_02_A_b.gif","images/stimuli/spore_stims/complex_07_A_c.gif","","","","","8","complex_dissimilar","images/stimuli/spore_stims/complex_07_A_c.gif","middle","","","","",""
"","null","html-keyboard-response","160","261829","0.0-32.0-0.4","SS1613080139942","","","null","","","","","<p><img src= images/blank.png width =""200"" height = ""200"" style = ""float:right""></p><p><img src=images/blank.png width =""800"" height = ""200""></p>","","","","","","","","","","","",""
"","163.13000000081956","sequential-stimulus-presentation","161","262819","0.0-32.0-1.4","SS1613080139942","trial","","40","800","963.1300000008196","images/stimuli/spore_stims/complex_02_A_b.gif","images/stimuli/spore_stims/complex_07_A_c.gif","","","","","8","complex_dissimilar","images/stimuli/spore_stims/complex_07_A_c.gif","middle","","","","",""
"","null","html-keyboard-response","162","263918","0.0-32.0-0.5","SS1613080139942","","","null","","","","","<p><img src= images/blank.png width =""200"" height = ""200"" style = ""float:right""></p><p><img src=images/blank.png width =""800"" height = ""200""></p>","","","","","","","","","","","",""
"","757.5599999981932","sequential-stimulus-presentation","163","265487","0.0-32.0-1.5","SS1613080139942","trial","","40","800","1557.5599999981932","images/stimuli/spore_stims/complex_02_A_b.gif","images/stimuli/spore_stims/complex_07_A_c.gif","","","","","8","complex_dissimilar","images/stimuli/spore_stims/complex_02_A_b.gif","left","","","","",""
"","null","html-keyboard-response","164","266613","0.0-32.0-0.6","SS1613080139942","","","null","","","","","<p><img src= images/blank.png width =""200"" height = ""200"" style = ""float:right""></p><p><img src=images/blank.png width =""800"" height = ""200""></p>","","","","","","","","","","","",""
"","409.09499998087995","sequential-stimulus-presentation","165","267833","0.0-32.0-1.6","SS1613080139942","trial","","40","800","1209.09499998088","images/stimuli/spore_stims/complex_02_A_b.gif","images/stimuli/spore_stims/complex_07_A_c.gif","","","","","8","complex_dissimilar","images/stimuli/spore_stims/complex_07_A_c.gif","middle","","","","",""
"","null","html-keyboard-response","166","268758","0.0-32.0-0.7","SS1613080139942","","","null","","","","","<p><img src= images/blank.png width =""200"" height = ""200"" style = ""float:right""></p><p><img src=images/blank.png width =""800"" height = ""200""></p>","","","","","","","","","","","",""
"","390.769999998156","sequential-stimulus-presentation","167","269955","0.0-32.0-1.7","SS1613080139942","trial","","40","800","1190.769999998156","images/stimuli/spore_stims/complex_02_A_b.gif","images/stimuli/spore_stims/complex_07_A_c.gif","","","","","8","complex_dissimilar","images/stimuli/spore_stims/complex_07_A_c.gif","middle","","","","",""
"","1092.0050000131596","html-keyboard-response","168","271055","0.0-33.0","SS1613080139942","pref_question","","50","","","","","<video width ='960' height = '540' style='padding-top:8%' autoplay muted><source src='images/stimuli/wall_pref.mp4' type='video/mp4'></video>","2","middle","45%","8","","","","","","","",""
"","731.6050000081304","sequential-stimulus-presentation","169","272614","0.0-34.0","SS1613080139942","pref_reveal","","40","800","1531.6050000081304","null","null","","","","","8","","","","background","","","",""
"","null","html-keyboard-response","170","273860","0.0-35.0-0.0","SS1613080139942","","","null","","","","","<p><img src= images/blank.png width =""200"" height = ""200"" style = ""float:right""></p><p><img src=images/blank.png width =""800"" height = ""200""></p>","","","","","","","","","","","",""
"","62.774999998509884","sequential-stimulus-presentation","171","274735","0.0-35.0-1.0","SS1613080139942","trial","","40","800","862.7749999985099","images/stimuli/spore_stims/complex_12_B_a.gif","images/stimuli/spore_stims/complex_12_A_a.gif","","","","","9","complex_similar","images/stimuli/spore_stims/complex_12_A_a.gif","left","","","","",""
"","null","html-keyboard-response","172","275869","0.0-35.0-0.1","SS1613080139942","","","null","","","","","<p><img src= images/blank.png width =""200"" height = ""200"" style = ""float:right""></p><p><img src=images/blank.png width =""800"" height = ""200""></p>","","","","","","","","","","","",""
"","482.6350000221282","sequential-stimulus-presentation","173","277161","0.0-35.0-1.1","SS1613080139942","trial","","40","800","1282.6350000221282","images/stimuli/spore_stims/complex_12_B_a.gif","images/stimuli/spore_stims/complex_12_A_a.gif","","","","","9","complex_similar","images/stimuli/spore_stims/complex_12_A_a.gif","left","","","","",""
"","null","html-keyboard-response","174","278037","0.0-35.0-0.2","SS1613080139942","","","null","","","","","<p><img src= images/blank.png width =""200"" height = ""200"" style = ""float:right""></p><p><img src=images/blank.png width =""800"" height = ""200""></p>","","","","","","","","","","","",""
"","477.71500001545064","sequential-stimulus-presentation","175","279329","0.0-35.0-1.2","SS1613080139942","trial","","40","800","1277.7150000154506","images/stimuli/spore_stims/complex_12_B_a.gif","images/stimuli/spore_stims/complex_12_A_a.gif","","","","","9","complex_similar","images/stimuli/spore_stims/complex_12_A_a.gif","left","","","","",""
"","null","html-keyboard-response","176","280500","0.0-35.0-0.3","SS1613080139942","","","null","","","","","<p><img src= images/blank.png width =""200"" height = ""200"" style = ""float:right""></p><p><img src=images/blank.png width =""800"" height = ""200""></p>","","","","","","","","","","","",""
"","116.04500000248663","sequential-stimulus-presentation","177","281439","0.0-35.0-1.3","SS1613080139942","trial","","40","800","916.0450000024866","images/stimuli/spore_stims/complex_12_B_a.gif","images/stimuli/spore_stims/complex_12_A_a.gif","","","","","9","complex_similar","images/stimuli/spore_stims/complex_12_A_a.gif","left","","","","",""
"","null","html-keyboard-response","178","282252","0.0-35.0-0.4","SS1613080139942","","","null","","","","","<p><img src= images/blank.png width =""200"" height = ""200"" style = ""float:right""></p><p><img src=images/blank.png width =""800"" height = ""200""></p>","","","","","","","","","","","",""
"","233.6100000247825","sequential-stimulus-presentation","179","283299","0.0-35.0-1.4","SS1613080139942","trial","","40","800","1033.6100000247825","images/stimuli/spore_stims/complex_12_B_a.gif","images/stimuli/spore_stims/complex_12_A_a.gif","","","","","9","complex_similar","images/stimuli/spore_stims/complex_12_A_a.gif","left","","","","",""
"","null","html-keyboard-response","180","284193","0.0-35.0-0.5","SS1613080139942","","","null","","","","","<p><img src= images/blank.png width =""200"" height = ""200"" style = ""float:right""></p><p><img src=images/blank.png width =""800"" height = ""200""></p>","","","","","","","","","","","",""
"","300.38000000058673","sequential-stimulus-presentation","181","285299","0.0-35.0-1.5","SS1613080139942","trial","","40","800","1100.3800000005867","images/stimuli/spore_stims/complex_12_B_a.gif","images/stimuli/spore_stims/complex_12_A_a.gif","","","","","9","complex_similar","images/stimuli/spore_stims/complex_12_A_a.gif","left","","","","",""
"","null","html-keyboard-response","182","286253","0.0-35.0-0.6","SS1613080139942","","","null","","","","","<p><img src= images/blank.png width =""200"" height = ""200"" style = ""float:right""></p><p><img src=images/blank.png width =""800"" height = ""200""></p>","","","","","","","","","","","",""
"","493.1349999969825","sequential-stimulus-presentation","183","287556","0.0-35.0-1.6","SS1613080139942","trial","","40","800","1293.1349999969825","images/stimuli/spore_stims/complex_12_B_a.gif","images/stimuli/spore_stims/complex_12_A_a.gif","","","","","9","complex_similar","images/stimuli/spore_stims/complex_12_B_a.gif","middle","","","","",""
"","null","html-keyboard-response","184","288842","0.0-35.0-0.7","SS1613080139942","","","null","","","","","<p><img src= images/blank.png width =""200"" height = ""200"" style = ""float:right""></p><p><img src=images/blank.png width =""800"" height = ""200""></p>","","","","","","","","","","","",""
"","172.10500000510365","sequential-stimulus-presentation","185","289821","0.0-35.0-1.7","SS1613080139942","trial","","40","800","972.1050000051036","images/stimuli/spore_stims/complex_12_B_a.gif","images/stimuli/spore_stims/complex_12_A_a.gif","","","","","9","complex_similar","images/stimuli/spore_stims/complex_12_A_a.gif","left","","","","",""
"","167.0950000116136","html-keyboard-response","186","289997","0.0-36.0","SS1613080139942","pref_question","","49","","","","","<video width ='960' height = '540' style='padding-top:8%' autoplay muted><source src='images/stimuli/wall_pref.mp4' type='video/mp4'></video>","1","left","25%","9","","","","","","","",""
"","295.9749999863561","sequential-stimulus-presentation","187","291125","0.0-37.0","SS1613080139942","pref_reveal","","40","800","1095.9749999863561","null","null","","","","","9","","","","background","","","",""
"","null","html-keyboard-response","188","291983","0.0-38.0-0.0","SS1613080139942","","","null","","","","","<p><img src= images/blank.png width =""200"" height = ""200"" style = ""float:right""></p><p><img src=images/blank.png width =""800"" height = ""200""></p>","","","","","","","","","","","",""
"","230.73500001919456","sequential-stimulus-presentation","189","293022","0.0-38.0-1.0","SS1613080139942","trial","","40","800","1030.7350000191946","images/stimuli/spore_stims/simple_16_A_b.gif","images/stimuli/spore_stims/simple_20_B_b.gif","","","","","10","simple_dissimilar","images/stimuli/spore_stims/simple_20_B_b.gif","middle","","","","",""
"","null","html-keyboard-response","190","294160","0.0-38.0-0.1","SS1613080139942","","","null","","","","","<p><img src= images/blank.png width =""200"" height = ""200"" style = ""float:right""></p><p><img src=images/blank.png width =""800"" height = ""200""></p>","","","","","","","","","","","",""
"","396.0050000168849","sequential-stimulus-presentation","191","295364","0.0-38.0-1.1","SS1613080139942","trial","","40","800","1196.0050000168849","images/stimuli/spore_stims/simple_16_A_b.gif","images/stimuli/spore_stims/simple_20_B_b.gif","","","","","10","simple_dissimilar","images/stimuli/spore_stims/simple_20_B_b.gif","middle","","","","",""
"","null","html-keyboard-response","192","296660","0.0-38.0-0.2","SS1613080139942","","","null","","","","","<p><img src= images/blank.png width =""200"" height = ""200"" style = ""float:right""></p><p><img src=images/blank.png width =""800"" height = ""200""></p>","","","","","","","","","","","",""
"","472.9349999979604","sequential-stimulus-presentation","193","297954","0.0-38.0-1.2","SS1613080139942","trial","","40","800","1272.9349999979604","images/stimuli/spore_stims/simple_16_A_b.gif","images/stimuli/spore_stims/simple_20_B_b.gif","","","","","10","simple_dissimilar","images/stimuli/spore_stims/simple_20_B_b.gif","middle","","","","",""
"","null","html-keyboard-response","194","299215","0.0-38.0-0.3","SS1613080139942","","","null","","","","","<p><img src= images/blank.png width =""200"" height = ""200"" style = ""float:right""></p><p><img src=images/blank.png width =""800"" height = ""200""></p>","","","","","","","","","","","",""
"","685.4899999743793","sequential-stimulus-presentation","195","300722","0.0-38.0-1.3","SS1613080139942","trial","","40","800","1485.4899999743793","images/stimuli/spore_stims/simple_16_A_b.gif","images/stimuli/spore_stims/simple_20_B_b.gif","","","","","10","simple_dissimilar","images/stimuli/spore_stims/simple_16_A_b.gif","left","","","","",""
"","null","html-keyboard-response","196","301541","0.0-38.0-0.4","SS1613080139942","","","null","","","","","<p><img src= images/blank.png width =""200"" height = ""200"" style = ""float:right""></p><p><img src=images/blank.png width =""800"" height = ""200""></p>","","","","","","","","","","","",""
"","334.5899999840185","sequential-stimulus-presentation","197","302693","0.0-38.0-1.4","SS1613080139942","trial","","40","800","1134.5899999840185","images/stimuli/spore_stims/simple_16_A_b.gif","images/stimuli/spore_stims/simple_20_B_b.gif","","","","","10","simple_dissimilar","images/stimuli/spore_stims/simple_20_B_b.gif","middle","","","","",""
"","null","html-keyboard-response","198","303681","0.0-38.0-0.5","SS1613080139942","","","null","","","","","<p><img src= images/blank.png width =""200"" height = ""200"" style = ""float:right""></p><p><img src=images/blank.png width =""800"" height = ""200""></p>","","","","","","","","","","","",""
"","195.80000001587905","sequential-stimulus-presentation","199","304686","0.0-38.0-1.5","SS1613080139942","trial","","40","800","995.800000015879","images/stimuli/spore_stims/simple_16_A_b.gif","images/stimuli/spore_stims/simple_20_B_b.gif","","","","","10","simple_dissimilar","images/stimuli/spore_stims/simple_20_B_b.gif","middle","","","","",""
"","null","html-keyboard-response","200","305705","0.0-38.0-0.6","SS1613080139942","","","null","","","","","<p><img src= images/blank.png width =""200"" height = ""200"" style = ""float:right""></p><p><img src=images/blank.png width =""800"" height = ""200""></p>","","","","","","","","","","","",""
"","531.3099999912083","sequential-stimulus-presentation","201","307054","0.0-38.0-1.6","SS1613080139942","trial","","40","800","1331.3099999912083","images/stimuli/spore_stims/simple_16_A_b.gif","images/stimuli/spore_stims/simple_20_B_b.gif","","","","","10","simple_dissimilar","images/stimuli/spore_stims/simple_20_B_b.gif","middle","","","","",""
"","null","html-keyboard-response","202","308314","0.0-38.0-0.7","SS1613080139942","","","null","","","","","<p><img src= images/blank.png width =""200"" height = ""200"" style = ""float:right""></p><p><img src=images/blank.png width =""800"" height = ""200""></p>","","","","","","","","","","","",""
"","379.95000000228174","sequential-stimulus-presentation","203","309504","0.0-38.0-1.7","SS1613080139942","trial","","40","800","1179.9500000022817","images/stimuli/spore_stims/simple_16_A_b.gif","images/stimuli/spore_stims/simple_20_B_b.gif","","","","","10","simple_dissimilar","images/stimuli/spore_stims/simple_20_B_b.gif","middle","","","","",""
"","630.8549999957904","html-keyboard-response","204","310143","0.0-39.0","SS1613080139942","pref_question","","50","","","","","<video width ='960' height = '540' style='padding-top:8%' autoplay muted><source src='images/stimuli/wall_pref.mp4' type='video/mp4'></video>","2","middle","45%","10","","","","","","","",""
"","328.96499999333173","sequential-stimulus-presentation","205","311283","0.0-40.0","SS1613080139942","pref_reveal","","40","800","1128.9649999933317","null","null","","","","","10","","","","background","","","",""
"","null","html-keyboard-response","206","312541","0.0-41.0-0.0","SS1613080139942","","","null","","","","","<p><img src= images/blank.png width =""200"" height = ""200"" style = ""float:right""></p><p><img src=images/blank.png width =""800"" height = ""200""></p>","","","","","","","","","","","",""
"","280.46000000904314","sequential-stimulus-presentation","207","313642","0.0-41.0-1.0","SS1613080139942","trial","","40","800","1080.4600000090431","images/stimuli/spore_stims/complex_18_B_d.gif","images/stimuli/spore_stims/complex_18_A_d.gif","","","","","11","complex_similar","images/stimuli/spore_stims/complex_18_A_d.gif","middle","","","","",""
"","null","html-keyboard-response","208","314505","0.0-41.0-0.1","SS1613080139942","","","null","","","","","<p><img src= images/blank.png width =""200"" height = ""200"" style = ""float:right""></p><p><img src=images/blank.png width =""800"" height = ""200""></p>","","","","","","","","","","","",""
"","381.32499999483116","sequential-stimulus-presentation","209","315695","0.0-41.0-1.1","SS1613080139942","trial","","40","800","1181.3249999948312","images/stimuli/spore_stims/complex_18_B_d.gif","images/stimuli/spore_stims/complex_18_A_d.gif","","","","","11","complex_similar","images/stimuli/spore_stims/complex_18_A_d.gif","middle","","","","",""
"","null","html-keyboard-response","210","316510","0.0-41.0-0.2","SS1613080139942","","","null","","","","","<p><img src= images/blank.png width =""200"" height = ""200"" style = ""float:right""></p><p><img src=images/blank.png width =""800"" height = ""200""></p>","","","","","","","","","","","",""
"","124.64000002364628","sequential-stimulus-presentation","211","317444","0.0-41.0-1.2","SS1613080139942","trial","","40","800","924.6400000236463","images/stimuli/spore_stims/complex_18_B_d.gif","images/stimuli/spore_stims/complex_18_A_d.gif","","","","","11","complex_similar","images/stimuli/spore_stims/complex_18_A_d.gif","middle","","","","",""
"","null","html-keyboard-response","212","318260","0.0-41.0-0.3","SS1613080139942","","","null","","","","","<p><img src= images/blank.png width =""200"" height = ""200"" style = ""float:right""></p><p><img src=images/blank.png width =""800"" height = ""200""></p>","","","","","","","","","","","",""
"","6.235000008018687","sequential-stimulus-presentation","213","319076","0.0-41.0-1.3","SS1613080139942","trial","","40","800","806.2350000080187","images/stimuli/spore_stims/complex_18_B_d.gif","images/stimuli/spore_stims/complex_18_A_d.gif","","","","","11","complex_similar","images/stimuli/spore_stims/complex_18_A_d.gif","middle","","","","",""
"","null","html-keyboard-response","214","320325","0.0-41.0-0.4","SS1613080139942","","","null","","","","","<p><img src= images/blank.png width =""200"" height = ""200"" style = ""float:right""></p><p><img src=images/blank.png width =""800"" height = ""200""></p>","","","","","","","","","","","",""
"","418.1350000144448","sequential-stimulus-presentation","215","321552","0.0-41.0-1.4","SS1613080139942","trial","","40","800","1218.1350000144448","images/stimuli/spore_stims/complex_18_B_d.gif","images/stimuli/spore_stims/complex_18_A_d.gif","","","","","11","complex_similar","images/stimuli/spore_stims/complex_18_A_d.gif","middle","","","","",""
"","null","html-keyboard-response","216","322472","0.0-41.0-0.5","SS1613080139942","","","null","","","","","<p><img src= images/blank.png width =""200"" height = ""200"" style = ""float:right""></p><p><img src=images/blank.png width =""800"" height = ""200""></p>","","","","","","","","","","","",""
"","485.2450000180397","sequential-stimulus-presentation","217","323765","0.0-41.0-1.5","SS1613080139942","trial","","40","800","1285.2450000180397","images/stimuli/spore_stims/complex_18_B_d.gif","images/stimuli/spore_stims/complex_18_A_d.gif","","","","","11","complex_similar","images/stimuli/spore_stims/complex_18_A_d.gif","middle","","","","",""
"","null","html-keyboard-response","218","324814","0.0-41.0-0.6","SS1613080139942","","","null","","","","","<p><img src= images/blank.png width =""200"" height = ""200"" style = ""float:right""></p><p><img src=images/blank.png width =""800"" height = ""200""></p>","","","","","","","","","","","",""
"","924.5799999916926","sequential-stimulus-presentation","219","326564","0.0-41.0-1.6","SS1613080139942","trial","","40","800","1724.5799999916926","images/stimuli/spore_stims/complex_18_B_d.gif","images/stimuli/spore_stims/complex_18_A_d.gif","","","","","11","complex_similar","images/stimuli/spore_stims/complex_18_B_d.gif","right","","","","",""
"","null","html-keyboard-response","220","327799","0.0-41.0-0.7","SS1613080139942","","","null","","","","","<p><img src= images/blank.png width =""200"" height = ""200"" style = ""float:right""></p><p><img src=images/blank.png width =""800"" height = ""200""></p>","","","","","","","","","","","",""
"","582.6600000145845","sequential-stimulus-presentation","221","329191","0.0-41.0-1.7","SS1613080139942","trial","","40","800","1382.6600000145845","images/stimuli/spore_stims/complex_18_B_d.gif","images/stimuli/spore_stims/complex_18_A_d.gif","","","","","11","complex_similar","images/stimuli/spore_stims/complex_18_A_d.gif","middle","","","","",""
"","1123.2249999884516","html-keyboard-response","222","330320","0.0-42.0","SS1613080139942","pref_question","","50","","","","","<video width ='960' height = '540' style='padding-top:8%' autoplay muted><source src='images/stimuli/wall_pref.mp4' type='video/mp4'></video>","2","middle","45%","11","","","","","","","",""
"","399.9400000029709","sequential-stimulus-presentation","223","331528","0.0-43.0","SS1613080139942","pref_reveal","","40","800","1199.940000002971","null","null","","","","","11","","","","background","","","",""
"","null","html-keyboard-response","224","332348","0.0-44.0-0.0","SS1613080139942","","","null","","","","","<p><img src= images/blank.png width =""200"" height = ""200"" style = ""float:right""></p><p><img src=images/blank.png width =""800"" height = ""200""></p>","","","","","","","","","","","",""
"","789.4450000021607","sequential-stimulus-presentation","225","333955","0.0-44.0-1.0","SS1613080139942","trial","","40","800","1589.4450000021607","images/stimuli/spore_stims/complex_20_A_b.gif","images/stimuli/spore_stims/complex_17_A_a.gif","","","","","12","complex_dissimilar","images/stimuli/spore_stims/complex_17_A_a.gif","left","","","","",""
"","null","html-keyboard-response","226","334767","0.0-44.0-0.1","SS1613080139942","","","null","","","","","<p><img src= images/blank.png width =""200"" height = ""200"" style = ""float:right""></p><p><img src=images/blank.png width =""800"" height = ""200""></p>","","","","","","","","","","","",""
"","528.9599999960046","sequential-stimulus-presentation","227","336112","0.0-44.0-1.1","SS1613080139942","trial","","40","800","1328.9599999960046","images/stimuli/spore_stims/complex_20_A_b.gif","images/stimuli/spore_stims/complex_17_A_a.gif","","","","","12","complex_dissimilar","images/stimuli/spore_stims/complex_17_A_a.gif","left","","","","",""
"","null","html-keyboard-response","228","337360","0.0-44.0-0.2","SS1613080139942","","","null","","","","","<p><img src= images/blank.png width =""200"" height = ""200"" style = ""float:right""></p><p><img src=images/blank.png width =""800"" height = ""200""></p>","","","","","","","","","","","",""
"","296.94499998004176","sequential-stimulus-presentation","229","338464","0.0-44.0-1.2","SS1613080139942","trial","","40","800","1096.9449999800418","images/stimuli/spore_stims/complex_20_A_b.gif","images/stimuli/spore_stims/complex_17_A_a.gif","","","","","12","complex_dissimilar","images/stimuli/spore_stims/complex_17_A_a.gif","left","","","","",""
"","null","html-keyboard-response","230","339281","0.0-44.0-0.3","SS1613080139942","","","null","","","","","<p><img src= images/blank.png width =""200"" height = ""200"" style = ""float:right""></p><p><img src=images/blank.png width =""800"" height = ""200""></p>","","","","","","","","","","","",""
"","317.5049999845214","sequential-stimulus-presentation","231","340421","0.0-44.0-1.3","SS1613080139942","trial","","40","800","1117.5049999845214","images/stimuli/spore_stims/complex_20_A_b.gif","images/stimuli/spore_stims/complex_17_A_a.gif","","","","","12","complex_dissimilar","images/stimuli/spore_stims/complex_17_A_a.gif","left","","","","",""
"","null","html-keyboard-response","232","341658","0.0-44.0-0.4","SS1613080139942","","","null","","","","","<p><img src= images/blank.png width =""200"" height = ""200"" style = ""float:right""></p><p><img src=images/blank.png width =""800"" height = ""200""></p>","","","","","","","","","","","",""
"","176.08000000473112","sequential-stimulus-presentation","233","342643","0.0-44.0-1.4","SS1613080139942","trial","","40","800","976.0800000047311","images/stimuli/spore_stims/complex_20_A_b.gif","images/stimuli/spore_stims/complex_17_A_a.gif","","","","","12","complex_dissimilar","images/stimuli/spore_stims/complex_17_A_a.gif","left","","","","",""
"","null","html-keyboard-response","234","343743","0.0-44.0-0.5","SS1613080139942","","","null","","","","","<p><img src= images/blank.png width =""200"" height = ""200"" style = ""float:right""></p><p><img src=images/blank.png width =""800"" height = ""200""></p>","","","","","","","","","","","",""
"","584.275000001071","sequential-stimulus-presentation","235","345136","0.0-44.0-1.5","SS1613080139942","trial","","40","800","1384.275000001071","images/stimuli/spore_stims/complex_20_A_b.gif","images/stimuli/spore_stims/complex_17_A_a.gif","","","","","12","complex_dissimilar","images/stimuli/spore_stims/complex_20_A_b.gif","middle","","","","",""
"","null","html-keyboard-response","236","346261","0.0-44.0-0.6","SS1613080139942","","","null","","","","","<p><img src= images/blank.png width =""200"" height = ""200"" style = ""float:right""></p><p><img src=images/blank.png width =""800"" height = ""200""></p>","","","","","","","","","","","",""
"","426.099999982398","sequential-stimulus-presentation","237","347502","0.0-44.0-1.6","SS1613080139942","trial","","40","800","1226.099999982398","images/stimuli/spore_stims/complex_20_A_b.gif","images/stimuli/spore_stims/complex_17_A_a.gif","","","","","12","complex_dissimilar","images/stimuli/spore_stims/complex_17_A_a.gif","left","","","","",""
"","null","html-keyboard-response","238","348590","0.0-44.0-0.7","SS1613080139942","","","null","","","","","<p><img src= images/blank.png width =""200"" height = ""200"" style = ""float:right""></p><p><img src=images/blank.png width =""800"" height = ""200""></p>","","","","","","","","","","","",""
"","252.3149999906309","sequential-stimulus-presentation","239","349649","0.0-44.0-1.7","SS1613080139942","trial","","40","800","1052.314999990631","images/stimuli/spore_stims/complex_20_A_b.gif","images/stimuli/spore_stims/complex_17_A_a.gif","","","","","12","complex_dissimilar","images/stimuli/spore_stims/complex_17_A_a.gif","left","","","","",""
"","1124.7549999970943","html-keyboard-response","240","350780","0.0-45.0","SS1613080139942","pref_question","","50","","","","","<video width ='960' height = '540' style='padding-top:8%' autoplay muted><source src='images/stimuli/wall_pref.mp4' type='video/mp4'></video>","2","middle","45%","12","","","","","","","",""
"","675.1100000110455","sequential-stimulus-presentation","241","352272","0.0-46.0","SS1613080139942","pref_reveal","","40","800","1475.1100000110455","null","null","","","","","12","","","","deviant","","","",""
"","null","html-keyboard-response","242","353385","0.0-47.0-0.0","SS1613080139942","","","null","","","","","<p><img src= images/blank.png width =""200"" height = ""200"" style = ""float:right""></p><p><img src=images/blank.png width =""800"" height = ""200""></p>","","","","","","","","","","","",""
"","162.21999999834225","sequential-stimulus-presentation","243","354355","0.0-47.0-1.0","SS1613080139942","trial","","40","800","962.2199999983422","images/stimuli/spore_stims/complex_06_A_c.gif","images/stimuli/spore_stims/complex_06_B_c.gif","","","","","13","complex_similar","images/stimuli/spore_stims/complex_06_B_c.gif","right","","","","",""
"","null","html-keyboard-response","244","355450","0.0-47.0-0.1","SS1613080139942","","","null","","","","","<p><img src= images/blank.png width =""200"" height = ""200"" style = ""float:right""></p><p><img src=images/blank.png width =""800"" height = ""200""></p>","","","","","","","","","","","",""
"","425.12500000884756","sequential-stimulus-presentation","245","356690","0.0-47.0-1.1","SS1613080139942","trial","","40","800","1225.1250000088476","images/stimuli/spore_stims/complex_06_A_c.gif","images/stimuli/spore_stims/complex_06_B_c.gif","","","","","13","complex_similar","images/stimuli/spore_stims/complex_06_B_c.gif","right","","","","",""
"","null","html-keyboard-response","246","357962","0.0-47.0-0.2","SS1613080139942","","","null","","","","","<p><img src= images/blank.png width =""200"" height = ""200"" style = ""float:right""></p><p><img src=images/blank.png width =""800"" height = ""200""></p>","","","","","","","","","","","",""
"","281.955000013113","sequential-stimulus-presentation","247","359053","0.0-47.0-1.2","SS1613080139942","trial","","40","800","1081.955000013113","images/stimuli/spore_stims/complex_06_A_c.gif","images/stimuli/spore_stims/complex_06_B_c.gif","","","","","13","complex_similar","images/stimuli/spore_stims/complex_06_B_c.gif","right","","","","",""
"","null","html-keyboard-response","248","360051","0.0-47.0-0.3","SS1613080139942","","","null","","","","","<p><img src= images/blank.png width =""200"" height = ""200"" style = ""float:right""></p><p><img src=images/blank.png width =""800"" height = ""200""></p>","","","","","","","","","","","",""
"","409.060000005411","sequential-stimulus-presentation","249","361276","0.0-47.0-1.3","SS1613080139942","trial","","40","800","1209.060000005411","images/stimuli/spore_stims/complex_06_A_c.gif","images/stimuli/spore_stims/complex_06_B_c.gif","","","","","13","complex_similar","images/stimuli/spore_stims/complex_06_B_c.gif","right","","","","",""
"","null","html-keyboard-response","250","362106","0.0-47.0-0.4","SS1613080139942","","","null","","","","","<p><img src= images/blank.png width =""200"" height = ""200"" style = ""float:right""></p><p><img src=images/blank.png width =""800"" height = ""200""></p>","","","","","","","","","","","",""
"","634.9000000045635","sequential-stimulus-presentation","251","363547","0.0-47.0-1.4","SS1613080139942","trial","","40","800","1434.9000000045635","images/stimuli/spore_stims/complex_06_A_c.gif","images/stimuli/spore_stims/complex_06_B_c.gif","","","","","13","complex_similar","images/stimuli/spore_stims/complex_06_A_c.gif","left","","","","",""
"","null","html-keyboard-response","252","364549","0.0-47.0-0.5","SS1613080139942","","","null","","","","","<p><img src= images/blank.png width =""200"" height = ""200"" style = ""float:right""></p><p><img src=images/blank.png width =""800"" height = ""200""></p>","","","","","","","","","","","",""
"","485.2699999755714","sequential-stimulus-presentation","253","365843","0.0-47.0-1.5","SS1613080139942","trial","","40","800","1285.2699999755714","images/stimuli/spore_stims/complex_06_A_c.gif","images/stimuli/spore_stims/complex_06_B_c.gif","","","","","13","complex_similar","images/stimuli/spore_stims/complex_06_B_c.gif","right","","","","",""
"","null","html-keyboard-response","254","366753","0.0-47.0-0.6","SS1613080139942","","","null","","","","","<p><img src= images/blank.png width =""200"" height = ""200"" style = ""float:right""></p><p><img src=images/blank.png width =""800"" height = ""200""></p>","","","","","","","","","","","",""
"","471.79499999037944","sequential-stimulus-presentation","255","368032","0.0-47.0-1.6","SS1613080139942","trial","","40","800","1271.7949999903794","images/stimuli/spore_stims/complex_06_A_c.gif","images/stimuli/spore_stims/complex_06_B_c.gif","","","","","13","complex_similar","images/stimuli/spore_stims/complex_06_B_c.gif","right","","","","",""
"","null","html-keyboard-response","256","368985","0.0-47.0-0.7","SS1613080139942","","","null","","","","","<p><img src= images/blank.png width =""200"" height = ""200"" style = ""float:right""></p><p><img src=images/blank.png width =""800"" height = ""200""></p>","","","","","","","","","","","",""
"","421.5200000035111","sequential-stimulus-presentation","257","370231","0.0-47.0-1.7","SS1613080139942","trial","","40","800","1221.520000003511","images/stimuli/spore_stims/complex_06_A_c.gif","images/stimuli/spore_stims/complex_06_B_c.gif","","","","","13","complex_similar","images/stimuli/spore_stims/complex_06_B_c.gif","right","","","","",""
"","1079.1749999916647","html-keyboard-response","258","371318","0.0-48.0","SS1613080139942","pref_question","","49","","","","","<video width ='960' height = '540' style='padding-top:8%' autoplay muted><source src='images/stimuli/wall_pref.mp4' type='video/mp4'></video>","1","left","25%","13","","","","","","","",""
"","893.819999997504","sequential-stimulus-presentation","259","373022","0.0-49.0","SS1613080139942","pref_reveal","","40","800","1693.819999997504","null","null","","","","","13","","","","deviant","","","",""
"","null","html-keyboard-response","260","374087","0.0-50.0-0.0","SS1613080139942","","","null","","","","","<p><img src= images/blank.png width =""200"" height = ""200"" style = ""float:right""></p><p><img src=images/blank.png width =""800"" height = ""200""></p>","","","","","","","","","","","",""
"","480.23499999544583","sequential-stimulus-presentation","261","375376","0.0-50.0-1.0","SS1613080139942","trial","","40","800","1280.2349999954458","images/stimuli/spore_stims/complex_04_A_b.gif","images/stimuli/spore_stims/complex_02_B_b.gif","","","","","14","complex_dissimilar","images/stimuli/spore_stims/complex_02_B_b.gif","left","","","","",""
"","null","html-keyboard-response","262","376251","0.0-50.0-0.1","SS1613080139942","","","null","","","","","<p><img src= images/blank.png width =""200"" height = ""200"" style = ""float:right""></p><p><img src=images/blank.png width =""800"" height = ""200""></p>","","","","","","","","","","","",""
"","530.5050000024494","sequential-stimulus-presentation","263","377590","0.0-50.0-1.1","SS1613080139942","trial","","40","800","1330.5050000024494","images/stimuli/spore_stims/complex_04_A_b.gif","images/stimuli/spore_stims/complex_02_B_b.gif","","","","","14","complex_dissimilar","images/stimuli/spore_stims/complex_02_B_b.gif","left","","","","",""
"","null","html-keyboard-response","264","378847","0.0-50.0-0.2","SS1613080139942","","","null","","","","","<p><img src= images/blank.png width =""200"" height = ""200"" style = ""float:right""></p><p><img src=images/blank.png width =""800"" height = ""200""></p>","","","","","","","","","","","",""
"","297.9100000229664","sequential-stimulus-presentation","265","379952","0.0-50.0-1.2","SS1613080139942","trial","","40","800","1097.9100000229664","images/stimuli/spore_stims/complex_04_A_b.gif","images/stimuli/spore_stims/complex_02_B_b.gif","","","","","14","complex_dissimilar","images/stimuli/spore_stims/complex_02_B_b.gif","left","","","","",""
"","null","html-keyboard-response","266","380793","0.0-50.0-0.3","SS1613080139942","","","null","","","","","<p><img src= images/blank.png width =""200"" height = ""200"" style = ""float:right""></p><p><img src=images/blank.png width =""800"" height = ""200""></p>","","","","","","","","","","","",""
"","680.659999983618","sequential-stimulus-presentation","267","382285","0.0-50.0-1.3","SS1613080139942","trial","","40","800","1480.659999983618","images/stimuli/spore_stims/complex_04_A_b.gif","images/stimuli/spore_stims/complex_02_B_b.gif","","","","","14","complex_dissimilar","images/stimuli/spore_stims/complex_02_B_b.gif","left","","","","",""
"","null","html-keyboard-response","268","383120","0.0-50.0-0.4","SS1613080139942","","","null","","","","","<p><img src= images/blank.png width =""200"" height = ""200"" style = ""float:right""></p><p><img src=images/blank.png width =""800"" height = ""200""></p>","","","","","","","","","","","",""
"","254.77499997941777","sequential-stimulus-presentation","269","384184","0.0-50.0-1.4","SS1613080139942","trial","","40","800","1054.7749999794178","images/stimuli/spore_stims/complex_04_A_b.gif","images/stimuli/spore_stims/complex_02_B_b.gif","","","","","14","complex_dissimilar","images/stimuli/spore_stims/complex_02_B_b.gif","left","","","","",""
"","null","html-keyboard-response","270","385177","0.0-50.0-0.5","SS1613080139942","","","null","","","","","<p><img src= images/blank.png width =""200"" height = ""200"" style = ""float:right""></p><p><img src=images/blank.png width =""800"" height = ""200""></p>","","","","","","","","","","","",""
"","374.87999998847954","sequential-stimulus-presentation","271","386360","0.0-50.0-1.5","SS1613080139942","trial","","40","800","1174.8799999884795","images/stimuli/spore_stims/complex_04_A_b.gif","images/stimuli/spore_stims/complex_02_B_b.gif","","","","","14","complex_dissimilar","images/stimuli/spore_stims/complex_04_A_b.gif","middle","","","","",""
"","null","html-keyboard-response","272","387371","0.0-50.0-0.6","SS1613080139942","","","null","","","","","<p><img src= images/blank.png width =""200"" height = ""200"" style = ""float:right""></p><p><img src=images/blank.png width =""800"" height = ""200""></p>","","","","","","","","","","","",""
"","385.76999999349937","sequential-stimulus-presentation","273","388591","0.0-50.0-1.6","SS1613080139942","trial","","40","800","1185.7699999934994","images/stimuli/spore_stims/complex_04_A_b.gif","images/stimuli/spore_stims/complex_02_B_b.gif","","","","","14","complex_dissimilar","images/stimuli/spore_stims/complex_02_B_b.gif","left","","","","",""
"","null","html-keyboard-response","274","389681","0.0-50.0-0.7","SS1613080139942","","","null","","","","","<p><img src= images/blank.png width =""200"" height = ""200"" style = ""float:right""></p><p><img src=images/blank.png width =""800"" height = ""200""></p>","","","","","","","","","","","",""
"","674.5200000004843","sequential-stimulus-presentation","275","391163","0.0-50.0-1.7","SS1613080139942","trial","","40","800","1474.5200000004843","images/stimuli/spore_stims/complex_04_A_b.gif","images/stimuli/spore_stims/complex_02_B_b.gif","","","","","14","complex_dissimilar","images/stimuli/spore_stims/complex_02_B_b.gif","left","","","","",""
"","1057.0799999986775","html-keyboard-response","276","392228","0.0-51.0","SS1613080139942","pref_question","","49","","","","","<video width ='960' height = '540' style='padding-top:8%' autoplay muted><source src='images/stimuli/wall_pref.mp4' type='video/mp4'></video>","1","left","25%","14","","","","","","","",""
"","1137.3149999999441","sequential-stimulus-presentation","277","394176","0.0-52.0","SS1613080139942","pref_reveal","","40","800","1937.3149999999441","null","null","","","","","14","","","","background","","","",""
"","null","html-keyboard-response","278","395338","0.0-53.0-0.0","SS1613080139942","","","null","","","","","<p><img src= images/blank.png width =""200"" height = ""200"" style = ""float:right""></p><p><img src=images/blank.png width =""800"" height = ""200""></p>","","","","","","","","","","","",""
"","215.25500001735054","sequential-stimulus-presentation","279","396363","0.0-53.0-1.0","SS1613080139942","trial","","40","800","1015.2550000173505","images/stimuli/spore_stims/complex_15_A_d.gif","images/stimuli/spore_stims/complex_15_B_d.gif","","","","","15","complex_similar","images/stimuli/spore_stims/complex_15_B_d.gif","right","","","","",""
"","null","html-keyboard-response","280","397332","0.0-53.0-0.1","SS1613080139942","","","null","","","","","<p><img src= images/blank.png width =""200"" height = ""200"" style = ""float:right""></p><p><img src=images/blank.png width =""800"" height = ""200""></p>","","","","","","","","","","","",""
"","351.38500001630746","sequential-stimulus-presentation","281","398492","0.0-53.0-1.1","SS1613080139942","trial","","40","800","1151.3850000163075","images/stimuli/spore_stims/complex_15_A_d.gif","images/stimuli/spore_stims/complex_15_B_d.gif","","","","","15","complex_similar","images/stimuli/spore_stims/complex_15_B_d.gif","right","","","","",""
"","null","html-keyboard-response","282","399654","0.0-53.0-0.2","SS1613080139942","","","null","","","","","<p><img src= images/blank.png width =""200"" height = ""200"" style = ""float:right""></p><p><img src=images/blank.png width =""800"" height = ""200""></p>","","","","","","","","","","","",""
"","113.04999998537824","sequential-stimulus-presentation","283","400574","0.0-53.0-1.2","SS1613080139942","trial","","40","800","913.0499999853782","images/stimuli/spore_stims/complex_15_A_d.gif","images/stimuli/spore_stims/complex_15_B_d.gif","","","","","15","complex_similar","images/stimuli/spore_stims/complex_15_B_d.gif","right","","","","",""
"","null","html-keyboard-response","284","401589","0.0-53.0-0.3","SS1613080139942","","","null","","","","","<p><img src= images/blank.png width =""200"" height = ""200"" style = ""float:right""></p><p><img src=images/blank.png width =""800"" height = ""200""></p>","","","","","","","","","","","",""
"","330.195000016829","sequential-stimulus-presentation","285","402741","0.0-53.0-1.3","SS1613080139942","trial","","40","800","1130.195000016829","images/stimuli/spore_stims/complex_15_A_d.gif","images/stimuli/spore_stims/complex_15_B_d.gif","","","","","15","complex_similar","images/stimuli/spore_stims/complex_15_B_d.gif","right","","","","",""
"","null","html-keyboard-response","286","404038","0.0-53.0-0.4","SS1613080139942","","","null","","","","","<p><img src= images/blank.png width =""200"" height = ""200"" style = ""float:right""></p><p><img src=images/blank.png width =""800"" height = ""200""></p>","","","","","","","","","","","",""
"","210.9049999853596","sequential-stimulus-presentation","287","405056","0.0-53.0-1.4","SS1613080139942","trial","","40","800","1010.9049999853596","images/stimuli/spore_stims/complex_15_A_d.gif","images/stimuli/spore_stims/complex_15_B_d.gif","","","","","15","complex_similar","images/stimuli/spore_stims/complex_15_B_d.gif","right","","","","",""
"","null","html-keyboard-response","288","406140","0.0-53.0-0.5","SS1613080139942","","","null","","","","","<p><img src= images/blank.png width =""200"" height = ""200"" style = ""float:right""></p><p><img src=images/blank.png width =""800"" height = ""200""></p>","","","","","","","","","","","",""
"","808.3749999932479","sequential-stimulus-presentation","289","407763","0.0-53.0-1.5","SS1613080139942","trial","","40","800","1608.374999993248","images/stimuli/spore_stims/complex_15_A_d.gif","images/stimuli/spore_stims/complex_15_B_d.gif","","","","","15","complex_similar","images/stimuli/spore_stims/complex_15_A_d.gif","middle","","","","",""
"","null","html-keyboard-response","290","408900","0.0-53.0-0.6","SS1613080139942","","","null","","","","","<p><img src= images/blank.png width =""200"" height = ""200"" style = ""float:right""></p><p><img src=images/blank.png width =""800"" height = ""200""></p>","","","","","","","","","","","",""
"","407.8250000020489","sequential-stimulus-presentation","291","410116","0.0-53.0-1.6","SS1613080139942","trial","","40","800","1207.825000002049","images/stimuli/spore_stims/complex_15_A_d.gif","images/stimuli/spore_stims/complex_15_B_d.gif","","","","","15","complex_similar","images/stimuli/spore_stims/complex_15_B_d.gif","right","","","","",""
"","null","html-keyboard-response","292","411033","0.0-53.0-0.7","SS1613080139942","","","null","","","","","<p><img src= images/blank.png width =""200"" height = ""200"" style = ""float:right""></p><p><img src=images/blank.png width =""800"" height = ""200""></p>","","","","","","","","","","","",""
"","342.75500001967885","sequential-stimulus-presentation","293","412187","0.0-53.0-1.7","SS1613080139942","trial","","40","800","1142.7550000196788","images/stimuli/spore_stims/complex_15_A_d.gif","images/stimuli/spore_stims/complex_15_B_d.gif","","","","","15","complex_similar","images/stimuli/spore_stims/complex_15_B_d.gif","right","","","","",""
"","1249.710000003688","html-keyboard-response","294","413443","0.0-54.0","SS1613080139942","pref_question","","50","","","","","<video width ='960' height = '540' style='padding-top:8%' autoplay muted><source src='images/stimuli/wall_pref.mp4' type='video/mp4'></video>","2","middle","45%","15","","","","","","","",""
"","622.9699999967124","sequential-stimulus-presentation","295","414883","0.0-55.0","SS1613080139942","pref_reveal","","40","800","1422.9699999967124","null","null","","","","","15","","","","deviant","","","",""
"","null","html-keyboard-response","296","416125","0.0-56.0-0.0","SS1613080139942","","","null","","","","","<p><img src= images/blank.png width =""200"" height = ""200"" style = ""float:right""></p><p><img src=images/blank.png width =""800"" height = ""200""></p>","","","","","","","","","","","",""
"","79.57999999052845","sequential-stimulus-presentation","297","417014","0.0-56.0-1.0","SS1613080139942","trial","","40","800","879.5799999905284","images/stimuli/spore_stims/simple_20_A_c.gif","images/stimuli/spore_stims/simple_15_B_c.gif","","","","","16","simple_dissimilar","images/stimuli/spore_stims/simple_15_B_c.gif","middle","","","","",""
"","null","html-keyboard-response","298","418176","0.0-56.0-0.1","SS1613080139942","","","null","","","","","<p><img src= images/blank.png width =""200"" height = ""200"" style = ""float:right""></p><p><img src=images/blank.png width =""800"" height = ""200""></p>","","","","","","","","","","","",""
"","654.9250000098255","sequential-stimulus-presentation","299","419643","0.0-56.0-1.1","SS1613080139942","trial","","40","800","1454.9250000098255","images/stimuli/spore_stims/simple_20_A_c.gif","images/stimuli/spore_stims/simple_15_B_c.gif","","","","","16","simple_dissimilar","images/stimuli/spore_stims/simple_15_B_c.gif","middle","","","","",""
"","null","html-keyboard-response","300","420685","0.0-56.0-0.2","SS1613080139942","","","null","","","","","<p><img src= images/blank.png width =""200"" height = ""200"" style = ""float:right""></p><p><img src=images/blank.png width =""800"" height = ""200""></p>","","","","","","","","","","","",""
"","1109.6599999873433","sequential-stimulus-presentation","301","422628","0.0-56.0-1.2","SS1613080139942","trial","","40","800","1909.6599999873433","images/stimuli/spore_stims/simple_20_A_c.gif","images/stimuli/spore_stims/simple_15_B_c.gif","","","","","16","simple_dissimilar","images/stimuli/spore_stims/simple_15_B_c.gif","middle","","","","",""
"","null","html-keyboard-response","302","423563","0.0-56.0-0.3","SS1613080139942","","","null","","","","","<p><img src= images/blank.png width =""200"" height = ""200"" style = ""float:right""></p><p><img src=images/blank.png width =""800"" height = ""200""></p>","","","","","","","","","","","",""
"","95207.05500000622","sequential-stimulus-presentation","303","519581","0.0-56.0-1.3","SS1613080139942","trial","","40","800","96007.05500000622","images/stimuli/spore_stims/simple_20_A_c.gif","images/stimuli/spore_stims/simple_15_B_c.gif","","","","","16","simple_dissimilar","images/stimuli/spore_stims/simple_20_A_c.gif","right","","","","",""
"","null","html-keyboard-response","304","520496","0.0-56.0-0.4","SS1613080139942","","","null","","","","","<p><img src= images/blank.png width =""200"" height = ""200"" style = ""float:right""></p><p><img src=images/blank.png width =""800"" height = ""200""></p>","","","","","","","","","","","",""
"","264.72500001545995","sequential-stimulus-presentation","305","521570","0.0-56.0-1.4","SS1613080139942","trial","","40","800","1064.72500001546","images/stimuli/spore_stims/simple_20_A_c.gif","images/stimuli/spore_stims/simple_15_B_c.gif","","","","","16","simple_dissimilar","images/stimuli/spore_stims/simple_15_B_c.gif","middle","","","","",""
"","null","html-keyboard-response","306","522387","0.0-56.0-0.5","SS1613080139942","","","null","","","","","<p><img src= images/blank.png width =""200"" height = ""200"" style = ""float:right""></p><p><img src=images/blank.png width =""800"" height = ""200""></p>","","","","","","","","","","","",""
"","1691.2000000011176","sequential-stimulus-presentation","307","524886","0.0-56.0-1.5","SS1613080139942","trial","","40","800","2491.2000000011176","images/stimuli/spore_stims/simple_20_A_c.gif","images/stimuli/spore_stims/simple_15_B_c.gif","","","","","16","simple_dissimilar","images/stimuli/spore_stims/simple_15_B_c.gif","middle","","","","",""
"","null","html-keyboard-response","308","525923","0.0-56.0-0.6","SS1613080139942","","","null","","","","","<p><img src= images/blank.png width =""200"" height = ""200"" style = ""float:right""></p><p><img src=images/blank.png width =""800"" height = ""200""></p>","","","","","","","","","","","",""
"","984.1249999881256","sequential-stimulus-presentation","309","527731","0.0-56.0-1.6","SS1613080139942","trial","","40","800","1784.1249999881256","images/stimuli/spore_stims/simple_20_A_c.gif","images/stimuli/spore_stims/simple_15_B_c.gif","","","","","16","simple_dissimilar","images/stimuli/spore_stims/simple_15_B_c.gif","middle","","","","",""
"","null","html-keyboard-response","310","528897","0.0-56.0-0.7","SS1613080139942","","","null","","","","","<p><img src= images/blank.png width =""200"" height = ""200"" style = ""float:right""></p><p><img src=images/blank.png width =""800"" height = ""200""></p>","","","","","","","","","","","",""
"","904.9749999830965","sequential-stimulus-presentation","311","530627","0.0-56.0-1.7","SS1613080139942","trial","","40","800","1704.9749999830965","images/stimuli/spore_stims/simple_20_A_c.gif","images/stimuli/spore_stims/simple_15_B_c.gif","","","","","16","simple_dissimilar","images/stimuli/spore_stims/simple_15_B_c.gif","middle","","","","",""
