"view_history","rt","trial_type","trial_index","time_elapsed","internal_node_id","subject","stimulus_type","trial_stimulus","key_press","minimum_viewing_duration","trial_looking_time","block_deviant","block_background","stimulus","wall_pref","location","location_percent","block_number","block_type","stimulus_displayed","position_displayed","stim_type_selected","responses","question_order","stimulus_left","stimulus_right"
"[{""page_index"":0,""viewing_time"":16369}]","16370","instructions","0","16375","0.0-0.0","SS1613098609473","","","","","","","","","","","","","","","","","","","",""
"[{""page_index"":0,""viewing_time"":13705},{""page_index"":1,""viewing_time"":11684}]","25391","instructions","1","43778","0.0-1.0","SS1613098609473","instructions","","","","","","","","","","","","","","","","","","",""
"","8916","sequential-stimulus-presentation","2","53543","0.0-2.0","SS1613098609473","","","40","800","9716","null","null","","","","","","","","","","","","",""
"","6313","sequential-stimulus-presentation","3","60679","0.0-3.0","SS1613098609473","","","40","800","7113","null","null","","","","","","","","","","","","",""
"[{""page_index"":0,""viewing_time"":6059}]","6059","instructions","4","66741","0.0-4.0","SS1613098609473","instructions","","","","","","","","","","","","","","","","","","",""
"","63248","html-keyboard-response","5","130002","0.0-5.0","SS1613098609473","instructions","","49","","","","","<video width ='960' height = '540' autoplay muted><source src='images/stimuli/wall_pref.mp4' type='video/mp4'></video>","1","left","25%","","","","","","","","",""
"","4355","sequential-stimulus-presentation","6","135178","0.0-6.0","SS1613098609473","pref_reveal","","40","800","5155","null","null","","","","","","","","","","","","",""
"[{""page_index"":0,""viewing_time"":8821},{""page_index"":1,""viewing_time"":5500},{""page_index"":2,""viewing_time"":2203},{""page_index"":3,""viewing_time"":2604}]","19130","instructions","7","154311","0.0-7.0","SS1613098609473","instructions","","","","","","","","","","","","","","","","","","",""
"","null","html-keyboard-response","8","155243","0.0-8.0-0.0","SS1613098609473","","","null","","","","","<p><img src= images/blank.png width =""200"" height = ""200"" style = ""float:right""></p><p><img src=images/blank.png width =""800"" height = ""200""></p>","","","","","","","","","","","",""
"","9157","sequential-stimulus-presentation","9","165222","0.0-8.0-1.0","SS1613098609473","trial","","40","800","9957","images/stimuli/spore_stims/complex_11_B_c.gif","images/stimuli/spore_stims/complex_11_A_c.gif","","","","","0","complex_similar","images/stimuli/spore_stims/complex_11_A_c.gif","right","","","","",""
"","null","html-keyboard-response","10","166222","0.0-8.0-0.1","SS1613098609473","","","null","","","","","<p><img src= images/blank.png width =""200"" height = ""200"" style = ""float:right""></p><p><img src=images/blank.png width =""800"" height = ""200""></p>","","","","","","","","","","","",""
"","6600","sequential-stimulus-presentation","11","173644","0.0-8.0-1.1","SS1613098609473","trial","","40","800","7400","images/stimuli/spore_stims/complex_11_B_c.gif","images/stimuli/spore_stims/complex_11_A_c.gif","","","","","0","complex_similar","images/stimuli/spore_stims/complex_11_A_c.gif","right","","","","",""
"","null","html-keyboard-response","12","174931","0.0-8.0-0.2","SS1613098609473","","","null","","","","","<p><img src= images/blank.png width =""200"" height = ""200"" style = ""float:right""></p><p><img src=images/blank.png width =""800"" height = ""200""></p>","","","","","","","","","","","",""
"","10538","sequential-stimulus-presentation","13","186281","0.0-8.0-1.2","SS1613098609473","trial","","40","800","11338","images/stimuli/spore_stims/complex_11_B_c.gif","images/stimuli/spore_stims/complex_11_A_c.gif","","","","","0","complex_similar","images/stimuli/spore_stims/complex_11_A_c.gif","right","","","","",""
"","null","html-keyboard-response","14","187591","0.0-8.0-0.3","SS1613098609473","","","null","","","","","<p><img src= images/blank.png width =""200"" height = ""200"" style = ""float:right""></p><p><img src=images/blank.png width =""800"" height = ""200""></p>","","","","","","","","","","","",""
"","8776","sequential-stimulus-presentation","15","197187","0.0-8.0-1.3","SS1613098609473","trial","","40","800","9576","images/stimuli/spore_stims/complex_11_B_c.gif","images/stimuli/spore_stims/complex_11_A_c.gif","","","","","0","complex_similar","images/stimuli/spore_stims/complex_11_A_c.gif","right","","","","",""
"","null","html-keyboard-response","16","198152","0.0-8.0-0.4","SS1613098609473","","","null","","","","","<p><img src= images/blank.png width =""200"" height = ""200"" style = ""float:right""></p><p><img src=images/blank.png width =""800"" height = ""200""></p>","","","","","","","","","","","",""
"","1148","sequential-stimulus-presentation","17","200111","0.0-8.0-1.4","SS1613098609473","trial","","40","800","1948","images/stimuli/spore_stims/complex_11_B_c.gif","images/stimuli/spore_stims/complex_11_A_c.gif","","","","","0","complex_similar","images/stimuli/spore_stims/complex_11_A_c.gif","right","","","","",""
"","null","html-keyboard-response","18","200962","0.0-8.0-0.5","SS1613098609473","","","null","","","","","<p><img src= images/blank.png width =""200"" height = ""200"" style = ""float:right""></p><p><img src=images/blank.png width =""800"" height = ""200""></p>","","","","","","","","","","","",""
"","749","sequential-stimulus-presentation","19","202523","0.0-8.0-1.5","SS1613098609473","trial","","40","800","1549","images/stimuli/spore_stims/complex_11_B_c.gif","images/stimuli/spore_stims/complex_11_A_c.gif","","","","","0","complex_similar","images/stimuli/spore_stims/complex_11_A_c.gif","right","","","","",""
"","null","html-keyboard-response","20","203532","0.0-8.0-0.6","SS1613098609473","","","null","","","","","<p><img src= images/blank.png width =""200"" height = ""200"" style = ""float:right""></p><p><img src=images/blank.png width =""800"" height = ""200""></p>","","","","","","","","","","","",""
"","7093","sequential-stimulus-presentation","21","211447","0.0-8.0-1.6","SS1613098609473","trial","","40","800","7893","images/stimuli/spore_stims/complex_11_B_c.gif","images/stimuli/spore_stims/complex_11_A_c.gif","","","","","0","complex_similar","images/stimuli/spore_stims/complex_11_B_c.gif","middle","","","","",""
"","null","html-keyboard-response","22","212501","0.0-8.0-0.7","SS1613098609473","","","null","","","","","<p><img src= images/blank.png width =""200"" height = ""200"" style = ""float:right""></p><p><img src=images/blank.png width =""800"" height = ""200""></p>","","","","","","","","","","","",""
"","4957","sequential-stimulus-presentation","23","218272","0.0-8.0-1.7","SS1613098609473","trial","","40","800","5757","images/stimuli/spore_stims/complex_11_B_c.gif","images/stimuli/spore_stims/complex_11_A_c.gif","","","","","0","complex_similar","images/stimuli/spore_stims/complex_11_A_c.gif","right","","","","",""
"","2908","html-keyboard-response","24","221187","0.0-9.0","SS1613098609473","pref_question","","49","","","","","<video width ='960' height = '540' style='padding-top:8%' autoplay muted><source src='images/stimuli/wall_pref.mp4' type='video/mp4'></video>","1","left","25%","0","","","","","","","",""
"","7114","sequential-stimulus-presentation","25","229116","0.0-10.0","SS1613098609473","pref_reveal","","40","800","7914","null","null","","","","","0","","","","novel","","","",""
"","null","html-keyboard-response","26","230411","0.0-11.0-0.0","SS1613098609473","","","null","","","","","<p><img src= images/blank.png width =""200"" height = ""200"" style = ""float:right""></p><p><img src=images/blank.png width =""800"" height = ""200""></p>","","","","","","","","","","","",""
"","6739","sequential-stimulus-presentation","27","237972","0.0-11.0-1.0","SS1613098609473","trial","","40","800","7539","images/stimuli/spore_stims/simple_16_B_b.gif","images/stimuli/spore_stims/simple_16_A_b.gif","","","","","1","simple_similar","images/stimuli/spore_stims/simple_16_A_b.gif","middle","","","","",""
"","null","html-keyboard-response","28","238791","0.0-11.0-0.1","SS1613098609473","","","null","","","","","<p><img src= images/blank.png width =""200"" height = ""200"" style = ""float:right""></p><p><img src=images/blank.png width =""800"" height = ""200""></p>","","","","","","","","","","","",""
"","6262","sequential-stimulus-presentation","29","245863","0.0-11.0-1.1","SS1613098609473","trial","","40","800","7062","images/stimuli/spore_stims/simple_16_B_b.gif","images/stimuli/spore_stims/simple_16_A_b.gif","","","","","1","simple_similar","images/stimuli/spore_stims/simple_16_A_b.gif","middle","","","","",""
"","null","html-keyboard-response","30","246981","0.0-11.0-0.2","SS1613098609473","","","null","","","","","<p><img src= images/blank.png width =""200"" height = ""200"" style = ""float:right""></p><p><img src=images/blank.png width =""800"" height = ""200""></p>","","","","","","","","","","","",""
"","6223","sequential-stimulus-presentation","31","254015","0.0-11.0-1.2","SS1613098609473","trial","","40","800","7023","images/stimuli/spore_stims/simple_16_B_b.gif","images/stimuli/spore_stims/simple_16_A_b.gif","","","","","1","simple_similar","images/stimuli/spore_stims/simple_16_B_b.gif","right","","","","",""
"","null","html-keyboard-response","32","255121","0.0-11.0-0.3","SS1613098609473","","","null","","","","","<p><img src= images/blank.png width =""200"" height = ""200"" style = ""float:right""></p><p><img src=images/blank.png width =""800"" height = ""200""></p>","","","","","","","","","","","",""
"","3065","sequential-stimulus-presentation","33","258996","0.0-11.0-1.3","SS1613098609473","trial","","40","800","3865","images/stimuli/spore_stims/simple_16_B_b.gif","images/stimuli/spore_stims/simple_16_A_b.gif","","","","","1","simple_similar","images/stimuli/spore_stims/simple_16_A_b.gif","middle","","","","",""
"","null","html-keyboard-response","34","259810","0.0-11.0-0.4","SS1613098609473","","","null","","","","","<p><img src= images/blank.png width =""200"" height = ""200"" style = ""float:right""></p><p><img src=images/blank.png width =""800"" height = ""200""></p>","","","","","","","","","","","",""
"","4074","sequential-stimulus-presentation","35","264705","0.0-11.0-1.4","SS1613098609473","trial","","40","800","4874","images/stimuli/spore_stims/simple_16_B_b.gif","images/stimuli/spore_stims/simple_16_A_b.gif","","","","","1","simple_similar","images/stimuli/spore_stims/simple_16_A_b.gif","middle","","","","",""
"","null","html-keyboard-response","36","265920","0.0-11.0-0.5","SS1613098609473","","","null","","","","","<p><img src= images/blank.png width =""200"" height = ""200"" style = ""float:right""></p><p><img src=images/blank.png width =""800"" height = ""200""></p>","","","","","","","","","","","",""
"","4413","sequential-stimulus-presentation","37","271144","0.0-11.0-1.5","SS1613098609473","trial","","40","800","5213","images/stimuli/spore_stims/simple_16_B_b.gif","images/stimuli/spore_stims/simple_16_A_b.gif","","","","","1","simple_similar","images/stimuli/spore_stims/simple_16_A_b.gif","middle","","","","",""
"","null","html-keyboard-response","38","272020","0.0-11.0-0.6","SS1613098609473","","","null","","","","","<p><img src= images/blank.png width =""200"" height = ""200"" style = ""float:right""></p><p><img src=images/blank.png width =""800"" height = ""200""></p>","","","","","","","","","","","",""
"","4945","sequential-stimulus-presentation","39","277785","0.0-11.0-1.6","SS1613098609473","trial","","40","800","5745","images/stimuli/spore_stims/simple_16_B_b.gif","images/stimuli/spore_stims/simple_16_A_b.gif","","","","","1","simple_similar","images/stimuli/spore_stims/simple_16_A_b.gif","middle","","","","",""
"","null","html-keyboard-response","40","278710","0.0-11.0-0.7","SS1613098609473","","","null","","","","","<p><img src= images/blank.png width =""200"" height = ""200"" style = ""float:right""></p><p><img src=images/blank.png width =""800"" height = ""200""></p>","","","","","","","","","","","",""
"","3818","sequential-stimulus-presentation","41","283350","0.0-11.0-1.7","SS1613098609473","trial","","40","800","4618","images/stimuli/spore_stims/simple_16_B_b.gif","images/stimuli/spore_stims/simple_16_A_b.gif","","","","","1","simple_similar","images/stimuli/spore_stims/simple_16_A_b.gif","middle","","","","",""
"","2495","html-keyboard-response","42","285849","0.0-12.0","SS1613098609473","pref_question","","49","","","","","<video width ='960' height = '540' style='padding-top:8%' autoplay muted><source src='images/stimuli/wall_pref.mp4' type='video/mp4'></video>","1","left","25%","1","","","","","","","",""
"","9587","sequential-stimulus-presentation","43","296259","0.0-13.0","SS1613098609473","pref_reveal","","40","800","10387","null","null","","","","","1","","","","novel","","","",""
"","null","html-keyboard-response","44","297500","0.0-14.0-0.0","SS1613098609473","","","null","","","","","<p><img src= images/blank.png width =""200"" height = ""200"" style = ""float:right""></p><p><img src=images/blank.png width =""800"" height = ""200""></p>","","","","","","","","","","","",""
"","11147","sequential-stimulus-presentation","45","309469","0.0-14.0-1.0","SS1613098609473","trial","","40","800","11947","images/stimuli/spore_stims/complex_19_A_b.gif","images/stimuli/spore_stims/complex_19_B_b.gif","","","","","2","complex_similar","images/stimuli/spore_stims/complex_19_B_b.gif","left","","","","",""
"","null","html-keyboard-response","46","310360","0.0-14.0-0.1","SS1613098609473","","","null","","","","","<p><img src= images/blank.png width =""200"" height = ""200"" style = ""float:right""></p><p><img src=images/blank.png width =""800"" height = ""200""></p>","","","","","","","","","","","",""
"","4382","sequential-stimulus-presentation","47","315563","0.0-14.0-1.1","SS1613098609473","trial","","40","800","5182","images/stimuli/spore_stims/complex_19_A_b.gif","images/stimuli/spore_stims/complex_19_B_b.gif","","","","","2","complex_similar","images/stimuli/spore_stims/complex_19_B_b.gif","left","","","","",""
"","null","html-keyboard-response","48","316469","0.0-14.0-0.2","SS1613098609473","","","null","","","","","<p><img src= images/blank.png width =""200"" height = ""200"" style = ""float:right""></p><p><img src=images/blank.png width =""800"" height = ""200""></p>","","","","","","","","","","","",""
"","6264","sequential-stimulus-presentation","49","323555","0.0-14.0-1.2","SS1613098609473","trial","","40","800","7064","images/stimuli/spore_stims/complex_19_A_b.gif","images/stimuli/spore_stims/complex_19_B_b.gif","","","","","2","complex_similar","images/stimuli/spore_stims/complex_19_A_b.gif","middle","","","","",""
"","null","html-keyboard-response","50","324429","0.0-14.0-0.3","SS1613098609473","","","null","","","","","<p><img src= images/blank.png width =""200"" height = ""200"" style = ""float:right""></p><p><img src=images/blank.png width =""800"" height = ""200""></p>","","","","","","","","","","","",""
"","5062","sequential-stimulus-presentation","51","330312","0.0-14.0-1.3","SS1613098609473","trial","","40","800","5862","images/stimuli/spore_stims/complex_19_A_b.gif","images/stimuli/spore_stims/complex_19_B_b.gif","","","","","2","complex_similar","images/stimuli/spore_stims/complex_19_B_b.gif","left","","","","",""
"","null","html-keyboard-response","52","331309","0.0-14.0-0.4","SS1613098609473","","","null","","","","","<p><img src= images/blank.png width =""200"" height = ""200"" style = ""float:right""></p><p><img src=images/blank.png width =""800"" height = ""200""></p>","","","","","","","","","","","",""
"","1299","sequential-stimulus-presentation","53","333429","0.0-14.0-1.4","SS1613098609473","trial","","40","800","2099","images/stimuli/spore_stims/complex_19_A_b.gif","images/stimuli/spore_stims/complex_19_B_b.gif","","","","","2","complex_similar","images/stimuli/spore_stims/complex_19_B_b.gif","left","","","","",""
"","null","html-keyboard-response","54","334429","0.0-14.0-0.5","SS1613098609473","","","null","","","","","<p><img src= images/blank.png width =""200"" height = ""200"" style = ""float:right""></p><p><img src=images/blank.png width =""800"" height = ""200""></p>","","","","","","","","","","","",""
"","2727","sequential-stimulus-presentation","55","337978","0.0-14.0-1.5","SS1613098609473","trial","","40","800","3527","images/stimuli/spore_stims/complex_19_A_b.gif","images/stimuli/spore_stims/complex_19_B_b.gif","","","","","2","complex_similar","images/stimuli/spore_stims/complex_19_B_b.gif","left","","","","",""
"","null","html-keyboard-response","56","339079","0.0-14.0-0.6","SS1613098609473","","","null","","","","","<p><img src= images/blank.png width =""200"" height = ""200"" style = ""float:right""></p><p><img src=images/blank.png width =""800"" height = ""200""></p>","","","","","","","","","","","",""
"","4406","sequential-stimulus-presentation","57","344305","0.0-14.0-1.6","SS1613098609473","trial","","40","800","5206","images/stimuli/spore_stims/complex_19_A_b.gif","images/stimuli/spore_stims/complex_19_B_b.gif","","","","","2","complex_similar","images/stimuli/spore_stims/complex_19_B_b.gif","left","","","","",""
"","null","html-keyboard-response","58","345468","0.0-14.0-0.7","SS1613098609473","","","null","","","","","<p><img src= images/blank.png width =""200"" height = ""200"" style = ""float:right""></p><p><img src=images/blank.png width =""800"" height = ""200""></p>","","","","","","","","","","","",""
"","974","sequential-stimulus-presentation","59","347255","0.0-14.0-1.7","SS1613098609473","trial","","40","800","1774","images/stimuli/spore_stims/complex_19_A_b.gif","images/stimuli/spore_stims/complex_19_B_b.gif","","","","","2","complex_similar","images/stimuli/spore_stims/complex_19_B_b.gif","left","","","","",""
"","2489","html-keyboard-response","60","349754","0.0-15.0","SS1613098609473","pref_question","","50","","","","","<video width ='960' height = '540' style='padding-top:8%' autoplay muted><source src='images/stimuli/wall_pref.mp4' type='video/mp4'></video>","2","middle","45%","2","","","","","","","",""
"","7728","sequential-stimulus-presentation","61","358291","0.0-16.0","SS1613098609473","pref_reveal","","40","800","8528","null","null","","","","","2","","","","deviant","","","",""
"","null","html-keyboard-response","62","359309","0.0-17.0-0.0","SS1613098609473","","","null","","","","","<p><img src= images/blank.png width =""200"" height = ""200"" style = ""float:right""></p><p><img src=images/blank.png width =""800"" height = ""200""></p>","","","","","","","","","","","",""
"","3264","sequential-stimulus-presentation","63","363384","0.0-17.0-1.0","SS1613098609473","trial","","40","800","4064","images/stimuli/spore_stims/simple_13_B_a.gif","images/stimuli/spore_stims/simple_13_A_a.gif","","","","","3","simple_similar","images/stimuli/spore_stims/simple_13_A_a.gif","left","","","","",""
"","null","html-keyboard-response","64","364479","0.0-17.0-0.1","SS1613098609473","","","null","","","","","<p><img src= images/blank.png width =""200"" height = ""200"" style = ""float:right""></p><p><img src=images/blank.png width =""800"" height = ""200""></p>","","","","","","","","","","","",""
"","2754","sequential-stimulus-presentation","65","368053","0.0-17.0-1.1","SS1613098609473","trial","","40","800","3554","images/stimuli/spore_stims/simple_13_B_a.gif","images/stimuli/spore_stims/simple_13_A_a.gif","","","","","3","simple_similar","images/stimuli/spore_stims/simple_13_A_a.gif","left","","","","",""
"","null","html-keyboard-response","66","369189","0.0-17.0-0.2","SS1613098609473","","","null","","","","","<p><img src= images/blank.png width =""200"" height = ""200"" style = ""float:right""></p><p><img src=images/blank.png width =""800"" height = ""200""></p>","","","","","","","","","","","",""
"","789","sequential-stimulus-presentation","67","370798","0.0-17.0-1.2","SS1613098609473","trial","","40","800","1589","images/stimuli/spore_stims/simple_13_B_a.gif","images/stimuli/spore_stims/simple_13_A_a.gif","","","","","3","simple_similar","images/stimuli/spore_stims/simple_13_A_a.gif","left","","","","",""
"","null","html-keyboard-response","68","371688","0.0-17.0-0.3","SS1613098609473","","","null","","","","","<p><img src= images/blank.png width =""200"" height = ""200"" style = ""float:right""></p><p><img src=images/blank.png width =""800"" height = ""200""></p>","","","","","","","","","","","",""
"","1352","sequential-stimulus-presentation","69","373862","0.0-17.0-1.3","SS1613098609473","trial","","40","800","2152","images/stimuli/spore_stims/simple_13_B_a.gif","images/stimuli/spore_stims/simple_13_A_a.gif","","","","","3","simple_similar","images/stimuli/spore_stims/simple_13_A_a.gif","left","","","","",""
"","null","html-keyboard-response","70","375088","0.0-17.0-0.4","SS1613098609473","","","null","","","","","<p><img src= images/blank.png width =""200"" height = ""200"" style = ""float:right""></p><p><img src=images/blank.png width =""800"" height = ""200""></p>","","","","","","","","","","","",""
"","15145","sequential-stimulus-presentation","71","391055","0.0-17.0-1.4","SS1613098609473","trial","","40","800","15945","images/stimuli/spore_stims/simple_13_B_a.gif","images/stimuli/spore_stims/simple_13_A_a.gif","","","","","3","simple_similar","images/stimuli/spore_stims/simple_13_B_a.gif","middle","","","","",""
"","null","html-keyboard-response","72","392098","0.0-17.0-0.5","SS1613098609473","","","null","","","","","<p><img src= images/blank.png width =""200"" height = ""200"" style = ""float:right""></p><p><img src=images/blank.png width =""800"" height = ""200""></p>","","","","","","","","","","","",""
"","703","sequential-stimulus-presentation","73","393623","0.0-17.0-1.5","SS1613098609473","trial","","40","800","1503","images/stimuli/spore_stims/simple_13_B_a.gif","images/stimuli/spore_stims/simple_13_A_a.gif","","","","","3","simple_similar","images/stimuli/spore_stims/simple_13_A_a.gif","left","","","","",""
"","null","html-keyboard-response","74","394508","0.0-17.0-0.6","SS1613098609473","","","null","","","","","<p><img src= images/blank.png width =""200"" height = ""200"" style = ""float:right""></p><p><img src=images/blank.png width =""800"" height = ""200""></p>","","","","","","","","","","","",""
"","956","sequential-stimulus-presentation","75","396286","0.0-17.0-1.6","SS1613098609473","trial","","40","800","1756","images/stimuli/spore_stims/simple_13_B_a.gif","images/stimuli/spore_stims/simple_13_A_a.gif","","","","","3","simple_similar","images/stimuli/spore_stims/simple_13_A_a.gif","left","","","","",""
"","null","html-keyboard-response","76","397558","0.0-17.0-0.7","SS1613098609473","","","null","","","","","<p><img src= images/blank.png width =""200"" height = ""200"" style = ""float:right""></p><p><img src=images/blank.png width =""800"" height = ""200""></p>","","","","","","","","","","","",""
"","489","sequential-stimulus-presentation","77","398867","0.0-17.0-1.7","SS1613098609473","trial","","40","800","1289","images/stimuli/spore_stims/simple_13_B_a.gif","images/stimuli/spore_stims/simple_13_A_a.gif","","","","","3","simple_similar","images/stimuli/spore_stims/simple_13_A_a.gif","left","","","","",""
"","1882","html-keyboard-response","78","400760","0.0-18.0","SS1613098609473","pref_question","","51","","","","","<video width ='960' height = '540' style='padding-top:8%' autoplay muted><source src='images/stimuli/wall_pref.mp4' type='video/mp4'></video>","3","right","66%","3","","","","","","","",""
"","3766","sequential-stimulus-presentation","79","405345","0.0-19.0","SS1613098609473","pref_reveal","","40","800","4566","null","null","","","","","3","","","","novel","","","",""
"","null","html-keyboard-response","80","406528","0.0-20.0-0.0","SS1613098609473","","","null","","","","","<p><img src= images/blank.png width =""200"" height = ""200"" style = ""float:right""></p><p><img src=images/blank.png width =""800"" height = ""200""></p>","","","","","","","","","","","",""
"","4684","sequential-stimulus-presentation","81","412033","0.0-20.0-1.0","SS1613098609473","trial","","40","800","5484","images/stimuli/spore_stims/simple_11_B_d.gif","images/stimuli/spore_stims/simple_11_A_d.gif","","","","","4","simple_similar","images/stimuli/spore_stims/simple_11_A_d.gif","right","","","","",""
"","null","html-keyboard-response","82","413278","0.0-20.0-0.1","SS1613098609473","","","null","","","","","<p><img src= images/blank.png width =""200"" height = ""200"" style = ""float:right""></p><p><img src=images/blank.png width =""800"" height = ""200""></p>","","","","","","","","","","","",""
"","53","sequential-stimulus-presentation","83","414152","0.0-20.0-1.1","SS1613098609473","trial","","40","800","853","images/stimuli/spore_stims/simple_11_B_d.gif","images/stimuli/spore_stims/simple_11_A_d.gif","","","","","4","simple_similar","images/stimuli/spore_stims/simple_11_A_d.gif","right","","","","",""
"","null","html-keyboard-response","84","415088","0.0-20.0-0.2","SS1613098609473","","","null","","","","","<p><img src= images/blank.png width =""200"" height = ""200"" style = ""float:right""></p><p><img src=images/blank.png width =""800"" height = ""200""></p>","","","","","","","","","","","",""
"","4829","sequential-stimulus-presentation","85","420736","0.0-20.0-1.2","SS1613098609473","trial","","40","800","5629","images/stimuli/spore_stims/simple_11_B_d.gif","images/stimuli/spore_stims/simple_11_A_d.gif","","","","","4","simple_similar","images/stimuli/spore_stims/simple_11_B_d.gif","middle","","","","",""
"","null","html-keyboard-response","86","421949","0.0-20.0-0.3","SS1613098609473","","","null","","","","","<p><img src= images/blank.png width =""200"" height = ""200"" style = ""float:right""></p><p><img src=images/blank.png width =""800"" height = ""200""></p>","","","","","","","","","","","",""
"","2862","sequential-stimulus-presentation","87","425631","0.0-20.0-1.3","SS1613098609473","trial","","40","800","3662","images/stimuli/spore_stims/simple_11_B_d.gif","images/stimuli/spore_stims/simple_11_A_d.gif","","","","","4","simple_similar","images/stimuli/spore_stims/simple_11_A_d.gif","right","","","","",""
"","null","html-keyboard-response","88","426899","0.0-20.0-0.4","SS1613098609473","","","null","","","","","<p><img src= images/blank.png width =""200"" height = ""200"" style = ""float:right""></p><p><img src=images/blank.png width =""800"" height = ""200""></p>","","","","","","","","","","","",""
"","5934","sequential-stimulus-presentation","89","433653","0.0-20.0-1.4","SS1613098609473","trial","","40","800","6734","images/stimuli/spore_stims/simple_11_B_d.gif","images/stimuli/spore_stims/simple_11_A_d.gif","","","","","4","simple_similar","images/stimuli/spore_stims/simple_11_A_d.gif","right","","","","",""
"","null","html-keyboard-response","90","434739","0.0-20.0-0.5","SS1613098609473","","","null","","","","","<p><img src= images/blank.png width =""200"" height = ""200"" style = ""float:right""></p><p><img src=images/blank.png width =""800"" height = ""200""></p>","","","","","","","","","","","",""
"","1955","sequential-stimulus-presentation","91","437518","0.0-20.0-1.5","SS1613098609473","trial","","40","800","2755","images/stimuli/spore_stims/simple_11_B_d.gif","images/stimuli/spore_stims/simple_11_A_d.gif","","","","","4","simple_similar","images/stimuli/spore_stims/simple_11_A_d.gif","right","","","","",""
"","null","html-keyboard-response","92","438769","0.0-20.0-0.6","SS1613098609473","","","null","","","","","<p><img src= images/blank.png width =""200"" height = ""200"" style = ""float:right""></p><p><img src=images/blank.png width =""800"" height = ""200""></p>","","","","","","","","","","","",""
"","1806","sequential-stimulus-presentation","93","441388","0.0-20.0-1.6","SS1613098609473","trial","","40","800","2606","images/stimuli/spore_stims/simple_11_B_d.gif","images/stimuli/spore_stims/simple_11_A_d.gif","","","","","4","simple_similar","images/stimuli/spore_stims/simple_11_A_d.gif","right","","","","",""
"","null","html-keyboard-response","94","442611","0.0-20.0-0.7","SS1613098609473","","","null","","","","","<p><img src= images/blank.png width =""200"" height = ""200"" style = ""float:right""></p><p><img src=images/blank.png width =""800"" height = ""200""></p>","","","","","","","","","","","",""
"","2615","sequential-stimulus-presentation","95","446040","0.0-20.0-1.7","SS1613098609473","trial","","40","800","3415","images/stimuli/spore_stims/simple_11_B_d.gif","images/stimuli/spore_stims/simple_11_A_d.gif","","","","","4","simple_similar","images/stimuli/spore_stims/simple_11_A_d.gif","right","","","","",""
"","1587","html-keyboard-response","96","447638","0.0-21.0","SS1613098609473","pref_question","","50","","","","","<video width ='960' height = '540' style='padding-top:8%' autoplay muted><source src='images/stimuli/wall_pref.mp4' type='video/mp4'></video>","2","middle","45%","4","","","","","","","",""
"","3550","sequential-stimulus-presentation","97","452010","0.0-22.0","SS1613098609473","pref_reveal","","40","800","4350","null","null","","","","","4","","","","deviant","","","",""
"","null","html-keyboard-response","98","453111","0.0-23.0-0.0","SS1613098609473","","","null","","","","","<p><img src= images/blank.png width =""200"" height = ""200"" style = ""float:right""></p><p><img src=images/blank.png width =""800"" height = ""200""></p>","","","","","","","","","","","",""
"","5164","sequential-stimulus-presentation","99","459100","0.0-23.0-1.0","SS1613098609473","trial","","40","800","5964","images/stimuli/spore_stims/complex_01_A_c.gif","images/stimuli/spore_stims/complex_13_A_d.gif","","","","","5","complex_dissimilar","images/stimuli/spore_stims/complex_13_A_d.gif","left","","","","",""
"","null","html-keyboard-response","100","459990","0.0-23.0-0.1","SS1613098609473","","","null","","","","","<p><img src= images/blank.png width =""200"" height = ""200"" style = ""float:right""></p><p><img src=images/blank.png width =""800"" height = ""200""></p>","","","","","","","","","","","",""
"","4522","sequential-stimulus-presentation","101","465332","0.0-23.0-1.1","SS1613098609473","trial","","40","800","5322","images/stimuli/spore_stims/complex_01_A_c.gif","images/stimuli/spore_stims/complex_13_A_d.gif","","","","","5","complex_dissimilar","images/stimuli/spore_stims/complex_13_A_d.gif","left","","","","",""
"","null","html-keyboard-response","102","466560","0.0-23.0-0.2","SS1613098609473","","","null","","","","","<p><img src= images/blank.png width =""200"" height = ""200"" style = ""float:right""></p><p><img src=images/blank.png width =""800"" height = ""200""></p>","","","","","","","","","","","",""
"","3786","sequential-stimulus-presentation","103","471167","0.0-23.0-1.2","SS1613098609473","trial","","40","800","4586","images/stimuli/spore_stims/complex_01_A_c.gif","images/stimuli/spore_stims/complex_13_A_d.gif","","","","","5","complex_dissimilar","images/stimuli/spore_stims/complex_13_A_d.gif","left","","","","",""
"","null","html-keyboard-response","104","472050","0.0-23.0-0.3","SS1613098609473","","","null","","","","","<p><img src= images/blank.png width =""200"" height = ""200"" style = ""float:right""></p><p><img src=images/blank.png width =""800"" height = ""200""></p>","","","","","","","","","","","",""
"","12358","sequential-stimulus-presentation","105","485230","0.0-23.0-1.3","SS1613098609473","trial","","40","800","13158","images/stimuli/spore_stims/complex_01_A_c.gif","images/stimuli/spore_stims/complex_13_A_d.gif","","","","","5","complex_dissimilar","images/stimuli/spore_stims/complex_13_A_d.gif","left","","","","",""
"","null","html-keyboard-response","106","486160","0.0-23.0-0.4","SS1613098609473","","","null","","","","","<p><img src= images/blank.png width =""200"" height = ""200"" style = ""float:right""></p><p><img src=images/blank.png width =""800"" height = ""200""></p>","","","","","","","","","","","",""
"","9220","sequential-stimulus-presentation","107","496203","0.0-23.0-1.4","SS1613098609473","trial","","40","800","10020","images/stimuli/spore_stims/complex_01_A_c.gif","images/stimuli/spore_stims/complex_13_A_d.gif","","","","","5","complex_dissimilar","images/stimuli/spore_stims/complex_13_A_d.gif","left","","","","",""
"","null","html-keyboard-response","108","497052","0.0-23.0-0.5","SS1613098609473","","","null","","","","","<p><img src= images/blank.png width =""200"" height = ""200"" style = ""float:right""></p><p><img src=images/blank.png width =""800"" height = ""200""></p>","","","","","","","","","","","",""
"","18053","sequential-stimulus-presentation","109","515926","0.0-23.0-1.5","SS1613098609473","trial","","40","800","18853","images/stimuli/spore_stims/complex_01_A_c.gif","images/stimuli/spore_stims/complex_13_A_d.gif","","","","","5","complex_dissimilar","images/stimuli/spore_stims/complex_01_A_c.gif","right","","","","",""
"","null","html-keyboard-response","110","516792","0.0-23.0-0.6","SS1613098609473","","","null","","","","","<p><img src= images/blank.png width =""200"" height = ""200"" style = ""float:right""></p><p><img src=images/blank.png width =""800"" height = ""200""></p>","","","","","","","","","","","",""
"","3028","sequential-stimulus-presentation","111","520639","0.0-23.0-1.6","SS1613098609473","trial","","40","800","3828","images/stimuli/spore_stims/complex_01_A_c.gif","images/stimuli/spore_stims/complex_13_A_d.gif","","","","","5","complex_dissimilar","images/stimuli/spore_stims/complex_13_A_d.gif","left","","","","",""
"","null","html-keyboard-response","112","521631","0.0-23.0-0.7","SS1613098609473","","","null","","","","","<p><img src= images/blank.png width =""200"" height = ""200"" style = ""float:right""></p><p><img src=images/blank.png width =""800"" height = ""200""></p>","","","","","","","","","","","",""
"","7772","sequential-stimulus-presentation","113","530224","0.0-23.0-1.7","SS1613098609473","trial","","40","800","8572","images/stimuli/spore_stims/complex_01_A_c.gif","images/stimuli/spore_stims/complex_13_A_d.gif","","","","","5","complex_dissimilar","images/stimuli/spore_stims/complex_13_A_d.gif","left","","","","",""
"","5533","html-keyboard-response","114","535774","0.0-24.0","SS1613098609473","pref_question","","50","","","","","<video width ='960' height = '540' style='padding-top:8%' autoplay muted><source src='images/stimuli/wall_pref.mp4' type='video/mp4'></video>","2","middle","45%","5","","","","","","","",""
"","3442","sequential-stimulus-presentation","115","540044","0.0-25.0","SS1613098609473","pref_reveal","","40","800","4242","null","null","","","","","5","","","","novel","","","",""
"","null","html-keyboard-response","116","540974","0.0-26.0-0.0","SS1613098609473","","","null","","","","","<p><img src= images/blank.png width =""200"" height = ""200"" style = ""float:right""></p><p><img src=images/blank.png width =""800"" height = ""200""></p>","","","","","","","","","","","",""
"","4416","sequential-stimulus-presentation","117","546212","0.0-26.0-1.0","SS1613098609473","trial","","40","800","5216","images/stimuli/spore_stims/complex_18_A_a.gif","images/stimuli/spore_stims/complex_18_B_a.gif","","","","","6","complex_similar","images/stimuli/spore_stims/complex_18_B_a.gif","right","","","","",""
"","null","html-keyboard-response","118","547424","0.0-26.0-0.1","SS1613098609473","","","null","","","","","<p><img src= images/blank.png width =""200"" height = ""200"" style = ""float:right""></p><p><img src=images/blank.png width =""800"" height = ""200""></p>","","","","","","","","","","","",""
"","6644","sequential-stimulus-presentation","119","554889","0.0-26.0-1.1","SS1613098609473","trial","","40","800","7444","images/stimuli/spore_stims/complex_18_A_a.gif","images/stimuli/spore_stims/complex_18_B_a.gif","","","","","6","complex_similar","images/stimuli/spore_stims/complex_18_B_a.gif","right","","","","",""
"","null","html-keyboard-response","120","556174","0.0-26.0-0.2","SS1613098609473","","","null","","","","","<p><img src= images/blank.png width =""200"" height = ""200"" style = ""float:right""></p><p><img src=images/blank.png width =""800"" height = ""200""></p>","","","","","","","","","","","",""
"","8048","sequential-stimulus-presentation","121","565045","0.0-26.0-1.2","SS1613098609473","trial","","40","800","8848","images/stimuli/spore_stims/complex_18_A_a.gif","images/stimuli/spore_stims/complex_18_B_a.gif","","","","","6","complex_similar","images/stimuli/spore_stims/complex_18_B_a.gif","right","","","","",""
"","null","html-keyboard-response","122","566047","0.0-26.0-0.3","SS1613098609473","","","null","","","","","<p><img src= images/blank.png width =""200"" height = ""200"" style = ""float:right""></p><p><img src=images/blank.png width =""800"" height = ""200""></p>","","","","","","","","","","","",""
"","670","sequential-stimulus-presentation","123","567537","0.0-26.0-1.3","SS1613098609473","trial","","40","800","1470","images/stimuli/spore_stims/complex_18_A_a.gif","images/stimuli/spore_stims/complex_18_B_a.gif","","","","","6","complex_similar","images/stimuli/spore_stims/complex_18_B_a.gif","right","","","","",""
"","null","html-keyboard-response","124","568476","0.0-26.0-0.4","SS1613098609473","","","null","","","","","<p><img src= images/blank.png width =""200"" height = ""200"" style = ""float:right""></p><p><img src=images/blank.png width =""800"" height = ""200""></p>","","","","","","","","","","","",""
"","1472","sequential-stimulus-presentation","125","570771","0.0-26.0-1.4","SS1613098609473","trial","","40","800","2272","images/stimuli/spore_stims/complex_18_A_a.gif","images/stimuli/spore_stims/complex_18_B_a.gif","","","","","6","complex_similar","images/stimuli/spore_stims/complex_18_B_a.gif","right","","","","",""
"","null","html-keyboard-response","126","571928","0.0-26.0-0.5","SS1613098609473","","","null","","","","","<p><img src= images/blank.png width =""200"" height = ""200"" style = ""float:right""></p><p><img src=images/blank.png width =""800"" height = ""200""></p>","","","","","","","","","","","",""
"","1175","sequential-stimulus-presentation","127","573924","0.0-26.0-1.5","SS1613098609473","trial","","40","800","1975","images/stimuli/spore_stims/complex_18_A_a.gif","images/stimuli/spore_stims/complex_18_B_a.gif","","","","","6","complex_similar","images/stimuli/spore_stims/complex_18_B_a.gif","right","","","","",""
"","null","html-keyboard-response","128","575088","0.0-26.0-0.6","SS1613098609473","","","null","","","","","<p><img src= images/blank.png width =""200"" height = ""200"" style = ""float:right""></p><p><img src=images/blank.png width =""800"" height = ""200""></p>","","","","","","","","","","","",""
"","2468","sequential-stimulus-presentation","129","578378","0.0-26.0-1.6","SS1613098609473","trial","","40","800","3268","images/stimuli/spore_stims/complex_18_A_a.gif","images/stimuli/spore_stims/complex_18_B_a.gif","","","","","6","complex_similar","images/stimuli/spore_stims/complex_18_A_a.gif","left","","","","",""
"","null","html-keyboard-response","130","579200","0.0-26.0-0.7","SS1613098609473","","","null","","","","","<p><img src= images/blank.png width =""200"" height = ""200"" style = ""float:right""></p><p><img src=images/blank.png width =""800"" height = ""200""></p>","","","","","","","","","","","",""
"","1930","sequential-stimulus-presentation","131","581951","0.0-26.0-1.7","SS1613098609473","trial","","40","800","2730","images/stimuli/spore_stims/complex_18_A_a.gif","images/stimuli/spore_stims/complex_18_B_a.gif","","","","","6","complex_similar","images/stimuli/spore_stims/complex_18_B_a.gif","right","","","","",""
"","5967","html-keyboard-response","132","587932","0.0-27.0","SS1613098609473","pref_question","","50","","","","","<video width ='960' height = '540' style='padding-top:8%' autoplay muted><source src='images/stimuli/wall_pref.mp4' type='video/mp4'></video>","2","middle","45%","6","","","","","","","",""
"","13317","sequential-stimulus-presentation","133","602067","0.0-28.0","SS1613098609473","pref_reveal","","40","800","14117","null","null","","","","","6","","","","novel","","","",""
"","null","html-keyboard-response","134","603033","0.0-29.0-0.0","SS1613098609473","","","null","","","","","<p><img src= images/blank.png width =""200"" height = ""200"" style = ""float:right""></p><p><img src=images/blank.png width =""800"" height = ""200""></p>","","","","","","","","","","","",""
"","6458","sequential-stimulus-presentation","135","610312","0.0-29.0-1.0","SS1613098609473","trial","","40","800","7258","images/stimuli/spore_stims/complex_06_A_b.gif","images/stimuli/spore_stims/complex_20_A_d.gif","","","","","7","complex_dissimilar","images/stimuli/spore_stims/complex_20_A_d.gif","left","","","","",""
"","null","html-keyboard-response","136","611164","0.0-29.0-0.1","SS1613098609473","","","null","","","","","<p><img src= images/blank.png width =""200"" height = ""200"" style = ""float:right""></p><p><img src=images/blank.png width =""800"" height = ""200""></p>","","","","","","","","","","","",""
"","7516","sequential-stimulus-presentation","137","619502","0.0-29.0-1.1","SS1613098609473","trial","","40","800","8316","images/stimuli/spore_stims/complex_06_A_b.gif","images/stimuli/spore_stims/complex_20_A_d.gif","","","","","7","complex_dissimilar","images/stimuli/spore_stims/complex_20_A_d.gif","left","","","","",""
"","null","html-keyboard-response","138","620426","0.0-29.0-0.2","SS1613098609473","","","null","","","","","<p><img src= images/blank.png width =""200"" height = ""200"" style = ""float:right""></p><p><img src=images/blank.png width =""800"" height = ""200""></p>","","","","","","","","","","","",""
"","2454","sequential-stimulus-presentation","139","623700","0.0-29.0-1.2","SS1613098609473","trial","","40","800","3254","images/stimuli/spore_stims/complex_06_A_b.gif","images/stimuli/spore_stims/complex_20_A_d.gif","","","","","7","complex_dissimilar","images/stimuli/spore_stims/complex_20_A_d.gif","left","","","","",""
"","null","html-keyboard-response","140","624506","0.0-29.0-0.3","SS1613098609473","","","null","","","","","<p><img src= images/blank.png width =""200"" height = ""200"" style = ""float:right""></p><p><img src=images/blank.png width =""800"" height = ""200""></p>","","","","","","","","","","","",""
"","1687","sequential-stimulus-presentation","141","627014","0.0-29.0-1.3","SS1613098609473","trial","","40","800","2487","images/stimuli/spore_stims/complex_06_A_b.gif","images/stimuli/spore_stims/complex_20_A_d.gif","","","","","7","complex_dissimilar","images/stimuli/spore_stims/complex_20_A_d.gif","left","","","","",""
"","null","html-keyboard-response","142","628066","0.0-29.0-0.4","SS1613098609473","","","null","","","","","<p><img src= images/blank.png width =""200"" height = ""200"" style = ""float:right""></p><p><img src=images/blank.png width =""800"" height = ""200""></p>","","","","","","","","","","","",""
"","3138","sequential-stimulus-presentation","143","632023","0.0-29.0-1.4","SS1613098609473","trial","","40","800","3938","images/stimuli/spore_stims/complex_06_A_b.gif","images/stimuli/spore_stims/complex_20_A_d.gif","","","","","7","complex_dissimilar","images/stimuli/spore_stims/complex_06_A_b.gif","middle","","","","",""
"","null","html-keyboard-response","144","633084","0.0-29.0-0.5","SS1613098609473","","","null","","","","","<p><img src= images/blank.png width =""200"" height = ""200"" style = ""float:right""></p><p><img src=images/blank.png width =""800"" height = ""200""></p>","","","","","","","","","","","",""
"","11730","sequential-stimulus-presentation","145","645636","0.0-29.0-1.5","SS1613098609473","trial","","40","800","12530","images/stimuli/spore_stims/complex_06_A_b.gif","images/stimuli/spore_stims/complex_20_A_d.gif","","","","","7","complex_dissimilar","images/stimuli/spore_stims/complex_20_A_d.gif","left","","","","",""
"","null","html-keyboard-response","146","646855","0.0-29.0-0.6","SS1613098609473","","","null","","","","","<p><img src= images/blank.png width =""200"" height = ""200"" style = ""float:right""></p><p><img src=images/blank.png width =""800"" height = ""200""></p>","","","","","","","","","","","",""
"","2104","sequential-stimulus-presentation","147","649780","0.0-29.0-1.6","SS1613098609473","trial","","40","800","2904","images/stimuli/spore_stims/complex_06_A_b.gif","images/stimuli/spore_stims/complex_20_A_d.gif","","","","","7","complex_dissimilar","images/stimuli/spore_stims/complex_20_A_d.gif","left","","","","",""
"","null","html-keyboard-response","148","650865","0.0-29.0-0.7","SS1613098609473","","","null","","","","","<p><img src= images/blank.png width =""200"" height = ""200"" style = ""float:right""></p><p><img src=images/blank.png width =""800"" height = ""200""></p>","","","","","","","","","","","",""
"","1878","sequential-stimulus-presentation","149","653562","0.0-29.0-1.7","SS1613098609473","trial","","40","800","2678","images/stimuli/spore_stims/complex_06_A_b.gif","images/stimuli/spore_stims/complex_20_A_d.gif","","","","","7","complex_dissimilar","images/stimuli/spore_stims/complex_20_A_d.gif","left","","","","",""
"","2354","html-keyboard-response","150","655931","0.0-30.0","SS1613098609473","pref_question","","50","","","","","<video width ='960' height = '540' style='padding-top:8%' autoplay muted><source src='images/stimuli/wall_pref.mp4' type='video/mp4'></video>","2","middle","45%","7","","","","","","","",""
"","2437","sequential-stimulus-presentation","151","659192","0.0-31.0","SS1613098609473","pref_reveal","","40","800","3237","null","null","","","","","7","","","","deviant","","","",""
"","null","html-keyboard-response","152","660234","0.0-32.0-0.0","SS1613098609473","","","null","","","","","<p><img src= images/blank.png width =""200"" height = ""200"" style = ""float:right""></p><p><img src=images/blank.png width =""800"" height = ""200""></p>","","","","","","","","","","","",""
"","1686","sequential-stimulus-presentation","153","662741","0.0-32.0-1.0","SS1613098609473","trial","","40","800","2486","images/stimuli/spore_stims/complex_17_A_a.gif","images/stimuli/spore_stims/complex_17_B_a.gif","","","","","8","complex_similar","images/stimuli/spore_stims/complex_17_B_a.gif","right","","","","",""
"","null","html-keyboard-response","154","663694","0.0-32.0-0.1","SS1613098609473","","","null","","","","","<p><img src= images/blank.png width =""200"" height = ""200"" style = ""float:right""></p><p><img src=images/blank.png width =""800"" height = ""200""></p>","","","","","","","","","","","",""
"","1036","sequential-stimulus-presentation","155","665552","0.0-32.0-1.1","SS1613098609473","trial","","40","800","1836","images/stimuli/spore_stims/complex_17_A_a.gif","images/stimuli/spore_stims/complex_17_B_a.gif","","","","","8","complex_similar","images/stimuli/spore_stims/complex_17_B_a.gif","right","","","","",""
"","null","html-keyboard-response","156","666484","0.0-32.0-0.2","SS1613098609473","","","null","","","","","<p><img src= images/blank.png width =""200"" height = ""200"" style = ""float:right""></p><p><img src=images/blank.png width =""800"" height = ""200""></p>","","","","","","","","","","","",""
"","468","sequential-stimulus-presentation","157","667774","0.0-32.0-1.2","SS1613098609473","trial","","40","800","1268","images/stimuli/spore_stims/complex_17_A_a.gif","images/stimuli/spore_stims/complex_17_B_a.gif","","","","","8","complex_similar","images/stimuli/spore_stims/complex_17_B_a.gif","right","","","","",""
"","null","html-keyboard-response","158","668664","0.0-32.0-0.3","SS1613098609473","","","null","","","","","<p><img src= images/blank.png width =""200"" height = ""200"" style = ""float:right""></p><p><img src=images/blank.png width =""800"" height = ""200""></p>","","","","","","","","","","","",""
"","497","sequential-stimulus-presentation","159","669982","0.0-32.0-1.3","SS1613098609473","trial","","40","800","1297","images/stimuli/spore_stims/complex_17_A_a.gif","images/stimuli/spore_stims/complex_17_B_a.gif","","","","","8","complex_similar","images/stimuli/spore_stims/complex_17_B_a.gif","right","","","","",""
"","null","html-keyboard-response","160","671174","0.0-32.0-0.4","SS1613098609473","","","null","","","","","<p><img src= images/blank.png width =""200"" height = ""200"" style = ""float:right""></p><p><img src=images/blank.png width =""800"" height = ""200""></p>","","","","","","","","","","","",""
"","324","sequential-stimulus-presentation","161","672319","0.0-32.0-1.4","SS1613098609473","trial","","40","800","1124","images/stimuli/spore_stims/complex_17_A_a.gif","images/stimuli/spore_stims/complex_17_B_a.gif","","","","","8","complex_similar","images/stimuli/spore_stims/complex_17_B_a.gif","right","","","","",""
"","null","html-keyboard-response","162","673364","0.0-32.0-0.5","SS1613098609473","","","null","","","","","<p><img src= images/blank.png width =""200"" height = ""200"" style = ""float:right""></p><p><img src=images/blank.png width =""800"" height = ""200""></p>","","","","","","","","","","","",""
"","750","sequential-stimulus-presentation","163","674936","0.0-32.0-1.5","SS1613098609473","trial","","40","800","1550","images/stimuli/spore_stims/complex_17_A_a.gif","images/stimuli/spore_stims/complex_17_B_a.gif","","","","","8","complex_similar","images/stimuli/spore_stims/complex_17_A_a.gif","left","","","","",""
"","null","html-keyboard-response","164","676164","0.0-32.0-0.6","SS1613098609473","","","null","","","","","<p><img src= images/blank.png width =""200"" height = ""200"" style = ""float:right""></p><p><img src=images/blank.png width =""800"" height = ""200""></p>","","","","","","","","","","","",""
"","447","sequential-stimulus-presentation","165","677432","0.0-32.0-1.6","SS1613098609473","trial","","40","800","1247","images/stimuli/spore_stims/complex_17_A_a.gif","images/stimuli/spore_stims/complex_17_B_a.gif","","","","","8","complex_similar","images/stimuli/spore_stims/complex_17_B_a.gif","right","","","","",""
"","null","html-keyboard-response","166","678334","0.0-32.0-0.7","SS1613098609473","","","null","","","","","<p><img src= images/blank.png width =""200"" height = ""200"" style = ""float:right""></p><p><img src=images/blank.png width =""800"" height = ""200""></p>","","","","","","","","","","","",""
"","896","sequential-stimulus-presentation","167","680052","0.0-32.0-1.7","SS1613098609473","trial","","40","800","1696","images/stimuli/spore_stims/complex_17_A_a.gif","images/stimuli/spore_stims/complex_17_B_a.gif","","","","","8","complex_similar","images/stimuli/spore_stims/complex_17_B_a.gif","right","","","","",""
"","7355","html-keyboard-response","168","687417","0.0-33.0","SS1613098609473","pref_question","","50","","","","","<video width ='960' height = '540' style='padding-top:8%' autoplay muted><source src='images/stimuli/wall_pref.mp4' type='video/mp4'></video>","2","middle","45%","8","","","","","","","",""
"","1925","sequential-stimulus-presentation","169","690162","0.0-34.0","SS1613098609473","pref_reveal","","40","800","2725","null","null","","","","","8","","","","novel","","","",""
"","null","html-keyboard-response","170","691258","0.0-35.0-0.0","SS1613098609473","","","null","","","","","<p><img src= images/blank.png width =""200"" height = ""200"" style = ""float:right""></p><p><img src=images/blank.png width =""800"" height = ""200""></p>","","","","","","","","","","","",""
"","3225","sequential-stimulus-presentation","171","695300","0.0-35.0-1.0","SS1613098609473","trial","","40","800","4025","images/stimuli/spore_stims/simple_10_A_b.gif","images/stimuli/spore_stims/simple_10_B_b.gif","","","","","9","simple_similar","images/stimuli/spore_stims/simple_10_B_b.gif","middle","","","","",""
"","null","html-keyboard-response","172","696611","0.0-35.0-0.1","SS1613098609473","","","null","","","","","<p><img src= images/blank.png width =""200"" height = ""200"" style = ""float:right""></p><p><img src=images/blank.png width =""800"" height = ""200""></p>","","","","","","","","","","","",""
"","1548","sequential-stimulus-presentation","173","698979","0.0-35.0-1.1","SS1613098609473","trial","","40","800","2348","images/stimuli/spore_stims/simple_10_A_b.gif","images/stimuli/spore_stims/simple_10_B_b.gif","","","","","9","simple_similar","images/stimuli/spore_stims/simple_10_B_b.gif","middle","","","","",""
"","null","html-keyboard-response","174","700001","0.0-35.0-0.2","SS1613098609473","","","null","","","","","<p><img src= images/blank.png width =""200"" height = ""200"" style = ""float:right""></p><p><img src=images/blank.png width =""800"" height = ""200""></p>","","","","","","","","","","","",""
"","324","sequential-stimulus-presentation","175","701150","0.0-35.0-1.2","SS1613098609473","trial","","40","800","1124","images/stimuli/spore_stims/simple_10_A_b.gif","images/stimuli/spore_stims/simple_10_B_b.gif","","","","","9","simple_similar","images/stimuli/spore_stims/simple_10_B_b.gif","middle","","","","",""
"","null","html-keyboard-response","176","702205","0.0-35.0-0.3","SS1613098609473","","","null","","","","","<p><img src= images/blank.png width =""200"" height = ""200"" style = ""float:right""></p><p><img src=images/blank.png width =""800"" height = ""200""></p>","","","","","","","","","","","",""
"","1399","sequential-stimulus-presentation","177","704432","0.0-35.0-1.3","SS1613098609473","trial","","40","800","2199","images/stimuli/spore_stims/simple_10_A_b.gif","images/stimuli/spore_stims/simple_10_B_b.gif","","","","","9","simple_similar","images/stimuli/spore_stims/simple_10_B_b.gif","middle","","","","",""
"","null","html-keyboard-response","178","705303","0.0-35.0-0.4","SS1613098609473","","","null","","","","","<p><img src= images/blank.png width =""200"" height = ""200"" style = ""float:right""></p><p><img src=images/blank.png width =""800"" height = ""200""></p>","","","","","","","","","","","",""
"","1416","sequential-stimulus-presentation","179","707551","0.0-35.0-1.4","SS1613098609473","trial","","40","800","2216","images/stimuli/spore_stims/simple_10_A_b.gif","images/stimuli/spore_stims/simple_10_B_b.gif","","","","","9","simple_similar","images/stimuli/spore_stims/simple_10_B_b.gif","middle","","","","",""
"","null","html-keyboard-response","180","708795","0.0-35.0-0.5","SS1613098609473","","","null","","","","","<p><img src= images/blank.png width =""200"" height = ""200"" style = ""float:right""></p><p><img src=images/blank.png width =""800"" height = ""200""></p>","","","","","","","","","","","",""
"","716","sequential-stimulus-presentation","181","710322","0.0-35.0-1.5","SS1613098609473","trial","","40","800","1516","images/stimuli/spore_stims/simple_10_A_b.gif","images/stimuli/spore_stims/simple_10_B_b.gif","","","","","9","simple_similar","images/stimuli/spore_stims/simple_10_A_b.gif","right","","","","",""
"","null","html-keyboard-response","182","711175","0.0-35.0-0.6","SS1613098609473","","","null","","","","","<p><img src= images/blank.png width =""200"" height = ""200"" style = ""float:right""></p><p><img src=images/blank.png width =""800"" height = ""200""></p>","","","","","","","","","","","",""
"","1477","sequential-stimulus-presentation","183","713473","0.0-35.0-1.6","SS1613098609473","trial","","40","800","2277","images/stimuli/spore_stims/simple_10_A_b.gif","images/stimuli/spore_stims/simple_10_B_b.gif","","","","","9","simple_similar","images/stimuli/spore_stims/simple_10_B_b.gif","middle","","","","",""
"","null","html-keyboard-response","184","714515","0.0-35.0-0.7","SS1613098609473","","","null","","","","","<p><img src= images/blank.png width =""200"" height = ""200"" style = ""float:right""></p><p><img src=images/blank.png width =""800"" height = ""200""></p>","","","","","","","","","","","",""
"","1639","sequential-stimulus-presentation","185","716969","0.0-35.0-1.7","SS1613098609473","trial","","40","800","2439","images/stimuli/spore_stims/simple_10_A_b.gif","images/stimuli/spore_stims/simple_10_B_b.gif","","","","","9","simple_similar","images/stimuli/spore_stims/simple_10_B_b.gif","middle","","","","",""
"","4979","html-keyboard-response","186","721954","0.0-36.0","SS1613098609473","pref_question","","51","","","","","<video width ='960' height = '540' style='padding-top:8%' autoplay muted><source src='images/stimuli/wall_pref.mp4' type='video/mp4'></video>","3","right","66%","9","","","","","","","",""
"","2779","sequential-stimulus-presentation","187","725561","0.0-37.0","SS1613098609473","pref_reveal","","40","800","3579","null","null","","","","","9","","","","deviant","","","",""
"","null","html-keyboard-response","188","726691","0.0-38.0-0.0","SS1613098609473","","","null","","","","","<p><img src= images/blank.png width =""200"" height = ""200"" style = ""float:right""></p><p><img src=images/blank.png width =""800"" height = ""200""></p>","","","","","","","","","","","",""
"","4472","sequential-stimulus-presentation","189","731984","0.0-38.0-1.0","SS1613098609473","trial","","40","800","5272","images/stimuli/spore_stims/complex_18_A_d.gif","images/stimuli/spore_stims/complex_13_B_c.gif","","","","","10","complex_dissimilar","images/stimuli/spore_stims/complex_13_B_c.gif","left","","","","",""
"","null","html-keyboard-response","190","733231","0.0-38.0-0.1","SS1613098609473","","","null","","","","","<p><img src= images/blank.png width =""200"" height = ""200"" style = ""float:right""></p><p><img src=images/blank.png width =""800"" height = ""200""></p>","","","","","","","","","","","",""
"","1206","sequential-stimulus-presentation","191","735257","0.0-38.0-1.1","SS1613098609473","trial","","40","800","2006","images/stimuli/spore_stims/complex_18_A_d.gif","images/stimuli/spore_stims/complex_13_B_c.gif","","","","","10","complex_dissimilar","images/stimuli/spore_stims/complex_13_B_c.gif","left","","","","",""
"","null","html-keyboard-response","192","736141","0.0-38.0-0.2","SS1613098609473","","","null","","","","","<p><img src= images/blank.png width =""200"" height = ""200"" style = ""float:right""></p><p><img src=images/blank.png width =""800"" height = ""200""></p>","","","","","","","","","","","",""
"","535","sequential-stimulus-presentation","193","737496","0.0-38.0-1.2","SS1613098609473","trial","","40","800","1335","images/stimuli/spore_stims/complex_18_A_d.gif","images/stimuli/spore_stims/complex_13_B_c.gif","","","","","10","complex_dissimilar","images/stimuli/spore_stims/complex_13_B_c.gif","left","","","","",""
"","null","html-keyboard-response","194","738500","0.0-38.0-0.3","SS1613098609473","","","null","","","","","<p><img src= images/blank.png width =""200"" height = ""200"" style = ""float:right""></p><p><img src=images/blank.png width =""800"" height = ""200""></p>","","","","","","","","","","","",""
"","2237","sequential-stimulus-presentation","195","741567","0.0-38.0-1.3","SS1613098609473","trial","","40","800","3037","images/stimuli/spore_stims/complex_18_A_d.gif","images/stimuli/spore_stims/complex_13_B_c.gif","","","","","10","complex_dissimilar","images/stimuli/spore_stims/complex_13_B_c.gif","left","","","","",""
"","null","html-keyboard-response","196","742615","0.0-38.0-0.4","SS1613098609473","","","null","","","","","<p><img src= images/blank.png width =""200"" height = ""200"" style = ""float:right""></p><p><img src=images/blank.png width =""800"" height = ""200""></p>","","","","","","","","","","","",""
"","1724","sequential-stimulus-presentation","197","745160","0.0-38.0-1.4","SS1613098609473","trial","","40","800","2524","images/stimuli/spore_stims/complex_18_A_d.gif","images/stimuli/spore_stims/complex_13_B_c.gif","","","","","10","complex_dissimilar","images/stimuli/spore_stims/complex_13_B_c.gif","left","","","","",""
"","null","html-keyboard-response","198","746115","0.0-38.0-0.5","SS1613098609473","","","null","","","","","<p><img src= images/blank.png width =""200"" height = ""200"" style = ""float:right""></p><p><img src=images/blank.png width =""800"" height = ""200""></p>","","","","","","","","","","","",""
"","3374","sequential-stimulus-presentation","199","750311","0.0-38.0-1.5","SS1613098609473","trial","","40","800","4174","images/stimuli/spore_stims/complex_18_A_d.gif","images/stimuli/spore_stims/complex_13_B_c.gif","","","","","10","complex_dissimilar","images/stimuli/spore_stims/complex_13_B_c.gif","left","","","","",""
"","null","html-keyboard-response","200","751254","0.0-38.0-0.6","SS1613098609473","","","null","","","","","<p><img src= images/blank.png width =""200"" height = ""200"" style = ""float:right""></p><p><img src=images/blank.png width =""800"" height = ""200""></p>","","","","","","","","","","","",""
"","2505","sequential-stimulus-presentation","201","754578","0.0-38.0-1.6","SS1613098609473","trial","","40","800","3305","images/stimuli/spore_stims/complex_18_A_d.gif","images/stimuli/spore_stims/complex_13_B_c.gif","","","","","10","complex_dissimilar","images/stimuli/spore_stims/complex_18_A_d.gif","middle","","","","",""
"","null","html-keyboard-response","202","755474","0.0-38.0-0.7","SS1613098609473","","","null","","","","","<p><img src= images/blank.png width =""200"" height = ""200"" style = ""float:right""></p><p><img src=images/blank.png width =""800"" height = ""200""></p>","","","","","","","","","","","",""
"","823","sequential-stimulus-presentation","203","757108","0.0-38.0-1.7","SS1613098609473","trial","","40","800","1623","images/stimuli/spore_stims/complex_18_A_d.gif","images/stimuli/spore_stims/complex_13_B_c.gif","","","","","10","complex_dissimilar","images/stimuli/spore_stims/complex_13_B_c.gif","left","","","","",""
"","6595","html-keyboard-response","204","763717","0.0-39.0","SS1613098609473","pref_question","","51","","","","","<video width ='960' height = '540' style='padding-top:8%' autoplay muted><source src='images/stimuli/wall_pref.mp4' type='video/mp4'></video>","3","right","66%","10","","","","","","","",""
"","3835","sequential-stimulus-presentation","205","768371","0.0-40.0","SS1613098609473","pref_reveal","","40","800","4635","null","null","","","","","10","","","","novel","","","",""
"","null","html-keyboard-response","206","769274","0.0-41.0-0.0","SS1613098609473","","","null","","","","","<p><img src= images/blank.png width =""200"" height = ""200"" style = ""float:right""></p><p><img src=images/blank.png width =""800"" height = ""200""></p>","","","","","","","","","","","",""
"","1832","sequential-stimulus-presentation","207","771936","0.0-41.0-1.0","SS1613098609473","trial","","40","800","2632","images/stimuli/spore_stims/simple_09_A_c.gif","images/stimuli/spore_stims/simple_09_B_c.gif","","","","","11","simple_similar","images/stimuli/spore_stims/simple_09_B_c.gif","right","","","","",""
"","null","html-keyboard-response","208","773004","0.0-41.0-0.1","SS1613098609473","","","null","","","","","<p><img src= images/blank.png width =""200"" height = ""200"" style = ""float:right""></p><p><img src=images/blank.png width =""800"" height = ""200""></p>","","","","","","","","","","","",""
"","1358","sequential-stimulus-presentation","209","775183","0.0-41.0-1.1","SS1613098609473","trial","","40","800","2158","images/stimuli/spore_stims/simple_09_A_c.gif","images/stimuli/spore_stims/simple_09_B_c.gif","","","","","11","simple_similar","images/stimuli/spore_stims/simple_09_B_c.gif","right","","","","",""
"","null","html-keyboard-response","210","776254","0.0-41.0-0.2","SS1613098609473","","","null","","","","","<p><img src= images/blank.png width =""200"" height = ""200"" style = ""float:right""></p><p><img src=images/blank.png width =""800"" height = ""200""></p>","","","","","","","","","","","",""
"","2489","sequential-stimulus-presentation","211","779564","0.0-41.0-1.2","SS1613098609473","trial","","40","800","3289","images/stimuli/spore_stims/simple_09_A_c.gif","images/stimuli/spore_stims/simple_09_B_c.gif","","","","","11","simple_similar","images/stimuli/spore_stims/simple_09_B_c.gif","right","","","","",""
"","null","html-keyboard-response","212","780644","0.0-41.0-0.3","SS1613098609473","","","null","","","","","<p><img src= images/blank.png width =""200"" height = ""200"" style = ""float:right""></p><p><img src=images/blank.png width =""800"" height = ""200""></p>","","","","","","","","","","","",""
"","1823","sequential-stimulus-presentation","213","783287","0.0-41.0-1.3","SS1613098609473","trial","","40","800","2623","images/stimuli/spore_stims/simple_09_A_c.gif","images/stimuli/spore_stims/simple_09_B_c.gif","","","","","11","simple_similar","images/stimuli/spore_stims/simple_09_B_c.gif","right","","","","",""
"","null","html-keyboard-response","214","784204","0.0-41.0-0.4","SS1613098609473","","","null","","","","","<p><img src= images/blank.png width =""200"" height = ""200"" style = ""float:right""></p><p><img src=images/blank.png width =""800"" height = ""200""></p>","","","","","","","","","","","",""
"","841","sequential-stimulus-presentation","215","785866","0.0-41.0-1.4","SS1613098609473","trial","","40","800","1641","images/stimuli/spore_stims/simple_09_A_c.gif","images/stimuli/spore_stims/simple_09_B_c.gif","","","","","11","simple_similar","images/stimuli/spore_stims/simple_09_B_c.gif","right","","","","",""
"","null","html-keyboard-response","216","787064","0.0-41.0-0.5","SS1613098609473","","","null","","","","","<p><img src= images/blank.png width =""200"" height = ""200"" style = ""float:right""></p><p><img src=images/blank.png width =""800"" height = ""200""></p>","","","","","","","","","","","",""
"","318","sequential-stimulus-presentation","217","788202","0.0-41.0-1.5","SS1613098609473","trial","","40","800","1118","images/stimuli/spore_stims/simple_09_A_c.gif","images/stimuli/spore_stims/simple_09_B_c.gif","","","","","11","simple_similar","images/stimuli/spore_stims/simple_09_B_c.gif","right","","","","",""
"","null","html-keyboard-response","218","789193","0.0-41.0-0.6","SS1613098609473","","","null","","","","","<p><img src= images/blank.png width =""200"" height = ""200"" style = ""float:right""></p><p><img src=images/blank.png width =""800"" height = ""200""></p>","","","","","","","","","","","",""
"","3175","sequential-stimulus-presentation","219","793190","0.0-41.0-1.6","SS1613098609473","trial","","40","800","3975","images/stimuli/spore_stims/simple_09_A_c.gif","images/stimuli/spore_stims/simple_09_B_c.gif","","","","","11","simple_similar","images/stimuli/spore_stims/simple_09_A_c.gif","left","","","","",""
"","null","html-keyboard-response","220","794323","0.0-41.0-0.7","SS1613098609473","","","null","","","","","<p><img src= images/blank.png width =""200"" height = ""200"" style = ""float:right""></p><p><img src=images/blank.png width =""800"" height = ""200""></p>","","","","","","","","","","","",""
"","387","sequential-stimulus-presentation","221","795534","0.0-41.0-1.7","SS1613098609473","trial","","40","800","1187","images/stimuli/spore_stims/simple_09_A_c.gif","images/stimuli/spore_stims/simple_09_B_c.gif","","","","","11","simple_similar","images/stimuli/spore_stims/simple_09_B_c.gif","right","","","","",""
"","3313","html-keyboard-response","222","798871","0.0-42.0","SS1613098609473","pref_question","","98","","","","","<video width ='960' height = '540' style='padding-top:8%' autoplay muted><source src='images/stimuli/wall_pref.mp4' type='video/mp4'></video>","2","middle","45%","11","","","","","","","",""
"","6213","sequential-stimulus-presentation","223","805912","0.0-43.0","SS1613098609473","pref_reveal","","40","800","7013","null","null","","","","","11","","","","novel","","","",""
"","null","html-keyboard-response","224","806807","0.0-44.0-0.0","SS1613098609473","","","null","","","","","<p><img src= images/blank.png width =""200"" height = ""200"" style = ""float:right""></p><p><img src=images/blank.png width =""800"" height = ""200""></p>","","","","","","","","","","","",""
"","3533","sequential-stimulus-presentation","225","811169","0.0-44.0-1.0","SS1613098609473","trial","","40","800","4333","images/stimuli/spore_stims/complex_14_B_b.gif","images/stimuli/spore_stims/complex_14_A_b.gif","","","","","12","complex_similar","images/stimuli/spore_stims/complex_14_A_b.gif","middle","","","","",""
"","null","html-keyboard-response","226","812471","0.0-44.0-0.1","SS1613098609473","","","null","","","","","<p><img src= images/blank.png width =""200"" height = ""200"" style = ""float:right""></p><p><img src=images/blank.png width =""800"" height = ""200""></p>","","","","","","","","","","","",""
"","4217","sequential-stimulus-presentation","227","817508","0.0-44.0-1.1","SS1613098609473","trial","","40","800","5017","images/stimuli/spore_stims/complex_14_B_b.gif","images/stimuli/spore_stims/complex_14_A_b.gif","","","","","12","complex_similar","images/stimuli/spore_stims/complex_14_A_b.gif","middle","","","","",""
"","null","html-keyboard-response","228","818771","0.0-44.0-0.2","SS1613098609473","","","null","","","","","<p><img src= images/blank.png width =""200"" height = ""200"" style = ""float:right""></p><p><img src=images/blank.png width =""800"" height = ""200""></p>","","","","","","","","","","","",""
"","1104","sequential-stimulus-presentation","229","820696","0.0-44.0-1.2","SS1613098609473","trial","","40","800","1904","images/stimuli/spore_stims/complex_14_B_b.gif","images/stimuli/spore_stims/complex_14_A_b.gif","","","","","12","complex_similar","images/stimuli/spore_stims/complex_14_A_b.gif","middle","","","","",""
"","null","html-keyboard-response","230","821984","0.0-44.0-0.3","SS1613098609473","","","null","","","","","<p><img src= images/blank.png width =""200"" height = ""200"" style = ""float:right""></p><p><img src=images/blank.png width =""800"" height = ""200""></p>","","","","","","","","","","","",""
"","5954","sequential-stimulus-presentation","231","828758","0.0-44.0-1.3","SS1613098609473","trial","","40","800","6754","images/stimuli/spore_stims/complex_14_B_b.gif","images/stimuli/spore_stims/complex_14_A_b.gif","","","","","12","complex_similar","images/stimuli/spore_stims/complex_14_B_b.gif","left","","","","",""
"","null","html-keyboard-response","232","829893","0.0-44.0-0.4","SS1613098609473","","","null","","","","","<p><img src= images/blank.png width =""200"" height = ""200"" style = ""float:right""></p><p><img src=images/blank.png width =""800"" height = ""200""></p>","","","","","","","","","","","",""
"","2568","sequential-stimulus-presentation","233","833298","0.0-44.0-1.4","SS1613098609473","trial","","40","800","3368","images/stimuli/spore_stims/complex_14_B_b.gif","images/stimuli/spore_stims/complex_14_A_b.gif","","","","","12","complex_similar","images/stimuli/spore_stims/complex_14_A_b.gif","middle","","","","",""
"","null","html-keyboard-response","234","834495","0.0-44.0-0.5","SS1613098609473","","","null","","","","","<p><img src= images/blank.png width =""200"" height = ""200"" style = ""float:right""></p><p><img src=images/blank.png width =""800"" height = ""200""></p>","","","","","","","","","","","",""
"","1169","sequential-stimulus-presentation","235","836484","0.0-44.0-1.5","SS1613098609473","trial","","40","800","1969","images/stimuli/spore_stims/complex_14_B_b.gif","images/stimuli/spore_stims/complex_14_A_b.gif","","","","","12","complex_similar","images/stimuli/spore_stims/complex_14_A_b.gif","middle","","","","",""
"","null","html-keyboard-response","236","837574","0.0-44.0-0.6","SS1613098609473","","","null","","","","","<p><img src= images/blank.png width =""200"" height = ""200"" style = ""float:right""></p><p><img src=images/blank.png width =""800"" height = ""200""></p>","","","","","","","","","","","",""
"","578","sequential-stimulus-presentation","237","838974","0.0-44.0-1.6","SS1613098609473","trial","","40","800","1378","images/stimuli/spore_stims/complex_14_B_b.gif","images/stimuli/spore_stims/complex_14_A_b.gif","","","","","12","complex_similar","images/stimuli/spore_stims/complex_14_A_b.gif","middle","","","","",""
"","null","html-keyboard-response","238","839938","0.0-44.0-0.7","SS1613098609473","","","null","","","","","<p><img src= images/blank.png width =""200"" height = ""200"" style = ""float:right""></p><p><img src=images/blank.png width =""800"" height = ""200""></p>","","","","","","","","","","","",""
"","544","sequential-stimulus-presentation","239","841301","0.0-44.0-1.7","SS1613098609473","trial","","40","800","1344","images/stimuli/spore_stims/complex_14_B_b.gif","images/stimuli/spore_stims/complex_14_A_b.gif","","","","","12","complex_similar","images/stimuli/spore_stims/complex_14_A_b.gif","middle","","","","",""
"","2139","html-keyboard-response","240","843448","0.0-45.0","SS1613098609473","pref_question","","97","","","","","<video width ='960' height = '540' style='padding-top:8%' autoplay muted><source src='images/stimuli/wall_pref.mp4' type='video/mp4'></video>","1","left","25%","12","","","","","","","",""
"","5272","sequential-stimulus-presentation","241","849540","0.0-46.0","SS1613098609473","pref_reveal","","40","800","6072","null","null","","","","","12","","","","deviant","","","",""
"","null","html-keyboard-response","242","850678","0.0-47.0-0.0","SS1613098609473","","","null","","","","","<p><img src= images/blank.png width =""200"" height = ""200"" style = ""float:right""></p><p><img src=images/blank.png width =""800"" height = ""200""></p>","","","","","","","","","","","",""
"","1916","sequential-stimulus-presentation","243","853404","0.0-47.0-1.0","SS1613098609473","trial","","40","800","2716","images/stimuli/spore_stims/simple_04_A_b.gif","images/stimuli/spore_stims/simple_17_A_b.gif","","","","","13","simple_dissimilar","images/stimuli/spore_stims/simple_17_A_b.gif","left","","","","",""
"","null","html-keyboard-response","244","854558","0.0-47.0-0.1","SS1613098609473","","","null","","","","","<p><img src= images/blank.png width =""200"" height = ""200"" style = ""float:right""></p><p><img src=images/blank.png width =""800"" height = ""200""></p>","","","","","","","","","","","",""
"","648","sequential-stimulus-presentation","245","856019","0.0-47.0-1.1","SS1613098609473","trial","","40","800","1448","images/stimuli/spore_stims/simple_04_A_b.gif","images/stimuli/spore_stims/simple_17_A_b.gif","","","","","13","simple_dissimilar","images/stimuli/spore_stims/simple_17_A_b.gif","left","","","","",""
"","null","html-keyboard-response","246","857130","0.0-47.0-0.2","SS1613098609473","","","null","","","","","<p><img src= images/blank.png width =""200"" height = ""200"" style = ""float:right""></p><p><img src=images/blank.png width =""800"" height = ""200""></p>","","","","","","","","","","","",""
"","2091","sequential-stimulus-presentation","247","860041","0.0-47.0-1.2","SS1613098609473","trial","","40","800","2891","images/stimuli/spore_stims/simple_04_A_b.gif","images/stimuli/spore_stims/simple_17_A_b.gif","","","","","13","simple_dissimilar","images/stimuli/spore_stims/simple_17_A_b.gif","left","","","","",""
"","null","html-keyboard-response","248","861200","0.0-47.0-0.3","SS1613098609473","","","null","","","","","<p><img src= images/blank.png width =""200"" height = ""200"" style = ""float:right""></p><p><img src=images/blank.png width =""800"" height = ""200""></p>","","","","","","","","","","","",""
"","3605","sequential-stimulus-presentation","249","865627","0.0-47.0-1.3","SS1613098609473","trial","","40","800","4405","images/stimuli/spore_stims/simple_04_A_b.gif","images/stimuli/spore_stims/simple_17_A_b.gif","","","","","13","simple_dissimilar","images/stimuli/spore_stims/simple_17_A_b.gif","left","","","","",""
"","null","html-keyboard-response","250","866572","0.0-47.0-0.4","SS1613098609473","","","null","","","","","<p><img src= images/blank.png width =""200"" height = ""200"" style = ""float:right""></p><p><img src=images/blank.png width =""800"" height = ""200""></p>","","","","","","","","","","","",""
"","914","sequential-stimulus-presentation","251","868305","0.0-47.0-1.4","SS1613098609473","trial","","40","800","1714","images/stimuli/spore_stims/simple_04_A_b.gif","images/stimuli/spore_stims/simple_17_A_b.gif","","","","","13","simple_dissimilar","images/stimuli/spore_stims/simple_17_A_b.gif","left","","","","",""
"","null","html-keyboard-response","252","869520","0.0-47.0-0.5","SS1613098609473","","","null","","","","","<p><img src= images/blank.png width =""200"" height = ""200"" style = ""float:right""></p><p><img src=images/blank.png width =""800"" height = ""200""></p>","","","","","","","","","","","",""
"","427","sequential-stimulus-presentation","253","870767","0.0-47.0-1.5","SS1613098609473","trial","","40","800","1227","images/stimuli/spore_stims/simple_04_A_b.gif","images/stimuli/spore_stims/simple_17_A_b.gif","","","","","13","simple_dissimilar","images/stimuli/spore_stims/simple_17_A_b.gif","left","","","","",""
"","null","html-keyboard-response","254","872020","0.0-47.0-0.6","SS1613098609473","","","null","","","","","<p><img src= images/blank.png width =""200"" height = ""200"" style = ""float:right""></p><p><img src=images/blank.png width =""800"" height = ""200""></p>","","","","","","","","","","","",""
"","1019","sequential-stimulus-presentation","255","873860","0.0-47.0-1.6","SS1613098609473","trial","","40","800","1819","images/stimuli/spore_stims/simple_04_A_b.gif","images/stimuli/spore_stims/simple_17_A_b.gif","","","","","13","simple_dissimilar","images/stimuli/spore_stims/simple_04_A_b.gif","middle","","","","",""
"","null","html-keyboard-response","256","874970","0.0-47.0-0.7","SS1613098609473","","","null","","","","","<p><img src= images/blank.png width =""200"" height = ""200"" style = ""float:right""></p><p><img src=images/blank.png width =""800"" height = ""200""></p>","","","","","","","","","","","",""
"","576","sequential-stimulus-presentation","257","876366","0.0-47.0-1.7","SS1613098609473","trial","","40","800","1376","images/stimuli/spore_stims/simple_04_A_b.gif","images/stimuli/spore_stims/simple_17_A_b.gif","","","","","13","simple_dissimilar","images/stimuli/spore_stims/simple_17_A_b.gif","left","","","","",""
"","4593","html-keyboard-response","258","880987","0.0-48.0","SS1613098609473","pref_question","","99","","","","","<video width ='960' height = '540' style='padding-top:8%' autoplay muted><source src='images/stimuli/wall_pref.mp4' type='video/mp4'></video>","3","right","66%","13","","","","","","","",""
"","3418","sequential-stimulus-presentation","259","885234","0.0-49.0","SS1613098609473","pref_reveal","","40","800","4218","null","null","","","","","13","","","","novel","","","",""
"","null","html-keyboard-response","260","886354","0.0-50.0-0.0","SS1613098609473","","","null","","","","","<p><img src= images/blank.png width =""200"" height = ""200"" style = ""float:right""></p><p><img src=images/blank.png width =""800"" height = ""200""></p>","","","","","","","","","","","",""
"","3697","sequential-stimulus-presentation","261","890870","0.0-50.0-1.0","SS1613098609473","trial","","40","800","4497","images/stimuli/spore_stims/complex_07_A_c.gif","images/stimuli/spore_stims/complex_10_B_a.gif","","","","","14","complex_dissimilar","images/stimuli/spore_stims/complex_10_B_a.gif","middle","","","","",""
"","null","html-keyboard-response","262","891976","0.0-50.0-0.1","SS1613098609473","","","null","","","","","<p><img src= images/blank.png width =""200"" height = ""200"" style = ""float:right""></p><p><img src=images/blank.png width =""800"" height = ""200""></p>","","","","","","","","","","","",""
"","486","sequential-stimulus-presentation","263","893281","0.0-50.0-1.1","SS1613098609473","trial","","40","800","1286","images/stimuli/spore_stims/complex_07_A_c.gif","images/stimuli/spore_stims/complex_10_B_a.gif","","","","","14","complex_dissimilar","images/stimuli/spore_stims/complex_10_B_a.gif","middle","","","","",""
"","null","html-keyboard-response","264","894155","0.0-50.0-0.2","SS1613098609473","","","null","","","","","<p><img src= images/blank.png width =""200"" height = ""200"" style = ""float:right""></p><p><img src=images/blank.png width =""800"" height = ""200""></p>","","","","","","","","","","","",""
"","307","sequential-stimulus-presentation","265","895286","0.0-50.0-1.2","SS1613098609473","trial","","40","800","1107","images/stimuli/spore_stims/complex_07_A_c.gif","images/stimuli/spore_stims/complex_10_B_a.gif","","","","","14","complex_dissimilar","images/stimuli/spore_stims/complex_10_B_a.gif","middle","","","","",""
"","null","html-keyboard-response","266","896565","0.0-50.0-0.3","SS1613098609473","","","null","","","","","<p><img src= images/blank.png width =""200"" height = ""200"" style = ""float:right""></p><p><img src=images/blank.png width =""800"" height = ""200""></p>","","","","","","","","","","","",""
"","242","sequential-stimulus-presentation","267","897639","0.0-50.0-1.3","SS1613098609473","trial","","40","800","1042","images/stimuli/spore_stims/complex_07_A_c.gif","images/stimuli/spore_stims/complex_10_B_a.gif","","","","","14","complex_dissimilar","images/stimuli/spore_stims/complex_10_B_a.gif","middle","","","","",""
"","null","html-keyboard-response","268","898449","0.0-50.0-0.4","SS1613098609473","","","null","","","","","<p><img src= images/blank.png width =""200"" height = ""200"" style = ""float:right""></p><p><img src=images/blank.png width =""800"" height = ""200""></p>","","","","","","","","","","","",""
"","328","sequential-stimulus-presentation","269","899597","0.0-50.0-1.4","SS1613098609473","trial","","40","800","1128","images/stimuli/spore_stims/complex_07_A_c.gif","images/stimuli/spore_stims/complex_10_B_a.gif","","","","","14","complex_dissimilar","images/stimuli/spore_stims/complex_10_B_a.gif","middle","","","","",""
"","null","html-keyboard-response","270","900569","0.0-50.0-0.5","SS1613098609473","","","null","","","","","<p><img src= images/blank.png width =""200"" height = ""200"" style = ""float:right""></p><p><img src=images/blank.png width =""800"" height = ""200""></p>","","","","","","","","","","","",""
"","37","sequential-stimulus-presentation","271","901436","0.0-50.0-1.5","SS1613098609473","trial","","40","800","837","images/stimuli/spore_stims/complex_07_A_c.gif","images/stimuli/spore_stims/complex_10_B_a.gif","","","","","14","complex_dissimilar","images/stimuli/spore_stims/complex_07_A_c.gif","right","","","","",""
"","null","html-keyboard-response","272","902380","0.0-50.0-0.6","SS1613098609473","","","null","","","","","<p><img src= images/blank.png width =""200"" height = ""200"" style = ""float:right""></p><p><img src=images/blank.png width =""800"" height = ""200""></p>","","","","","","","","","","","",""
"","327","sequential-stimulus-presentation","273","903536","0.0-50.0-1.6","SS1613098609473","trial","","40","800","1127","images/stimuli/spore_stims/complex_07_A_c.gif","images/stimuli/spore_stims/complex_10_B_a.gif","","","","","14","complex_dissimilar","images/stimuli/spore_stims/complex_10_B_a.gif","middle","","","","",""
"","null","html-keyboard-response","274","904422","0.0-50.0-0.7","SS1613098609473","","","null","","","","","<p><img src= images/blank.png width =""200"" height = ""200"" style = ""float:right""></p><p><img src=images/blank.png width =""800"" height = ""200""></p>","","","","","","","","","","","",""
"","318","sequential-stimulus-presentation","275","905558","0.0-50.0-1.7","SS1613098609473","trial","","40","800","1118","images/stimuli/spore_stims/complex_07_A_c.gif","images/stimuli/spore_stims/complex_10_B_a.gif","","","","","14","complex_dissimilar","images/stimuli/spore_stims/complex_10_B_a.gif","middle","","","","",""
"","2558","html-keyboard-response","276","908124","0.0-51.0","SS1613098609473","pref_question","","51","","","","","<video width ='960' height = '540' style='padding-top:8%' autoplay muted><source src='images/stimuli/wall_pref.mp4' type='video/mp4'></video>","3","right","66%","14","","","","","","","",""
"","998","sequential-stimulus-presentation","277","909949","0.0-52.0","SS1613098609473","pref_reveal","","40","800","1798","null","null","","","","","14","","","","deviant","","","",""
"","null","html-keyboard-response","278","911231","0.0-53.0-0.0","SS1613098609473","","","null","","","","","<p><img src= images/blank.png width =""200"" height = ""200"" style = ""float:right""></p><p><img src=images/blank.png width =""800"" height = ""200""></p>","","","","","","","","","","","",""
"","358","sequential-stimulus-presentation","279","912420","0.0-53.0-1.0","SS1613098609473","trial","","40","800","1158","images/stimuli/spore_stims/simple_12_A_d.gif","images/stimuli/spore_stims/simple_19_B_c.gif","","","","","15","simple_dissimilar","images/stimuli/spore_stims/simple_19_B_c.gif","right","","","","",""
"","null","html-keyboard-response","280","913402","0.0-53.0-0.1","SS1613098609473","","","null","","","","","<p><img src= images/blank.png width =""200"" height = ""200"" style = ""float:right""></p><p><img src=images/blank.png width =""800"" height = ""200""></p>","","","","","","","","","","","",""
"","336","sequential-stimulus-presentation","281","914558","0.0-53.0-1.1","SS1613098609473","trial","","40","800","1136","images/stimuli/spore_stims/simple_12_A_d.gif","images/stimuli/spore_stims/simple_19_B_c.gif","","","","","15","simple_dissimilar","images/stimuli/spore_stims/simple_19_B_c.gif","right","","","","",""
"","null","html-keyboard-response","282","915771","0.0-53.0-0.2","SS1613098609473","","","null","","","","","<p><img src= images/blank.png width =""200"" height = ""200"" style = ""float:right""></p><p><img src=images/blank.png width =""800"" height = ""200""></p>","","","","","","","","","","","",""
"","269","sequential-stimulus-presentation","283","916863","0.0-53.0-1.2","SS1613098609473","trial","","40","800","1069","images/stimuli/spore_stims/simple_12_A_d.gif","images/stimuli/spore_stims/simple_19_B_c.gif","","","","","15","simple_dissimilar","images/stimuli/spore_stims/simple_19_B_c.gif","right","","","","",""
"","null","html-keyboard-response","284","918083","0.0-53.0-0.3","SS1613098609473","","","null","","","","","<p><img src= images/blank.png width =""200"" height = ""200"" style = ""float:right""></p><p><img src=images/blank.png width =""800"" height = ""200""></p>","","","","","","","","","","","",""
"","293","sequential-stimulus-presentation","285","919198","0.0-53.0-1.3","SS1613098609473","trial","","40","800","1093","images/stimuli/spore_stims/simple_12_A_d.gif","images/stimuli/spore_stims/simple_19_B_c.gif","","","","","15","simple_dissimilar","images/stimuli/spore_stims/simple_19_B_c.gif","right","","","","",""
"","null","html-keyboard-response","286","920383","0.0-53.0-0.4","SS1613098609473","","","null","","","","","<p><img src= images/blank.png width =""200"" height = ""200"" style = ""float:right""></p><p><img src=images/blank.png width =""800"" height = ""200""></p>","","","","","","","","","","","",""
"","276","sequential-stimulus-presentation","287","921479","0.0-53.0-1.4","SS1613098609473","trial","","40","800","1076","images/stimuli/spore_stims/simple_12_A_d.gif","images/stimuli/spore_stims/simple_19_B_c.gif","","","","","15","simple_dissimilar","images/stimuli/spore_stims/simple_19_B_c.gif","right","","","","",""
"","null","html-keyboard-response","288","922562","0.0-53.0-0.5","SS1613098609473","","","null","","","","","<p><img src= images/blank.png width =""200"" height = ""200"" style = ""float:right""></p><p><img src=images/blank.png width =""800"" height = ""200""></p>","","","","","","","","","","","",""
"","280","sequential-stimulus-presentation","289","923664","0.0-53.0-1.5","SS1613098609473","trial","","40","800","1080","images/stimuli/spore_stims/simple_12_A_d.gif","images/stimuli/spore_stims/simple_19_B_c.gif","","","","","15","simple_dissimilar","images/stimuli/spore_stims/simple_19_B_c.gif","right","","","","",""
"","null","html-keyboard-response","290","924793","0.0-53.0-0.6","SS1613098609473","","","null","","","","","<p><img src= images/blank.png width =""200"" height = ""200"" style = ""float:right""></p><p><img src=images/blank.png width =""800"" height = ""200""></p>","","","","","","","","","","","",""
"","248","sequential-stimulus-presentation","291","925862","0.0-53.0-1.6","SS1613098609473","trial","","40","800","1048","images/stimuli/spore_stims/simple_12_A_d.gif","images/stimuli/spore_stims/simple_19_B_c.gif","","","","","15","simple_dissimilar","images/stimuli/spore_stims/simple_19_B_c.gif","right","","","","",""
"","null","html-keyboard-response","292","926932","0.0-53.0-0.7","SS1613098609473","","","null","","","","","<p><img src= images/blank.png width =""200"" height = ""200"" style = ""float:right""></p><p><img src=images/blank.png width =""800"" height = ""200""></p>","","","","","","","","","","","",""
"","238","sequential-stimulus-presentation","293","928007","0.0-53.0-1.7","SS1613098609473","trial","","40","800","1038","images/stimuli/spore_stims/simple_12_A_d.gif","images/stimuli/spore_stims/simple_19_B_c.gif","","","","","15","simple_dissimilar","images/stimuli/spore_stims/simple_12_A_d.gif","middle","","","","",""
"","2666","html-keyboard-response","294","930689","0.0-54.0","SS1613098609473","pref_question","","49","","","","","<video width ='960' height = '540' style='padding-top:8%' autoplay muted><source src='images/stimuli/wall_pref.mp4' type='video/mp4'></video>","1","left","25%","15","","","","","","","",""
"","963","sequential-stimulus-presentation","295","932479","0.0-55.0","SS1613098609473","pref_reveal","","40","800","1763","null","null","","","","","15","","","","novel","","","",""
"","null","html-keyboard-response","296","933394","0.0-56.0-0.0","SS1613098609473","","","null","","","","","<p><img src= images/blank.png width =""200"" height = ""200"" style = ""float:right""></p><p><img src=images/blank.png width =""800"" height = ""200""></p>","","","","","","","","","","","",""
"","315","sequential-stimulus-presentation","297","934541","0.0-56.0-1.0","SS1613098609473","trial","","40","800","1115","images/stimuli/spore_stims/simple_20_A_a.gif","images/stimuli/spore_stims/simple_05_A_a.gif","","","","","16","simple_dissimilar","images/stimuli/spore_stims/simple_05_A_a.gif","middle","","","","",""
"","null","html-keyboard-response","298","935407","0.0-56.0-0.1","SS1613098609473","","","null","","","","","<p><img src= images/blank.png width =""200"" height = ""200"" style = ""float:right""></p><p><img src=images/blank.png width =""800"" height = ""200""></p>","","","","","","","","","","","",""
"","294","sequential-stimulus-presentation","299","936521","0.0-56.0-1.1","SS1613098609473","trial","","40","800","1094","images/stimuli/spore_stims/simple_20_A_a.gif","images/stimuli/spore_stims/simple_05_A_a.gif","","","","","16","simple_dissimilar","images/stimuli/spore_stims/simple_05_A_a.gif","middle","","","","",""
"","null","html-keyboard-response","300","937807","0.0-56.0-0.2","SS1613098609473","","","null","","","","","<p><img src= images/blank.png width =""200"" height = ""200"" style = ""float:right""></p><p><img src=images/blank.png width =""800"" height = ""200""></p>","","","","","","","","","","","",""
"","277","sequential-stimulus-presentation","301","938915","0.0-56.0-1.2","SS1613098609473","trial","","40","800","1077","images/stimuli/spore_stims/simple_20_A_a.gif","images/stimuli/spore_stims/simple_05_A_a.gif","","","","","16","simple_dissimilar","images/stimuli/spore_stims/simple_05_A_a.gif","middle","","","","",""
"","null","html-keyboard-response","302","939856","0.0-56.0-0.3","SS1613098609473","","","null","","","","","<p><img src= images/blank.png width =""200"" height = ""200"" style = ""float:right""></p><p><img src=images/blank.png width =""800"" height = ""200""></p>","","","","","","","","","","","",""
"","521","sequential-stimulus-presentation","303","941239","0.0-56.0-1.3","SS1613098609473","trial","","40","800","1321","images/stimuli/spore_stims/simple_20_A_a.gif","images/stimuli/spore_stims/simple_05_A_a.gif","","","","","16","simple_dissimilar","images/stimuli/spore_stims/simple_20_A_a.gif","right","","","","",""
"","null","html-keyboard-response","304","942238","0.0-56.0-0.4","SS1613098609473","","","null","","","","","<p><img src= images/blank.png width =""200"" height = ""200"" style = ""float:right""></p><p><img src=images/blank.png width =""800"" height = ""200""></p>","","","","","","","","","","","",""
"","235","sequential-stimulus-presentation","305","943305","0.0-56.0-1.4","SS1613098609473","trial","","40","800","1035","images/stimuli/spore_stims/simple_20_A_a.gif","images/stimuli/spore_stims/simple_05_A_a.gif","","","","","16","simple_dissimilar","images/stimuli/spore_stims/simple_05_A_a.gif","middle","","","","",""
"","null","html-keyboard-response","306","944428","0.0-56.0-0.5","SS1613098609473","","","null","","","","","<p><img src= images/blank.png width =""200"" height = ""200"" style = ""float:right""></p><p><img src=images/blank.png width =""800"" height = ""200""></p>","","","","","","","","","","","",""
"","246","sequential-stimulus-presentation","307","945506","0.0-56.0-1.5","SS1613098609473","trial","","40","800","1046","images/stimuli/spore_stims/simple_20_A_a.gif","images/stimuli/spore_stims/simple_05_A_a.gif","","","","","16","simple_dissimilar","images/stimuli/spore_stims/simple_05_A_a.gif","middle","","","","",""
"","null","html-keyboard-response","308","946520","0.0-56.0-0.6","SS1613098609473","","","null","","","","","<p><img src= images/blank.png width =""200"" height = ""200"" style = ""float:right""></p><p><img src=images/blank.png width =""800"" height = ""200""></p>","","","","","","","","","","","",""
"","274","sequential-stimulus-presentation","309","947627","0.0-56.0-1.6","SS1613098609473","trial","","40","800","1074","images/stimuli/spore_stims/simple_20_A_a.gif","images/stimuli/spore_stims/simple_05_A_a.gif","","","","","16","simple_dissimilar","images/stimuli/spore_stims/simple_05_A_a.gif","middle","","","","",""
"","null","html-keyboard-response","310","948640","0.0-56.0-0.7","SS1613098609473","","","null","","","","","<p><img src= images/blank.png width =""200"" height = ""200"" style = ""float:right""></p><p><img src=images/blank.png width =""800"" height = ""200""></p>","","","","","","","","","","","",""
"","47","sequential-stimulus-presentation","311","949509","0.0-56.0-1.7","SS1613098609473","trial","","40","800","847","images/stimuli/spore_stims/simple_20_A_a.gif","images/stimuli/spore_stims/simple_05_A_a.gif","","","","","16","simple_dissimilar","images/stimuli/spore_stims/simple_05_A_a.gif","middle","","","","",""
"","3841","html-keyboard-response","312","953359","0.0-57.0","SS1613098609473","pref_question","","49","","","","","<video width ='960' height = '540' style='padding-top:8%' autoplay muted><source src='images/stimuli/wall_pref.mp4' type='video/mp4'></video>","1","left","25%","16","","","","","","","",""
"","435","sequential-stimulus-presentation","313","954625","0.0-58.0","SS1613098609473","pref_reveal","","40","800","1235","null","null","","","","","16","","","","novel","","","",""
"","null","html-keyboard-response","314","955920","0.0-59.0-0.0","SS1613098609473","","","null","","","","","<p><img src= images/blank.png width =""200"" height = ""200"" style = ""float:right""></p><p><img src=images/blank.png width =""800"" height = ""200""></p>","","","","","","","","","","","",""
"","544","sequential-stimulus-presentation","315","957286","0.0-59.0-1.0","SS1613098609473","trial","","40","800","1344","images/stimuli/spore_stims/simple_02_A_c.gif","images/stimuli/spore_stims/simple_09_A_a.gif","","","","","17","simple_dissimilar","images/stimuli/spore_stims/simple_09_A_a.gif","right","","","","",""
"","null","html-keyboard-response","316","958389","0.0-59.0-0.1","SS1613098609473","","","null","","","","","<p><img src= images/blank.png width =""200"" height = ""200"" style = ""float:right""></p><p><img src=images/blank.png width =""800"" height = ""200""></p>","","","","","","","","","","","",""
"","310","sequential-stimulus-presentation","317","959512","0.0-59.0-1.1","SS1613098609473","trial","","40","800","1110","images/stimuli/spore_stims/simple_02_A_c.gif","images/stimuli/spore_stims/simple_09_A_a.gif","","","","","17","simple_dissimilar","images/stimuli/spore_stims/simple_09_A_a.gif","right","","","","",""
"","null","html-keyboard-response","318","960462","0.0-59.0-0.2","SS1613098609473","","","null","","","","","<p><img src= images/blank.png width =""200"" height = ""200"" style = ""float:right""></p><p><img src=images/blank.png width =""800"" height = ""200""></p>","","","","","","","","","","","",""
"","524","sequential-stimulus-presentation","319","961799","0.0-59.0-1.2","SS1613098609473","trial","","40","800","1324","images/stimuli/spore_stims/simple_02_A_c.gif","images/stimuli/spore_stims/simple_09_A_a.gif","","","","","17","simple_dissimilar","images/stimuli/spore_stims/simple_02_A_c.gif","left","","","","",""
"","null","html-keyboard-response","320","962634","0.0-59.0-0.3","SS1613098609473","","","null","","","","","<p><img src= images/blank.png width =""200"" height = ""200"" style = ""float:right""></p><p><img src=images/blank.png width =""800"" height = ""200""></p>","","","","","","","","","","","",""
"","380","sequential-stimulus-presentation","321","963834","0.0-59.0-1.3","SS1613098609473","trial","","40","800","1180","images/stimuli/spore_stims/simple_02_A_c.gif","images/stimuli/spore_stims/simple_09_A_a.gif","","","","","17","simple_dissimilar","images/stimuli/spore_stims/simple_09_A_a.gif","right","","","","",""
"","null","html-keyboard-response","322","964904","0.0-59.0-0.4","SS1613098609473","","","null","","","","","<p><img src= images/blank.png width =""200"" height = ""200"" style = ""float:right""></p><p><img src=images/blank.png width =""800"" height = ""200""></p>","","","","","","","","","","","",""
"","389","sequential-stimulus-presentation","323","966123","0.0-59.0-1.4","SS1613098609473","trial","","40","800","1189","images/stimuli/spore_stims/simple_02_A_c.gif","images/stimuli/spore_stims/simple_09_A_a.gif","","","","","17","simple_dissimilar","images/stimuli/spore_stims/simple_09_A_a.gif","right","","","","",""
"","null","html-keyboard-response","324","967214","0.0-59.0-0.5","SS1613098609473","","","null","","","","","<p><img src= images/blank.png width =""200"" height = ""200"" style = ""float:right""></p><p><img src=images/blank.png width =""800"" height = ""200""></p>","","","","","","","","","","","",""
"","888","sequential-stimulus-presentation","325","968922","0.0-59.0-1.5","SS1613098609473","trial","","40","800","1688","images/stimuli/spore_stims/simple_02_A_c.gif","images/stimuli/spore_stims/simple_09_A_a.gif","","","","","17","simple_dissimilar","images/stimuli/spore_stims/simple_09_A_a.gif","right","","","","",""
"","null","html-keyboard-response","326","970058","0.0-59.0-0.6","SS1613098609473","","","null","","","","","<p><img src= images/blank.png width =""200"" height = ""200"" style = ""float:right""></p><p><img src=images/blank.png width =""800"" height = ""200""></p>","","","","","","","","","","","",""
"","875","sequential-stimulus-presentation","327","971761","0.0-59.0-1.6","SS1613098609473","trial","","40","800","1675","images/stimuli/spore_stims/simple_02_A_c.gif","images/stimuli/spore_stims/simple_09_A_a.gif","","","","","17","simple_dissimilar","images/stimuli/spore_stims/simple_09_A_a.gif","right","","","","",""
