"view_history","rt","trial_type","trial_index","time_elapsed","internal_node_id","subject","stimulus_type","trial_stimulus","key_press","minimum_viewing_duration","trial_looking_time","block_deviant","block_background","stimulus","wall_pref","location","location_percent","block_number","block_type","stimulus_displayed","position_displayed","stim_type_selected","responses","question_order","stimulus_left","stimulus_right"
"[{""page_index"":0,""viewing_time"":23133}]","23134","instructions","0","23148","0.0-0.0","SS1613138354695","","","","","","","","","","","","","","","","","","","",""
"[{""page_index"":0,""viewing_time"":15020},{""page_index"":1,""viewing_time"":7153}]","22173","instructions","1","47340","0.0-1.0","SS1613138354695","instructions","","","","","","","","","","","","","","","","","","",""
"","7877","sequential-stimulus-presentation","2","56044","0.0-2.0","SS1613138354695","","","40","800","8677","null","null","","","","","","","","","","","","",""
"","3490","sequential-stimulus-presentation","3","60351","0.0-3.0","SS1613138354695","","","40","800","4290","null","null","","","","","","","","","","","","",""
"[{""page_index"":0,""viewing_time"":2561}]","2562","instructions","4","62916","0.0-4.0","SS1613138354695","instructions","","","","","","","","","","","","","","","","","","",""
"","9358","html-keyboard-response","5","72279","0.0-5.0","SS1613138354695","instructions","","98","","","","","<video width ='960' height = '540' autoplay muted><source src='images/stimuli/wall_pref.mp4' type='video/mp4'></video>","2","middle","45%","","","","","","","","",""
"","3384","sequential-stimulus-presentation","6","76476","0.0-6.0","SS1613138354695","pref_reveal","","40","800","4184","null","null","","","","","","","","","","","","",""
"[{""page_index"":0,""viewing_time"":2798},{""page_index"":1,""viewing_time"":5080},{""page_index"":2,""viewing_time"":1440},{""page_index"":3,""viewing_time"":2008}]","11326","instructions","7","87804","0.0-7.0","SS1613138354695","instructions","","","","","","","","","","","","","","","","","","",""
"","null","html-keyboard-response","8","88956","0.0-8.0-0.0","SS1613138354695","","","null","","","","","<p><img src= images/blank.png width =""200"" height = ""200"" style = ""float:right""></p><p><img src=images/blank.png width =""800"" height = ""200""></p>","","","","","","","","","","","",""
"","3020","sequential-stimulus-presentation","9","92799","0.0-8.0-1.0","SS1613138354695","trial","","40","800","3820","images/stimuli/spore_stims/simple_08_B_b.gif","images/stimuli/spore_stims/simple_02_A_d.gif","","","","","0","simple_dissimilar","images/stimuli/spore_stims/simple_02_A_d.gif","left","","","","",""
"","null","html-keyboard-response","10","93959","0.0-8.0-0.1","SS1613138354695","","","null","","","","","<p><img src= images/blank.png width =""200"" height = ""200"" style = ""float:right""></p><p><img src=images/blank.png width =""800"" height = ""200""></p>","","","","","","","","","","","",""
"","2786","sequential-stimulus-presentation","11","97558","0.0-8.0-1.1","SS1613138354695","trial","","40","800","3586","images/stimuli/spore_stims/simple_08_B_b.gif","images/stimuli/spore_stims/simple_02_A_d.gif","","","","","0","simple_dissimilar","images/stimuli/spore_stims/simple_02_A_d.gif","left","","","","",""
"","null","html-keyboard-response","12","98579","0.0-8.0-0.2","SS1613138354695","","","null","","","","","<p><img src= images/blank.png width =""200"" height = ""200"" style = ""float:right""></p><p><img src=images/blank.png width =""800"" height = ""200""></p>","","","","","","","","","","","",""
"","1674","sequential-stimulus-presentation","13","101074","0.0-8.0-1.2","SS1613138354695","trial","","40","800","2474","images/stimuli/spore_stims/simple_08_B_b.gif","images/stimuli/spore_stims/simple_02_A_d.gif","","","","","0","simple_dissimilar","images/stimuli/spore_stims/simple_02_A_d.gif","left","","","","",""
"","null","html-keyboard-response","14","102329","0.0-8.0-0.3","SS1613138354695","","","null","","","","","<p><img src= images/blank.png width =""200"" height = ""200"" style = ""float:right""></p><p><img src=images/blank.png width =""800"" height = ""200""></p>","","","","","","","","","","","",""
"","1219","sequential-stimulus-presentation","15","104362","0.0-8.0-1.3","SS1613138354695","trial","","40","800","2019","images/stimuli/spore_stims/simple_08_B_b.gif","images/stimuli/spore_stims/simple_02_A_d.gif","","","","","0","simple_dissimilar","images/stimuli/spore_stims/simple_02_A_d.gif","left","","","","",""
"","null","html-keyboard-response","16","105585","0.0-8.0-0.4","SS1613138354695","","","null","","","","","<p><img src= images/blank.png width =""200"" height = ""200"" style = ""float:right""></p><p><img src=images/blank.png width =""800"" height = ""200""></p>","","","","","","","","","","","",""
"","4334","sequential-stimulus-presentation","17","110735","0.0-8.0-1.4","SS1613138354695","trial","","40","800","5134","images/stimuli/spore_stims/simple_08_B_b.gif","images/stimuli/spore_stims/simple_02_A_d.gif","","","","","0","simple_dissimilar","images/stimuli/spore_stims/simple_08_B_b.gif","middle","","","","",""
"","null","html-keyboard-response","18","111705","0.0-8.0-0.5","SS1613138354695","","","null","","","","","<p><img src= images/blank.png width =""200"" height = ""200"" style = ""float:right""></p><p><img src=images/blank.png width =""800"" height = ""200""></p>","","","","","","","","","","","",""
"","500","sequential-stimulus-presentation","19","113020","0.0-8.0-1.5","SS1613138354695","trial","","40","800","1300","images/stimuli/spore_stims/simple_08_B_b.gif","images/stimuli/spore_stims/simple_02_A_d.gif","","","","","0","simple_dissimilar","images/stimuli/spore_stims/simple_02_A_d.gif","left","","","","",""
"","null","html-keyboard-response","20","114035","0.0-8.0-0.6","SS1613138354695","","","null","","","","","<p><img src= images/blank.png width =""200"" height = ""200"" style = ""float:right""></p><p><img src=images/blank.png width =""800"" height = ""200""></p>","","","","","","","","","","","",""
"","663","sequential-stimulus-presentation","21","115518","0.0-8.0-1.6","SS1613138354695","trial","","40","800","1463","images/stimuli/spore_stims/simple_08_B_b.gif","images/stimuli/spore_stims/simple_02_A_d.gif","","","","","0","simple_dissimilar","images/stimuli/spore_stims/simple_02_A_d.gif","left","","","","",""
"","null","html-keyboard-response","22","116778","0.0-8.0-0.7","SS1613138354695","","","null","","","","","<p><img src= images/blank.png width =""200"" height = ""200"" style = ""float:right""></p><p><img src=images/blank.png width =""800"" height = ""200""></p>","","","","","","","","","","","",""
"","2649","sequential-stimulus-presentation","23","120249","0.0-8.0-1.7","SS1613138354695","trial","","40","800","3449","images/stimuli/spore_stims/simple_08_B_b.gif","images/stimuli/spore_stims/simple_02_A_d.gif","","","","","0","simple_dissimilar","images/stimuli/spore_stims/simple_02_A_d.gif","left","","","","",""
"","1615","html-keyboard-response","24","121871","0.0-9.0","SS1613138354695","pref_question","","99","","","","","<video width ='960' height = '540' style='padding-top:8%' autoplay muted><source src='images/stimuli/wall_pref.mp4' type='video/mp4'></video>","3","right","66%","0","","","","","","","",""
"","3145","sequential-stimulus-presentation","25","125832","0.0-10.0","SS1613138354695","pref_reveal","","40","800","3945","null","null","","","","","0","","","","novel","","","",""
"","null","html-keyboard-response","26","126769","0.0-11.0-0.0","SS1613138354695","","","null","","","","","<p><img src= images/blank.png width =""200"" height = ""200"" style = ""float:right""></p><p><img src=images/blank.png width =""800"" height = ""200""></p>","","","","","","","","","","","",""
"","47","sequential-stimulus-presentation","27","127628","0.0-11.0-1.0","SS1613138354695","trial","","40","800","847","images/stimuli/spore_stims/complex_20_A_b.gif","images/stimuli/spore_stims/complex_14_A_d.gif","","","","","1","complex_dissimilar","images/stimuli/spore_stims/complex_14_A_d.gif","left","","","","",""
"","null","html-keyboard-response","28","128456","0.0-11.0-0.1","SS1613138354695","","","null","","","","","<p><img src= images/blank.png width =""200"" height = ""200"" style = ""float:right""></p><p><img src=images/blank.png width =""800"" height = ""200""></p>","","","","","","","","","","","",""
"","3362","sequential-stimulus-presentation","29","132633","0.0-11.0-1.1","SS1613138354695","trial","","40","800","4162","images/stimuli/spore_stims/complex_20_A_b.gif","images/stimuli/spore_stims/complex_14_A_d.gif","","","","","1","complex_dissimilar","images/stimuli/spore_stims/complex_14_A_d.gif","left","","","","",""
"","null","html-keyboard-response","30","133856","0.0-11.0-0.2","SS1613138354695","","","null","","","","","<p><img src= images/blank.png width =""200"" height = ""200"" style = ""float:right""></p><p><img src=images/blank.png width =""800"" height = ""200""></p>","","","","","","","","","","","",""
"","2437","sequential-stimulus-presentation","31","137105","0.0-11.0-1.2","SS1613138354695","trial","","40","800","3237","images/stimuli/spore_stims/complex_20_A_b.gif","images/stimuli/spore_stims/complex_14_A_d.gif","","","","","1","complex_dissimilar","images/stimuli/spore_stims/complex_14_A_d.gif","left","","","","",""
"","null","html-keyboard-response","32","138353","0.0-11.0-0.3","SS1613138354695","","","null","","","","","<p><img src= images/blank.png width =""200"" height = ""200"" style = ""float:right""></p><p><img src=images/blank.png width =""800"" height = ""200""></p>","","","","","","","","","","","",""
"","2195","sequential-stimulus-presentation","33","141358","0.0-11.0-1.3","SS1613138354695","trial","","40","800","2995","images/stimuli/spore_stims/complex_20_A_b.gif","images/stimuli/spore_stims/complex_14_A_d.gif","","","","","1","complex_dissimilar","images/stimuli/spore_stims/complex_14_A_d.gif","left","","","","",""
"","null","html-keyboard-response","34","142581","0.0-11.0-0.4","SS1613138354695","","","null","","","","","<p><img src= images/blank.png width =""200"" height = ""200"" style = ""float:right""></p><p><img src=images/blank.png width =""800"" height = ""200""></p>","","","","","","","","","","","",""
"","2541","sequential-stimulus-presentation","35","145937","0.0-11.0-1.4","SS1613138354695","trial","","40","800","3341","images/stimuli/spore_stims/complex_20_A_b.gif","images/stimuli/spore_stims/complex_14_A_d.gif","","","","","1","complex_dissimilar","images/stimuli/spore_stims/complex_20_A_b.gif","middle","","","","",""
"","null","html-keyboard-response","36","146804","0.0-11.0-0.5","SS1613138354695","","","null","","","","","<p><img src= images/blank.png width =""200"" height = ""200"" style = ""float:right""></p><p><img src=images/blank.png width =""800"" height = ""200""></p>","","","","","","","","","","","",""
"","1933","sequential-stimulus-presentation","37","149549","0.0-11.0-1.5","SS1613138354695","trial","","40","800","2733","images/stimuli/spore_stims/complex_20_A_b.gif","images/stimuli/spore_stims/complex_14_A_d.gif","","","","","1","complex_dissimilar","images/stimuli/spore_stims/complex_14_A_d.gif","left","","","","",""
"","null","html-keyboard-response","38","150408","0.0-11.0-0.6","SS1613138354695","","","null","","","","","<p><img src= images/blank.png width =""200"" height = ""200"" style = ""float:right""></p><p><img src=images/blank.png width =""800"" height = ""200""></p>","","","","","","","","","","","",""
"","1141","sequential-stimulus-presentation","39","152360","0.0-11.0-1.6","SS1613138354695","trial","","40","800","1941","images/stimuli/spore_stims/complex_20_A_b.gif","images/stimuli/spore_stims/complex_14_A_d.gif","","","","","1","complex_dissimilar","images/stimuli/spore_stims/complex_14_A_d.gif","left","","","","",""
"","null","html-keyboard-response","40","153556","0.0-11.0-0.7","SS1613138354695","","","null","","","","","<p><img src= images/blank.png width =""200"" height = ""200"" style = ""float:right""></p><p><img src=images/blank.png width =""800"" height = ""200""></p>","","","","","","","","","","","",""
"","1743","sequential-stimulus-presentation","41","156111","0.0-11.0-1.7","SS1613138354695","trial","","40","800","2543","images/stimuli/spore_stims/complex_20_A_b.gif","images/stimuli/spore_stims/complex_14_A_d.gif","","","","","1","complex_dissimilar","images/stimuli/spore_stims/complex_14_A_d.gif","left","","","","",""
"","1570","html-keyboard-response","42","157684","0.0-12.0","SS1613138354695","pref_question","","98","","","","","<video width ='960' height = '540' style='padding-top:8%' autoplay muted><source src='images/stimuli/wall_pref.mp4' type='video/mp4'></video>","2","middle","45%","1","","","","","","","",""
"","2124","sequential-stimulus-presentation","43","160623","0.0-13.0","SS1613138354695","pref_reveal","","40","800","2924","null","null","","","","","1","","","","deviant","","","",""
"","null","html-keyboard-response","44","161560","0.0-14.0-0.0","SS1613138354695","","","null","","","","","<p><img src= images/blank.png width =""200"" height = ""200"" style = ""float:right""></p><p><img src=images/blank.png width =""800"" height = ""200""></p>","","","","","","","","","","","",""
"","2552","sequential-stimulus-presentation","45","164925","0.0-14.0-1.0","SS1613138354695","trial","","40","800","3352","images/stimuli/spore_stims/simple_08_B_b.gif","images/stimuli/spore_stims/simple_08_A_b.gif","","","","","2","simple_similar","images/stimuli/spore_stims/simple_08_A_b.gif","right","","","","",""
"","null","html-keyboard-response","46","165819","0.0-14.0-0.1","SS1613138354695","","","null","","","","","<p><img src= images/blank.png width =""200"" height = ""200"" style = ""float:right""></p><p><img src=images/blank.png width =""800"" height = ""200""></p>","","","","","","","","","","","",""
"","2676","sequential-stimulus-presentation","47","169303","0.0-14.0-1.1","SS1613138354695","trial","","40","800","3476","images/stimuli/spore_stims/simple_08_B_b.gif","images/stimuli/spore_stims/simple_08_A_b.gif","","","","","2","simple_similar","images/stimuli/spore_stims/simple_08_A_b.gif","right","","","","",""
"","null","html-keyboard-response","48","170369","0.0-14.0-0.2","SS1613138354695","","","null","","","","","<p><img src= images/blank.png width =""200"" height = ""200"" style = ""float:right""></p><p><img src=images/blank.png width =""800"" height = ""200""></p>","","","","","","","","","","","",""
"","1486","sequential-stimulus-presentation","49","172675","0.0-14.0-1.2","SS1613138354695","trial","","40","800","2286","images/stimuli/spore_stims/simple_08_B_b.gif","images/stimuli/spore_stims/simple_08_A_b.gif","","","","","2","simple_similar","images/stimuli/spore_stims/simple_08_A_b.gif","right","","","","",""
"","null","html-keyboard-response","50","173856","0.0-14.0-0.3","SS1613138354695","","","null","","","","","<p><img src= images/blank.png width =""200"" height = ""200"" style = ""float:right""></p><p><img src=images/blank.png width =""800"" height = ""200""></p>","","","","","","","","","","","",""
"","1489","sequential-stimulus-presentation","51","176168","0.0-14.0-1.3","SS1613138354695","trial","","40","800","2289","images/stimuli/spore_stims/simple_08_B_b.gif","images/stimuli/spore_stims/simple_08_A_b.gif","","","","","2","simple_similar","images/stimuli/spore_stims/simple_08_B_b.gif","left","","","","",""
"","null","html-keyboard-response","52","177134","0.0-14.0-0.4","SS1613138354695","","","null","","","","","<p><img src= images/blank.png width =""200"" height = ""200"" style = ""float:right""></p><p><img src=images/blank.png width =""800"" height = ""200""></p>","","","","","","","","","","","",""
"","1592","sequential-stimulus-presentation","53","179532","0.0-14.0-1.4","SS1613138354695","trial","","40","800","2392","images/stimuli/spore_stims/simple_08_B_b.gif","images/stimuli/spore_stims/simple_08_A_b.gif","","","","","2","simple_similar","images/stimuli/spore_stims/simple_08_A_b.gif","right","","","","",""
"","null","html-keyboard-response","54","180575","0.0-14.0-0.5","SS1613138354695","","","null","","","","","<p><img src= images/blank.png width =""200"" height = ""200"" style = ""float:right""></p><p><img src=images/blank.png width =""800"" height = ""200""></p>","","","","","","","","","","","",""
"","1139","sequential-stimulus-presentation","55","182527","0.0-14.0-1.5","SS1613138354695","trial","","40","800","1939","images/stimuli/spore_stims/simple_08_B_b.gif","images/stimuli/spore_stims/simple_08_A_b.gif","","","","","2","simple_similar","images/stimuli/spore_stims/simple_08_A_b.gif","right","","","","",""
"","null","html-keyboard-response","56","183434","0.0-14.0-0.6","SS1613138354695","","","null","","","","","<p><img src= images/blank.png width =""200"" height = ""200"" style = ""float:right""></p><p><img src=images/blank.png width =""800"" height = ""200""></p>","","","","","","","","","","","",""
"","1653","sequential-stimulus-presentation","57","185902","0.0-14.0-1.6","SS1613138354695","trial","","40","800","2453","images/stimuli/spore_stims/simple_08_B_b.gif","images/stimuli/spore_stims/simple_08_A_b.gif","","","","","2","simple_similar","images/stimuli/spore_stims/simple_08_A_b.gif","right","","","","",""
"","null","html-keyboard-response","58","186864","0.0-14.0-0.7","SS1613138354695","","","null","","","","","<p><img src= images/blank.png width =""200"" height = ""200"" style = ""float:right""></p><p><img src=images/blank.png width =""800"" height = ""200""></p>","","","","","","","","","","","",""
"","1498","sequential-stimulus-presentation","59","189175","0.0-14.0-1.7","SS1613138354695","trial","","40","800","2298","images/stimuli/spore_stims/simple_08_B_b.gif","images/stimuli/spore_stims/simple_08_A_b.gif","","","","","2","simple_similar","images/stimuli/spore_stims/simple_08_A_b.gif","right","","","","",""
"","2545","html-keyboard-response","60","191723","0.0-15.0","SS1613138354695","pref_question","","98","","","","","<video width ='960' height = '540' style='padding-top:8%' autoplay muted><source src='images/stimuli/wall_pref.mp4' type='video/mp4'></video>","2","middle","45%","2","","","","","","","",""
"","2213","sequential-stimulus-presentation","61","194754","0.0-16.0","SS1613138354695","pref_reveal","","40","800","3013","null","null","","","","","2","","","","novel","","","",""
"","null","html-keyboard-response","62","195863","0.0-17.0-0.0","SS1613138354695","","","null","","","","","<p><img src= images/blank.png width =""200"" height = ""200"" style = ""float:right""></p><p><img src=images/blank.png width =""800"" height = ""200""></p>","","","","","","","","","","","",""
"","2098","sequential-stimulus-presentation","63","198775","0.0-17.0-1.0","SS1613138354695","trial","","40","800","2898","images/stimuli/spore_stims/simple_19_B_d.gif","images/stimuli/spore_stims/simple_19_A_d.gif","","","","","3","simple_similar","images/stimuli/spore_stims/simple_19_A_d.gif","left","","","","",""
"","null","html-keyboard-response","64","200087","0.0-17.0-0.1","SS1613138354695","","","null","","","","","<p><img src= images/blank.png width =""200"" height = ""200"" style = ""float:right""></p><p><img src=images/blank.png width =""800"" height = ""200""></p>","","","","","","","","","","","",""
"","533","sequential-stimulus-presentation","65","201433","0.0-17.0-1.1","SS1613138354695","trial","","40","800","1333","images/stimuli/spore_stims/simple_19_B_d.gif","images/stimuli/spore_stims/simple_19_A_d.gif","","","","","3","simple_similar","images/stimuli/spore_stims/simple_19_A_d.gif","left","","","","",""
"","null","html-keyboard-response","66","202318","0.0-17.0-0.2","SS1613138354695","","","null","","","","","<p><img src= images/blank.png width =""200"" height = ""200"" style = ""float:right""></p><p><img src=images/blank.png width =""800"" height = ""200""></p>","","","","","","","","","","","",""
"","587","sequential-stimulus-presentation","67","203723","0.0-17.0-1.2","SS1613138354695","trial","","40","800","1387","images/stimuli/spore_stims/simple_19_B_d.gif","images/stimuli/spore_stims/simple_19_A_d.gif","","","","","3","simple_similar","images/stimuli/spore_stims/simple_19_A_d.gif","left","","","","",""
"","null","html-keyboard-response","68","204841","0.0-17.0-0.3","SS1613138354695","","","null","","","","","<p><img src= images/blank.png width =""200"" height = ""200"" style = ""float:right""></p><p><img src=images/blank.png width =""800"" height = ""200""></p>","","","","","","","","","","","",""
"","337","sequential-stimulus-presentation","69","205994","0.0-17.0-1.3","SS1613138354695","trial","","40","800","1137","images/stimuli/spore_stims/simple_19_B_d.gif","images/stimuli/spore_stims/simple_19_A_d.gif","","","","","3","simple_similar","images/stimuli/spore_stims/simple_19_A_d.gif","left","","","","",""
"","null","html-keyboard-response","70","206816","0.0-17.0-0.4","SS1613138354695","","","null","","","","","<p><img src= images/blank.png width =""200"" height = ""200"" style = ""float:right""></p><p><img src=images/blank.png width =""800"" height = ""200""></p>","","","","","","","","","","","",""
"","546","sequential-stimulus-presentation","71","208177","0.0-17.0-1.4","SS1613138354695","trial","","40","800","1346","images/stimuli/spore_stims/simple_19_B_d.gif","images/stimuli/spore_stims/simple_19_A_d.gif","","","","","3","simple_similar","images/stimuli/spore_stims/simple_19_A_d.gif","left","","","","",""
"","null","html-keyboard-response","72","209410","0.0-17.0-0.5","SS1613138354695","","","null","","","","","<p><img src= images/blank.png width =""200"" height = ""200"" style = ""float:right""></p><p><img src=images/blank.png width =""800"" height = ""200""></p>","","","","","","","","","","","",""
"","847","sequential-stimulus-presentation","73","211069","0.0-17.0-1.5","SS1613138354695","trial","","40","800","1647","images/stimuli/spore_stims/simple_19_B_d.gif","images/stimuli/spore_stims/simple_19_A_d.gif","","","","","3","simple_similar","images/stimuli/spore_stims/simple_19_B_d.gif","middle","","","","",""
"","null","html-keyboard-response","74","212285","0.0-17.0-0.6","SS1613138354695","","","null","","","","","<p><img src= images/blank.png width =""200"" height = ""200"" style = ""float:right""></p><p><img src=images/blank.png width =""800"" height = ""200""></p>","","","","","","","","","","","",""
"","638","sequential-stimulus-presentation","75","213737","0.0-17.0-1.6","SS1613138354695","trial","","40","800","1438","images/stimuli/spore_stims/simple_19_B_d.gif","images/stimuli/spore_stims/simple_19_A_d.gif","","","","","3","simple_similar","images/stimuli/spore_stims/simple_19_A_d.gif","left","","","","",""
"","null","html-keyboard-response","76","214769","0.0-17.0-0.7","SS1613138354695","","","null","","","","","<p><img src= images/blank.png width =""200"" height = ""200"" style = ""float:right""></p><p><img src=images/blank.png width =""800"" height = ""200""></p>","","","","","","","","","","","",""
"","1074","sequential-stimulus-presentation","77","216660","0.0-17.0-1.7","SS1613138354695","trial","","40","800","1874","images/stimuli/spore_stims/simple_19_B_d.gif","images/stimuli/spore_stims/simple_19_A_d.gif","","","","","3","simple_similar","images/stimuli/spore_stims/simple_19_A_d.gif","left","","","","",""
"","2411","html-keyboard-response","78","219081","0.0-18.0","SS1613138354695","pref_question","","99","","","","","<video width ='960' height = '540' style='padding-top:8%' autoplay muted><source src='images/stimuli/wall_pref.mp4' type='video/mp4'></video>","3","right","66%","3","","","","","","","",""
"","1154","sequential-stimulus-presentation","79","221054","0.0-19.0","SS1613138354695","pref_reveal","","40","800","1954","null","null","","","","","3","","","","novel","","","",""
"","null","html-keyboard-response","80","222148","0.0-20.0-0.0","SS1613138354695","","","null","","","","","<p><img src= images/blank.png width =""200"" height = ""200"" style = ""float:right""></p><p><img src=images/blank.png width =""800"" height = ""200""></p>","","","","","","","","","","","",""
"","44","sequential-stimulus-presentation","81","223005","0.0-20.0-1.0","SS1613138354695","trial","","40","800","844","images/stimuli/spore_stims/simple_17_A_c.gif","images/stimuli/spore_stims/simple_17_B_c.gif","","","","","4","simple_similar","images/stimuli/spore_stims/simple_17_B_c.gif","right","","","","",""
"","null","html-keyboard-response","82","223911","0.0-20.0-0.1","SS1613138354695","","","null","","","","","<p><img src= images/blank.png width =""200"" height = ""200"" style = ""float:right""></p><p><img src=images/blank.png width =""800"" height = ""200""></p>","","","","","","","","","","","",""
"","591","sequential-stimulus-presentation","83","225322","0.0-20.0-1.1","SS1613138354695","trial","","40","800","1391","images/stimuli/spore_stims/simple_17_A_c.gif","images/stimuli/spore_stims/simple_17_B_c.gif","","","","","4","simple_similar","images/stimuli/spore_stims/simple_17_B_c.gif","right","","","","",""
"","null","html-keyboard-response","84","226532","0.0-20.0-0.2","SS1613138354695","","","null","","","","","<p><img src= images/blank.png width =""200"" height = ""200"" style = ""float:right""></p><p><img src=images/blank.png width =""800"" height = ""200""></p>","","","","","","","","","","","",""
"","1337","sequential-stimulus-presentation","85","228686","0.0-20.0-1.2","SS1613138354695","trial","","40","800","2137","images/stimuli/spore_stims/simple_17_A_c.gif","images/stimuli/spore_stims/simple_17_B_c.gif","","","","","4","simple_similar","images/stimuli/spore_stims/simple_17_B_c.gif","right","","","","",""
"","null","html-keyboard-response","86","229632","0.0-20.0-0.3","SS1613138354695","","","null","","","","","<p><img src= images/blank.png width =""200"" height = ""200"" style = ""float:right""></p><p><img src=images/blank.png width =""800"" height = ""200""></p>","","","","","","","","","","","",""
"","978","sequential-stimulus-presentation","87","231427","0.0-20.0-1.3","SS1613138354695","trial","","40","800","1778","images/stimuli/spore_stims/simple_17_A_c.gif","images/stimuli/spore_stims/simple_17_B_c.gif","","","","","4","simple_similar","images/stimuli/spore_stims/simple_17_B_c.gif","right","","","","",""
"","null","html-keyboard-response","88","232413","0.0-20.0-0.4","SS1613138354695","","","null","","","","","<p><img src= images/blank.png width =""200"" height = ""200"" style = ""float:right""></p><p><img src=images/blank.png width =""800"" height = ""200""></p>","","","","","","","","","","","",""
"","538","sequential-stimulus-presentation","89","233767","0.0-20.0-1.4","SS1613138354695","trial","","40","800","1338","images/stimuli/spore_stims/simple_17_A_c.gif","images/stimuli/spore_stims/simple_17_B_c.gif","","","","","4","simple_similar","images/stimuli/spore_stims/simple_17_B_c.gif","right","","","","",""
"","null","html-keyboard-response","90","234830","0.0-20.0-0.5","SS1613138354695","","","null","","","","","<p><img src= images/blank.png width =""200"" height = ""200"" style = ""float:right""></p><p><img src=images/blank.png width =""800"" height = ""200""></p>","","","","","","","","","","","",""
"","1174","sequential-stimulus-presentation","91","236816","0.0-20.0-1.5","SS1613138354695","trial","","40","800","1974","images/stimuli/spore_stims/simple_17_A_c.gif","images/stimuli/spore_stims/simple_17_B_c.gif","","","","","4","simple_similar","images/stimuli/spore_stims/simple_17_B_c.gif","right","","","","",""
"","null","html-keyboard-response","92","237928","0.0-20.0-0.6","SS1613138354695","","","null","","","","","<p><img src= images/blank.png width =""200"" height = ""200"" style = ""float:right""></p><p><img src=images/blank.png width =""800"" height = ""200""></p>","","","","","","","","","","","",""
"","768","sequential-stimulus-presentation","93","239515","0.0-20.0-1.6","SS1613138354695","trial","","40","800","1568","images/stimuli/spore_stims/simple_17_A_c.gif","images/stimuli/spore_stims/simple_17_B_c.gif","","","","","4","simple_similar","images/stimuli/spore_stims/simple_17_B_c.gif","right","","","","",""
"","null","html-keyboard-response","94","240378","0.0-20.0-0.7","SS1613138354695","","","null","","","","","<p><img src= images/blank.png width =""200"" height = ""200"" style = ""float:right""></p><p><img src=images/blank.png width =""800"" height = ""200""></p>","","","","","","","","","","","",""
"","665","sequential-stimulus-presentation","95","241858","0.0-20.0-1.7","SS1613138354695","trial","","40","800","1465","images/stimuli/spore_stims/simple_17_A_c.gif","images/stimuli/spore_stims/simple_17_B_c.gif","","","","","4","simple_similar","images/stimuli/spore_stims/simple_17_A_c.gif","middle","","","","",""
"","3393","html-keyboard-response","96","245264","0.0-21.0","SS1613138354695","pref_question","","97","","","","","<video width ='960' height = '540' style='padding-top:8%' autoplay muted><source src='images/stimuli/wall_pref.mp4' type='video/mp4'></video>","1","left","25%","4","","","","","","","",""
"","1538","sequential-stimulus-presentation","97","247622","0.0-22.0","SS1613138354695","pref_reveal","","40","800","2338","null","null","","","","","4","","","","novel","","","",""
"","null","html-keyboard-response","98","248536","0.0-23.0-0.0","SS1613138354695","","","null","","","","","<p><img src= images/blank.png width =""200"" height = ""200"" style = ""float:right""></p><p><img src=images/blank.png width =""800"" height = ""200""></p>","","","","","","","","","","","",""
"","751","sequential-stimulus-presentation","99","250102","0.0-23.0-1.0","SS1613138354695","trial","","40","800","1551","images/stimuli/spore_stims/complex_17_B_a.gif","images/stimuli/spore_stims/complex_11_B_b.gif","","","","","5","complex_dissimilar","images/stimuli/spore_stims/complex_11_B_b.gif","middle","","","","",""
"","null","html-keyboard-response","100","251122","0.0-23.0-0.1","SS1613138354695","","","null","","","","","<p><img src= images/blank.png width =""200"" height = ""200"" style = ""float:right""></p><p><img src=images/blank.png width =""800"" height = ""200""></p>","","","","","","","","","","","",""
"","538","sequential-stimulus-presentation","101","252472","0.0-23.0-1.1","SS1613138354695","trial","","40","800","1338","images/stimuli/spore_stims/complex_17_B_a.gif","images/stimuli/spore_stims/complex_11_B_b.gif","","","","","5","complex_dissimilar","images/stimuli/spore_stims/complex_11_B_b.gif","middle","","","","",""
"","null","html-keyboard-response","102","253325","0.0-23.0-0.2","SS1613138354695","","","null","","","","","<p><img src= images/blank.png width =""200"" height = ""200"" style = ""float:right""></p><p><img src=images/blank.png width =""800"" height = ""200""></p>","","","","","","","","","","","",""
"","1385","sequential-stimulus-presentation","103","255536","0.0-23.0-1.2","SS1613138354695","trial","","40","800","2185","images/stimuli/spore_stims/complex_17_B_a.gif","images/stimuli/spore_stims/complex_11_B_b.gif","","","","","5","complex_dissimilar","images/stimuli/spore_stims/complex_11_B_b.gif","middle","","","","",""
"","null","html-keyboard-response","104","256594","0.0-23.0-0.3","SS1613138354695","","","null","","","","","<p><img src= images/blank.png width =""200"" height = ""200"" style = ""float:right""></p><p><img src=images/blank.png width =""800"" height = ""200""></p>","","","","","","","","","","","",""
"","1504","sequential-stimulus-presentation","105","258922","0.0-23.0-1.3","SS1613138354695","trial","","40","800","2304","images/stimuli/spore_stims/complex_17_B_a.gif","images/stimuli/spore_stims/complex_11_B_b.gif","","","","","5","complex_dissimilar","images/stimuli/spore_stims/complex_11_B_b.gif","middle","","","","",""
"","null","html-keyboard-response","106","260056","0.0-23.0-0.4","SS1613138354695","","","null","","","","","<p><img src= images/blank.png width =""200"" height = ""200"" style = ""float:right""></p><p><img src=images/blank.png width =""800"" height = ""200""></p>","","","","","","","","","","","",""
"","1269","sequential-stimulus-presentation","107","262140","0.0-23.0-1.4","SS1613138354695","trial","","40","800","2069","images/stimuli/spore_stims/complex_17_B_a.gif","images/stimuli/spore_stims/complex_11_B_b.gif","","","","","5","complex_dissimilar","images/stimuli/spore_stims/complex_17_B_a.gif","left","","","","",""
"","null","html-keyboard-response","108","263036","0.0-23.0-0.5","SS1613138354695","","","null","","","","","<p><img src= images/blank.png width =""200"" height = ""200"" style = ""float:right""></p><p><img src=images/blank.png width =""800"" height = ""200""></p>","","","","","","","","","","","",""
"","1351","sequential-stimulus-presentation","109","265198","0.0-23.0-1.5","SS1613138354695","trial","","40","800","2151","images/stimuli/spore_stims/complex_17_B_a.gif","images/stimuli/spore_stims/complex_11_B_b.gif","","","","","5","complex_dissimilar","images/stimuli/spore_stims/complex_11_B_b.gif","middle","","","","",""
"","null","html-keyboard-response","110","266225","0.0-23.0-0.6","SS1613138354695","","","null","","","","","<p><img src= images/blank.png width =""200"" height = ""200"" style = ""float:right""></p><p><img src=images/blank.png width =""800"" height = ""200""></p>","","","","","","","","","","","",""
"","2108","sequential-stimulus-presentation","111","269159","0.0-23.0-1.6","SS1613138354695","trial","","40","800","2908","images/stimuli/spore_stims/complex_17_B_a.gif","images/stimuli/spore_stims/complex_11_B_b.gif","","","","","5","complex_dissimilar","images/stimuli/spore_stims/complex_11_B_b.gif","middle","","","","",""
"","null","html-keyboard-response","112","270164","0.0-23.0-0.7","SS1613138354695","","","null","","","","","<p><img src= images/blank.png width =""200"" height = ""200"" style = ""float:right""></p><p><img src=images/blank.png width =""800"" height = ""200""></p>","","","","","","","","","","","",""
"","2124","sequential-stimulus-presentation","113","273100","0.0-23.0-1.7","SS1613138354695","trial","","40","800","2924","images/stimuli/spore_stims/complex_17_B_a.gif","images/stimuli/spore_stims/complex_11_B_b.gif","","","","","5","complex_dissimilar","images/stimuli/spore_stims/complex_11_B_b.gif","middle","","","","",""
"","2084","html-keyboard-response","114","275196","0.0-24.0","SS1613138354695","pref_question","","97","","","","","<video width ='960' height = '540' style='padding-top:8%' autoplay muted><source src='images/stimuli/wall_pref.mp4' type='video/mp4'></video>","1","left","25%","5","","","","","","","",""
"","1819","sequential-stimulus-presentation","115","277833","0.0-25.0","SS1613138354695","pref_reveal","","40","800","2619","null","null","","","","","5","","","","deviant","","","",""
"","null","html-keyboard-response","116","278703","0.0-26.0-0.0","SS1613138354695","","","null","","","","","<p><img src= images/blank.png width =""200"" height = ""200"" style = ""float:right""></p><p><img src=images/blank.png width =""800"" height = ""200""></p>","","","","","","","","","","","",""
"","868","sequential-stimulus-presentation","117","280389","0.0-26.0-1.0","SS1613138354695","trial","","40","800","1668","images/stimuli/spore_stims/simple_10_A_c.gif","images/stimuli/spore_stims/simple_02_B_d.gif","","","","","6","simple_dissimilar","images/stimuli/spore_stims/simple_02_B_d.gif","right","","","","",""
"","null","html-keyboard-response","118","281523","0.0-26.0-0.1","SS1613138354695","","","null","","","","","<p><img src= images/blank.png width =""200"" height = ""200"" style = ""float:right""></p><p><img src=images/blank.png width =""800"" height = ""200""></p>","","","","","","","","","","","",""
"","483","sequential-stimulus-presentation","119","282822","0.0-26.0-1.1","SS1613138354695","trial","","40","800","1283","images/stimuli/spore_stims/simple_10_A_c.gif","images/stimuli/spore_stims/simple_02_B_d.gif","","","","","6","simple_dissimilar","images/stimuli/spore_stims/simple_02_B_d.gif","right","","","","",""
"","null","html-keyboard-response","120","284031","0.0-26.0-0.2","SS1613138354695","","","null","","","","","<p><img src= images/blank.png width =""200"" height = ""200"" style = ""float:right""></p><p><img src=images/blank.png width =""800"" height = ""200""></p>","","","","","","","","","","","",""
"","741","sequential-stimulus-presentation","121","285587","0.0-26.0-1.2","SS1613138354695","trial","","40","800","1541","images/stimuli/spore_stims/simple_10_A_c.gif","images/stimuli/spore_stims/simple_02_B_d.gif","","","","","6","simple_dissimilar","images/stimuli/spore_stims/simple_02_B_d.gif","right","","","","",""
"","null","html-keyboard-response","122","286579","0.0-26.0-0.3","SS1613138354695","","","null","","","","","<p><img src= images/blank.png width =""200"" height = ""200"" style = ""float:right""></p><p><img src=images/blank.png width =""800"" height = ""200""></p>","","","","","","","","","","","",""
"","877","sequential-stimulus-presentation","123","288274","0.0-26.0-1.3","SS1613138354695","trial","","40","800","1677","images/stimuli/spore_stims/simple_10_A_c.gif","images/stimuli/spore_stims/simple_02_B_d.gif","","","","","6","simple_dissimilar","images/stimuli/spore_stims/simple_02_B_d.gif","right","","","","",""
"","null","html-keyboard-response","124","289347","0.0-26.0-0.4","SS1613138354695","","","null","","","","","<p><img src= images/blank.png width =""200"" height = ""200"" style = ""float:right""></p><p><img src=images/blank.png width =""800"" height = ""200""></p>","","","","","","","","","","","",""
"","1277","sequential-stimulus-presentation","125","291447","0.0-26.0-1.4","SS1613138354695","trial","","40","800","2077","images/stimuli/spore_stims/simple_10_A_c.gif","images/stimuli/spore_stims/simple_02_B_d.gif","","","","","6","simple_dissimilar","images/stimuli/spore_stims/simple_02_B_d.gif","right","","","","",""
"","null","html-keyboard-response","126","292532","0.0-26.0-0.5","SS1613138354695","","","null","","","","","<p><img src= images/blank.png width =""200"" height = ""200"" style = ""float:right""></p><p><img src=images/blank.png width =""800"" height = ""200""></p>","","","","","","","","","","","",""
"","1367","sequential-stimulus-presentation","127","294720","0.0-26.0-1.5","SS1613138354695","trial","","40","800","2167","images/stimuli/spore_stims/simple_10_A_c.gif","images/stimuli/spore_stims/simple_02_B_d.gif","","","","","6","simple_dissimilar","images/stimuli/spore_stims/simple_10_A_c.gif","left","","","","",""
"","null","html-keyboard-response","128","295792","0.0-26.0-0.6","SS1613138354695","","","null","","","","","<p><img src= images/blank.png width =""200"" height = ""200"" style = ""float:right""></p><p><img src=images/blank.png width =""800"" height = ""200""></p>","","","","","","","","","","","",""
"","631","sequential-stimulus-presentation","129","297233","0.0-26.0-1.6","SS1613138354695","trial","","40","800","1431","images/stimuli/spore_stims/simple_10_A_c.gif","images/stimuli/spore_stims/simple_02_B_d.gif","","","","","6","simple_dissimilar","images/stimuli/spore_stims/simple_02_B_d.gif","right","","","","",""
"","null","html-keyboard-response","130","298470","0.0-26.0-0.7","SS1613138354695","","","null","","","","","<p><img src= images/blank.png width =""200"" height = ""200"" style = ""float:right""></p><p><img src=images/blank.png width =""800"" height = ""200""></p>","","","","","","","","","","","",""
"","421","sequential-stimulus-presentation","131","299703","0.0-26.0-1.7","SS1613138354695","trial","","40","800","1221","images/stimuli/spore_stims/simple_10_A_c.gif","images/stimuli/spore_stims/simple_02_B_d.gif","","","","","6","simple_dissimilar","images/stimuli/spore_stims/simple_02_B_d.gif","right","","","","",""
"","2092","html-keyboard-response","132","301803","0.0-27.0","SS1613138354695","pref_question","","98","","","","","<video width ='960' height = '540' style='padding-top:8%' autoplay muted><source src='images/stimuli/wall_pref.mp4' type='video/mp4'></video>","2","middle","45%","6","","","","","","","",""
"","2159","sequential-stimulus-presentation","133","304783","0.0-28.0","SS1613138354695","pref_reveal","","40","800","2959","null","null","","","","","6","","","","novel","","","",""
"","null","html-keyboard-response","134","305847","0.0-29.0-0.0","SS1613138354695","","","null","","","","","<p><img src= images/blank.png width =""200"" height = ""200"" style = ""float:right""></p><p><img src=images/blank.png width =""800"" height = ""200""></p>","","","","","","","","","","","",""
"","1230","sequential-stimulus-presentation","135","307893","0.0-29.0-1.0","SS1613138354695","trial","","40","800","2030","images/stimuli/spore_stims/complex_05_B_c.gif","images/stimuli/spore_stims/complex_04_A_b.gif","","","","","7","complex_dissimilar","images/stimuli/spore_stims/complex_04_A_b.gif","left","","","","",""
"","null","html-keyboard-response","136","308726","0.0-29.0-0.1","SS1613138354695","","","null","","","","","<p><img src= images/blank.png width =""200"" height = ""200"" style = ""float:right""></p><p><img src=images/blank.png width =""800"" height = ""200""></p>","","","","","","","","","","","",""
"","1839","sequential-stimulus-presentation","137","311383","0.0-29.0-1.1","SS1613138354695","trial","","40","800","2639","images/stimuli/spore_stims/complex_05_B_c.gif","images/stimuli/spore_stims/complex_04_A_b.gif","","","","","7","complex_dissimilar","images/stimuli/spore_stims/complex_04_A_b.gif","left","","","","",""
"","null","html-keyboard-response","138","312502","0.0-29.0-0.2","SS1613138354695","","","null","","","","","<p><img src= images/blank.png width =""200"" height = ""200"" style = ""float:right""></p><p><img src=images/blank.png width =""800"" height = ""200""></p>","","","","","","","","","","","",""
"","1904","sequential-stimulus-presentation","139","315224","0.0-29.0-1.2","SS1613138354695","trial","","40","800","2704","images/stimuli/spore_stims/complex_05_B_c.gif","images/stimuli/spore_stims/complex_04_A_b.gif","","","","","7","complex_dissimilar","images/stimuli/spore_stims/complex_04_A_b.gif","left","","","","",""
"","null","html-keyboard-response","140","316476","0.0-29.0-0.3","SS1613138354695","","","null","","","","","<p><img src= images/blank.png width =""200"" height = ""200"" style = ""float:right""></p><p><img src=images/blank.png width =""800"" height = ""200""></p>","","","","","","","","","","","",""
"","3360","sequential-stimulus-presentation","141","320650","0.0-29.0-1.3","SS1613138354695","trial","","40","800","4160","images/stimuli/spore_stims/complex_05_B_c.gif","images/stimuli/spore_stims/complex_04_A_b.gif","","","","","7","complex_dissimilar","images/stimuli/spore_stims/complex_05_B_c.gif","middle","","","","",""
"","null","html-keyboard-response","142","321675","0.0-29.0-0.4","SS1613138354695","","","null","","","","","<p><img src= images/blank.png width =""200"" height = ""200"" style = ""float:right""></p><p><img src=images/blank.png width =""800"" height = ""200""></p>","","","","","","","","","","","",""
"","1132","sequential-stimulus-presentation","143","323620","0.0-29.0-1.4","SS1613138354695","trial","","40","800","1932","images/stimuli/spore_stims/complex_05_B_c.gif","images/stimuli/spore_stims/complex_04_A_b.gif","","","","","7","complex_dissimilar","images/stimuli/spore_stims/complex_04_A_b.gif","left","","","","",""
"","null","html-keyboard-response","144","324890","0.0-29.0-0.5","SS1613138354695","","","null","","","","","<p><img src= images/blank.png width =""200"" height = ""200"" style = ""float:right""></p><p><img src=images/blank.png width =""800"" height = ""200""></p>","","","","","","","","","","","",""
"","861","sequential-stimulus-presentation","145","326565","0.0-29.0-1.5","SS1613138354695","trial","","40","800","1661","images/stimuli/spore_stims/complex_05_B_c.gif","images/stimuli/spore_stims/complex_04_A_b.gif","","","","","7","complex_dissimilar","images/stimuli/spore_stims/complex_04_A_b.gif","left","","","","",""
"","null","html-keyboard-response","146","327560","0.0-29.0-0.6","SS1613138354695","","","null","","","","","<p><img src= images/blank.png width =""200"" height = ""200"" style = ""float:right""></p><p><img src=images/blank.png width =""800"" height = ""200""></p>","","","","","","","","","","","",""
"","1658","sequential-stimulus-presentation","147","330029","0.0-29.0-1.6","SS1613138354695","trial","","40","800","2458","images/stimuli/spore_stims/complex_05_B_c.gif","images/stimuli/spore_stims/complex_04_A_b.gif","","","","","7","complex_dissimilar","images/stimuli/spore_stims/complex_04_A_b.gif","left","","","","",""
"","null","html-keyboard-response","148","331119","0.0-29.0-0.7","SS1613138354695","","","null","","","","","<p><img src= images/blank.png width =""200"" height = ""200"" style = ""float:right""></p><p><img src=images/blank.png width =""800"" height = ""200""></p>","","","","","","","","","","","",""
"","1940","sequential-stimulus-presentation","149","333872","0.0-29.0-1.7","SS1613138354695","trial","","40","800","2740","images/stimuli/spore_stims/complex_05_B_c.gif","images/stimuli/spore_stims/complex_04_A_b.gif","","","","","7","complex_dissimilar","images/stimuli/spore_stims/complex_04_A_b.gif","left","","","","",""
"","2980","html-keyboard-response","150","336866","0.0-30.0","SS1613138354695","pref_question","","99","","","","","<video width ='960' height = '540' style='padding-top:8%' autoplay muted><source src='images/stimuli/wall_pref.mp4' type='video/mp4'></video>","3","right","66%","7","","","","","","","",""
"","4059","sequential-stimulus-presentation","151","341747","0.0-31.0","SS1613138354695","pref_reveal","","40","800","4859","null","null","","","","","7","","","","novel","","","",""
"","null","html-keyboard-response","152","342622","0.0-32.0-0.0","SS1613138354695","","","null","","","","","<p><img src= images/blank.png width =""200"" height = ""200"" style = ""float:right""></p><p><img src=images/blank.png width =""800"" height = ""200""></p>","","","","","","","","","","","",""
"","3524","sequential-stimulus-presentation","153","346960","0.0-32.0-1.0","SS1613138354695","trial","","40","800","4324","images/stimuli/spore_stims/simple_11_A_a.gif","images/stimuli/spore_stims/simple_11_B_a.gif","","","","","8","simple_similar","images/stimuli/spore_stims/simple_11_B_a.gif","right","","","","",""
"","null","html-keyboard-response","154","348191","0.0-32.0-0.1","SS1613138354695","","","null","","","","","<p><img src= images/blank.png width =""200"" height = ""200"" style = ""float:right""></p><p><img src=images/blank.png width =""800"" height = ""200""></p>","","","","","","","","","","","",""
"","2175","sequential-stimulus-presentation","155","351181","0.0-32.0-1.1","SS1613138354695","trial","","40","800","2975","images/stimuli/spore_stims/simple_11_A_a.gif","images/stimuli/spore_stims/simple_11_B_a.gif","","","","","8","simple_similar","images/stimuli/spore_stims/simple_11_B_a.gif","right","","","","",""
"","null","html-keyboard-response","156","352013","0.0-32.0-0.2","SS1613138354695","","","null","","","","","<p><img src= images/blank.png width =""200"" height = ""200"" style = ""float:right""></p><p><img src=images/blank.png width =""800"" height = ""200""></p>","","","","","","","","","","","",""
"","1660","sequential-stimulus-presentation","157","354488","0.0-32.0-1.2","SS1613138354695","trial","","40","800","2460","images/stimuli/spore_stims/simple_11_A_a.gif","images/stimuli/spore_stims/simple_11_B_a.gif","","","","","8","simple_similar","images/stimuli/spore_stims/simple_11_B_a.gif","right","","","","",""
"","null","html-keyboard-response","158","355338","0.0-32.0-0.3","SS1613138354695","","","null","","","","","<p><img src= images/blank.png width =""200"" height = ""200"" style = ""float:right""></p><p><img src=images/blank.png width =""800"" height = ""200""></p>","","","","","","","","","","","",""
"","2094","sequential-stimulus-presentation","159","358247","0.0-32.0-1.3","SS1613138354695","trial","","40","800","2894","images/stimuli/spore_stims/simple_11_A_a.gif","images/stimuli/spore_stims/simple_11_B_a.gif","","","","","8","simple_similar","images/stimuli/spore_stims/simple_11_B_a.gif","right","","","","",""
"","null","html-keyboard-response","160","359524","0.0-32.0-0.4","SS1613138354695","","","null","","","","","<p><img src= images/blank.png width =""200"" height = ""200"" style = ""float:right""></p><p><img src=images/blank.png width =""800"" height = ""200""></p>","","","","","","","","","","","",""
"","1086","sequential-stimulus-presentation","161","361429","0.0-32.0-1.4","SS1613138354695","trial","","40","800","1886","images/stimuli/spore_stims/simple_11_A_a.gif","images/stimuli/spore_stims/simple_11_B_a.gif","","","","","8","simple_similar","images/stimuli/spore_stims/simple_11_B_a.gif","right","","","","",""
"","null","html-keyboard-response","162","362565","0.0-32.0-0.5","SS1613138354695","","","null","","","","","<p><img src= images/blank.png width =""200"" height = ""200"" style = ""float:right""></p><p><img src=images/blank.png width =""800"" height = ""200""></p>","","","","","","","","","","","",""
"","3021","sequential-stimulus-presentation","163","366403","0.0-32.0-1.5","SS1613138354695","trial","","40","800","3821","images/stimuli/spore_stims/simple_11_A_a.gif","images/stimuli/spore_stims/simple_11_B_a.gif","","","","","8","simple_similar","images/stimuli/spore_stims/simple_11_A_a.gif","middle","","","","",""
"","null","html-keyboard-response","164","367610","0.0-32.0-0.6","SS1613138354695","","","null","","","","","<p><img src= images/blank.png width =""200"" height = ""200"" style = ""float:right""></p><p><img src=images/blank.png width =""800"" height = ""200""></p>","","","","","","","","","","","",""
"","2277","sequential-stimulus-presentation","165","370716","0.0-32.0-1.6","SS1613138354695","trial","","40","800","3077","images/stimuli/spore_stims/simple_11_A_a.gif","images/stimuli/spore_stims/simple_11_B_a.gif","","","","","8","simple_similar","images/stimuli/spore_stims/simple_11_B_a.gif","right","","","","",""
"","null","html-keyboard-response","166","371807","0.0-32.0-0.7","SS1613138354695","","","null","","","","","<p><img src= images/blank.png width =""200"" height = ""200"" style = ""float:right""></p><p><img src=images/blank.png width =""800"" height = ""200""></p>","","","","","","","","","","","",""
"","777","sequential-stimulus-presentation","167","373407","0.0-32.0-1.7","SS1613138354695","trial","","40","800","1577","images/stimuli/spore_stims/simple_11_A_a.gif","images/stimuli/spore_stims/simple_11_B_a.gif","","","","","8","simple_similar","images/stimuli/spore_stims/simple_11_B_a.gif","right","","","","",""
"","2533","html-keyboard-response","168","375957","0.0-33.0","SS1613138354695","pref_question","","97","","","","","<video width ='960' height = '540' style='padding-top:8%' autoplay muted><source src='images/stimuli/wall_pref.mp4' type='video/mp4'></video>","1","left","25%","8","","","","","","","",""
"","2307","sequential-stimulus-presentation","169","379082","0.0-34.0","SS1613138354695","pref_reveal","","40","800","3107","null","null","","","","","8","","","","novel","","","",""
"","null","html-keyboard-response","170","379929","0.0-35.0-0.0","SS1613138354695","","","null","","","","","<p><img src= images/blank.png width =""200"" height = ""200"" style = ""float:right""></p><p><img src=images/blank.png width =""800"" height = ""200""></p>","","","","","","","","","","","",""
"","2309","sequential-stimulus-presentation","171","383051","0.0-35.0-1.0","SS1613138354695","trial","","40","800","3109","images/stimuli/spore_stims/simple_06_B_a.gif","images/stimuli/spore_stims/simple_13_A_a.gif","","","","","9","simple_dissimilar","images/stimuli/spore_stims/simple_13_A_a.gif","middle","","","","",""
"","null","html-keyboard-response","172","384341","0.0-35.0-0.1","SS1613138354695","","","null","","","","","<p><img src= images/blank.png width =""200"" height = ""200"" style = ""float:right""></p><p><img src=images/blank.png width =""800"" height = ""200""></p>","","","","","","","","","","","",""
"","1418","sequential-stimulus-presentation","173","386576","0.0-35.0-1.1","SS1613138354695","trial","","40","800","2218","images/stimuli/spore_stims/simple_06_B_a.gif","images/stimuli/spore_stims/simple_13_A_a.gif","","","","","9","simple_dissimilar","images/stimuli/spore_stims/simple_13_A_a.gif","middle","","","","",""
"","null","html-keyboard-response","174","387654","0.0-35.0-0.2","SS1613138354695","","","null","","","","","<p><img src= images/blank.png width =""200"" height = ""200"" style = ""float:right""></p><p><img src=images/blank.png width =""800"" height = ""200""></p>","","","","","","","","","","","",""
"","772","sequential-stimulus-presentation","175","389237","0.0-35.0-1.2","SS1613138354695","trial","","40","800","1572","images/stimuli/spore_stims/simple_06_B_a.gif","images/stimuli/spore_stims/simple_13_A_a.gif","","","","","9","simple_dissimilar","images/stimuli/spore_stims/simple_13_A_a.gif","middle","","","","",""
"","null","html-keyboard-response","176","390435","0.0-35.0-0.3","SS1613138354695","","","null","","","","","<p><img src= images/blank.png width =""200"" height = ""200"" style = ""float:right""></p><p><img src=images/blank.png width =""800"" height = ""200""></p>","","","","","","","","","","","",""
"","1430","sequential-stimulus-presentation","177","392692","0.0-35.0-1.3","SS1613138354695","trial","","40","800","2230","images/stimuli/spore_stims/simple_06_B_a.gif","images/stimuli/spore_stims/simple_13_A_a.gif","","","","","9","simple_dissimilar","images/stimuli/spore_stims/simple_13_A_a.gif","middle","","","","",""
"","null","html-keyboard-response","178","393533","0.0-35.0-0.4","SS1613138354695","","","null","","","","","<p><img src= images/blank.png width =""200"" height = ""200"" style = ""float:right""></p><p><img src=images/blank.png width =""800"" height = ""200""></p>","","","","","","","","","","","",""
"","1678","sequential-stimulus-presentation","179","396027","0.0-35.0-1.4","SS1613138354695","trial","","40","800","2478","images/stimuli/spore_stims/simple_06_B_a.gif","images/stimuli/spore_stims/simple_13_A_a.gif","","","","","9","simple_dissimilar","images/stimuli/spore_stims/simple_13_A_a.gif","middle","","","","",""
"","null","html-keyboard-response","180","397247","0.0-35.0-0.5","SS1613138354695","","","null","","","","","<p><img src= images/blank.png width =""200"" height = ""200"" style = ""float:right""></p><p><img src=images/blank.png width =""800"" height = ""200""></p>","","","","","","","","","","","",""
"","1154","sequential-stimulus-presentation","181","399228","0.0-35.0-1.5","SS1613138354695","trial","","40","800","1954","images/stimuli/spore_stims/simple_06_B_a.gif","images/stimuli/spore_stims/simple_13_A_a.gif","","","","","9","simple_dissimilar","images/stimuli/spore_stims/simple_13_A_a.gif","middle","","","","",""
"","null","html-keyboard-response","182","400344","0.0-35.0-0.6","SS1613138354695","","","null","","","","","<p><img src= images/blank.png width =""200"" height = ""200"" style = ""float:right""></p><p><img src=images/blank.png width =""800"" height = ""200""></p>","","","","","","","","","","","",""
"","1712","sequential-stimulus-presentation","183","402886","0.0-35.0-1.6","SS1613138354695","trial","","40","800","2512","images/stimuli/spore_stims/simple_06_B_a.gif","images/stimuli/spore_stims/simple_13_A_a.gif","","","","","9","simple_dissimilar","images/stimuli/spore_stims/simple_06_B_a.gif","left","","","","",""
"","null","html-keyboard-response","184","403755","0.0-35.0-0.7","SS1613138354695","","","null","","","","","<p><img src= images/blank.png width =""200"" height = ""200"" style = ""float:right""></p><p><img src=images/blank.png width =""800"" height = ""200""></p>","","","","","","","","","","","",""
"","1022","sequential-stimulus-presentation","185","405605","0.0-35.0-1.7","SS1613138354695","trial","","40","800","1822","images/stimuli/spore_stims/simple_06_B_a.gif","images/stimuli/spore_stims/simple_13_A_a.gif","","","","","9","simple_dissimilar","images/stimuli/spore_stims/simple_13_A_a.gif","middle","","","","",""
"","2177","html-keyboard-response","186","407797","0.0-36.0","SS1613138354695","pref_question","","99","","","","","<video width ='960' height = '540' style='padding-top:8%' autoplay muted><source src='images/stimuli/wall_pref.mp4' type='video/mp4'></video>","3","right","66%","9","","","","","","","",""
"","2078","sequential-stimulus-presentation","187","410695","0.0-37.0","SS1613138354695","pref_reveal","","40","800","2878","null","null","","","","","9","","","","novel","","","",""
"","null","html-keyboard-response","188","411739","0.0-38.0-0.0","SS1613138354695","","","null","","","","","<p><img src= images/blank.png width =""200"" height = ""200"" style = ""float:right""></p><p><img src=images/blank.png width =""800"" height = ""200""></p>","","","","","","","","","","","",""
"","1622","sequential-stimulus-presentation","189","414174","0.0-38.0-1.0","SS1613138354695","trial","","40","800","2422","images/stimuli/spore_stims/simple_18_A_b.gif","images/stimuli/spore_stims/simple_13_B_a.gif","","","","","10","simple_dissimilar","images/stimuli/spore_stims/simple_13_B_a.gif","right","","","","",""
"","null","html-keyboard-response","190","415091","0.0-38.0-0.1","SS1613138354695","","","null","","","","","<p><img src= images/blank.png width =""200"" height = ""200"" style = ""float:right""></p><p><img src=images/blank.png width =""800"" height = ""200""></p>","","","","","","","","","","","",""
"","1812","sequential-stimulus-presentation","191","417722","0.0-38.0-1.1","SS1613138354695","trial","","40","800","2612","images/stimuli/spore_stims/simple_18_A_b.gif","images/stimuli/spore_stims/simple_13_B_a.gif","","","","","10","simple_dissimilar","images/stimuli/spore_stims/simple_13_B_a.gif","right","","","","",""
"","null","html-keyboard-response","192","418633","0.0-38.0-0.2","SS1613138354695","","","null","","","","","<p><img src= images/blank.png width =""200"" height = ""200"" style = ""float:right""></p><p><img src=images/blank.png width =""800"" height = ""200""></p>","","","","","","","","","","","",""
"","1388","sequential-stimulus-presentation","193","420850","0.0-38.0-1.2","SS1613138354695","trial","","40","800","2188","images/stimuli/spore_stims/simple_18_A_b.gif","images/stimuli/spore_stims/simple_13_B_a.gif","","","","","10","simple_dissimilar","images/stimuli/spore_stims/simple_13_B_a.gif","right","","","","",""
"","null","html-keyboard-response","194","421859","0.0-38.0-0.3","SS1613138354695","","","null","","","","","<p><img src= images/blank.png width =""200"" height = ""200"" style = ""float:right""></p><p><img src=images/blank.png width =""800"" height = ""200""></p>","","","","","","","","","","","",""
"","1830","sequential-stimulus-presentation","195","424522","0.0-38.0-1.3","SS1613138354695","trial","","40","800","2630","images/stimuli/spore_stims/simple_18_A_b.gif","images/stimuli/spore_stims/simple_13_B_a.gif","","","","","10","simple_dissimilar","images/stimuli/spore_stims/simple_18_A_b.gif","left","","","","",""
"","null","html-keyboard-response","196","425512","0.0-38.0-0.4","SS1613138354695","","","null","","","","","<p><img src= images/blank.png width =""200"" height = ""200"" style = ""float:right""></p><p><img src=images/blank.png width =""800"" height = ""200""></p>","","","","","","","","","","","",""
"","2969","sequential-stimulus-presentation","197","429310","0.0-38.0-1.4","SS1613138354695","trial","","40","800","3769","images/stimuli/spore_stims/simple_18_A_b.gif","images/stimuli/spore_stims/simple_13_B_a.gif","","","","","10","simple_dissimilar","images/stimuli/spore_stims/simple_13_B_a.gif","right","","","","",""
"","null","html-keyboard-response","198","430198","0.0-38.0-0.5","SS1613138354695","","","null","","","","","<p><img src= images/blank.png width =""200"" height = ""200"" style = ""float:right""></p><p><img src=images/blank.png width =""800"" height = ""200""></p>","","","","","","","","","","","",""
"","1915","sequential-stimulus-presentation","199","432942","0.0-38.0-1.5","SS1613138354695","trial","","40","800","2715","images/stimuli/spore_stims/simple_18_A_b.gif","images/stimuli/spore_stims/simple_13_B_a.gif","","","","","10","simple_dissimilar","images/stimuli/spore_stims/simple_13_B_a.gif","right","","","","",""
"","null","html-keyboard-response","200","433860","0.0-38.0-0.6","SS1613138354695","","","null","","","","","<p><img src= images/blank.png width =""200"" height = ""200"" style = ""float:right""></p><p><img src=images/blank.png width =""800"" height = ""200""></p>","","","","","","","","","","","",""
"","1277","sequential-stimulus-presentation","201","435962","0.0-38.0-1.6","SS1613138354695","trial","","40","800","2077","images/stimuli/spore_stims/simple_18_A_b.gif","images/stimuli/spore_stims/simple_13_B_a.gif","","","","","10","simple_dissimilar","images/stimuli/spore_stims/simple_13_B_a.gif","right","","","","",""
"","null","html-keyboard-response","202","436972","0.0-38.0-0.7","SS1613138354695","","","null","","","","","<p><img src= images/blank.png width =""200"" height = ""200"" style = ""float:right""></p><p><img src=images/blank.png width =""800"" height = ""200""></p>","","","","","","","","","","","",""
"","752","sequential-stimulus-presentation","203","438550","0.0-38.0-1.7","SS1613138354695","trial","","40","800","1552","images/stimuli/spore_stims/simple_18_A_b.gif","images/stimuli/spore_stims/simple_13_B_a.gif","","","","","10","simple_dissimilar","images/stimuli/spore_stims/simple_13_B_a.gif","right","","","","",""
"","1878","html-keyboard-response","204","440445","0.0-39.0","SS1613138354695","pref_question","","97","","","","","<video width ='960' height = '540' style='padding-top:8%' autoplay muted><source src='images/stimuli/wall_pref.mp4' type='video/mp4'></video>","1","left","25%","10","","","","","","","",""
"","1241","sequential-stimulus-presentation","205","442513","0.0-40.0","SS1613138354695","pref_reveal","","40","800","2041","null","null","","","","","10","","","","deviant","","","",""
"","null","html-keyboard-response","206","443446","0.0-41.0-0.0","SS1613138354695","","","null","","","","","<p><img src= images/blank.png width =""200"" height = ""200"" style = ""float:right""></p><p><img src=images/blank.png width =""800"" height = ""200""></p>","","","","","","","","","","","",""
"","1345","sequential-stimulus-presentation","207","445622","0.0-41.0-1.0","SS1613138354695","trial","","40","800","2145","images/stimuli/spore_stims/complex_18_A_b.gif","images/stimuli/spore_stims/complex_18_B_b.gif","","","","","11","complex_similar","images/stimuli/spore_stims/complex_18_B_b.gif","left","","","","",""
"","null","html-keyboard-response","208","446446","0.0-41.0-0.1","SS1613138354695","","","null","","","","","<p><img src= images/blank.png width =""200"" height = ""200"" style = ""float:right""></p><p><img src=images/blank.png width =""800"" height = ""200""></p>","","","","","","","","","","","",""
"","629","sequential-stimulus-presentation","209","447900","0.0-41.0-1.1","SS1613138354695","trial","","40","800","1429","images/stimuli/spore_stims/complex_18_A_b.gif","images/stimuli/spore_stims/complex_18_B_b.gif","","","","","11","complex_similar","images/stimuli/spore_stims/complex_18_B_b.gif","left","","","","",""
"","null","html-keyboard-response","210","448974","0.0-41.0-0.2","SS1613138354695","","","null","","","","","<p><img src= images/blank.png width =""200"" height = ""200"" style = ""float:right""></p><p><img src=images/blank.png width =""800"" height = ""200""></p>","","","","","","","","","","","",""
"","1311","sequential-stimulus-presentation","211","451115","0.0-41.0-1.2","SS1613138354695","trial","","40","800","2111","images/stimuli/spore_stims/complex_18_A_b.gif","images/stimuli/spore_stims/complex_18_B_b.gif","","","","","11","complex_similar","images/stimuli/spore_stims/complex_18_A_b.gif","middle","","","","",""
"","null","html-keyboard-response","212","452086","0.0-41.0-0.3","SS1613138354695","","","null","","","","","<p><img src= images/blank.png width =""200"" height = ""200"" style = ""float:right""></p><p><img src=images/blank.png width =""800"" height = ""200""></p>","","","","","","","","","","","",""
"","564","sequential-stimulus-presentation","213","453469","0.0-41.0-1.3","SS1613138354695","trial","","40","800","1364","images/stimuli/spore_stims/complex_18_A_b.gif","images/stimuli/spore_stims/complex_18_B_b.gif","","","","","11","complex_similar","images/stimuli/spore_stims/complex_18_B_b.gif","left","","","","",""
"","null","html-keyboard-response","214","454608","0.0-41.0-0.4","SS1613138354695","","","null","","","","","<p><img src= images/blank.png width =""200"" height = ""200"" style = ""float:right""></p><p><img src=images/blank.png width =""800"" height = ""200""></p>","","","","","","","","","","","",""
"","552","sequential-stimulus-presentation","215","455991","0.0-41.0-1.4","SS1613138354695","trial","","40","800","1352","images/stimuli/spore_stims/complex_18_A_b.gif","images/stimuli/spore_stims/complex_18_B_b.gif","","","","","11","complex_similar","images/stimuli/spore_stims/complex_18_B_b.gif","left","","","","",""
"","null","html-keyboard-response","216","456880","0.0-41.0-0.5","SS1613138354695","","","null","","","","","<p><img src= images/blank.png width =""200"" height = ""200"" style = ""float:right""></p><p><img src=images/blank.png width =""800"" height = ""200""></p>","","","","","","","","","","","",""
"","770","sequential-stimulus-presentation","217","458461","0.0-41.0-1.5","SS1613138354695","trial","","40","800","1570","images/stimuli/spore_stims/complex_18_A_b.gif","images/stimuli/spore_stims/complex_18_B_b.gif","","","","","11","complex_similar","images/stimuli/spore_stims/complex_18_B_b.gif","left","","","","",""
"","null","html-keyboard-response","218","459458","0.0-41.0-0.6","SS1613138354695","","","null","","","","","<p><img src= images/blank.png width =""200"" height = ""200"" style = ""float:right""></p><p><img src=images/blank.png width =""800"" height = ""200""></p>","","","","","","","","","","","",""
"","451","sequential-stimulus-presentation","219","460737","0.0-41.0-1.6","SS1613138354695","trial","","40","800","1251","images/stimuli/spore_stims/complex_18_A_b.gif","images/stimuli/spore_stims/complex_18_B_b.gif","","","","","11","complex_similar","images/stimuli/spore_stims/complex_18_B_b.gif","left","","","","",""
"","null","html-keyboard-response","220","462038","0.0-41.0-0.7","SS1613138354695","","","null","","","","","<p><img src= images/blank.png width =""200"" height = ""200"" style = ""float:right""></p><p><img src=images/blank.png width =""800"" height = ""200""></p>","","","","","","","","","","","",""
"","367","sequential-stimulus-presentation","221","463223","0.0-41.0-1.7","SS1613138354695","trial","","40","800","1167","images/stimuli/spore_stims/complex_18_A_b.gif","images/stimuli/spore_stims/complex_18_B_b.gif","","","","","11","complex_similar","images/stimuli/spore_stims/complex_18_B_b.gif","left","","","","",""
"","2991","html-keyboard-response","222","466231","0.0-42.0","SS1613138354695","pref_question","","99","","","","","<video width ='960' height = '540' style='padding-top:8%' autoplay muted><source src='images/stimuli/wall_pref.mp4' type='video/mp4'></video>","3","right","66%","11","","","","","","","",""
"","1676","sequential-stimulus-presentation","223","468738","0.0-43.0","SS1613138354695","pref_reveal","","40","800","2476","null","null","","","","","11","","","","novel","","","",""
"","null","html-keyboard-response","224","469634","0.0-44.0-0.0","SS1613138354695","","","null","","","","","<p><img src= images/blank.png width =""200"" height = ""200"" style = ""float:right""></p><p><img src=images/blank.png width =""800"" height = ""200""></p>","","","","","","","","","","","",""
"","1149","sequential-stimulus-presentation","225","471615","0.0-44.0-1.0","SS1613138354695","trial","","40","800","1949","images/stimuli/spore_stims/complex_19_A_a.gif","images/stimuli/spore_stims/complex_06_A_c.gif","","","","","12","complex_dissimilar","images/stimuli/spore_stims/complex_06_A_c.gif","right","","","","",""
"","null","html-keyboard-response","226","472552","0.0-44.0-0.1","SS1613138354695","","","null","","","","","<p><img src= images/blank.png width =""200"" height = ""200"" style = ""float:right""></p><p><img src=images/blank.png width =""800"" height = ""200""></p>","","","","","","","","","","","",""
"","1287","sequential-stimulus-presentation","227","474666","0.0-44.0-1.1","SS1613138354695","trial","","40","800","2087","images/stimuli/spore_stims/complex_19_A_a.gif","images/stimuli/spore_stims/complex_06_A_c.gif","","","","","12","complex_dissimilar","images/stimuli/spore_stims/complex_06_A_c.gif","right","","","","",""
"","null","html-keyboard-response","228","475817","0.0-44.0-0.2","SS1613138354695","","","null","","","","","<p><img src= images/blank.png width =""200"" height = ""200"" style = ""float:right""></p><p><img src=images/blank.png width =""800"" height = ""200""></p>","","","","","","","","","","","",""
"","531","sequential-stimulus-presentation","229","477180","0.0-44.0-1.2","SS1613138354695","trial","","40","800","1331","images/stimuli/spore_stims/complex_19_A_a.gif","images/stimuli/spore_stims/complex_06_A_c.gif","","","","","12","complex_dissimilar","images/stimuli/spore_stims/complex_06_A_c.gif","right","","","","",""
"","null","html-keyboard-response","230","478383","0.0-44.0-0.3","SS1613138354695","","","null","","","","","<p><img src= images/blank.png width =""200"" height = ""200"" style = ""float:right""></p><p><img src=images/blank.png width =""800"" height = ""200""></p>","","","","","","","","","","","",""
"","395","sequential-stimulus-presentation","231","479602","0.0-44.0-1.3","SS1613138354695","trial","","40","800","1195","images/stimuli/spore_stims/complex_19_A_a.gif","images/stimuli/spore_stims/complex_06_A_c.gif","","","","","12","complex_dissimilar","images/stimuli/spore_stims/complex_06_A_c.gif","right","","","","",""
"","null","html-keyboard-response","232","480582","0.0-44.0-0.4","SS1613138354695","","","null","","","","","<p><img src= images/blank.png width =""200"" height = ""200"" style = ""float:right""></p><p><img src=images/blank.png width =""800"" height = ""200""></p>","","","","","","","","","","","",""
"","1149","sequential-stimulus-presentation","233","482563","0.0-44.0-1.4","SS1613138354695","trial","","40","800","1949","images/stimuli/spore_stims/complex_19_A_a.gif","images/stimuli/spore_stims/complex_06_A_c.gif","","","","","12","complex_dissimilar","images/stimuli/spore_stims/complex_06_A_c.gif","right","","","","",""
"","null","html-keyboard-response","234","483485","0.0-44.0-0.5","SS1613138354695","","","null","","","","","<p><img src= images/blank.png width =""200"" height = ""200"" style = ""float:right""></p><p><img src=images/blank.png width =""800"" height = ""200""></p>","","","","","","","","","","","",""
"","1356","sequential-stimulus-presentation","235","485656","0.0-44.0-1.5","SS1613138354695","trial","","40","800","2156","images/stimuli/spore_stims/complex_19_A_a.gif","images/stimuli/spore_stims/complex_06_A_c.gif","","","","","12","complex_dissimilar","images/stimuli/spore_stims/complex_06_A_c.gif","right","","","","",""
"","null","html-keyboard-response","236","486568","0.0-44.0-0.6","SS1613138354695","","","null","","","","","<p><img src= images/blank.png width =""200"" height = ""200"" style = ""float:right""></p><p><img src=images/blank.png width =""800"" height = ""200""></p>","","","","","","","","","","","",""
"","1463","sequential-stimulus-presentation","237","488851","0.0-44.0-1.6","SS1613138354695","trial","","40","800","2263","images/stimuli/spore_stims/complex_19_A_a.gif","images/stimuli/spore_stims/complex_06_A_c.gif","","","","","12","complex_dissimilar","images/stimuli/spore_stims/complex_06_A_c.gif","right","","","","",""
"","null","html-keyboard-response","238","489870","0.0-44.0-0.7","SS1613138354695","","","null","","","","","<p><img src= images/blank.png width =""200"" height = ""200"" style = ""float:right""></p><p><img src=images/blank.png width =""800"" height = ""200""></p>","","","","","","","","","","","",""
"","1840","sequential-stimulus-presentation","239","492538","0.0-44.0-1.7","SS1613138354695","trial","","40","800","2640","images/stimuli/spore_stims/complex_19_A_a.gif","images/stimuli/spore_stims/complex_06_A_c.gif","","","","","12","complex_dissimilar","images/stimuli/spore_stims/complex_19_A_a.gif","middle","","","","",""
"","2000","html-keyboard-response","240","494549","0.0-45.0","SS1613138354695","pref_question","","97","","","","","<video width ='960' height = '540' style='padding-top:8%' autoplay muted><source src='images/stimuli/wall_pref.mp4' type='video/mp4'></video>","1","left","25%","12","","","","","","","",""
"","1792","sequential-stimulus-presentation","241","497169","0.0-46.0","SS1613138354695","pref_reveal","","40","800","2592","null","null","","","","","12","","","","novel","","","",""
"","null","html-keyboard-response","242","498489","0.0-47.0-0.0","SS1613138354695","","","null","","","","","<p><img src= images/blank.png width =""200"" height = ""200"" style = ""float:right""></p><p><img src=images/blank.png width =""800"" height = ""200""></p>","","","","","","","","","","","",""
"","638","sequential-stimulus-presentation","243","499960","0.0-47.0-1.0","SS1613138354695","trial","","40","800","1438","images/stimuli/spore_stims/complex_13_A_a.gif","images/stimuli/spore_stims/complex_13_B_a.gif","","","","","13","complex_similar","images/stimuli/spore_stims/complex_13_B_a.gif","right","","","","",""
"","null","html-keyboard-response","244","500778","0.0-47.0-0.1","SS1613138354695","","","null","","","","","<p><img src= images/blank.png width =""200"" height = ""200"" style = ""float:right""></p><p><img src=images/blank.png width =""800"" height = ""200""></p>","","","","","","","","","","","",""
"","1244","sequential-stimulus-presentation","245","502848","0.0-47.0-1.1","SS1613138354695","trial","","40","800","2044","images/stimuli/spore_stims/complex_13_A_a.gif","images/stimuli/spore_stims/complex_13_B_a.gif","","","","","13","complex_similar","images/stimuli/spore_stims/complex_13_B_a.gif","right","","","","",""
"","null","html-keyboard-response","246","504047","0.0-47.0-0.2","SS1613138354695","","","null","","","","","<p><img src= images/blank.png width =""200"" height = ""200"" style = ""float:right""></p><p><img src=images/blank.png width =""800"" height = ""200""></p>","","","","","","","","","","","",""
"","487","sequential-stimulus-presentation","247","505368","0.0-47.0-1.2","SS1613138354695","trial","","40","800","1287","images/stimuli/spore_stims/complex_13_A_a.gif","images/stimuli/spore_stims/complex_13_B_a.gif","","","","","13","complex_similar","images/stimuli/spore_stims/complex_13_B_a.gif","right","","","","",""
"","null","html-keyboard-response","248","506650","0.0-47.0-0.3","SS1613138354695","","","null","","","","","<p><img src= images/blank.png width =""200"" height = ""200"" style = ""float:right""></p><p><img src=images/blank.png width =""800"" height = ""200""></p>","","","","","","","","","","","",""
"","491","sequential-stimulus-presentation","249","507971","0.0-47.0-1.3","SS1613138354695","trial","","40","800","1291","images/stimuli/spore_stims/complex_13_A_a.gif","images/stimuli/spore_stims/complex_13_B_a.gif","","","","","13","complex_similar","images/stimuli/spore_stims/complex_13_B_a.gif","right","","","","",""
"","null","html-keyboard-response","250","508806","0.0-47.0-0.4","SS1613138354695","","","null","","","","","<p><img src= images/blank.png width =""200"" height = ""200"" style = ""float:right""></p><p><img src=images/blank.png width =""800"" height = ""200""></p>","","","","","","","","","","","",""
"","842","sequential-stimulus-presentation","251","510476","0.0-47.0-1.4","SS1613138354695","trial","","40","800","1642","images/stimuli/spore_stims/complex_13_A_a.gif","images/stimuli/spore_stims/complex_13_B_a.gif","","","","","13","complex_similar","images/stimuli/spore_stims/complex_13_B_a.gif","right","","","","",""
"","null","html-keyboard-response","252","511538","0.0-47.0-0.5","SS1613138354695","","","null","","","","","<p><img src= images/blank.png width =""200"" height = ""200"" style = ""float:right""></p><p><img src=images/blank.png width =""800"" height = ""200""></p>","","","","","","","","","","","",""
"","535","sequential-stimulus-presentation","253","512903","0.0-47.0-1.5","SS1613138354695","trial","","40","800","1335","images/stimuli/spore_stims/complex_13_A_a.gif","images/stimuli/spore_stims/complex_13_B_a.gif","","","","","13","complex_similar","images/stimuli/spore_stims/complex_13_B_a.gif","right","","","","",""
"","null","html-keyboard-response","254","514133","0.0-47.0-0.6","SS1613138354695","","","null","","","","","<p><img src= images/blank.png width =""200"" height = ""200"" style = ""float:right""></p><p><img src=images/blank.png width =""800"" height = ""200""></p>","","","","","","","","","","","",""
"","581","sequential-stimulus-presentation","255","515544","0.0-47.0-1.6","SS1613138354695","trial","","40","800","1381","images/stimuli/spore_stims/complex_13_A_a.gif","images/stimuli/spore_stims/complex_13_B_a.gif","","","","","13","complex_similar","images/stimuli/spore_stims/complex_13_B_a.gif","right","","","","",""
"","null","html-keyboard-response","256","516541","0.0-47.0-0.7","SS1613138354695","","","null","","","","","<p><img src= images/blank.png width =""200"" height = ""200"" style = ""float:right""></p><p><img src=images/blank.png width =""800"" height = ""200""></p>","","","","","","","","","","","",""
"","952","sequential-stimulus-presentation","257","518306","0.0-47.0-1.7","SS1613138354695","trial","","40","800","1752","images/stimuli/spore_stims/complex_13_A_a.gif","images/stimuli/spore_stims/complex_13_B_a.gif","","","","","13","complex_similar","images/stimuli/spore_stims/complex_13_A_a.gif","middle","","","","",""
"","4372","html-keyboard-response","258","522701","0.0-48.0","SS1613138354695","pref_question","","97","","","","","<video width ='960' height = '540' style='padding-top:8%' autoplay muted><source src='images/stimuli/wall_pref.mp4' type='video/mp4'></video>","1","left","25%","13","","","","","","","",""
"","2251","sequential-stimulus-presentation","259","525779","0.0-49.0","SS1613138354695","pref_reveal","","40","800","3051","null","null","","","","","13","","","","novel","","","",""
"","null","html-keyboard-response","260","526878","0.0-50.0-0.0","SS1613138354695","","","null","","","","","<p><img src= images/blank.png width =""200"" height = ""200"" style = ""float:right""></p><p><img src=images/blank.png width =""800"" height = ""200""></p>","","","","","","","","","","","",""
"","73","sequential-stimulus-presentation","261","527785","0.0-50.0-1.0","SS1613138354695","trial","","40","800","873","images/stimuli/spore_stims/simple_15_A_a.gif","images/stimuli/spore_stims/simple_15_B_a.gif","","","","","14","simple_similar","images/stimuli/spore_stims/simple_15_B_a.gif","right","","","","",""
"","null","html-keyboard-response","262","529006","0.0-50.0-0.1","SS1613138354695","","","null","","","","","<p><img src= images/blank.png width =""200"" height = ""200"" style = ""float:right""></p><p><img src=images/blank.png width =""800"" height = ""200""></p>","","","","","","","","","","","",""
"","1287","sequential-stimulus-presentation","263","531127","0.0-50.0-1.1","SS1613138354695","trial","","40","800","2087","images/stimuli/spore_stims/simple_15_A_a.gif","images/stimuli/spore_stims/simple_15_B_a.gif","","","","","14","simple_similar","images/stimuli/spore_stims/simple_15_B_a.gif","right","","","","",""
"","null","html-keyboard-response","264","532420","0.0-50.0-0.2","SS1613138354695","","","null","","","","","<p><img src= images/blank.png width =""200"" height = ""200"" style = ""float:right""></p><p><img src=images/blank.png width =""800"" height = ""200""></p>","","","","","","","","","","","",""
"","1653","sequential-stimulus-presentation","265","534903","0.0-50.0-1.2","SS1613138354695","trial","","40","800","2453","images/stimuli/spore_stims/simple_15_A_a.gif","images/stimuli/spore_stims/simple_15_B_a.gif","","","","","14","simple_similar","images/stimuli/spore_stims/simple_15_A_a.gif","middle","","","","",""
"","null","html-keyboard-response","266","535766","0.0-50.0-0.3","SS1613138354695","","","null","","","","","<p><img src= images/blank.png width =""200"" height = ""200"" style = ""float:right""></p><p><img src=images/blank.png width =""800"" height = ""200""></p>","","","","","","","","","","","",""
"","1269","sequential-stimulus-presentation","267","537862","0.0-50.0-1.3","SS1613138354695","trial","","40","800","2069","images/stimuli/spore_stims/simple_15_A_a.gif","images/stimuli/spore_stims/simple_15_B_a.gif","","","","","14","simple_similar","images/stimuli/spore_stims/simple_15_B_a.gif","right","","","","",""
"","null","html-keyboard-response","268","538789","0.0-50.0-0.4","SS1613138354695","","","null","","","","","<p><img src= images/blank.png width =""200"" height = ""200"" style = ""float:right""></p><p><img src=images/blank.png width =""800"" height = ""200""></p>","","","","","","","","","","","",""
"","1023","sequential-stimulus-presentation","269","540640","0.0-50.0-1.4","SS1613138354695","trial","","40","800","1823","images/stimuli/spore_stims/simple_15_A_a.gif","images/stimuli/spore_stims/simple_15_B_a.gif","","","","","14","simple_similar","images/stimuli/spore_stims/simple_15_B_a.gif","right","","","","",""
"","null","html-keyboard-response","270","541762","0.0-50.0-0.5","SS1613138354695","","","null","","","","","<p><img src= images/blank.png width =""200"" height = ""200"" style = ""float:right""></p><p><img src=images/blank.png width =""800"" height = ""200""></p>","","","","","","","","","","","",""
"","466","sequential-stimulus-presentation","271","543046","0.0-50.0-1.5","SS1613138354695","trial","","40","800","1266","images/stimuli/spore_stims/simple_15_A_a.gif","images/stimuli/spore_stims/simple_15_B_a.gif","","","","","14","simple_similar","images/stimuli/spore_stims/simple_15_B_a.gif","right","","","","",""
"","null","html-keyboard-response","272","544007","0.0-50.0-0.6","SS1613138354695","","","null","","","","","<p><img src= images/blank.png width =""200"" height = ""200"" style = ""float:right""></p><p><img src=images/blank.png width =""800"" height = ""200""></p>","","","","","","","","","","","",""
"","853","sequential-stimulus-presentation","273","545672","0.0-50.0-1.6","SS1613138354695","trial","","40","800","1653","images/stimuli/spore_stims/simple_15_A_a.gif","images/stimuli/spore_stims/simple_15_B_a.gif","","","","","14","simple_similar","images/stimuli/spore_stims/simple_15_B_a.gif","right","","","","",""
"","null","html-keyboard-response","274","546567","0.0-50.0-0.7","SS1613138354695","","","null","","","","","<p><img src= images/blank.png width =""200"" height = ""200"" style = ""float:right""></p><p><img src=images/blank.png width =""800"" height = ""200""></p>","","","","","","","","","","","",""
"","1194","sequential-stimulus-presentation","275","548590","0.0-50.0-1.7","SS1613138354695","trial","","40","800","1994","images/stimuli/spore_stims/simple_15_A_a.gif","images/stimuli/spore_stims/simple_15_B_a.gif","","","","","14","simple_similar","images/stimuli/spore_stims/simple_15_B_a.gif","right","","","","",""
"","3837","html-keyboard-response","276","552446","0.0-51.0","SS1613138354695","pref_question","","98","","","","","<video width ='960' height = '540' style='padding-top:8%' autoplay muted><source src='images/stimuli/wall_pref.mp4' type='video/mp4'></video>","2","middle","45%","14","","","","","","","",""
"","1285","sequential-stimulus-presentation","277","554557","0.0-52.0","SS1613138354695","pref_reveal","","40","800","2085","null","null","","","","","14","","","","deviant","","","",""
"","null","html-keyboard-response","278","555559","0.0-53.0-0.0","SS1613138354695","","","null","","","","","<p><img src= images/blank.png width =""200"" height = ""200"" style = ""float:right""></p><p><img src=images/blank.png width =""800"" height = ""200""></p>","","","","","","","","","","","",""
"","1117","sequential-stimulus-presentation","279","557495","0.0-53.0-1.0","SS1613138354695","trial","","40","800","1917","images/stimuli/spore_stims/complex_04_A_a.gif","images/stimuli/spore_stims/complex_04_B_a.gif","","","","","15","complex_similar","images/stimuli/spore_stims/complex_04_B_a.gif","left","","","","",""
"","null","html-keyboard-response","280","558494","0.0-53.0-0.1","SS1613138354695","","","null","","","","","<p><img src= images/blank.png width =""200"" height = ""200"" style = ""float:right""></p><p><img src=images/blank.png width =""800"" height = ""200""></p>","","","","","","","","","","","",""
"","1771","sequential-stimulus-presentation","281","561080","0.0-53.0-1.1","SS1613138354695","trial","","40","800","2571","images/stimuli/spore_stims/complex_04_A_a.gif","images/stimuli/spore_stims/complex_04_B_a.gif","","","","","15","complex_similar","images/stimuli/spore_stims/complex_04_B_a.gif","left","","","","",""
"","null","html-keyboard-response","282","562286","0.0-53.0-0.2","SS1613138354695","","","null","","","","","<p><img src= images/blank.png width =""200"" height = ""200"" style = ""float:right""></p><p><img src=images/blank.png width =""800"" height = ""200""></p>","","","","","","","","","","","",""
"","1326","sequential-stimulus-presentation","283","564443","0.0-53.0-1.2","SS1613138354695","trial","","40","800","2126","images/stimuli/spore_stims/complex_04_A_a.gif","images/stimuli/spore_stims/complex_04_B_a.gif","","","","","15","complex_similar","images/stimuli/spore_stims/complex_04_B_a.gif","left","","","","",""
"","null","html-keyboard-response","284","565316","0.0-53.0-0.3","SS1613138354695","","","null","","","","","<p><img src= images/blank.png width =""200"" height = ""200"" style = ""float:right""></p><p><img src=images/blank.png width =""800"" height = ""200""></p>","","","","","","","","","","","",""
"","1572","sequential-stimulus-presentation","285","567726","0.0-53.0-1.3","SS1613138354695","trial","","40","800","2372","images/stimuli/spore_stims/complex_04_A_a.gif","images/stimuli/spore_stims/complex_04_B_a.gif","","","","","15","complex_similar","images/stimuli/spore_stims/complex_04_B_a.gif","left","","","","",""
"","null","html-keyboard-response","286","568588","0.0-53.0-0.4","SS1613138354695","","","null","","","","","<p><img src= images/blank.png width =""200"" height = ""200"" style = ""float:right""></p><p><img src=images/blank.png width =""800"" height = ""200""></p>","","","","","","","","","","","",""
"","1706","sequential-stimulus-presentation","287","571121","0.0-53.0-1.4","SS1613138354695","trial","","40","800","2506","images/stimuli/spore_stims/complex_04_A_a.gif","images/stimuli/spore_stims/complex_04_B_a.gif","","","","","15","complex_similar","images/stimuli/spore_stims/complex_04_B_a.gif","left","","","","",""
"","null","html-keyboard-response","288","572436","0.0-53.0-0.5","SS1613138354695","","","null","","","","","<p><img src= images/blank.png width =""200"" height = ""200"" style = ""float:right""></p><p><img src=images/blank.png width =""800"" height = ""200""></p>","","","","","","","","","","","",""
"","1209","sequential-stimulus-presentation","289","574474","0.0-53.0-1.5","SS1613138354695","trial","","40","800","2009","images/stimuli/spore_stims/complex_04_A_a.gif","images/stimuli/spore_stims/complex_04_B_a.gif","","","","","15","complex_similar","images/stimuli/spore_stims/complex_04_B_a.gif","left","","","","",""
"","null","html-keyboard-response","290","575342","0.0-53.0-0.6","SS1613138354695","","","null","","","","","<p><img src= images/blank.png width =""200"" height = ""200"" style = ""float:right""></p><p><img src=images/blank.png width =""800"" height = ""200""></p>","","","","","","","","","","","",""
"","955","sequential-stimulus-presentation","291","577130","0.0-53.0-1.6","SS1613138354695","trial","","40","800","1755","images/stimuli/spore_stims/complex_04_A_a.gif","images/stimuli/spore_stims/complex_04_B_a.gif","","","","","15","complex_similar","images/stimuli/spore_stims/complex_04_A_a.gif","middle","","","","",""
"","null","html-keyboard-response","292","578178","0.0-53.0-0.7","SS1613138354695","","","null","","","","","<p><img src= images/blank.png width =""200"" height = ""200"" style = ""float:right""></p><p><img src=images/blank.png width =""800"" height = ""200""></p>","","","","","","","","","","","",""
"","727","sequential-stimulus-presentation","293","579733","0.0-53.0-1.7","SS1613138354695","trial","","40","800","1527","images/stimuli/spore_stims/complex_04_A_a.gif","images/stimuli/spore_stims/complex_04_B_a.gif","","","","","15","complex_similar","images/stimuli/spore_stims/complex_04_B_a.gif","left","","","","",""
"","1971","html-keyboard-response","294","581725","0.0-54.0","SS1613138354695","pref_question","","99","","","","","<video width ='960' height = '540' style='padding-top:8%' autoplay muted><source src='images/stimuli/wall_pref.mp4' type='video/mp4'></video>","3","right","66%","15","","","","","","","",""
"","1638","sequential-stimulus-presentation","295","584193","0.0-55.0","SS1613138354695","pref_reveal","","40","800","2438","null","null","","","","","15","","","","novel","","","",""
"","null","html-keyboard-response","296","585486","0.0-56.0-0.0","SS1613138354695","","","null","","","","","<p><img src= images/blank.png width =""200"" height = ""200"" style = ""float:right""></p><p><img src=images/blank.png width =""800"" height = ""200""></p>","","","","","","","","","","","",""
"","762","sequential-stimulus-presentation","297","587063","0.0-56.0-1.0","SS1613138354695","trial","","40","800","1562","images/stimuli/spore_stims/simple_20_A_d.gif","images/stimuli/spore_stims/simple_09_A_b.gif","","","","","16","simple_dissimilar","images/stimuli/spore_stims/simple_09_A_b.gif","right","","","","",""
"","null","html-keyboard-response","298","588007","0.0-56.0-0.1","SS1613138354695","","","null","","","","","<p><img src= images/blank.png width =""200"" height = ""200"" style = ""float:right""></p><p><img src=images/blank.png width =""800"" height = ""200""></p>","","","","","","","","","","","",""
"","928","sequential-stimulus-presentation","299","589768","0.0-56.0-1.1","SS1613138354695","trial","","40","800","1728","images/stimuli/spore_stims/simple_20_A_d.gif","images/stimuli/spore_stims/simple_09_A_b.gif","","","","","16","simple_dissimilar","images/stimuli/spore_stims/simple_09_A_b.gif","right","","","","",""
"","null","html-keyboard-response","300","590840","0.0-56.0-0.2","SS1613138354695","","","null","","","","","<p><img src= images/blank.png width =""200"" height = ""200"" style = ""float:right""></p><p><img src=images/blank.png width =""800"" height = ""200""></p>","","","","","","","","","","","",""
"","519","sequential-stimulus-presentation","301","592187","0.0-56.0-1.2","SS1613138354695","trial","","40","800","1319","images/stimuli/spore_stims/simple_20_A_d.gif","images/stimuli/spore_stims/simple_09_A_b.gif","","","","","16","simple_dissimilar","images/stimuli/spore_stims/simple_09_A_b.gif","right","","","","",""
"","null","html-keyboard-response","302","593034","0.0-56.0-0.3","SS1613138354695","","","null","","","","","<p><img src= images/blank.png width =""200"" height = ""200"" style = ""float:right""></p><p><img src=images/blank.png width =""800"" height = ""200""></p>","","","","","","","","","","","",""
"","1154","sequential-stimulus-presentation","303","595016","0.0-56.0-1.3","SS1613138354695","trial","","40","800","1954","images/stimuli/spore_stims/simple_20_A_d.gif","images/stimuli/spore_stims/simple_09_A_b.gif","","","","","16","simple_dissimilar","images/stimuli/spore_stims/simple_09_A_b.gif","right","","","","",""
"","null","html-keyboard-response","304","596174","0.0-56.0-0.4","SS1613138354695","","","null","","","","","<p><img src= images/blank.png width =""200"" height = ""200"" style = ""float:right""></p><p><img src=images/blank.png width =""800"" height = ""200""></p>","","","","","","","","","","","",""
"","991","sequential-stimulus-presentation","305","597998","0.0-56.0-1.4","SS1613138354695","trial","","40","800","1791","images/stimuli/spore_stims/simple_20_A_d.gif","images/stimuli/spore_stims/simple_09_A_b.gif","","","","","16","simple_dissimilar","images/stimuli/spore_stims/simple_20_A_d.gif","left","","","","",""
"","null","html-keyboard-response","306","599306","0.0-56.0-0.5","SS1613138354695","","","null","","","","","<p><img src= images/blank.png width =""200"" height = ""200"" style = ""float:right""></p><p><img src=images/blank.png width =""800"" height = ""200""></p>","","","","","","","","","","","",""
"","1552","sequential-stimulus-presentation","307","601689","0.0-56.0-1.5","SS1613138354695","trial","","40","800","2352","images/stimuli/spore_stims/simple_20_A_d.gif","images/stimuli/spore_stims/simple_09_A_b.gif","","","","","16","simple_dissimilar","images/stimuli/spore_stims/simple_09_A_b.gif","right","","","","",""
"","null","html-keyboard-response","308","602831","0.0-56.0-0.6","SS1613138354695","","","null","","","","","<p><img src= images/blank.png width =""200"" height = ""200"" style = ""float:right""></p><p><img src=images/blank.png width =""800"" height = ""200""></p>","","","","","","","","","","","",""
"","547","sequential-stimulus-presentation","309","604192","0.0-56.0-1.6","SS1613138354695","trial","","40","800","1347","images/stimuli/spore_stims/simple_20_A_d.gif","images/stimuli/spore_stims/simple_09_A_b.gif","","","","","16","simple_dissimilar","images/stimuli/spore_stims/simple_09_A_b.gif","right","","","","",""
"","null","html-keyboard-response","310","605238","0.0-56.0-0.7","SS1613138354695","","","null","","","","","<p><img src= images/blank.png width =""200"" height = ""200"" style = ""float:right""></p><p><img src=images/blank.png width =""800"" height = ""200""></p>","","","","","","","","","","","",""
"","103","sequential-stimulus-presentation","311","606182","0.0-56.0-1.7","SS1613138354695","trial","","40","800","903","images/stimuli/spore_stims/simple_20_A_d.gif","images/stimuli/spore_stims/simple_09_A_b.gif","","","","","16","simple_dissimilar","images/stimuli/spore_stims/simple_09_A_b.gif","right","","","","",""
"","3483","html-keyboard-response","312","609679","0.0-57.0","SS1613138354695","pref_question","","98","","","","","<video width ='960' height = '540' style='padding-top:8%' autoplay muted><source src='images/stimuli/wall_pref.mp4' type='video/mp4'></video>","2","middle","45%","16","","","","","","","",""
"","1686","sequential-stimulus-presentation","313","612188","0.0-58.0","SS1613138354695","pref_reveal","","40","800","2486","null","null","","","","","16","","","","novel","","","",""
"","null","html-keyboard-response","314","613090","0.0-59.0-0.0","SS1613138354695","","","null","","","","","<p><img src= images/blank.png width =""200"" height = ""200"" style = ""float:right""></p><p><img src=images/blank.png width =""800"" height = ""200""></p>","","","","","","","","","","","",""
"","838","sequential-stimulus-presentation","315","614755","0.0-59.0-1.0","SS1613138354695","trial","","40","800","1638","images/stimuli/spore_stims/complex_07_B_d.gif","images/stimuli/spore_stims/complex_07_A_d.gif","","","","","17","complex_similar","images/stimuli/spore_stims/complex_07_A_d.gif","right","","","","",""
"","null","html-keyboard-response","316","615993","0.0-59.0-0.1","SS1613138354695","","","null","","","","","<p><img src= images/blank.png width =""200"" height = ""200"" style = ""float:right""></p><p><img src=images/blank.png width =""800"" height = ""200""></p>","","","","","","","","","","","",""
"","583","sequential-stimulus-presentation","317","617408","0.0-59.0-1.1","SS1613138354695","trial","","40","800","1383","images/stimuli/spore_stims/complex_07_B_d.gif","images/stimuli/spore_stims/complex_07_A_d.gif","","","","","17","complex_similar","images/stimuli/spore_stims/complex_07_A_d.gif","right","","","","",""
"","null","html-keyboard-response","318","618718","0.0-59.0-0.2","SS1613138354695","","","null","","","","","<p><img src= images/blank.png width =""200"" height = ""200"" style = ""float:right""></p><p><img src=images/blank.png width =""800"" height = ""200""></p>","","","","","","","","","","","",""
"","465","sequential-stimulus-presentation","319","620015","0.0-59.0-1.2","SS1613138354695","trial","","40","800","1265","images/stimuli/spore_stims/complex_07_B_d.gif","images/stimuli/spore_stims/complex_07_A_d.gif","","","","","17","complex_similar","images/stimuli/spore_stims/complex_07_A_d.gif","right","","","","",""
"","null","html-keyboard-response","320","620983","0.0-59.0-0.3","SS1613138354695","","","null","","","","","<p><img src= images/blank.png width =""200"" height = ""200"" style = ""float:right""></p><p><img src=images/blank.png width =""800"" height = ""200""></p>","","","","","","","","","","","",""
"","935","sequential-stimulus-presentation","321","622748","0.0-59.0-1.3","SS1613138354695","trial","","40","800","1735","images/stimuli/spore_stims/complex_07_B_d.gif","images/stimuli/spore_stims/complex_07_A_d.gif","","","","","17","complex_similar","images/stimuli/spore_stims/complex_07_A_d.gif","right","","","","",""
"","null","html-keyboard-response","322","624009","0.0-59.0-0.4","SS1613138354695","","","null","","","","","<p><img src= images/blank.png width =""200"" height = ""200"" style = ""float:right""></p><p><img src=images/blank.png width =""800"" height = ""200""></p>","","","","","","","","","","","",""
"","997","sequential-stimulus-presentation","323","625837","0.0-59.0-1.4","SS1613138354695","trial","","40","800","1797","images/stimuli/spore_stims/complex_07_B_d.gif","images/stimuli/spore_stims/complex_07_A_d.gif","","","","","17","complex_similar","images/stimuli/spore_stims/complex_07_A_d.gif","right","","","","",""
"","null","html-keyboard-response","324","626922","0.0-59.0-0.5","SS1613138354695","","","null","","","","","<p><img src= images/blank.png width =""200"" height = ""200"" style = ""float:right""></p><p><img src=images/blank.png width =""800"" height = ""200""></p>","","","","","","","","","","","",""
"","804","sequential-stimulus-presentation","325","628558","0.0-59.0-1.5","SS1613138354695","trial","","40","800","1604","images/stimuli/spore_stims/complex_07_B_d.gif","images/stimuli/spore_stims/complex_07_A_d.gif","","","","","17","complex_similar","images/stimuli/spore_stims/complex_07_A_d.gif","right","","","","",""
"","null","html-keyboard-response","326","629713","0.0-59.0-0.6","SS1613138354695","","","null","","","","","<p><img src= images/blank.png width =""200"" height = ""200"" style = ""float:right""></p><p><img src=images/blank.png width =""800"" height = ""200""></p>","","","","","","","","","","","",""
"","594","sequential-stimulus-presentation","327","631131","0.0-59.0-1.6","SS1613138354695","trial","","40","800","1394","images/stimuli/spore_stims/complex_07_B_d.gif","images/stimuli/spore_stims/complex_07_A_d.gif","","","","","17","complex_similar","images/stimuli/spore_stims/complex_07_A_d.gif","right","","","","",""
