"view_history","rt","trial_type","trial_index","time_elapsed","internal_node_id","subject","stimulus_type","trial_stimulus","key_press","minimum_viewing_duration","trial_looking_time","block_deviant","block_background","stimulus","wall_pref","location","location_percent","block_number","block_type","stimulus_displayed","position_displayed","stim_type_selected","responses","question_order","stimulus_left","stimulus_right"
"[{""page_index"":0,""viewing_time"":81139.68500000192}]","81142.05999999831","instructions","0","81149","0.0-0.0","SS1613100650930","","","","","","","","","","","","","","","","","","","",""
"[{""page_index"":0,""viewing_time"":1540.95000000234},{""page_index"":1,""viewing_time"":13631.959999998799}]","15173.835000001418","instructions","1","98330","0.0-1.0","SS1613100650930","instructions","","","","","","","","","","","","","","","","","","",""
"","1689.3100000015693","sequential-stimulus-presentation","2","100835","0.0-2.0","SS1613100650930","","","40","800","2489.3100000015693","null","null","","","","","","","","","","","","",""
"","1382.8649999995832","sequential-stimulus-presentation","3","103027","0.0-3.0","SS1613100650930","","","40","800","2182.8649999995832","null","null","","","","","","","","","","","","",""
"[{""page_index"":0,""viewing_time"":2155.9699999997974}]","2156.7050000012387","instructions","4","105186","0.0-4.0","SS1613100650930","instructions","","","","","","","","","","","","","","","","","","",""
"","3891.0650000034366","html-keyboard-response","5","109089","0.0-5.0","SS1613100650930","instructions","","99","","","","","<video width ='960' height = '540' autoplay muted><source src='images/stimuli/wall_pref.mp4' type='video/mp4'></video>","3","right","66%","","","","","","","","",""
"","1730.6300000054762","sequential-stimulus-presentation","6","111632","0.0-6.0","SS1613100650930","pref_reveal","","40","800","2530.630000005476","null","null","","","","","","","","","","","","",""
"[{""page_index"":0,""viewing_time"":2644.3749999962165},{""page_index"":1,""viewing_time"":1409.5650000017486},{""page_index"":2,""viewing_time"":1303.6100000026636},{""page_index"":3,""viewing_time"":1449.3650000003981}]","6807.945000000473","instructions","7","118444","0.0-7.0","SS1613100650930","instructions","","","","","","","","","","","","","","","","","","",""
"","null","html-keyboard-response","8","119365","0.0-8.0-0.0","SS1613100650930","","","null","","","","","<p><img src= images/blank.png width =""200"" height = ""200"" style = ""float:right""></p><p><img src=images/blank.png width =""800"" height = ""200""></p>","","","","","","","","","","","",""
"","6446.705000002112","sequential-stimulus-presentation","9","126625","0.0-8.0-1.0","SS1613100650930","trial","","40","800","7246.705000002112","images/stimuli/spore_stims/complex_20_A_b.gif","images/stimuli/spore_stims/complex_02_B_c.gif","","","","","0","complex_dissimilar","images/stimuli/spore_stims/complex_02_B_c.gif","left","","","","",""
"","null","html-keyboard-response","10","127709","0.0-8.0-0.1","SS1613100650930","","","null","","","","","<p><img src= images/blank.png width =""200"" height = ""200"" style = ""float:right""></p><p><img src=images/blank.png width =""800"" height = ""200""></p>","","","","","","","","","","","",""
"","520.1900000029127","sequential-stimulus-presentation","11","129039","0.0-8.0-1.1","SS1613100650930","trial","","40","800","1320.1900000029127","images/stimuli/spore_stims/complex_20_A_b.gif","images/stimuli/spore_stims/complex_02_B_c.gif","","","","","0","complex_dissimilar","images/stimuli/spore_stims/complex_02_B_c.gif","left","","","","",""
"","null","html-keyboard-response","12","130149","0.0-8.0-0.2","SS1613100650930","","","null","","","","","<p><img src= images/blank.png width =""200"" height = ""200"" style = ""float:right""></p><p><img src=images/blank.png width =""800"" height = ""200""></p>","","","","","","","","","","","",""
"","799.1850000034901","sequential-stimulus-presentation","13","131759","0.0-8.0-1.2","SS1613100650930","trial","","40","800","1599.1850000034901","images/stimuli/spore_stims/complex_20_A_b.gif","images/stimuli/spore_stims/complex_02_B_c.gif","","","","","0","complex_dissimilar","images/stimuli/spore_stims/complex_02_B_c.gif","left","","","","",""
"","null","html-keyboard-response","14","132727","0.0-8.0-0.3","SS1613100650930","","","null","","","","","<p><img src= images/blank.png width =""200"" height = ""200"" style = ""float:right""></p><p><img src=images/blank.png width =""800"" height = ""200""></p>","","","","","","","","","","","",""
"","865.3100000010454","sequential-stimulus-presentation","15","134405","0.0-8.0-1.3","SS1613100650930","trial","","40","800","1665.3100000010454","images/stimuli/spore_stims/complex_20_A_b.gif","images/stimuli/spore_stims/complex_02_B_c.gif","","","","","0","complex_dissimilar","images/stimuli/spore_stims/complex_02_B_c.gif","left","","","","",""
"","null","html-keyboard-response","16","135413","0.0-8.0-0.4","SS1613100650930","","","null","","","","","<p><img src= images/blank.png width =""200"" height = ""200"" style = ""float:right""></p><p><img src=images/blank.png width =""800"" height = ""200""></p>","","","","","","","","","","","",""
"","3078.924999994342","sequential-stimulus-presentation","17","139301","0.0-8.0-1.4","SS1613100650930","trial","","40","800","3878.924999994342","images/stimuli/spore_stims/complex_20_A_b.gif","images/stimuli/spore_stims/complex_02_B_c.gif","","","","","0","complex_dissimilar","images/stimuli/spore_stims/complex_20_A_b.gif","middle","","","","",""
"","null","html-keyboard-response","18","140506","0.0-8.0-0.5","SS1613100650930","","","null","","","","","<p><img src= images/blank.png width =""200"" height = ""200"" style = ""float:right""></p><p><img src=images/blank.png width =""800"" height = ""200""></p>","","","","","","","","","","","",""
"","864.079999999376","sequential-stimulus-presentation","19","142182","0.0-8.0-1.5","SS1613100650930","trial","","40","800","1664.079999999376","images/stimuli/spore_stims/complex_20_A_b.gif","images/stimuli/spore_stims/complex_02_B_c.gif","","","","","0","complex_dissimilar","images/stimuli/spore_stims/complex_02_B_c.gif","left","","","","",""
"","null","html-keyboard-response","20","143293","0.0-8.0-0.6","SS1613100650930","","","null","","","","","<p><img src= images/blank.png width =""200"" height = ""200"" style = ""float:right""></p><p><img src=images/blank.png width =""800"" height = ""200""></p>","","","","","","","","","","","",""
"","478.914999999688","sequential-stimulus-presentation","21","144582","0.0-8.0-1.6","SS1613100650930","trial","","40","800","1278.914999999688","images/stimuli/spore_stims/complex_20_A_b.gif","images/stimuli/spore_stims/complex_02_B_c.gif","","","","","0","complex_dissimilar","images/stimuli/spore_stims/complex_02_B_c.gif","left","","","","",""
"","null","html-keyboard-response","22","145421","0.0-8.0-0.7","SS1613100650930","","","null","","","","","<p><img src= images/blank.png width =""200"" height = ""200"" style = ""float:right""></p><p><img src=images/blank.png width =""800"" height = ""200""></p>","","","","","","","","","","","",""
"","87.79000000504311","sequential-stimulus-presentation","23","146320","0.0-8.0-1.7","SS1613100650930","trial","","40","800","887.7900000050431","images/stimuli/spore_stims/complex_20_A_b.gif","images/stimuli/spore_stims/complex_02_B_c.gif","","","","","0","complex_dissimilar","images/stimuli/spore_stims/complex_02_B_c.gif","left","","","","",""
"","1668.664999997418","html-keyboard-response","24","148023","0.0-9.0","SS1613100650930","pref_question","","98","","","","","<video width ='960' height = '540' style='padding-top:8%' autoplay muted><source src='images/stimuli/wall_pref.mp4' type='video/mp4'></video>","2","middle","45%","0","","","","","","","",""
"","1946.2700000003679","sequential-stimulus-presentation","25","150781","0.0-10.0","SS1613100650930","pref_reveal","","40","800","2746.270000000368","null","null","","","","","0","","","","deviant","","","",""
"","null","html-keyboard-response","26","151730","0.0-11.0-0.0","SS1613100650930","","","null","","","","","<p><img src= images/blank.png width =""200"" height = ""200"" style = ""float:right""></p><p><img src=images/blank.png width =""800"" height = ""200""></p>","","","","","","","","","","","",""
"","998.2799999997951","sequential-stimulus-presentation","27","153540","0.0-11.0-1.0","SS1613100650930","trial","","40","800","1798.279999999795","images/stimuli/spore_stims/simple_13_A_c.gif","images/stimuli/spore_stims/simple_13_B_c.gif","","","","","1","simple_similar","images/stimuli/spore_stims/simple_13_B_c.gif","right","","","","",""
"","null","html-keyboard-response","28","154713","0.0-11.0-0.1","SS1613100650930","","","null","","","","","<p><img src= images/blank.png width =""200"" height = ""200"" style = ""float:right""></p><p><img src=images/blank.png width =""800"" height = ""200""></p>","","","","","","","","","","","",""
"","1956.5199999997276","sequential-stimulus-presentation","29","157476","0.0-11.0-1.1","SS1613100650930","trial","","40","800","2756.5199999997276","images/stimuli/spore_stims/simple_13_A_c.gif","images/stimuli/spore_stims/simple_13_B_c.gif","","","","","1","simple_similar","images/stimuli/spore_stims/simple_13_B_c.gif","right","","","","",""
"","null","html-keyboard-response","30","158743","0.0-11.0-0.2","SS1613100650930","","","null","","","","","<p><img src= images/blank.png width =""200"" height = ""200"" style = ""float:right""></p><p><img src=images/blank.png width =""800"" height = ""200""></p>","","","","","","","","","","","",""
"","1940.244999997958","sequential-stimulus-presentation","31","161497","0.0-11.0-1.2","SS1613100650930","trial","","40","800","2740.244999997958","images/stimuli/spore_stims/simple_13_A_c.gif","images/stimuli/spore_stims/simple_13_B_c.gif","","","","","1","simple_similar","images/stimuli/spore_stims/simple_13_B_c.gif","right","","","","",""
"","null","html-keyboard-response","32","162535","0.0-11.0-0.3","SS1613100650930","","","null","","","","","<p><img src= images/blank.png width =""200"" height = ""200"" style = ""float:right""></p><p><img src=images/blank.png width =""800"" height = ""200""></p>","","","","","","","","","","","",""
"","108.96499999944353","sequential-stimulus-presentation","33","163456","0.0-11.0-1.3","SS1613100650930","trial","","40","800","908.9649999994435","images/stimuli/spore_stims/simple_13_A_c.gif","images/stimuli/spore_stims/simple_13_B_c.gif","","","","","1","simple_similar","images/stimuli/spore_stims/simple_13_B_c.gif","right","","","","",""
"","null","html-keyboard-response","34","164706","0.0-11.0-0.4","SS1613100650930","","","null","","","","","<p><img src= images/blank.png width =""200"" height = ""200"" style = ""float:right""></p><p><img src=images/blank.png width =""800"" height = ""200""></p>","","","","","","","","","","","",""
"","109.1800000067451","sequential-stimulus-presentation","35","165623","0.0-11.0-1.4","SS1613100650930","trial","","40","800","909.1800000067451","images/stimuli/spore_stims/simple_13_A_c.gif","images/stimuli/spore_stims/simple_13_B_c.gif","","","","","1","simple_similar","images/stimuli/spore_stims/simple_13_A_c.gif","middle","","","","",""
"","null","html-keyboard-response","36","166428","0.0-11.0-0.5","SS1613100650930","","","null","","","","","<p><img src= images/blank.png width =""200"" height = ""200"" style = ""float:right""></p><p><img src=images/blank.png width =""800"" height = ""200""></p>","","","","","","","","","","","",""
"","1983.9449999999488","sequential-stimulus-presentation","37","169223","0.0-11.0-1.5","SS1613100650930","trial","","40","800","2783.944999999949","images/stimuli/spore_stims/simple_13_A_c.gif","images/stimuli/spore_stims/simple_13_B_c.gif","","","","","1","simple_similar","images/stimuli/spore_stims/simple_13_B_c.gif","right","","","","",""
"","null","html-keyboard-response","38","170459","0.0-11.0-0.6","SS1613100650930","","","null","","","","","<p><img src= images/blank.png width =""200"" height = ""200"" style = ""float:right""></p><p><img src=images/blank.png width =""800"" height = ""200""></p>","","","","","","","","","","","",""
"","479.06499999953667","sequential-stimulus-presentation","39","171751","0.0-11.0-1.6","SS1613100650930","trial","","40","800","1279.0649999995367","images/stimuli/spore_stims/simple_13_A_c.gif","images/stimuli/spore_stims/simple_13_B_c.gif","","","","","1","simple_similar","images/stimuli/spore_stims/simple_13_B_c.gif","right","","","","",""
"","null","html-keyboard-response","40","172671","0.0-11.0-0.7","SS1613100650930","","","null","","","","","<p><img src= images/blank.png width =""200"" height = ""200"" style = ""float:right""></p><p><img src=images/blank.png width =""800"" height = ""200""></p>","","","","","","","","","","","",""
"","868.2600000029197","sequential-stimulus-presentation","41","174350","0.0-11.0-1.7","SS1613100650930","trial","","40","800","1668.2600000029197","images/stimuli/spore_stims/simple_13_A_c.gif","images/stimuli/spore_stims/simple_13_B_c.gif","","","","","1","simple_similar","images/stimuli/spore_stims/simple_13_B_c.gif","right","","","","",""
"","1309.255000000121","html-keyboard-response","42","175679","0.0-12.0","SS1613100650930","pref_question","","97","","","","","<video width ='960' height = '540' style='padding-top:8%' autoplay muted><source src='images/stimuli/wall_pref.mp4' type='video/mp4'></video>","1","left","25%","1","","","","","","","",""
"","2187.5750000035623","sequential-stimulus-presentation","43","178679","0.0-13.0","SS1613100650930","pref_reveal","","40","800","2987.5750000035623","null","null","","","","","1","","","","novel","","","",""
"","null","html-keyboard-response","44","179551","0.0-14.0-0.0","SS1613100650930","","","null","","","","","<p><img src= images/blank.png width =""200"" height = ""200"" style = ""float:right""></p><p><img src=images/blank.png width =""800"" height = ""200""></p>","","","","","","","","","","","",""
"","4608.849999996892","sequential-stimulus-presentation","45","184974","0.0-14.0-1.0","SS1613100650930","trial","","40","800","5408.849999996892","images/stimuli/spore_stims/complex_14_A_d.gif","images/stimuli/spore_stims/complex_14_B_d.gif","","","","","2","complex_similar","images/stimuli/spore_stims/complex_14_B_d.gif","right","","","","",""
"","null","html-keyboard-response","46","186229","0.0-14.0-0.1","SS1613100650930","","","null","","","","","<p><img src= images/blank.png width =""200"" height = ""200"" style = ""float:right""></p><p><img src=images/blank.png width =""800"" height = ""200""></p>","","","","","","","","","","","",""
"","8676.084999999148","sequential-stimulus-presentation","47","195718","0.0-14.0-1.1","SS1613100650930","trial","","40","800","9476.084999999148","images/stimuli/spore_stims/complex_14_A_d.gif","images/stimuli/spore_stims/complex_14_B_d.gif","","","","","2","complex_similar","images/stimuli/spore_stims/complex_14_B_d.gif","right","","","","",""
"","null","html-keyboard-response","48","196749","0.0-14.0-0.2","SS1613100650930","","","null","","","","","<p><img src= images/blank.png width =""200"" height = ""200"" style = ""float:right""></p><p><img src=images/blank.png width =""800"" height = ""200""></p>","","","","","","","","","","","",""
"","763.1050000054529","sequential-stimulus-presentation","49","198326","0.0-14.0-1.2","SS1613100650930","trial","","40","800","1563.105000005453","images/stimuli/spore_stims/complex_14_A_d.gif","images/stimuli/spore_stims/complex_14_B_d.gif","","","","","2","complex_similar","images/stimuli/spore_stims/complex_14_B_d.gif","right","","","","",""
"","null","html-keyboard-response","50","199281","0.0-14.0-0.3","SS1613100650930","","","null","","","","","<p><img src= images/blank.png width =""200"" height = ""200"" style = ""float:right""></p><p><img src=images/blank.png width =""800"" height = ""200""></p>","","","","","","","","","","","",""
"","1301.7849999960163","sequential-stimulus-presentation","51","201398","0.0-14.0-1.3","SS1613100650930","trial","","40","800","2101.7849999960163","images/stimuli/spore_stims/complex_14_A_d.gif","images/stimuli/spore_stims/complex_14_B_d.gif","","","","","2","complex_similar","images/stimuli/spore_stims/complex_14_B_d.gif","right","","","","",""
"","null","html-keyboard-response","52","202330","0.0-14.0-0.4","SS1613100650930","","","null","","","","","<p><img src= images/blank.png width =""200"" height = ""200"" style = ""float:right""></p><p><img src=images/blank.png width =""800"" height = ""200""></p>","","","","","","","","","","","",""
"","495.92500000289874","sequential-stimulus-presentation","53","203638","0.0-14.0-1.4","SS1613100650930","trial","","40","800","1295.9250000028987","images/stimuli/spore_stims/complex_14_A_d.gif","images/stimuli/spore_stims/complex_14_B_d.gif","","","","","2","complex_similar","images/stimuli/spore_stims/complex_14_A_d.gif","left","","","","",""
"","null","html-keyboard-response","54","204666","0.0-14.0-0.5","SS1613100650930","","","null","","","","","<p><img src= images/blank.png width =""200"" height = ""200"" style = ""float:right""></p><p><img src=images/blank.png width =""800"" height = ""200""></p>","","","","","","","","","","","",""
"","1113.1949999980861","sequential-stimulus-presentation","55","206591","0.0-14.0-1.5","SS1613100650930","trial","","40","800","1913.1949999980861","images/stimuli/spore_stims/complex_14_A_d.gif","images/stimuli/spore_stims/complex_14_B_d.gif","","","","","2","complex_similar","images/stimuli/spore_stims/complex_14_B_d.gif","right","","","","",""
"","null","html-keyboard-response","56","207586","0.0-14.0-0.6","SS1613100650930","","","null","","","","","<p><img src= images/blank.png width =""200"" height = ""200"" style = ""float:right""></p><p><img src=images/blank.png width =""800"" height = ""200""></p>","","","","","","","","","","","",""
"","561.4449999993667","sequential-stimulus-presentation","57","208958","0.0-14.0-1.6","SS1613100650930","trial","","40","800","1361.4449999993667","images/stimuli/spore_stims/complex_14_A_d.gif","images/stimuli/spore_stims/complex_14_B_d.gif","","","","","2","complex_similar","images/stimuli/spore_stims/complex_14_B_d.gif","right","","","","",""
"","null","html-keyboard-response","58","209802","0.0-14.0-0.7","SS1613100650930","","","null","","","","","<p><img src= images/blank.png width =""200"" height = ""200"" style = ""float:right""></p><p><img src=images/blank.png width =""800"" height = ""200""></p>","","","","","","","","","","","",""
"","758.8249999971595","sequential-stimulus-presentation","59","211376","0.0-14.0-1.7","SS1613100650930","trial","","40","800","1558.8249999971595","images/stimuli/spore_stims/complex_14_A_d.gif","images/stimuli/spore_stims/complex_14_B_d.gif","","","","","2","complex_similar","images/stimuli/spore_stims/complex_14_B_d.gif","right","","","","",""
"","1408.3099999988917","html-keyboard-response","60","212798","0.0-15.0","SS1613100650930","pref_question","","99","","","","","<video width ='960' height = '540' style='padding-top:8%' autoplay muted><source src='images/stimuli/wall_pref.mp4' type='video/mp4'></video>","3","right","66%","2","","","","","","","",""
"","860.2549999995972","sequential-stimulus-presentation","61","214469","0.0-16.0","SS1613100650930","pref_reveal","","40","800","1660.2549999995972","null","null","","","","","2","","","","background","","","",""
"","null","html-keyboard-response","62","215304","0.0-17.0-0.0","SS1613100650930","","","null","","","","","<p><img src= images/blank.png width =""200"" height = ""200"" style = ""float:right""></p><p><img src=images/blank.png width =""800"" height = ""200""></p>","","","","","","","","","","","",""
"","239.36999999568798","sequential-stimulus-presentation","63","216357","0.0-17.0-1.0","SS1613100650930","trial","","40","800","1039.369999995688","images/stimuli/spore_stims/simple_03_A_b.gif","images/stimuli/spore_stims/simple_18_A_b.gif","","","","","3","simple_dissimilar","images/stimuli/spore_stims/simple_18_A_b.gif","middle","","","","",""
"","null","html-keyboard-response","64","217587","0.0-17.0-0.1","SS1613100650930","","","null","","","","","<p><img src= images/blank.png width =""200"" height = ""200"" style = ""float:right""></p><p><img src=images/blank.png width =""800"" height = ""200""></p>","","","","","","","","","","","",""
"","1444.3850000025122","sequential-stimulus-presentation","65","219844","0.0-17.0-1.1","SS1613100650930","trial","","40","800","2244.3850000025122","images/stimuli/spore_stims/simple_03_A_b.gif","images/stimuli/spore_stims/simple_18_A_b.gif","","","","","3","simple_dissimilar","images/stimuli/spore_stims/simple_18_A_b.gif","middle","","","","",""
"","null","html-keyboard-response","66","221132","0.0-17.0-0.2","SS1613100650930","","","null","","","","","<p><img src= images/blank.png width =""200"" height = ""200"" style = ""float:right""></p><p><img src=images/blank.png width =""800"" height = ""200""></p>","","","","","","","","","","","",""
"","9435.319999996864","sequential-stimulus-presentation","67","231381","0.0-17.0-1.2","SS1613100650930","trial","","40","800","10235.319999996864","images/stimuli/spore_stims/simple_03_A_b.gif","images/stimuli/spore_stims/simple_18_A_b.gif","","","","","3","simple_dissimilar","images/stimuli/spore_stims/simple_18_A_b.gif","middle","","","","",""
"","null","html-keyboard-response","68","232349","0.0-17.0-0.3","SS1613100650930","","","null","","","","","<p><img src= images/blank.png width =""200"" height = ""200"" style = ""float:right""></p><p><img src=images/blank.png width =""800"" height = ""200""></p>","","","","","","","","","","","",""
"","1907.9649999985122","sequential-stimulus-presentation","69","235070","0.0-17.0-1.3","SS1613100650930","trial","","40","800","2707.964999998512","images/stimuli/spore_stims/simple_03_A_b.gif","images/stimuli/spore_stims/simple_18_A_b.gif","","","","","3","simple_dissimilar","images/stimuli/spore_stims/simple_03_A_b.gif","right","","","","",""
"","null","html-keyboard-response","70","236168","0.0-17.0-0.4","SS1613100650930","","","null","","","","","<p><img src= images/blank.png width =""200"" height = ""200"" style = ""float:right""></p><p><img src=images/blank.png width =""800"" height = ""200""></p>","","","","","","","","","","","",""
"","22.54499999980908","sequential-stimulus-presentation","71","237013","0.0-17.0-1.4","SS1613100650930","trial","","40","800","822.5449999998091","images/stimuli/spore_stims/simple_03_A_b.gif","images/stimuli/spore_stims/simple_18_A_b.gif","","","","","3","simple_dissimilar","images/stimuli/spore_stims/simple_18_A_b.gif","middle","","","","",""
"","null","html-keyboard-response","72","238031","0.0-17.0-0.5","SS1613100650930","","","null","","","","","<p><img src= images/blank.png width =""200"" height = ""200"" style = ""float:right""></p><p><img src=images/blank.png width =""800"" height = ""200""></p>","","","","","","","","","","","",""
"","2802.739999999176","sequential-stimulus-presentation","73","241646","0.0-17.0-1.5","SS1613100650930","trial","","40","800","3602.739999999176","images/stimuli/spore_stims/simple_03_A_b.gif","images/stimuli/spore_stims/simple_18_A_b.gif","","","","","3","simple_dissimilar","images/stimuli/spore_stims/simple_18_A_b.gif","middle","","","","",""
"","null","html-keyboard-response","74","242641","0.0-17.0-0.6","SS1613100650930","","","null","","","","","<p><img src= images/blank.png width =""200"" height = ""200"" style = ""float:right""></p><p><img src=images/blank.png width =""800"" height = ""200""></p>","","","","","","","","","","","",""
"","1132.9750000004424","sequential-stimulus-presentation","75","244588","0.0-17.0-1.6","SS1613100650930","trial","","40","800","1932.9750000004424","images/stimuli/spore_stims/simple_03_A_b.gif","images/stimuli/spore_stims/simple_18_A_b.gif","","","","","3","simple_dissimilar","images/stimuli/spore_stims/simple_18_A_b.gif","middle","","","","",""
"","null","html-keyboard-response","76","245661","0.0-17.0-0.7","SS1613100650930","","","null","","","","","<p><img src= images/blank.png width =""200"" height = ""200"" style = ""float:right""></p><p><img src=images/blank.png width =""800"" height = ""200""></p>","","","","","","","","","","","",""
"","130.20000000688015","sequential-stimulus-presentation","77","246604","0.0-17.0-1.7","SS1613100650930","trial","","40","800","930.2000000068801","images/stimuli/spore_stims/simple_03_A_b.gif","images/stimuli/spore_stims/simple_18_A_b.gif","","","","","3","simple_dissimilar","images/stimuli/spore_stims/simple_18_A_b.gif","middle","","","","",""
"","1917.6299999962794","html-keyboard-response","78","248549","0.0-18.0","SS1613100650930","pref_question","","97","","","","","<video width ='960' height = '540' style='padding-top:8%' autoplay muted><source src='images/stimuli/wall_pref.mp4' type='video/mp4'></video>","1","left","25%","3","","","","","","","",""
"","1507.3950000005425","sequential-stimulus-presentation","79","250869","0.0-19.0","SS1613100650930","pref_reveal","","40","800","2307.3950000005425","null","null","","","","","3","","","","novel","","","",""
"","null","html-keyboard-response","80","252096","0.0-20.0-0.0","SS1613100650930","","","null","","","","","<p><img src= images/blank.png width =""200"" height = ""200"" style = ""float:right""></p><p><img src=images/blank.png width =""800"" height = ""200""></p>","","","","","","","","","","","",""
"","1886.4449999964563","sequential-stimulus-presentation","81","254795","0.0-20.0-1.0","SS1613100650930","trial","","40","800","2686.4449999964563","images/stimuli/spore_stims/complex_03_B_c.gif","images/stimuli/spore_stims/complex_15_B_a.gif","","","","","4","complex_dissimilar","images/stimuli/spore_stims/complex_15_B_a.gif","middle","","","","",""
"","null","html-keyboard-response","82","256087","0.0-20.0-0.1","SS1613100650930","","","null","","","","","<p><img src= images/blank.png width =""200"" height = ""200"" style = ""float:right""></p><p><img src=images/blank.png width =""800"" height = ""200""></p>","","","","","","","","","","","",""
"","472.54500000417465","sequential-stimulus-presentation","83","257372","0.0-20.0-1.1","SS1613100650930","trial","","40","800","1272.5450000041747","images/stimuli/spore_stims/complex_03_B_c.gif","images/stimuli/spore_stims/complex_15_B_a.gif","","","","","4","complex_dissimilar","images/stimuli/spore_stims/complex_15_B_a.gif","middle","","","","",""
"","null","html-keyboard-response","84","258222","0.0-20.0-0.2","SS1613100650930","","","null","","","","","<p><img src= images/blank.png width =""200"" height = ""200"" style = ""float:right""></p><p><img src=images/blank.png width =""800"" height = ""200""></p>","","","","","","","","","","","",""
"","929.2950000017299","sequential-stimulus-presentation","85","259963","0.0-20.0-1.2","SS1613100650930","trial","","40","800","1729.29500000173","images/stimuli/spore_stims/complex_03_B_c.gif","images/stimuli/spore_stims/complex_15_B_a.gif","","","","","4","complex_dissimilar","images/stimuli/spore_stims/complex_15_B_a.gif","middle","","","","",""
"","null","html-keyboard-response","86","260882","0.0-20.0-0.3","SS1613100650930","","","null","","","","","<p><img src= images/blank.png width =""200"" height = ""200"" style = ""float:right""></p><p><img src=images/blank.png width =""800"" height = ""200""></p>","","","","","","","","","","","",""
"","1108.780000002298","sequential-stimulus-presentation","87","262806","0.0-20.0-1.3","SS1613100650930","trial","","40","800","1908.780000002298","images/stimuli/spore_stims/complex_03_B_c.gif","images/stimuli/spore_stims/complex_15_B_a.gif","","","","","4","complex_dissimilar","images/stimuli/spore_stims/complex_03_B_c.gif","right","","","","",""
"","null","html-keyboard-response","88","263990","0.0-20.0-0.4","SS1613100650930","","","null","","","","","<p><img src= images/blank.png width =""200"" height = ""200"" style = ""float:right""></p><p><img src=images/blank.png width =""800"" height = ""200""></p>","","","","","","","","","","","",""
"","591.5549999990617","sequential-stimulus-presentation","89","265387","0.0-20.0-1.4","SS1613100650930","trial","","40","800","1391.5549999990617","images/stimuli/spore_stims/complex_03_B_c.gif","images/stimuli/spore_stims/complex_15_B_a.gif","","","","","4","complex_dissimilar","images/stimuli/spore_stims/complex_15_B_a.gif","middle","","","","",""
"","null","html-keyboard-response","90","266280","0.0-20.0-0.5","SS1613100650930","","","null","","","","","<p><img src= images/blank.png width =""200"" height = ""200"" style = ""float:right""></p><p><img src=images/blank.png width =""800"" height = ""200""></p>","","","","","","","","","","","",""
"","564.4249999968451","sequential-stimulus-presentation","91","267659","0.0-20.0-1.5","SS1613100650930","trial","","40","800","1364.4249999968451","images/stimuli/spore_stims/complex_03_B_c.gif","images/stimuli/spore_stims/complex_15_B_a.gif","","","","","4","complex_dissimilar","images/stimuli/spore_stims/complex_15_B_a.gif","middle","","","","",""
"","null","html-keyboard-response","92","268711","0.0-20.0-0.6","SS1613100650930","","","null","","","","","<p><img src= images/blank.png width =""200"" height = ""200"" style = ""float:right""></p><p><img src=images/blank.png width =""800"" height = ""200""></p>","","","","","","","","","","","",""
"","488.40999999811174","sequential-stimulus-presentation","93","270011","0.0-20.0-1.6","SS1613100650930","trial","","40","800","1288.4099999981117","images/stimuli/spore_stims/complex_03_B_c.gif","images/stimuli/spore_stims/complex_15_B_a.gif","","","","","4","complex_dissimilar","images/stimuli/spore_stims/complex_15_B_a.gif","middle","","","","",""
"","null","html-keyboard-response","94","271192","0.0-20.0-0.7","SS1613100650930","","","null","","","","","<p><img src= images/blank.png width =""200"" height = ""200"" style = ""float:right""></p><p><img src=images/blank.png width =""800"" height = ""200""></p>","","","","","","","","","","","",""
"","177.12000000028638","sequential-stimulus-presentation","95","272203","0.0-20.0-1.7","SS1613100650930","trial","","40","800","977.1200000002864","images/stimuli/spore_stims/complex_03_B_c.gif","images/stimuli/spore_stims/complex_15_B_a.gif","","","","","4","complex_dissimilar","images/stimuli/spore_stims/complex_15_B_a.gif","middle","","","","",""
"","1284.944999999425","html-keyboard-response","96","273492","0.0-21.0","SS1613100650930","pref_question","","98","","","","","<video width ='960' height = '540' style='padding-top:8%' autoplay muted><source src='images/stimuli/wall_pref.mp4' type='video/mp4'></video>","2","middle","45%","4","","","","","","","",""
"","482.04500000429107","sequential-stimulus-presentation","97","274788","0.0-22.0","SS1613100650930","pref_reveal","","40","800","1282.045000004291","null","null","","","","","4","","","","background","","","",""
"","null","html-keyboard-response","98","275924","0.0-23.0-0.0","SS1613100650930","","","null","","","","","<p><img src= images/blank.png width =""200"" height = ""200"" style = ""float:right""></p><p><img src=images/blank.png width =""800"" height = ""200""></p>","","","","","","","","","","","",""
"","1600.3600000040024","sequential-stimulus-presentation","99","278340","0.0-23.0-1.0","SS1613100650930","trial","","40","800","2400.3600000040024","images/stimuli/spore_stims/simple_20_A_a.gif","images/stimuli/spore_stims/simple_20_B_a.gif","","","","","5","simple_similar","images/stimuli/spore_stims/simple_20_B_a.gif","right","","","","",""
"","null","html-keyboard-response","100","279416","0.0-23.0-0.1","SS1613100650930","","","null","","","","","<p><img src= images/blank.png width =""200"" height = ""200"" style = ""float:right""></p><p><img src=images/blank.png width =""800"" height = ""200""></p>","","","","","","","","","","","",""
"","404.7199999986333","sequential-stimulus-presentation","101","280635","0.0-23.0-1.1","SS1613100650930","trial","","40","800","1204.7199999986333","images/stimuli/spore_stims/simple_20_A_a.gif","images/stimuli/spore_stims/simple_20_B_a.gif","","","","","5","simple_similar","images/stimuli/spore_stims/simple_20_B_a.gif","right","","","","",""
"","null","html-keyboard-response","102","281558","0.0-23.0-0.2","SS1613100650930","","","null","","","","","<p><img src= images/blank.png width =""200"" height = ""200"" style = ""float:right""></p><p><img src=images/blank.png width =""800"" height = ""200""></p>","","","","","","","","","","","",""
"","3082.705000000715","sequential-stimulus-presentation","103","285455","0.0-23.0-1.2","SS1613100650930","trial","","40","800","3882.705000000715","images/stimuli/spore_stims/simple_20_A_a.gif","images/stimuli/spore_stims/simple_20_B_a.gif","","","","","5","simple_similar","images/stimuli/spore_stims/simple_20_B_a.gif","right","","","","",""
"","null","html-keyboard-response","104","286405","0.0-23.0-0.3","SS1613100650930","","","null","","","","","<p><img src= images/blank.png width =""200"" height = ""200"" style = ""float:right""></p><p><img src=images/blank.png width =""800"" height = ""200""></p>","","","","","","","","","","","",""
"","532.5400000001537","sequential-stimulus-presentation","105","287773","0.0-23.0-1.3","SS1613100650930","trial","","40","800","1332.5400000001537","images/stimuli/spore_stims/simple_20_A_a.gif","images/stimuli/spore_stims/simple_20_B_a.gif","","","","","5","simple_similar","images/stimuli/spore_stims/simple_20_B_a.gif","right","","","","",""
"","null","html-keyboard-response","106","289030","0.0-23.0-0.4","SS1613100650930","","","null","","","","","<p><img src= images/blank.png width =""200"" height = ""200"" style = ""float:right""></p><p><img src=images/blank.png width =""800"" height = ""200""></p>","","","","","","","","","","","",""
"","489.15999999735504","sequential-stimulus-presentation","107","290332","0.0-23.0-1.4","SS1613100650930","trial","","40","800","1289.159999997355","images/stimuli/spore_stims/simple_20_A_a.gif","images/stimuli/spore_stims/simple_20_B_a.gif","","","","","5","simple_similar","images/stimuli/spore_stims/simple_20_B_a.gif","right","","","","",""
"","null","html-keyboard-response","108","291567","0.0-23.0-0.5","SS1613100650930","","","null","","","","","<p><img src= images/blank.png width =""200"" height = ""200"" style = ""float:right""></p><p><img src=images/blank.png width =""800"" height = ""200""></p>","","","","","","","","","","","",""
"","414.2550000033225","sequential-stimulus-presentation","109","292797","0.0-23.0-1.5","SS1613100650930","trial","","40","800","1214.2550000033225","images/stimuli/spore_stims/simple_20_A_a.gif","images/stimuli/spore_stims/simple_20_B_a.gif","","","","","5","simple_similar","images/stimuli/spore_stims/simple_20_B_a.gif","right","","","","",""
"","null","html-keyboard-response","110","293885","0.0-23.0-0.6","SS1613100650930","","","null","","","","","<p><img src= images/blank.png width =""200"" height = ""200"" style = ""float:right""></p><p><img src=images/blank.png width =""800"" height = ""200""></p>","","","","","","","","","","","",""
"","359.1750000050524","sequential-stimulus-presentation","111","295052","0.0-23.0-1.6","SS1613100650930","trial","","40","800","1159.1750000050524","images/stimuli/spore_stims/simple_20_A_a.gif","images/stimuli/spore_stims/simple_20_B_a.gif","","","","","5","simple_similar","images/stimuli/spore_stims/simple_20_B_a.gif","right","","","","",""
"","null","html-keyboard-response","112","296317","0.0-23.0-0.7","SS1613100650930","","","null","","","","","<p><img src= images/blank.png width =""200"" height = ""200"" style = ""float:right""></p><p><img src=images/blank.png width =""800"" height = ""200""></p>","","","","","","","","","","","",""
"","545.1099999991129","sequential-stimulus-presentation","113","297675","0.0-23.0-1.7","SS1613100650930","trial","","40","800","1345.109999999113","images/stimuli/spore_stims/simple_20_A_a.gif","images/stimuli/spore_stims/simple_20_B_a.gif","","","","","5","simple_similar","images/stimuli/spore_stims/simple_20_A_a.gif","middle","","","","",""
"","1164.7900000025402","html-keyboard-response","114","298845","0.0-24.0","SS1613100650930","pref_question","","97","","","","","<video width ='960' height = '540' style='padding-top:8%' autoplay muted><source src='images/stimuli/wall_pref.mp4' type='video/mp4'></video>","1","left","25%","5","","","","","","","",""
"","546.649999996589","sequential-stimulus-presentation","115","300204","0.0-25.0","SS1613100650930","pref_reveal","","40","800","1346.649999996589","null","null","","","","","5","","","","novel","","","",""
"","null","html-keyboard-response","116","301123","0.0-26.0-0.0","SS1613100650930","","","null","","","","","<p><img src= images/blank.png width =""200"" height = ""200"" style = ""float:right""></p><p><img src=images/blank.png width =""800"" height = ""200""></p>","","","","","","","","","","","",""
"","746.435000000929","sequential-stimulus-presentation","117","302684","0.0-26.0-1.0","SS1613100650930","trial","","40","800","1546.435000000929","images/stimuli/spore_stims/complex_11_A_c.gif","images/stimuli/spore_stims/complex_17_A_c.gif","","","","","6","complex_dissimilar","images/stimuli/spore_stims/complex_17_A_c.gif","right","","","","",""
"","null","html-keyboard-response","118","303826","0.0-26.0-0.1","SS1613100650930","","","null","","","","","<p><img src= images/blank.png width =""200"" height = ""200"" style = ""float:right""></p><p><img src=images/blank.png width =""800"" height = ""200""></p>","","","","","","","","","","","",""
"","557.5749999989057","sequential-stimulus-presentation","119","305196","0.0-26.0-1.1","SS1613100650930","trial","","40","800","1357.5749999989057","images/stimuli/spore_stims/complex_11_A_c.gif","images/stimuli/spore_stims/complex_17_A_c.gif","","","","","6","complex_dissimilar","images/stimuli/spore_stims/complex_17_A_c.gif","right","","","","",""
"","null","html-keyboard-response","120","306408","0.0-26.0-0.2","SS1613100650930","","","null","","","","","<p><img src= images/blank.png width =""200"" height = ""200"" style = ""float:right""></p><p><img src=images/blank.png width =""800"" height = ""200""></p>","","","","","","","","","","","",""
"","630.0950000004377","sequential-stimulus-presentation","121","307852","0.0-26.0-1.2","SS1613100650930","trial","","40","800","1430.0950000004377","images/stimuli/spore_stims/complex_11_A_c.gif","images/stimuli/spore_stims/complex_17_A_c.gif","","","","","6","complex_dissimilar","images/stimuli/spore_stims/complex_17_A_c.gif","right","","","","",""
"","null","html-keyboard-response","122","309064","0.0-26.0-0.3","SS1613100650930","","","null","","","","","<p><img src= images/blank.png width =""200"" height = ""200"" style = ""float:right""></p><p><img src=images/blank.png width =""800"" height = ""200""></p>","","","","","","","","","","","",""
"","582.9050000029383","sequential-stimulus-presentation","123","310460","0.0-26.0-1.3","SS1613100650930","trial","","40","800","1382.9050000029383","images/stimuli/spore_stims/complex_11_A_c.gif","images/stimuli/spore_stims/complex_17_A_c.gif","","","","","6","complex_dissimilar","images/stimuli/spore_stims/complex_11_A_c.gif","left","","","","",""
"","null","html-keyboard-response","124","311563","0.0-26.0-0.4","SS1613100650930","","","null","","","","","<p><img src= images/blank.png width =""200"" height = ""200"" style = ""float:right""></p><p><img src=images/blank.png width =""800"" height = ""200""></p>","","","","","","","","","","","",""
"","624.7900000016671","sequential-stimulus-presentation","125","313004","0.0-26.0-1.4","SS1613100650930","trial","","40","800","1424.790000001667","images/stimuli/spore_stims/complex_11_A_c.gif","images/stimuli/spore_stims/complex_17_A_c.gif","","","","","6","complex_dissimilar","images/stimuli/spore_stims/complex_17_A_c.gif","right","","","","",""
"","null","html-keyboard-response","126","314126","0.0-26.0-0.5","SS1613100650930","","","null","","","","","<p><img src= images/blank.png width =""200"" height = ""200"" style = ""float:right""></p><p><img src=images/blank.png width =""800"" height = ""200""></p>","","","","","","","","","","","",""
"","1284.510000004957","sequential-stimulus-presentation","127","316220","0.0-26.0-1.5","SS1613100650930","trial","","40","800","2084.510000004957","images/stimuli/spore_stims/complex_11_A_c.gif","images/stimuli/spore_stims/complex_17_A_c.gif","","","","","6","complex_dissimilar","images/stimuli/spore_stims/complex_17_A_c.gif","right","","","","",""
"","null","html-keyboard-response","128","317065","0.0-26.0-0.6","SS1613100650930","","","null","","","","","<p><img src= images/blank.png width =""200"" height = ""200"" style = ""float:right""></p><p><img src=images/blank.png width =""800"" height = ""200""></p>","","","","","","","","","","","",""
"","968.9849999995204","sequential-stimulus-presentation","129","318851","0.0-26.0-1.6","SS1613100650930","trial","","40","800","1768.9849999995204","images/stimuli/spore_stims/complex_11_A_c.gif","images/stimuli/spore_stims/complex_17_A_c.gif","","","","","6","complex_dissimilar","images/stimuli/spore_stims/complex_17_A_c.gif","right","","","","",""
"","null","html-keyboard-response","130","319713","0.0-26.0-0.7","SS1613100650930","","","null","","","","","<p><img src= images/blank.png width =""200"" height = ""200"" style = ""float:right""></p><p><img src=images/blank.png width =""800"" height = ""200""></p>","","","","","","","","","","","",""
"","628.2500000015716","sequential-stimulus-presentation","131","321155","0.0-26.0-1.7","SS1613100650930","trial","","40","800","1428.2500000015716","images/stimuli/spore_stims/complex_11_A_c.gif","images/stimuli/spore_stims/complex_17_A_c.gif","","","","","6","complex_dissimilar","images/stimuli/spore_stims/complex_17_A_c.gif","right","","","","",""
"","3146.3349999976344","html-keyboard-response","132","324315","0.0-27.0","SS1613100650930","pref_question","","99","","","","","<video width ='960' height = '540' style='padding-top:8%' autoplay muted><source src='images/stimuli/wall_pref.mp4' type='video/mp4'></video>","3","right","66%","6","","","","","","","",""
"","820.7750000001397","sequential-stimulus-presentation","133","325947","0.0-28.0","SS1613100650930","pref_reveal","","40","800","1620.7750000001397","null","null","","","","","6","","","","background","","","",""
"","null","html-keyboard-response","134","327195","0.0-29.0-0.0","SS1613100650930","","","null","","","","","<p><img src= images/blank.png width =""200"" height = ""200"" style = ""float:right""></p><p><img src=images/blank.png width =""800"" height = ""200""></p>","","","","","","","","","","","",""
"","1223.9099999933387","sequential-stimulus-presentation","135","329236","0.0-29.0-1.0","SS1613100650930","trial","","40","800","2023.9099999933387","images/stimuli/spore_stims/complex_19_A_c.gif","images/stimuli/spore_stims/complex_19_B_c.gif","","","","","7","complex_similar","images/stimuli/spore_stims/complex_19_B_c.gif","right","","","","",""
"","null","html-keyboard-response","136","330206","0.0-29.0-0.1","SS1613100650930","","","null","","","","","<p><img src= images/blank.png width =""200"" height = ""200"" style = ""float:right""></p><p><img src=images/blank.png width =""800"" height = ""200""></p>","","","","","","","","","","","",""
"","1370.4849999994622","sequential-stimulus-presentation","137","332395","0.0-29.0-1.1","SS1613100650930","trial","","40","800","2170.484999999462","images/stimuli/spore_stims/complex_19_A_c.gif","images/stimuli/spore_stims/complex_19_B_c.gif","","","","","7","complex_similar","images/stimuli/spore_stims/complex_19_B_c.gif","right","","","","",""
"","null","html-keyboard-response","138","333685","0.0-29.0-0.2","SS1613100650930","","","null","","","","","<p><img src= images/blank.png width =""200"" height = ""200"" style = ""float:right""></p><p><img src=images/blank.png width =""800"" height = ""200""></p>","","","","","","","","","","","",""
"","1413.2899999967776","sequential-stimulus-presentation","139","335914","0.0-29.0-1.2","SS1613100650930","trial","","40","800","2213.2899999967776","images/stimuli/spore_stims/complex_19_A_c.gif","images/stimuli/spore_stims/complex_19_B_c.gif","","","","","7","complex_similar","images/stimuli/spore_stims/complex_19_A_c.gif","middle","","","","",""
"","null","html-keyboard-response","140","337108","0.0-29.0-0.3","SS1613100650930","","","null","","","","","<p><img src= images/blank.png width =""200"" height = ""200"" style = ""float:right""></p><p><img src=images/blank.png width =""800"" height = ""200""></p>","","","","","","","","","","","",""
"","1191.7350000003353","sequential-stimulus-presentation","141","339115","0.0-29.0-1.3","SS1613100650930","trial","","40","800","1991.7350000003353","images/stimuli/spore_stims/complex_19_A_c.gif","images/stimuli/spore_stims/complex_19_B_c.gif","","","","","7","complex_similar","images/stimuli/spore_stims/complex_19_B_c.gif","right","","","","",""
"","null","html-keyboard-response","142","340027","0.0-29.0-0.4","SS1613100650930","","","null","","","","","<p><img src= images/blank.png width =""200"" height = ""200"" style = ""float:right""></p><p><img src=images/blank.png width =""800"" height = ""200""></p>","","","","","","","","","","","",""
"","845.5849999954808","sequential-stimulus-presentation","143","341692","0.0-29.0-1.4","SS1613100650930","trial","","40","800","1645.5849999954808","images/stimuli/spore_stims/complex_19_A_c.gif","images/stimuli/spore_stims/complex_19_B_c.gif","","","","","7","complex_similar","images/stimuli/spore_stims/complex_19_B_c.gif","right","","","","",""
"","null","html-keyboard-response","144","342505","0.0-29.0-0.5","SS1613100650930","","","null","","","","","<p><img src= images/blank.png width =""200"" height = ""200"" style = ""float:right""></p><p><img src=images/blank.png width =""800"" height = ""200""></p>","","","","","","","","","","","",""
"","12.369999996735714","sequential-stimulus-presentation","145","343333","0.0-29.0-1.5","SS1613100650930","trial","","40","800","812.3699999967357","images/stimuli/spore_stims/complex_19_A_c.gif","images/stimuli/spore_stims/complex_19_B_c.gif","","","","","7","complex_similar","images/stimuli/spore_stims/complex_19_B_c.gif","right","","","","",""
"","null","html-keyboard-response","146","344395","0.0-29.0-0.6","SS1613100650930","","","null","","","","","<p><img src= images/blank.png width =""200"" height = ""200"" style = ""float:right""></p><p><img src=images/blank.png width =""800"" height = ""200""></p>","","","","","","","","","","","",""
"","753.2749999954831","sequential-stimulus-presentation","147","345964","0.0-29.0-1.6","SS1613100650930","trial","","40","800","1553.274999995483","images/stimuli/spore_stims/complex_19_A_c.gif","images/stimuli/spore_stims/complex_19_B_c.gif","","","","","7","complex_similar","images/stimuli/spore_stims/complex_19_B_c.gif","right","","","","",""
"","null","html-keyboard-response","148","347020","0.0-29.0-0.7","SS1613100650930","","","null","","","","","<p><img src= images/blank.png width =""200"" height = ""200"" style = ""float:right""></p><p><img src=images/blank.png width =""800"" height = ""200""></p>","","","","","","","","","","","",""
"","472.37000000313856","sequential-stimulus-presentation","149","348308","0.0-29.0-1.7","SS1613100650930","trial","","40","800","1272.3700000031386","images/stimuli/spore_stims/complex_19_A_c.gif","images/stimuli/spore_stims/complex_19_B_c.gif","","","","","7","complex_similar","images/stimuli/spore_stims/complex_19_B_c.gif","right","","","","",""
"","1530.800000000454","html-keyboard-response","150","349853","0.0-30.0","SS1613100650930","pref_question","","98","","","","","<video width ='960' height = '540' style='padding-top:8%' autoplay muted><source src='images/stimuli/wall_pref.mp4' type='video/mp4'></video>","2","middle","45%","7","","","","","","","",""
"","420.0300000011339","sequential-stimulus-presentation","151","351089","0.0-31.0","SS1613100650930","pref_reveal","","40","800","1220.0300000011339","null","null","","","","","7","","","","deviant","","","",""
"","null","html-keyboard-response","152","352094","0.0-32.0-0.0","SS1613100650930","","","null","","","","","<p><img src= images/blank.png width =""200"" height = ""200"" style = ""float:right""></p><p><img src=images/blank.png width =""800"" height = ""200""></p>","","","","","","","","","","","",""
"","947.4250000057509","sequential-stimulus-presentation","153","353859","0.0-32.0-1.0","SS1613100650930","trial","","40","800","1747.425000005751","images/stimuli/spore_stims/complex_04_B_a.gif","images/stimuli/spore_stims/complex_04_A_a.gif","","","","","8","complex_similar","images/stimuli/spore_stims/complex_04_A_a.gif","right","","","","",""
"","null","html-keyboard-response","154","354852","0.0-32.0-0.1","SS1613100650930","","","null","","","","","<p><img src= images/blank.png width =""200"" height = ""200"" style = ""float:right""></p><p><img src=images/blank.png width =""800"" height = ""200""></p>","","","","","","","","","","","",""
"","916.7650000017602","sequential-stimulus-presentation","155","356589","0.0-32.0-1.1","SS1613100650930","trial","","40","800","1716.7650000017602","images/stimuli/spore_stims/complex_04_B_a.gif","images/stimuli/spore_stims/complex_04_A_a.gif","","","","","8","complex_similar","images/stimuli/spore_stims/complex_04_A_a.gif","right","","","","",""
"","null","html-keyboard-response","156","357676","0.0-32.0-0.2","SS1613100650930","","","null","","","","","<p><img src= images/blank.png width =""200"" height = ""200"" style = ""float:right""></p><p><img src=images/blank.png width =""800"" height = ""200""></p>","","","","","","","","","","","",""
"","495.3800000002957","sequential-stimulus-presentation","157","358987","0.0-32.0-1.2","SS1613100650930","trial","","40","800","1295.3800000002957","images/stimuli/spore_stims/complex_04_B_a.gif","images/stimuli/spore_stims/complex_04_A_a.gif","","","","","8","complex_similar","images/stimuli/spore_stims/complex_04_A_a.gif","right","","","","",""
"","null","html-keyboard-response","158","360255","0.0-32.0-0.3","SS1613100650930","","","null","","","","","<p><img src= images/blank.png width =""200"" height = ""200"" style = ""float:right""></p><p><img src=images/blank.png width =""800"" height = ""200""></p>","","","","","","","","","","","",""
"","397.19999999942956","sequential-stimulus-presentation","159","361467","0.0-32.0-1.3","SS1613100650930","trial","","40","800","1197.1999999994296","images/stimuli/spore_stims/complex_04_B_a.gif","images/stimuli/spore_stims/complex_04_A_a.gif","","","","","8","complex_similar","images/stimuli/spore_stims/complex_04_A_a.gif","right","","","","",""
"","null","html-keyboard-response","160","362500","0.0-32.0-0.4","SS1613100650930","","","null","","","","","<p><img src= images/blank.png width =""200"" height = ""200"" style = ""float:right""></p><p><img src=images/blank.png width =""800"" height = ""200""></p>","","","","","","","","","","","",""
"","354.8499999960768","sequential-stimulus-presentation","161","363668","0.0-32.0-1.4","SS1613100650930","trial","","40","800","1154.8499999960768","images/stimuli/spore_stims/complex_04_B_a.gif","images/stimuli/spore_stims/complex_04_A_a.gif","","","","","8","complex_similar","images/stimuli/spore_stims/complex_04_A_a.gif","right","","","","",""
"","null","html-keyboard-response","162","364579","0.0-32.0-0.5","SS1613100650930","","","null","","","","","<p><img src= images/blank.png width =""200"" height = ""200"" style = ""float:right""></p><p><img src=images/blank.png width =""800"" height = ""200""></p>","","","","","","","","","","","",""
"","485.09999999805586","sequential-stimulus-presentation","163","365882","0.0-32.0-1.5","SS1613100650930","trial","","40","800","1285.0999999980559","images/stimuli/spore_stims/complex_04_B_a.gif","images/stimuli/spore_stims/complex_04_A_a.gif","","","","","8","complex_similar","images/stimuli/spore_stims/complex_04_B_a.gif","middle","","","","",""
"","null","html-keyboard-response","164","366922","0.0-32.0-0.6","SS1613100650930","","","null","","","","","<p><img src= images/blank.png width =""200"" height = ""200"" style = ""float:right""></p><p><img src=images/blank.png width =""800"" height = ""200""></p>","","","","","","","","","","","",""
"","425.84000000351807","sequential-stimulus-presentation","165","368163","0.0-32.0-1.6","SS1613100650930","trial","","40","800","1225.840000003518","images/stimuli/spore_stims/complex_04_B_a.gif","images/stimuli/spore_stims/complex_04_A_a.gif","","","","","8","complex_similar","images/stimuli/spore_stims/complex_04_A_a.gif","right","","","","",""
"","null","html-keyboard-response","166","369312","0.0-32.0-0.7","SS1613100650930","","","null","","","","","<p><img src= images/blank.png width =""200"" height = ""200"" style = ""float:right""></p><p><img src=images/blank.png width =""800"" height = ""200""></p>","","","","","","","","","","","",""
"","71.71500000549713","sequential-stimulus-presentation","167","370202","0.0-32.0-1.7","SS1613100650930","trial","","40","800","871.7150000054971","images/stimuli/spore_stims/complex_04_B_a.gif","images/stimuli/spore_stims/complex_04_A_a.gif","","","","","8","complex_similar","images/stimuli/spore_stims/complex_04_A_a.gif","right","","","","",""
"","1316.0300000017742","html-keyboard-response","168","371524","0.0-33.0","SS1613100650930","pref_question","","99","","","","","<video width ='960' height = '540' style='padding-top:8%' autoplay muted><source src='images/stimuli/wall_pref.mp4' type='video/mp4'></video>","3","right","66%","8","","","","","","","",""
"","591.3049999944633","sequential-stimulus-presentation","169","372930","0.0-34.0","SS1613100650930","pref_reveal","","40","800","1391.3049999944633","null","null","","","","","8","","","","background","","","",""
"","null","html-keyboard-response","170","374042","0.0-35.0-0.0","SS1613100650930","","","null","","","","","<p><img src= images/blank.png width =""200"" height = ""200"" style = ""float:right""></p><p><img src=images/blank.png width =""800"" height = ""200""></p>","","","","","","","","","","","",""
"","759.6449999982724","sequential-stimulus-presentation","171","375609","0.0-35.0-1.0","SS1613100650930","trial","","40","800","1559.6449999982724","images/stimuli/spore_stims/simple_16_B_c.gif","images/stimuli/spore_stims/simple_16_A_c.gif","","","","","9","simple_similar","images/stimuli/spore_stims/simple_16_A_c.gif","middle","","","","",""
"","null","html-keyboard-response","172","376865","0.0-35.0-0.1","SS1613100650930","","","null","","","","","<p><img src= images/blank.png width =""200"" height = ""200"" style = ""float:right""></p><p><img src=images/blank.png width =""800"" height = ""200""></p>","","","","","","","","","","","",""
"","1433.6100000000442","sequential-stimulus-presentation","173","379113","0.0-35.0-1.1","SS1613100650930","trial","","40","800","2233.6100000000442","images/stimuli/spore_stims/simple_16_B_c.gif","images/stimuli/spore_stims/simple_16_A_c.gif","","","","","9","simple_similar","images/stimuli/spore_stims/simple_16_A_c.gif","middle","","","","",""
"","null","html-keyboard-response","174","380119","0.0-35.0-0.2","SS1613100650930","","","null","","","","","<p><img src= images/blank.png width =""200"" height = ""200"" style = ""float:right""></p><p><img src=images/blank.png width =""800"" height = ""200""></p>","","","","","","","","","","","",""
"","639.9900000033085","sequential-stimulus-presentation","175","381578","0.0-35.0-1.2","SS1613100650930","trial","","40","800","1439.9900000033085","images/stimuli/spore_stims/simple_16_B_c.gif","images/stimuli/spore_stims/simple_16_A_c.gif","","","","","9","simple_similar","images/stimuli/spore_stims/simple_16_A_c.gif","middle","","","","",""
"","null","html-keyboard-response","176","382495","0.0-35.0-0.3","SS1613100650930","","","null","","","","","<p><img src= images/blank.png width =""200"" height = ""200"" style = ""float:right""></p><p><img src=images/blank.png width =""800"" height = ""200""></p>","","","","","","","","","","","",""
"","465.17499999754364","sequential-stimulus-presentation","177","383777","0.0-35.0-1.3","SS1613100650930","trial","","40","800","1265.1749999975436","images/stimuli/spore_stims/simple_16_B_c.gif","images/stimuli/spore_stims/simple_16_A_c.gif","","","","","9","simple_similar","images/stimuli/spore_stims/simple_16_A_c.gif","middle","","","","",""
"","null","html-keyboard-response","178","384995","0.0-35.0-0.4","SS1613100650930","","","null","","","","","<p><img src= images/blank.png width =""200"" height = ""200"" style = ""float:right""></p><p><img src=images/blank.png width =""800"" height = ""200""></p>","","","","","","","","","","","",""
"","718.3149999982561","sequential-stimulus-presentation","179","386530","0.0-35.0-1.4","SS1613100650930","trial","","40","800","1518.314999998256","images/stimuli/spore_stims/simple_16_B_c.gif","images/stimuli/spore_stims/simple_16_A_c.gif","","","","","9","simple_similar","images/stimuli/spore_stims/simple_16_B_c.gif","right","","","","",""
"","null","html-keyboard-response","180","387824","0.0-35.0-0.5","SS1613100650930","","","null","","","","","<p><img src= images/blank.png width =""200"" height = ""200"" style = ""float:right""></p><p><img src=images/blank.png width =""800"" height = ""200""></p>","","","","","","","","","","","",""
"","1263.7800000011339","sequential-stimulus-presentation","181","389905","0.0-35.0-1.5","SS1613100650930","trial","","40","800","2063.780000001134","images/stimuli/spore_stims/simple_16_B_c.gif","images/stimuli/spore_stims/simple_16_A_c.gif","","","","","9","simple_similar","images/stimuli/spore_stims/simple_16_A_c.gif","middle","","","","",""
"","null","html-keyboard-response","182","391037","0.0-35.0-0.6","SS1613100650930","","","null","","","","","<p><img src= images/blank.png width =""200"" height = ""200"" style = ""float:right""></p><p><img src=images/blank.png width =""800"" height = ""200""></p>","","","","","","","","","","","",""
"","1011.4399999947636","sequential-stimulus-presentation","183","392865","0.0-35.0-1.6","SS1613100650930","trial","","40","800","1811.4399999947636","images/stimuli/spore_stims/simple_16_B_c.gif","images/stimuli/spore_stims/simple_16_A_c.gif","","","","","9","simple_similar","images/stimuli/spore_stims/simple_16_A_c.gif","middle","","","","",""
"","null","html-keyboard-response","184","393682","0.0-35.0-0.7","SS1613100650930","","","null","","","","","<p><img src= images/blank.png width =""200"" height = ""200"" style = ""float:right""></p><p><img src=images/blank.png width =""800"" height = ""200""></p>","","","","","","","","","","","",""
"","700.394999999844","sequential-stimulus-presentation","185","395200","0.0-35.0-1.7","SS1613100650930","trial","","40","800","1500.394999999844","images/stimuli/spore_stims/simple_16_B_c.gif","images/stimuli/spore_stims/simple_16_A_c.gif","","","","","9","simple_similar","images/stimuli/spore_stims/simple_16_A_c.gif","middle","","","","",""
"","1602.9950000011013","html-keyboard-response","186","396810","0.0-36.0","SS1613100650930","pref_question","","97","","","","","<video width ='960' height = '540' style='padding-top:8%' autoplay muted><source src='images/stimuli/wall_pref.mp4' type='video/mp4'></video>","1","left","25%","9","","","","","","","",""
"","77.46999999653781","sequential-stimulus-presentation","187","397705","0.0-37.0","SS1613100650930","pref_reveal","","40","800","877.4699999965378","null","null","","","","","9","","","","novel","","","",""
"","null","html-keyboard-response","188","398792","0.0-38.0-0.0","SS1613100650930","","","null","","","","","<p><img src= images/blank.png width =""200"" height = ""200"" style = ""float:right""></p><p><img src=images/blank.png width =""800"" height = ""200""></p>","","","","","","","","","","","",""
"","966.9250000006286","sequential-stimulus-presentation","189","400570","0.0-38.0-1.0","SS1613100650930","trial","","40","800","1766.9250000006286","images/stimuli/spore_stims/simple_19_B_b.gif","images/stimuli/spore_stims/simple_19_A_b.gif","","","","","10","simple_similar","images/stimuli/spore_stims/simple_19_A_b.gif","right","","","","",""
"","null","html-keyboard-response","190","401434","0.0-38.0-0.1","SS1613100650930","","","null","","","","","<p><img src= images/blank.png width =""200"" height = ""200"" style = ""float:right""></p><p><img src=images/blank.png width =""800"" height = ""200""></p>","","","","","","","","","","","",""
"","402.67499999754364","sequential-stimulus-presentation","191","402651","0.0-38.0-1.1","SS1613100650930","trial","","40","800","1202.6749999975436","images/stimuli/spore_stims/simple_19_B_b.gif","images/stimuli/spore_stims/simple_19_A_b.gif","","","","","10","simple_similar","images/stimuli/spore_stims/simple_19_A_b.gif","right","","","","",""
"","null","html-keyboard-response","192","403573","0.0-38.0-0.2","SS1613100650930","","","null","","","","","<p><img src= images/blank.png width =""200"" height = ""200"" style = ""float:right""></p><p><img src=images/blank.png width =""800"" height = ""200""></p>","","","","","","","","","","","",""
"","754.8850000021048","sequential-stimulus-presentation","193","405139","0.0-38.0-1.2","SS1613100650930","trial","","40","800","1554.8850000021048","images/stimuli/spore_stims/simple_19_B_b.gif","images/stimuli/spore_stims/simple_19_A_b.gif","","","","","10","simple_similar","images/stimuli/spore_stims/simple_19_A_b.gif","right","","","","",""
"","null","html-keyboard-response","194","406394","0.0-38.0-0.3","SS1613100650930","","","null","","","","","<p><img src= images/blank.png width =""200"" height = ""200"" style = ""float:right""></p><p><img src=images/blank.png width =""800"" height = ""200""></p>","","","","","","","","","","","",""
"","1111.9850000031875","sequential-stimulus-presentation","195","408323","0.0-38.0-1.3","SS1613100650930","trial","","40","800","1911.9850000031875","images/stimuli/spore_stims/simple_19_B_b.gif","images/stimuli/spore_stims/simple_19_A_b.gif","","","","","10","simple_similar","images/stimuli/spore_stims/simple_19_B_b.gif","left","","","","",""
"","null","html-keyboard-response","196","409219","0.0-38.0-0.4","SS1613100650930","","","null","","","","","<p><img src= images/blank.png width =""200"" height = ""200"" style = ""float:right""></p><p><img src=images/blank.png width =""800"" height = ""200""></p>","","","","","","","","","","","",""
"","694.389999996929","sequential-stimulus-presentation","197","410731","0.0-38.0-1.4","SS1613100650930","trial","","40","800","1494.389999996929","images/stimuli/spore_stims/simple_19_B_b.gif","images/stimuli/spore_stims/simple_19_A_b.gif","","","","","10","simple_similar","images/stimuli/spore_stims/simple_19_A_b.gif","right","","","","",""
"","null","html-keyboard-response","198","411996","0.0-38.0-0.5","SS1613100650930","","","null","","","","","<p><img src= images/blank.png width =""200"" height = ""200"" style = ""float:right""></p><p><img src=images/blank.png width =""800"" height = ""200""></p>","","","","","","","","","","","",""
"","805.3399999989779","sequential-stimulus-presentation","199","413618","0.0-38.0-1.5","SS1613100650930","trial","","40","800","1605.3399999989779","images/stimuli/spore_stims/simple_19_B_b.gif","images/stimuli/spore_stims/simple_19_A_b.gif","","","","","10","simple_similar","images/stimuli/spore_stims/simple_19_A_b.gif","right","","","","",""
"","null","html-keyboard-response","200","414741","0.0-38.0-0.6","SS1613100650930","","","null","","","","","<p><img src= images/blank.png width =""200"" height = ""200"" style = ""float:right""></p><p><img src=images/blank.png width =""800"" height = ""200""></p>","","","","","","","","","","","",""
"","555.2499999976135","sequential-stimulus-presentation","201","416115","0.0-38.0-1.6","SS1613100650930","trial","","40","800","1355.2499999976135","images/stimuli/spore_stims/simple_19_B_b.gif","images/stimuli/spore_stims/simple_19_A_b.gif","","","","","10","simple_similar","images/stimuli/spore_stims/simple_19_A_b.gif","right","","","","",""
"","null","html-keyboard-response","202","417159","0.0-38.0-0.7","SS1613100650930","","","null","","","","","<p><img src= images/blank.png width =""200"" height = ""200"" style = ""float:right""></p><p><img src=images/blank.png width =""800"" height = ""200""></p>","","","","","","","","","","","",""
"","498.0799999975716","sequential-stimulus-presentation","203","418474","0.0-38.0-1.7","SS1613100650930","trial","","40","800","1298.0799999975716","images/stimuli/spore_stims/simple_19_B_b.gif","images/stimuli/spore_stims/simple_19_A_b.gif","","","","","10","simple_similar","images/stimuli/spore_stims/simple_19_A_b.gif","right","","","","",""
"","1143.2500000009895","html-keyboard-response","204","419635","0.0-39.0","SS1613100650930","pref_question","","99","","","","","<video width ='960' height = '540' style='padding-top:8%' autoplay muted><source src='images/stimuli/wall_pref.mp4' type='video/mp4'></video>","3","right","66%","10","","","","","","","",""
"","654.8750000001746","sequential-stimulus-presentation","205","421107","0.0-40.0","SS1613100650930","pref_reveal","","40","800","1454.8750000001746","null","null","","","","","10","","","","background","","","",""
"","null","html-keyboard-response","206","422152","0.0-41.0-0.0","SS1613100650930","","","null","","","","","<p><img src= images/blank.png width =""200"" height = ""200"" style = ""float:right""></p><p><img src=images/blank.png width =""800"" height = ""200""></p>","","","","","","","","","","","",""
"","416.4549999986775","sequential-stimulus-presentation","207","423394","0.0-41.0-1.0","SS1613100650930","trial","","40","800","1216.4549999986775","images/stimuli/spore_stims/simple_17_B_d.gif","images/stimuli/spore_stims/simple_17_A_d.gif","","","","","11","simple_similar","images/stimuli/spore_stims/simple_17_A_d.gif","middle","","","","",""
"","null","html-keyboard-response","208","424554","0.0-41.0-0.1","SS1613100650930","","","null","","","","","<p><img src= images/blank.png width =""200"" height = ""200"" style = ""float:right""></p><p><img src=images/blank.png width =""800"" height = ""200""></p>","","","","","","","","","","","",""
"","567.109999996319","sequential-stimulus-presentation","209","425938","0.0-41.0-1.1","SS1613100650930","trial","","40","800","1367.109999996319","images/stimuli/spore_stims/simple_17_B_d.gif","images/stimuli/spore_stims/simple_17_A_d.gif","","","","","11","simple_similar","images/stimuli/spore_stims/simple_17_A_d.gif","middle","","","","",""
"","null","html-keyboard-response","210","427234","0.0-41.0-0.2","SS1613100650930","","","null","","","","","<p><img src= images/blank.png width =""200"" height = ""200"" style = ""float:right""></p><p><img src=images/blank.png width =""800"" height = ""200""></p>","","","","","","","","","","","",""
"","569.8949999932665","sequential-stimulus-presentation","211","428649","0.0-41.0-1.2","SS1613100650930","trial","","40","800","1369.8949999932665","images/stimuli/spore_stims/simple_17_B_d.gif","images/stimuli/spore_stims/simple_17_A_d.gif","","","","","11","simple_similar","images/stimuli/spore_stims/simple_17_A_d.gif","middle","","","","",""
"","null","html-keyboard-response","212","429694","0.0-41.0-0.3","SS1613100650930","","","null","","","","","<p><img src= images/blank.png width =""200"" height = ""200"" style = ""float:right""></p><p><img src=images/blank.png width =""800"" height = ""200""></p>","","","","","","","","","","","",""
"","1417.8249999968102","sequential-stimulus-presentation","213","431931","0.0-41.0-1.3","SS1613100650930","trial","","40","800","2217.82499999681","images/stimuli/spore_stims/simple_17_B_d.gif","images/stimuli/spore_stims/simple_17_A_d.gif","","","","","11","simple_similar","images/stimuli/spore_stims/simple_17_A_d.gif","middle","","","","",""
"","null","html-keyboard-response","214","433015","0.0-41.0-0.4","SS1613100650930","","","null","","","","","<p><img src= images/blank.png width =""200"" height = ""200"" style = ""float:right""></p><p><img src=images/blank.png width =""800"" height = ""200""></p>","","","","","","","","","","","",""
"","416.3449999978184","sequential-stimulus-presentation","215","434249","0.0-41.0-1.4","SS1613100650930","trial","","40","800","1216.3449999978184","images/stimuli/spore_stims/simple_17_B_d.gif","images/stimuli/spore_stims/simple_17_A_d.gif","","","","","11","simple_similar","images/stimuli/spore_stims/simple_17_A_d.gif","middle","","","","",""
"","null","html-keyboard-response","216","435445","0.0-41.0-0.5","SS1613100650930","","","null","","","","","<p><img src= images/blank.png width =""200"" height = ""200"" style = ""float:right""></p><p><img src=images/blank.png width =""800"" height = ""200""></p>","","","","","","","","","","","",""
"","242.19499999890104","sequential-stimulus-presentation","217","436505","0.0-41.0-1.5","SS1613100650930","trial","","40","800","1042.194999998901","images/stimuli/spore_stims/simple_17_B_d.gif","images/stimuli/spore_stims/simple_17_A_d.gif","","","","","11","simple_similar","images/stimuli/spore_stims/simple_17_A_d.gif","middle","","","","",""
"","null","html-keyboard-response","218","437719","0.0-41.0-0.6","SS1613100650930","","","null","","","","","<p><img src= images/blank.png width =""200"" height = ""200"" style = ""float:right""></p><p><img src=images/blank.png width =""800"" height = ""200""></p>","","","","","","","","","","","",""
"","158.59000000637025","sequential-stimulus-presentation","219","438698","0.0-41.0-1.6","SS1613100650930","trial","","40","800","958.5900000063702","images/stimuli/spore_stims/simple_17_B_d.gif","images/stimuli/spore_stims/simple_17_A_d.gif","","","","","11","simple_similar","images/stimuli/spore_stims/simple_17_B_d.gif","right","","","","",""
"","null","html-keyboard-response","220","439715","0.0-41.0-0.7","SS1613100650930","","","null","","","","","<p><img src= images/blank.png width =""200"" height = ""200"" style = ""float:right""></p><p><img src=images/blank.png width =""800"" height = ""200""></p>","","","","","","","","","","","",""
"","959.8949999999604","sequential-stimulus-presentation","221","441497","0.0-41.0-1.7","SS1613100650930","trial","","40","800","1759.8949999999604","images/stimuli/spore_stims/simple_17_B_d.gif","images/stimuli/spore_stims/simple_17_A_d.gif","","","","","11","simple_similar","images/stimuli/spore_stims/simple_17_A_d.gif","middle","","","","",""
"","1171.584999996412","html-keyboard-response","222","442675","0.0-42.0","SS1613100650930","pref_question","","98","","","","","<video width ='960' height = '540' style='padding-top:8%' autoplay muted><source src='images/stimuli/wall_pref.mp4' type='video/mp4'></video>","2","middle","45%","11","","","","","","","",""
"","945.3150000044843","sequential-stimulus-presentation","223","444441","0.0-43.0","SS1613100650930","pref_reveal","","40","800","1745.3150000044843","null","null","","","","","11","","","","background","","","",""
"","null","html-keyboard-response","224","445663","0.0-44.0-0.0","SS1613100650930","","","null","","","","","<p><img src= images/blank.png width =""200"" height = ""200"" style = ""float:right""></p><p><img src=images/blank.png width =""800"" height = ""200""></p>","","","","","","","","","","","",""
"","191.9049999996787","sequential-stimulus-presentation","225","446674","0.0-44.0-1.0","SS1613100650930","trial","","40","800","991.9049999996787","images/stimuli/spore_stims/simple_07_B_c.gif","images/stimuli/spore_stims/simple_15_B_b.gif","","","","","12","simple_dissimilar","images/stimuli/spore_stims/simple_15_B_b.gif","middle","","","","",""
"","null","html-keyboard-response","226","447912","0.0-44.0-0.1","SS1613100650930","","","null","","","","","<p><img src= images/blank.png width =""200"" height = ""200"" style = ""float:right""></p><p><img src=images/blank.png width =""800"" height = ""200""></p>","","","","","","","","","","","",""
"","4861.6949999995995","sequential-stimulus-presentation","227","453593","0.0-44.0-1.1","SS1613100650930","trial","","40","800","5661.6949999995995","images/stimuli/spore_stims/simple_07_B_c.gif","images/stimuli/spore_stims/simple_15_B_b.gif","","","","","12","simple_dissimilar","images/stimuli/spore_stims/simple_15_B_b.gif","middle","","","","",""
"","null","html-keyboard-response","228","454531","0.0-44.0-0.2","SS1613100650930","","","null","","","","","<p><img src= images/blank.png width =""200"" height = ""200"" style = ""float:right""></p><p><img src=images/blank.png width =""800"" height = ""200""></p>","","","","","","","","","","","",""
"","93.8049999967916","sequential-stimulus-presentation","229","455432","0.0-44.0-1.2","SS1613100650930","trial","","40","800","893.8049999967916","images/stimuli/spore_stims/simple_07_B_c.gif","images/stimuli/spore_stims/simple_15_B_b.gif","","","","","12","simple_dissimilar","images/stimuli/spore_stims/simple_07_B_c.gif","right","","","","",""
"","null","html-keyboard-response","230","456581","0.0-44.0-0.3","SS1613100650930","","","null","","","","","<p><img src= images/blank.png width =""200"" height = ""200"" style = ""float:right""></p><p><img src=images/blank.png width =""800"" height = ""200""></p>","","","","","","","","","","","",""
"","448.275000002468","sequential-stimulus-presentation","231","457848","0.0-44.0-1.3","SS1613100650930","trial","","40","800","1248.275000002468","images/stimuli/spore_stims/simple_07_B_c.gif","images/stimuli/spore_stims/simple_15_B_b.gif","","","","","12","simple_dissimilar","images/stimuli/spore_stims/simple_15_B_b.gif","middle","","","","",""
"","null","html-keyboard-response","232","458670","0.0-44.0-0.4","SS1613100650930","","","null","","","","","<p><img src= images/blank.png width =""200"" height = ""200"" style = ""float:right""></p><p><img src=images/blank.png width =""800"" height = ""200""></p>","","","","","","","","","","","",""
"","569.0300000060233","sequential-stimulus-presentation","233","460081","0.0-44.0-1.4","SS1613100650930","trial","","40","800","1369.0300000060233","images/stimuli/spore_stims/simple_07_B_c.gif","images/stimuli/spore_stims/simple_15_B_b.gif","","","","","12","simple_dissimilar","images/stimuli/spore_stims/simple_15_B_b.gif","middle","","","","",""
"","null","html-keyboard-response","234","460983","0.0-44.0-0.5","SS1613100650930","","","null","","","","","<p><img src= images/blank.png width =""200"" height = ""200"" style = ""float:right""></p><p><img src=images/blank.png width =""800"" height = ""200""></p>","","","","","","","","","","","",""
"","750.4000000044471","sequential-stimulus-presentation","235","462554","0.0-44.0-1.5","SS1613100650930","trial","","40","800","1550.400000004447","images/stimuli/spore_stims/simple_07_B_c.gif","images/stimuli/spore_stims/simple_15_B_b.gif","","","","","12","simple_dissimilar","images/stimuli/spore_stims/simple_15_B_b.gif","middle","","","","",""
"","null","html-keyboard-response","236","463586","0.0-44.0-0.6","SS1613100650930","","","null","","","","","<p><img src= images/blank.png width =""200"" height = ""200"" style = ""float:right""></p><p><img src=images/blank.png width =""800"" height = ""200""></p>","","","","","","","","","","","",""
"","25.200000003678724","sequential-stimulus-presentation","237","464417","0.0-44.0-1.6","SS1613100650930","trial","","40","800","825.2000000036787","images/stimuli/spore_stims/simple_07_B_c.gif","images/stimuli/spore_stims/simple_15_B_b.gif","","","","","12","simple_dissimilar","images/stimuli/spore_stims/simple_15_B_b.gif","middle","","","","",""
"","null","html-keyboard-response","238","465287","0.0-44.0-0.7","SS1613100650930","","","null","","","","","<p><img src= images/blank.png width =""200"" height = ""200"" style = ""float:right""></p><p><img src=images/blank.png width =""800"" height = ""200""></p>","","","","","","","","","","","",""
"","641.1249999946449","sequential-stimulus-presentation","239","466754","0.0-44.0-1.7","SS1613100650930","trial","","40","800","1441.124999994645","images/stimuli/spore_stims/simple_07_B_c.gif","images/stimuli/spore_stims/simple_15_B_b.gif","","","","","12","simple_dissimilar","images/stimuli/spore_stims/simple_15_B_b.gif","middle","","","","",""
"","1981.5699999962817","html-keyboard-response","240","468763","0.0-45.0","SS1613100650930","pref_question","","99","","","","","<video width ='960' height = '540' style='padding-top:8%' autoplay muted><source src='images/stimuli/wall_pref.mp4' type='video/mp4'></video>","3","right","66%","12","","","","","","","",""
"","121.91999999777181","sequential-stimulus-presentation","241","469707","0.0-46.0","SS1613100650930","pref_reveal","","40","800","921.9199999977718","null","null","","","","","12","","","","deviant","","","",""
"","null","html-keyboard-response","242","470690","0.0-47.0-0.0","SS1613100650930","","","null","","","","","<p><img src= images/blank.png width =""200"" height = ""200"" style = ""float:right""></p><p><img src=images/blank.png width =""800"" height = ""200""></p>","","","","","","","","","","","",""
"","561.2499999988358","sequential-stimulus-presentation","243","472073","0.0-47.0-1.0","SS1613100650930","trial","","40","800","1361.2499999988358","images/stimuli/spore_stims/simple_11_A_c.gif","images/stimuli/spore_stims/simple_08_A_a.gif","","","","","13","simple_dissimilar","images/stimuli/spore_stims/simple_08_A_a.gif","left","","","","",""
"","null","html-keyboard-response","244","473237","0.0-47.0-0.1","SS1613100650930","","","null","","","","","<p><img src= images/blank.png width =""200"" height = ""200"" style = ""float:right""></p><p><img src=images/blank.png width =""800"" height = ""200""></p>","","","","","","","","","","","",""
"","961.1450000011246","sequential-stimulus-presentation","245","475018","0.0-47.0-1.1","SS1613100650930","trial","","40","800","1761.1450000011246","images/stimuli/spore_stims/simple_11_A_c.gif","images/stimuli/spore_stims/simple_08_A_a.gif","","","","","13","simple_dissimilar","images/stimuli/spore_stims/simple_08_A_a.gif","left","","","","",""
"","null","html-keyboard-response","246","476255","0.0-47.0-0.2","SS1613100650930","","","null","","","","","<p><img src= images/blank.png width =""200"" height = ""200"" style = ""float:right""></p><p><img src=images/blank.png width =""800"" height = ""200""></p>","","","","","","","","","","","",""
"","843.6799999981304","sequential-stimulus-presentation","247","477914","0.0-47.0-1.2","SS1613100650930","trial","","40","800","1643.6799999981304","images/stimuli/spore_stims/simple_11_A_c.gif","images/stimuli/spore_stims/simple_08_A_a.gif","","","","","13","simple_dissimilar","images/stimuli/spore_stims/simple_08_A_a.gif","left","","","","",""
"","null","html-keyboard-response","248","479090","0.0-47.0-0.3","SS1613100650930","","","null","","","","","<p><img src= images/blank.png width =""200"" height = ""200"" style = ""float:right""></p><p><img src=images/blank.png width =""800"" height = ""200""></p>","","","","","","","","","","","",""
"","496.98999999964144","sequential-stimulus-presentation","249","480412","0.0-47.0-1.3","SS1613100650930","trial","","40","800","1296.9899999996414","images/stimuli/spore_stims/simple_11_A_c.gif","images/stimuli/spore_stims/simple_08_A_a.gif","","","","","13","simple_dissimilar","images/stimuli/spore_stims/simple_08_A_a.gif","left","","","","",""
"","null","html-keyboard-response","250","481716","0.0-47.0-0.4","SS1613100650930","","","null","","","","","<p><img src= images/blank.png width =""200"" height = ""200"" style = ""float:right""></p><p><img src=images/blank.png width =""800"" height = ""200""></p>","","","","","","","","","","","",""
"","103.69500000524567","sequential-stimulus-presentation","251","482640","0.0-47.0-1.4","SS1613100650930","trial","","40","800","903.6950000052457","images/stimuli/spore_stims/simple_11_A_c.gif","images/stimuli/spore_stims/simple_08_A_a.gif","","","","","13","simple_dissimilar","images/stimuli/spore_stims/simple_08_A_a.gif","left","","","","",""
"","null","html-keyboard-response","252","483693","0.0-47.0-0.5","SS1613100650930","","","null","","","","","<p><img src= images/blank.png width =""200"" height = ""200"" style = ""float:right""></p><p><img src=images/blank.png width =""800"" height = ""200""></p>","","","","","","","","","","","",""
"","755.5700000011711","sequential-stimulus-presentation","253","485268","0.0-47.0-1.5","SS1613100650930","trial","","40","800","1555.5700000011711","images/stimuli/spore_stims/simple_11_A_c.gif","images/stimuli/spore_stims/simple_08_A_a.gif","","","","","13","simple_dissimilar","images/stimuli/spore_stims/simple_08_A_a.gif","left","","","","",""
"","null","html-keyboard-response","254","486256","0.0-47.0-0.6","SS1613100650930","","","null","","","","","<p><img src= images/blank.png width =""200"" height = ""200"" style = ""float:right""></p><p><img src=images/blank.png width =""800"" height = ""200""></p>","","","","","","","","","","","",""
"","634.8100000031991","sequential-stimulus-presentation","255","487714","0.0-47.0-1.6","SS1613100650930","trial","","40","800","1434.810000003199","images/stimuli/spore_stims/simple_11_A_c.gif","images/stimuli/spore_stims/simple_08_A_a.gif","","","","","13","simple_dissimilar","images/stimuli/spore_stims/simple_08_A_a.gif","left","","","","",""
"","null","html-keyboard-response","256","488527","0.0-47.0-0.7","SS1613100650930","","","null","","","","","<p><img src= images/blank.png width =""200"" height = ""200"" style = ""float:right""></p><p><img src=images/blank.png width =""800"" height = ""200""></p>","","","","","","","","","","","",""
"","668.7299999975949","sequential-stimulus-presentation","257","490017","0.0-47.0-1.7","SS1613100650930","trial","","40","800","1468.7299999975949","images/stimuli/spore_stims/simple_11_A_c.gif","images/stimuli/spore_stims/simple_08_A_a.gif","","","","","13","simple_dissimilar","images/stimuli/spore_stims/simple_11_A_c.gif","middle","","","","",""
"","1635.934999998426","html-keyboard-response","258","491674","0.0-48.0","SS1613100650930","pref_question","","97","","","","","<video width ='960' height = '540' style='padding-top:8%' autoplay muted><source src='images/stimuli/wall_pref.mp4' type='video/mp4'></video>","1","left","25%","13","","","","","","","",""
"","558.3199999964563","sequential-stimulus-presentation","259","493065","0.0-49.0","SS1613100650930","pref_reveal","","40","800","1358.3199999964563","null","null","","","","","13","","","","background","","","",""
"","null","html-keyboard-response","260","493996","0.0-50.0-0.0","SS1613100650930","","","null","","","","","<p><img src= images/blank.png width =""200"" height = ""200"" style = ""float:right""></p><p><img src=images/blank.png width =""800"" height = ""200""></p>","","","","","","","","","","","",""
"","733.4800000025425","sequential-stimulus-presentation","261","495553","0.0-50.0-1.0","SS1613100650930","trial","","40","800","1533.4800000025425","images/stimuli/spore_stims/complex_16_A_c.gif","images/stimuli/spore_stims/complex_16_B_c.gif","","","","","14","complex_similar","images/stimuli/spore_stims/complex_16_B_c.gif","left","","","","",""
"","null","html-keyboard-response","262","496623","0.0-50.0-0.1","SS1613100650930","","","null","","","","","<p><img src= images/blank.png width =""200"" height = ""200"" style = ""float:right""></p><p><img src=images/blank.png width =""800"" height = ""200""></p>","","","","","","","","","","","",""
"","1168.0399999967776","sequential-stimulus-presentation","263","498609","0.0-50.0-1.1","SS1613100650930","trial","","40","800","1968.0399999967776","images/stimuli/spore_stims/complex_16_A_c.gif","images/stimuli/spore_stims/complex_16_B_c.gif","","","","","14","complex_similar","images/stimuli/spore_stims/complex_16_B_c.gif","left","","","","",""
"","null","html-keyboard-response","264","499498","0.0-50.0-0.2","SS1613100650930","","","null","","","","","<p><img src= images/blank.png width =""200"" height = ""200"" style = ""float:right""></p><p><img src=images/blank.png width =""800"" height = ""200""></p>","","","","","","","","","","","",""
"","55.05500000435859","sequential-stimulus-presentation","265","500376","0.0-50.0-1.2","SS1613100650930","trial","","40","800","855.0550000043586","images/stimuli/spore_stims/complex_16_A_c.gif","images/stimuli/spore_stims/complex_16_B_c.gif","","","","","14","complex_similar","images/stimuli/spore_stims/complex_16_B_c.gif","left","","","","",""
"","null","html-keyboard-response","266","501382","0.0-50.0-0.3","SS1613100650930","","","null","","","","","<p><img src= images/blank.png width =""200"" height = ""200"" style = ""float:right""></p><p><img src=images/blank.png width =""800"" height = ""200""></p>","","","","","","","","","","","",""
"","1443.3599999975413","sequential-stimulus-presentation","267","503656","0.0-50.0-1.3","SS1613100650930","trial","","40","800","2243.3599999975413","images/stimuli/spore_stims/complex_16_A_c.gif","images/stimuli/spore_stims/complex_16_B_c.gif","","","","","14","complex_similar","images/stimuli/spore_stims/complex_16_B_c.gif","left","","","","",""
"","null","html-keyboard-response","268","504752","0.0-50.0-0.4","SS1613100650930","","","null","","","","","<p><img src= images/blank.png width =""200"" height = ""200"" style = ""float:right""></p><p><img src=images/blank.png width =""800"" height = ""200""></p>","","","","","","","","","","","",""
"","1407.1249999979045","sequential-stimulus-presentation","269","506984","0.0-50.0-1.4","SS1613100650930","trial","","40","800","2207.1249999979045","images/stimuli/spore_stims/complex_16_A_c.gif","images/stimuli/spore_stims/complex_16_B_c.gif","","","","","14","complex_similar","images/stimuli/spore_stims/complex_16_A_c.gif","middle","","","","",""
"","null","html-keyboard-response","270","507865","0.0-50.0-0.5","SS1613100650930","","","null","","","","","<p><img src= images/blank.png width =""200"" height = ""200"" style = ""float:right""></p><p><img src=images/blank.png width =""800"" height = ""200""></p>","","","","","","","","","","","",""
"","489.11499999673106","sequential-stimulus-presentation","271","509176","0.0-50.0-1.5","SS1613100650930","trial","","40","800","1289.114999996731","images/stimuli/spore_stims/complex_16_A_c.gif","images/stimuli/spore_stims/complex_16_B_c.gif","","","","","14","complex_similar","images/stimuli/spore_stims/complex_16_B_c.gif","left","","","","",""
"","null","html-keyboard-response","272","510114","0.0-50.0-0.6","SS1613100650930","","","null","","","","","<p><img src= images/blank.png width =""200"" height = ""200"" style = ""float:right""></p><p><img src=images/blank.png width =""800"" height = ""200""></p>","","","","","","","","","","","",""
"","378.2449999998789","sequential-stimulus-presentation","273","511312","0.0-50.0-1.6","SS1613100650930","trial","","40","800","1178.244999999879","images/stimuli/spore_stims/complex_16_A_c.gif","images/stimuli/spore_stims/complex_16_B_c.gif","","","","","14","complex_similar","images/stimuli/spore_stims/complex_16_B_c.gif","left","","","","",""
"","null","html-keyboard-response","274","512204","0.0-50.0-0.7","SS1613100650930","","","null","","","","","<p><img src= images/blank.png width =""200"" height = ""200"" style = ""float:right""></p><p><img src=images/blank.png width =""800"" height = ""200""></p>","","","","","","","","","","","",""
"","325.2199999988079","sequential-stimulus-presentation","275","513351","0.0-50.0-1.7","SS1613100650930","trial","","40","800","1125.219999998808","images/stimuli/spore_stims/complex_16_A_c.gif","images/stimuli/spore_stims/complex_16_B_c.gif","","","","","14","complex_similar","images/stimuli/spore_stims/complex_16_B_c.gif","left","","","","",""
"","1183.254999996163","html-keyboard-response","276","514543","0.0-51.0","SS1613100650930","pref_question","","99","","","","","<video width ='960' height = '540' style='padding-top:8%' autoplay muted><source src='images/stimuli/wall_pref.mp4' type='video/mp4'></video>","3","right","66%","14","","","","","","","",""
"","195.92999999434687","sequential-stimulus-presentation","277","515552","0.0-52.0","SS1613100650930","pref_reveal","","40","800","995.9299999943469","null","null","","","","","14","","","","novel","","","",""
"","null","html-keyboard-response","278","516822","0.0-53.0-0.0","SS1613100650930","","","null","","","","","<p><img src= images/blank.png width =""200"" height = ""200"" style = ""float:right""></p><p><img src=images/blank.png width =""800"" height = ""200""></p>","","","","","","","","","","","",""
"","587.6899999929592","sequential-stimulus-presentation","279","518232","0.0-53.0-1.0","SS1613100650930","trial","","40","800","1387.6899999929592","images/stimuli/spore_stims/complex_12_A_c.gif","images/stimuli/spore_stims/complex_12_B_c.gif","","","","","15","complex_similar","images/stimuli/spore_stims/complex_12_B_c.gif","left","","","","",""
"","null","html-keyboard-response","280","519368","0.0-53.0-0.1","SS1613100650930","","","null","","","","","<p><img src= images/blank.png width =""200"" height = ""200"" style = ""float:right""></p><p><img src=images/blank.png width =""800"" height = ""200""></p>","","","","","","","","","","","",""
"","466.9950000025565","sequential-stimulus-presentation","281","520655","0.0-53.0-1.1","SS1613100650930","trial","","40","800","1266.9950000025565","images/stimuli/spore_stims/complex_12_A_c.gif","images/stimuli/spore_stims/complex_12_B_c.gif","","","","","15","complex_similar","images/stimuli/spore_stims/complex_12_B_c.gif","left","","","","",""
"","null","html-keyboard-response","282","521526","0.0-53.0-0.2","SS1613100650930","","","null","","","","","<p><img src= images/blank.png width =""200"" height = ""200"" style = ""float:right""></p><p><img src=images/blank.png width =""800"" height = ""200""></p>","","","","","","","","","","","",""
"","75.83000000170432","sequential-stimulus-presentation","283","522425","0.0-53.0-1.2","SS1613100650930","trial","","40","800","875.8300000017043","images/stimuli/spore_stims/complex_12_A_c.gif","images/stimuli/spore_stims/complex_12_B_c.gif","","","","","15","complex_similar","images/stimuli/spore_stims/complex_12_B_c.gif","left","","","","",""
"","null","html-keyboard-response","284","523732","0.0-53.0-0.3","SS1613100650930","","","null","","","","","<p><img src= images/blank.png width =""200"" height = ""200"" style = ""float:right""></p><p><img src=images/blank.png width =""800"" height = ""200""></p>","","","","","","","","","","","",""
"","9.709999998565763","sequential-stimulus-presentation","285","524560","0.0-53.0-1.3","SS1613100650930","trial","","40","800","809.7099999985658","images/stimuli/spore_stims/complex_12_A_c.gif","images/stimuli/spore_stims/complex_12_B_c.gif","","","","","15","complex_similar","images/stimuli/spore_stims/complex_12_B_c.gif","left","","","","",""
"","null","html-keyboard-response","286","525709","0.0-53.0-0.4","SS1613100650930","","","null","","","","","<p><img src= images/blank.png width =""200"" height = ""200"" style = ""float:right""></p><p><img src=images/blank.png width =""800"" height = ""200""></p>","","","","","","","","","","","",""
"","712.0700000013458","sequential-stimulus-presentation","287","527273","0.0-53.0-1.4","SS1613100650930","trial","","40","800","1512.0700000013458","images/stimuli/spore_stims/complex_12_A_c.gif","images/stimuli/spore_stims/complex_12_B_c.gif","","","","","15","complex_similar","images/stimuli/spore_stims/complex_12_B_c.gif","left","","","","",""
"","null","html-keyboard-response","288","528411","0.0-53.0-0.5","SS1613100650930","","","null","","","","","<p><img src= images/blank.png width =""200"" height = ""200"" style = ""float:right""></p><p><img src=images/blank.png width =""800"" height = ""200""></p>","","","","","","","","","","","",""
"","585.9500000006519","sequential-stimulus-presentation","289","529817","0.0-53.0-1.5","SS1613100650930","trial","","40","800","1385.950000000652","images/stimuli/spore_stims/complex_12_A_c.gif","images/stimuli/spore_stims/complex_12_B_c.gif","","","","","15","complex_similar","images/stimuli/spore_stims/complex_12_A_c.gif","right","","","","",""
"","null","html-keyboard-response","290","531049","0.0-53.0-0.6","SS1613100650930","","","null","","","","","<p><img src= images/blank.png width =""200"" height = ""200"" style = ""float:right""></p><p><img src=images/blank.png width =""800"" height = ""200""></p>","","","","","","","","","","","",""
"","613.6100000003353","sequential-stimulus-presentation","291","532482","0.0-53.0-1.6","SS1613100650930","trial","","40","800","1413.6100000003353","images/stimuli/spore_stims/complex_12_A_c.gif","images/stimuli/spore_stims/complex_12_B_c.gif","","","","","15","complex_similar","images/stimuli/spore_stims/complex_12_B_c.gif","left","","","","",""
"","null","html-keyboard-response","292","533330","0.0-53.0-0.7","SS1613100650930","","","null","","","","","<p><img src= images/blank.png width =""200"" height = ""200"" style = ""float:right""></p><p><img src=images/blank.png width =""800"" height = ""200""></p>","","","","","","","","","","","",""
"","99.00500000372995","sequential-stimulus-presentation","293","534240","0.0-53.0-1.7","SS1613100650930","trial","","40","800","899.00500000373","images/stimuli/spore_stims/complex_12_A_c.gif","images/stimuli/spore_stims/complex_12_B_c.gif","","","","","15","complex_similar","images/stimuli/spore_stims/complex_12_B_c.gif","left","","","","",""
"","2309.9050000018906","html-keyboard-response","294","536561","0.0-54.0","SS1613100650930","pref_question","","98","","","","","<video width ='960' height = '540' style='padding-top:8%' autoplay muted><source src='images/stimuli/wall_pref.mp4' type='video/mp4'></video>","2","middle","45%","15","","","","","","","",""
"","871.8349999981001","sequential-stimulus-presentation","295","538264","0.0-55.0","SS1613100650930","pref_reveal","","40","800","1671.8349999981","null","null","","","","","15","","","","novel","","","",""
"","null","html-keyboard-response","296","539400","0.0-56.0-0.0","SS1613100650930","","","null","","","","","<p><img src= images/blank.png width =""200"" height = ""200"" style = ""float:right""></p><p><img src=images/blank.png width =""800"" height = ""200""></p>","","","","","","","","","","","",""
"","524.7649999946589","sequential-stimulus-presentation","297","540769","0.0-56.0-1.0","SS1613100650930","trial","","40","800","1324.7649999946589","images/stimuli/spore_stims/complex_05_B_a.gif","images/stimuli/spore_stims/complex_18_B_d.gif","","","","","16","complex_dissimilar","images/stimuli/spore_stims/complex_18_B_d.gif","right","","","","",""
"","null","html-keyboard-response","298","541844","0.0-56.0-0.1","SS1613100650930","","","null","","","","","<p><img src= images/blank.png width =""200"" height = ""200"" style = ""float:right""></p><p><img src=images/blank.png width =""800"" height = ""200""></p>","","","","","","","","","","","",""
"","789.4349999987753","sequential-stimulus-presentation","299","543457","0.0-56.0-1.1","SS1613100650930","trial","","40","800","1589.4349999987753","images/stimuli/spore_stims/complex_05_B_a.gif","images/stimuli/spore_stims/complex_18_B_d.gif","","","","","16","complex_dissimilar","images/stimuli/spore_stims/complex_18_B_d.gif","right","","","","",""
"","null","html-keyboard-response","300","544567","0.0-56.0-0.2","SS1613100650930","","","null","","","","","<p><img src= images/blank.png width =""200"" height = ""200"" style = ""float:right""></p><p><img src=images/blank.png width =""800"" height = ""200""></p>","","","","","","","","","","","",""
"","448.2849999985192","sequential-stimulus-presentation","301","545839","0.0-56.0-1.2","SS1613100650930","trial","","40","800","1248.2849999985192","images/stimuli/spore_stims/complex_05_B_a.gif","images/stimuli/spore_stims/complex_18_B_d.gif","","","","","16","complex_dissimilar","images/stimuli/spore_stims/complex_05_B_a.gif","middle","","","","",""
"","null","html-keyboard-response","302","546936","0.0-56.0-0.3","SS1613100650930","","","null","","","","","<p><img src= images/blank.png width =""200"" height = ""200"" style = ""float:right""></p><p><img src=images/blank.png width =""800"" height = ""200""></p>","","","","","","","","","","","",""
"","89.53499999921769","sequential-stimulus-presentation","303","547848","0.0-56.0-1.3","SS1613100650930","trial","","40","800","889.5349999992177","images/stimuli/spore_stims/complex_05_B_a.gif","images/stimuli/spore_stims/complex_18_B_d.gif","","","","","16","complex_dissimilar","images/stimuli/spore_stims/complex_18_B_d.gif","right","","","","",""
"","null","html-keyboard-response","304","548988","0.0-56.0-0.4","SS1613100650930","","","null","","","","","<p><img src= images/blank.png width =""200"" height = ""200"" style = ""float:right""></p><p><img src=images/blank.png width =""800"" height = ""200""></p>","","","","","","","","","","","",""
"","347.2299999993993","sequential-stimulus-presentation","305","550160","0.0-56.0-1.4","SS1613100650930","trial","","40","800","1147.2299999993993","images/stimuli/spore_stims/complex_05_B_a.gif","images/stimuli/spore_stims/complex_18_B_d.gif","","","","","16","complex_dissimilar","images/stimuli/spore_stims/complex_18_B_d.gif","right","","","","",""
"","null","html-keyboard-response","306","551028","0.0-56.0-0.5","SS1613100650930","","","null","","","","","<p><img src= images/blank.png width =""200"" height = ""200"" style = ""float:right""></p><p><img src=images/blank.png width =""800"" height = ""200""></p>","","","","","","","","","","","",""
"","742.1849999956321","sequential-stimulus-presentation","307","552592","0.0-56.0-1.5","SS1613100650930","trial","","40","800","1542.184999995632","images/stimuli/spore_stims/complex_05_B_a.gif","images/stimuli/spore_stims/complex_18_B_d.gif","","","","","16","complex_dissimilar","images/stimuli/spore_stims/complex_18_B_d.gif","right","","","","",""
"","null","html-keyboard-response","308","553730","0.0-56.0-0.6","SS1613100650930","","","null","","","","","<p><img src= images/blank.png width =""200"" height = ""200"" style = ""float:right""></p><p><img src=images/blank.png width =""800"" height = ""200""></p>","","","","","","","","","","","",""
"","687.7499999974389","sequential-stimulus-presentation","309","555240","0.0-56.0-1.6","SS1613100650930","trial","","40","800","1487.7499999974389","images/stimuli/spore_stims/complex_05_B_a.gif","images/stimuli/spore_stims/complex_18_B_d.gif","","","","","16","complex_dissimilar","images/stimuli/spore_stims/complex_18_B_d.gif","right","","","","",""
"","null","html-keyboard-response","310","556101","0.0-56.0-0.7","SS1613100650930","","","null","","","","","<p><img src= images/blank.png width =""200"" height = ""200"" style = ""float:right""></p><p><img src=images/blank.png width =""800"" height = ""200""></p>","","","","","","","","","","","",""
"","747.6250000036089","sequential-stimulus-presentation","311","557672","0.0-56.0-1.7","SS1613100650930","trial","","40","800","1547.6250000036089","images/stimuli/spore_stims/complex_05_B_a.gif","images/stimuli/spore_stims/complex_18_B_d.gif","","","","","16","complex_dissimilar","images/stimuli/spore_stims/complex_18_B_d.gif","right","","","","",""
"","3902.6249999951106","html-keyboard-response","312","561616","0.0-57.0","SS1613100650930","pref_question","","99","","","","","<video width ='960' height = '540' style='padding-top:8%' autoplay muted><source src='images/stimuli/wall_pref.mp4' type='video/mp4'></video>","3","right","66%","16","","","","","","","",""
