"view_history","rt","trial_type","trial_index","time_elapsed","internal_node_id","subject","stimulus_type","trial_stimulus","key_press","minimum_viewing_duration","trial_looking_time","block_deviant","block_background","stimulus","wall_pref","location","location_percent","block_number","block_type","stimulus_displayed","position_displayed","stim_type_selected","responses","question_order","stimulus_left","stimulus_right"
"[{""page_index"":0,""viewing_time"":18388.00000026822}]","18390.000000130385","instructions","0","18392","0.0-0.0","SS1613142741605","","","","","","","","","","","","","","","","","","","",""
"[{""page_index"":0,""viewing_time"":1331.99999993667},{""page_index"":1,""viewing_time"":3864.0000000596046}]","5195.999999996275","instructions","1","25590","0.0-1.0","SS1613142741605","instructions","","","","","","","","","","","","","","","","","","",""
"","3350.0000000931323","sequential-stimulus-presentation","2","29748","0.0-2.0","SS1613142741605","","","40","800","4150.000000093132","null","null","","","","","","","","","","","","",""
"","629.9999998882413","sequential-stimulus-presentation","3","31184","0.0-3.0","SS1613142741605","","","40","800","1429.9999998882413","null","null","","","","","","","","","","","","",""
"[{""page_index"":0,""viewing_time"":1266.9999999925494}]","1266.9999999925494","instructions","4","32454","0.0-4.0","SS1613142741605","instructions","","","","","","","","","","","","","","","","","","",""
"","2370.0000001117587","html-keyboard-response","5","34829","0.0-5.0","SS1613142741605","instructions","","49","","","","","<video width ='960' height = '540' autoplay muted><source src='images/stimuli/wall_pref.mp4' type='video/mp4'></video>","1","left","25%","","","","","","","","",""
"","1944.999999832362","sequential-stimulus-presentation","6","37582","0.0-6.0","SS1613142741605","pref_reveal","","40","800","2744.999999832362","null","null","","","","","","","","","","","","",""
"[{""page_index"":0,""viewing_time"":2196.999999694526},{""page_index"":1,""viewing_time"":1033.9999999850988},{""page_index"":2,""viewing_time"":2589.000000152737},{""page_index"":3,""viewing_time"":959.0000002644956}]","6779.000000096858","instructions","7","44364","0.0-7.0","SS1613142741605","instructions","","","","","","","","","","","","","","","","","","",""
"","null","html-keyboard-response","8","45357","0.0-8.0-0.0","SS1613142741605","","","null","","","","","<p><img src= images/blank.png width =""200"" height = ""200"" style = ""float:right""></p><p><img src=images/blank.png width =""800"" height = ""200""></p>","","","","","","","","","","","",""
"","109.99999986961484","sequential-stimulus-presentation","9","46278","0.0-8.0-1.0","SS1613142741605","trial","","40","800","909.9999998696148","images/stimuli/spore_stims/simple_20_A_d.gif","images/stimuli/spore_stims/simple_20_B_d.gif","","","","","0","simple_similar","images/stimuli/spore_stims/simple_20_B_d.gif","right","","","","",""
"","null","html-keyboard-response","10","47114","0.0-8.0-0.1","SS1613142741605","","","null","","","","","<p><img src= images/blank.png width =""200"" height = ""200"" style = ""float:right""></p><p><img src=images/blank.png width =""800"" height = ""200""></p>","","","","","","","","","","","",""
"","179.0000000037253","sequential-stimulus-presentation","11","48104","0.0-8.0-1.1","SS1613142741605","trial","","40","800","979.0000000037253","images/stimuli/spore_stims/simple_20_A_d.gif","images/stimuli/spore_stims/simple_20_B_d.gif","","","","","0","simple_similar","images/stimuli/spore_stims/simple_20_B_d.gif","right","","","","",""
"","null","html-keyboard-response","12","49321","0.0-8.0-0.2","SS1613142741605","","","null","","","","","<p><img src= images/blank.png width =""200"" height = ""200"" style = ""float:right""></p><p><img src=images/blank.png width =""800"" height = ""200""></p>","","","","","","","","","","","",""
"","43.99999976158142","sequential-stimulus-presentation","13","50173","0.0-8.0-1.2","SS1613142741605","trial","","40","800","843.9999997615814","images/stimuli/spore_stims/simple_20_A_d.gif","images/stimuli/spore_stims/simple_20_B_d.gif","","","","","0","simple_similar","images/stimuli/spore_stims/simple_20_B_d.gif","right","","","","",""
"","null","html-keyboard-response","14","51056","0.0-8.0-0.3","SS1613142741605","","","null","","","","","<p><img src= images/blank.png width =""200"" height = ""200"" style = ""float:right""></p><p><img src=images/blank.png width =""800"" height = ""200""></p>","","","","","","","","","","","",""
"","385.99999994039536","sequential-stimulus-presentation","15","52281","0.0-8.0-1.3","SS1613142741605","trial","","40","800","1185.9999999403954","images/stimuli/spore_stims/simple_20_A_d.gif","images/stimuli/spore_stims/simple_20_B_d.gif","","","","","0","simple_similar","images/stimuli/spore_stims/simple_20_B_d.gif","right","","","","",""
"","null","html-keyboard-response","16","53370","0.0-8.0-0.4","SS1613142741605","","","null","","","","","<p><img src= images/blank.png width =""200"" height = ""200"" style = ""float:right""></p><p><img src=images/blank.png width =""800"" height = ""200""></p>","","","","","","","","","","","",""
"","29.000000096857548","sequential-stimulus-presentation","17","54208","0.0-8.0-1.4","SS1613142741605","trial","","40","800","829.0000000968575","images/stimuli/spore_stims/simple_20_A_d.gif","images/stimuli/spore_stims/simple_20_B_d.gif","","","","","0","simple_similar","images/stimuli/spore_stims/simple_20_B_d.gif","right","","","","",""
"","null","html-keyboard-response","18","55464","0.0-8.0-0.5","SS1613142741605","","","null","","","","","<p><img src= images/blank.png width =""200"" height = ""200"" style = ""float:right""></p><p><img src=images/blank.png width =""800"" height = ""200""></p>","","","","","","","","","","","",""
"","582.9999996349216","sequential-stimulus-presentation","19","56860","0.0-8.0-1.5","SS1613142741605","trial","","40","800","1382.9999996349216","images/stimuli/spore_stims/simple_20_A_d.gif","images/stimuli/spore_stims/simple_20_B_d.gif","","","","","0","simple_similar","images/stimuli/spore_stims/simple_20_B_d.gif","right","","","","",""
"","null","html-keyboard-response","20","58050","0.0-8.0-0.6","SS1613142741605","","","null","","","","","<p><img src= images/blank.png width =""200"" height = ""200"" style = ""float:right""></p><p><img src=images/blank.png width =""800"" height = ""200""></p>","","","","","","","","","","","",""
"","55.99999986588955","sequential-stimulus-presentation","21","58951","0.0-8.0-1.6","SS1613142741605","trial","","40","800","855.9999998658895","images/stimuli/spore_stims/simple_20_A_d.gif","images/stimuli/spore_stims/simple_20_B_d.gif","","","","","0","simple_similar","images/stimuli/spore_stims/simple_20_A_d.gif","left","","","","",""
"","null","html-keyboard-response","22","60214","0.0-8.0-0.7","SS1613142741605","","","null","","","","","<p><img src= images/blank.png width =""200"" height = ""200"" style = ""float:right""></p><p><img src=images/blank.png width =""800"" height = ""200""></p>","","","","","","","","","","","",""
"","62.9999996162951","sequential-stimulus-presentation","23","61104","0.0-8.0-1.7","SS1613142741605","trial","","40","800","862.9999996162951","images/stimuli/spore_stims/simple_20_A_d.gif","images/stimuli/spore_stims/simple_20_B_d.gif","","","","","0","simple_similar","images/stimuli/spore_stims/simple_20_B_d.gif","right","","","","",""
"","280.0000002607703","html-keyboard-response","24","61390","0.0-9.0","SS1613142741605","pref_question","","49","","","","","<video width ='960' height = '540' style='padding-top:8%' autoplay muted><source src='images/stimuli/wall_pref.mp4' type='video/mp4'></video>","1","left","25%","0","","","","","","","",""
"","351.00000025704503","sequential-stimulus-presentation","25","62548","0.0-10.0","SS1613142741605","pref_reveal","","40","800","1151.000000257045","null","null","","","","","0","","","","deviant","","","",""
"","null","html-keyboard-response","26","63860","0.0-11.0-0.0","SS1613142741605","","","null","","","","","<p><img src= images/blank.png width =""200"" height = ""200"" style = ""float:right""></p><p><img src=images/blank.png width =""800"" height = ""200""></p>","","","","","","","","","","","",""
"","216.00000001490116","sequential-stimulus-presentation","27","64886","0.0-11.0-1.0","SS1613142741605","trial","","40","800","1016.0000000149012","images/stimuli/spore_stims/complex_20_B_b.gif","images/stimuli/spore_stims/complex_09_B_d.gif","","","","","1","complex_dissimilar","images/stimuli/spore_stims/complex_09_B_d.gif","middle","","","","",""
"","null","html-keyboard-response","28","65821","0.0-11.0-0.1","SS1613142741605","","","null","","","","","<p><img src= images/blank.png width =""200"" height = ""200"" style = ""float:right""></p><p><img src=images/blank.png width =""800"" height = ""200""></p>","","","","","","","","","","","",""
"","197.00000016018748","sequential-stimulus-presentation","29","66831","0.0-11.0-1.1","SS1613142741605","trial","","40","800","997.0000001601875","images/stimuli/spore_stims/complex_20_B_b.gif","images/stimuli/spore_stims/complex_09_B_d.gif","","","","","1","complex_dissimilar","images/stimuli/spore_stims/complex_09_B_d.gif","middle","","","","",""
"","null","html-keyboard-response","30","67790","0.0-11.0-0.2","SS1613142741605","","","null","","","","","<p><img src= images/blank.png width =""200"" height = ""200"" style = ""float:right""></p><p><img src=images/blank.png width =""800"" height = ""200""></p>","","","","","","","","","","","",""
"","228.99999981746078","sequential-stimulus-presentation","31","68832","0.0-11.0-1.2","SS1613142741605","trial","","40","800","1028.9999998174608","images/stimuli/spore_stims/complex_20_B_b.gif","images/stimuli/spore_stims/complex_09_B_d.gif","","","","","1","complex_dissimilar","images/stimuli/spore_stims/complex_09_B_d.gif","middle","","","","",""
"","null","html-keyboard-response","32","69730","0.0-11.0-0.3","SS1613142741605","","","null","","","","","<p><img src= images/blank.png width =""200"" height = ""200"" style = ""float:right""></p><p><img src=images/blank.png width =""800"" height = ""200""></p>","","","","","","","","","","","",""
"","283.00000028684735","sequential-stimulus-presentation","33","70852","0.0-11.0-1.3","SS1613142741605","trial","","40","800","1083.0000002868474","images/stimuli/spore_stims/complex_20_B_b.gif","images/stimuli/spore_stims/complex_09_B_d.gif","","","","","1","complex_dissimilar","images/stimuli/spore_stims/complex_09_B_d.gif","middle","","","","",""
"","null","html-keyboard-response","34","71812","0.0-11.0-0.4","SS1613142741605","","","null","","","","","<p><img src= images/blank.png width =""200"" height = ""200"" style = ""float:right""></p><p><img src=images/blank.png width =""800"" height = ""200""></p>","","","","","","","","","","","",""
"","24.999999906867743","sequential-stimulus-presentation","35","72643","0.0-11.0-1.4","SS1613142741605","trial","","40","800","824.9999999068677","images/stimuli/spore_stims/complex_20_B_b.gif","images/stimuli/spore_stims/complex_09_B_d.gif","","","","","1","complex_dissimilar","images/stimuli/spore_stims/complex_20_B_b.gif","left","","","","",""
"","null","html-keyboard-response","36","73731","0.0-11.0-0.5","SS1613142741605","","","null","","","","","<p><img src= images/blank.png width =""200"" height = ""200"" style = ""float:right""></p><p><img src=images/blank.png width =""800"" height = ""200""></p>","","","","","","","","","","","",""
"","456.0000002384186","sequential-stimulus-presentation","37","74995","0.0-11.0-1.5","SS1613142741605","trial","","40","800","1256.0000002384186","images/stimuli/spore_stims/complex_20_B_b.gif","images/stimuli/spore_stims/complex_09_B_d.gif","","","","","1","complex_dissimilar","images/stimuli/spore_stims/complex_09_B_d.gif","middle","","","","",""
"","null","html-keyboard-response","38","76286","0.0-11.0-0.6","SS1613142741605","","","null","","","","","<p><img src= images/blank.png width =""200"" height = ""200"" style = ""float:right""></p><p><img src=images/blank.png width =""800"" height = ""200""></p>","","","","","","","","","","","",""
"","615.9999999217689","sequential-stimulus-presentation","39","77723","0.0-11.0-1.6","SS1613142741605","trial","","40","800","1415.999999921769","images/stimuli/spore_stims/complex_20_B_b.gif","images/stimuli/spore_stims/complex_09_B_d.gif","","","","","1","complex_dissimilar","images/stimuli/spore_stims/complex_09_B_d.gif","middle","","","","",""
"","null","html-keyboard-response","40","78698","0.0-11.0-0.7","SS1613142741605","","","null","","","","","<p><img src= images/blank.png width =""200"" height = ""200"" style = ""float:right""></p><p><img src=images/blank.png width =""800"" height = ""200""></p>","","","","","","","","","","","",""
"","415.0000000372529","sequential-stimulus-presentation","41","79932","0.0-11.0-1.7","SS1613142741605","trial","","40","800","1215.000000037253","images/stimuli/spore_stims/complex_20_B_b.gif","images/stimuli/spore_stims/complex_09_B_d.gif","","","","","1","complex_dissimilar","images/stimuli/spore_stims/complex_09_B_d.gif","middle","","","","",""
"","141.99999999254942","html-keyboard-response","42","80077","0.0-12.0","SS1613142741605","pref_question","","50","","","","","<video width ='960' height = '540' style='padding-top:8%' autoplay muted><source src='images/stimuli/wall_pref.mp4' type='video/mp4'></video>","2","middle","45%","1","","","","","","","",""
"","348.9999999292195","sequential-stimulus-presentation","43","81239","0.0-13.0","SS1613142741605","pref_reveal","","40","800","1148.9999999292195","null","null","","","","","1","","","","background","","","",""
"","null","html-keyboard-response","44","82086","0.0-14.0-0.0","SS1613142741605","","","null","","","","","<p><img src= images/blank.png width =""200"" height = ""200"" style = ""float:right""></p><p><img src=images/blank.png width =""800"" height = ""200""></p>","","","","","","","","","","","",""
"","467.00000017881393","sequential-stimulus-presentation","45","83358","0.0-14.0-1.0","SS1613142741605","trial","","40","800","1267.000000178814","images/stimuli/spore_stims/complex_14_A_a.gif","images/stimuli/spore_stims/complex_16_B_b.gif","","","","","2","complex_dissimilar","images/stimuli/spore_stims/complex_16_B_b.gif","left","","","","",""
"","null","html-keyboard-response","46","84455","0.0-14.0-0.1","SS1613142741605","","","null","","","","","<p><img src= images/blank.png width =""200"" height = ""200"" style = ""float:right""></p><p><img src=images/blank.png width =""800"" height = ""200""></p>","","","","","","","","","","","",""
"","229.99999998137355","sequential-stimulus-presentation","47","85503","0.0-14.0-1.1","SS1613142741605","trial","","40","800","1029.9999999813735","images/stimuli/spore_stims/complex_14_A_a.gif","images/stimuli/spore_stims/complex_16_B_b.gif","","","","","2","complex_dissimilar","images/stimuli/spore_stims/complex_16_B_b.gif","left","","","","",""
"","null","html-keyboard-response","48","86686","0.0-14.0-0.2","SS1613142741605","","","null","","","","","<p><img src= images/blank.png width =""200"" height = ""200"" style = ""float:right""></p><p><img src=images/blank.png width =""800"" height = ""200""></p>","","","","","","","","","","","",""
"","637.9999998025596","sequential-stimulus-presentation","49","88134","0.0-14.0-1.2","SS1613142741605","trial","","40","800","1437.9999998025596","images/stimuli/spore_stims/complex_14_A_a.gif","images/stimuli/spore_stims/complex_16_B_b.gif","","","","","2","complex_dissimilar","images/stimuli/spore_stims/complex_16_B_b.gif","left","","","","",""
"","null","html-keyboard-response","50","89384","0.0-14.0-0.3","SS1613142741605","","","null","","","","","<p><img src= images/blank.png width =""200"" height = ""200"" style = ""float:right""></p><p><img src=images/blank.png width =""800"" height = ""200""></p>","","","","","","","","","","","",""
"","41.000000201165676","sequential-stimulus-presentation","51","90233","0.0-14.0-1.3","SS1613142741605","trial","","40","800","841.0000002011657","images/stimuli/spore_stims/complex_14_A_a.gif","images/stimuli/spore_stims/complex_16_B_b.gif","","","","","2","complex_dissimilar","images/stimuli/spore_stims/complex_16_B_b.gif","left","","","","",""
"","null","html-keyboard-response","52","91503","0.0-14.0-0.4","SS1613142741605","","","null","","","","","<p><img src= images/blank.png width =""200"" height = ""200"" style = ""float:right""></p><p><img src=images/blank.png width =""800"" height = ""200""></p>","","","","","","","","","","","",""
"","269.00000032037497","sequential-stimulus-presentation","53","92587","0.0-14.0-1.4","SS1613142741605","trial","","40","800","1069.000000320375","images/stimuli/spore_stims/complex_14_A_a.gif","images/stimuli/spore_stims/complex_16_B_b.gif","","","","","2","complex_dissimilar","images/stimuli/spore_stims/complex_16_B_b.gif","left","","","","",""
"","null","html-keyboard-response","54","93498","0.0-14.0-0.5","SS1613142741605","","","null","","","","","<p><img src= images/blank.png width =""200"" height = ""200"" style = ""float:right""></p><p><img src=images/blank.png width =""800"" height = ""200""></p>","","","","","","","","","","","",""
"","118.99999994784594","sequential-stimulus-presentation","55","94443","0.0-14.0-1.5","SS1613142741605","trial","","40","800","918.9999999478459","images/stimuli/spore_stims/complex_14_A_a.gif","images/stimuli/spore_stims/complex_16_B_b.gif","","","","","2","complex_dissimilar","images/stimuli/spore_stims/complex_16_B_b.gif","left","","","","",""
"","null","html-keyboard-response","56","95425","0.0-14.0-0.6","SS1613142741605","","","null","","","","","<p><img src= images/blank.png width =""200"" height = ""200"" style = ""float:right""></p><p><img src=images/blank.png width =""800"" height = ""200""></p>","","","","","","","","","","","",""
"","297.9999999515712","sequential-stimulus-presentation","57","96530","0.0-14.0-1.6","SS1613142741605","trial","","40","800","1097.9999999515712","images/stimuli/spore_stims/complex_14_A_a.gif","images/stimuli/spore_stims/complex_16_B_b.gif","","","","","2","complex_dissimilar","images/stimuli/spore_stims/complex_14_A_a.gif","right","","","","",""
"","null","html-keyboard-response","58","97661","0.0-14.0-0.7","SS1613142741605","","","null","","","","","<p><img src= images/blank.png width =""200"" height = ""200"" style = ""float:right""></p><p><img src=images/blank.png width =""800"" height = ""200""></p>","","","","","","","","","","","",""
"","367.0000000856817","sequential-stimulus-presentation","59","98843","0.0-14.0-1.7","SS1613142741605","trial","","40","800","1167.0000000856817","images/stimuli/spore_stims/complex_14_A_a.gif","images/stimuli/spore_stims/complex_16_B_b.gif","","","","","2","complex_dissimilar","images/stimuli/spore_stims/complex_16_B_b.gif","left","","","","",""
"","49.999999813735485","html-keyboard-response","60","98899","0.0-15.0","SS1613142741605","pref_question","","50","","","","","<video width ='960' height = '540' style='padding-top:8%' autoplay muted><source src='images/stimuli/wall_pref.mp4' type='video/mp4'></video>","2","middle","45%","2","","","","","","","",""
"","274.99999990686774","sequential-stimulus-presentation","61","99980","0.0-16.0","SS1613142741605","pref_reveal","","40","800","1074.9999999068677","null","null","","","","","2","","","","novel","","","",""
"","null","html-keyboard-response","62","100998","0.0-17.0-0.0","SS1613142741605","","","null","","","","","<p><img src= images/blank.png width =""200"" height = ""200"" style = ""float:right""></p><p><img src=images/blank.png width =""800"" height = ""200""></p>","","","","","","","","","","","",""
"","21.99999988079071","sequential-stimulus-presentation","63","101832","0.0-17.0-1.0","SS1613142741605","trial","","40","800","821.9999998807907","images/stimuli/spore_stims/complex_15_A_d.gif","images/stimuli/spore_stims/complex_15_B_d.gif","","","","","3","complex_similar","images/stimuli/spore_stims/complex_15_B_d.gif","right","","","","",""
"","null","html-keyboard-response","64","102958","0.0-17.0-0.1","SS1613142741605","","","null","","","","","<p><img src= images/blank.png width =""200"" height = ""200"" style = ""float:right""></p><p><img src=images/blank.png width =""800"" height = ""200""></p>","","","","","","","","","","","",""
"","95.00000020489097","sequential-stimulus-presentation","65","103860","0.0-17.0-1.1","SS1613142741605","trial","","40","800","895.000000204891","images/stimuli/spore_stims/complex_15_A_d.gif","images/stimuli/spore_stims/complex_15_B_d.gif","","","","","3","complex_similar","images/stimuli/spore_stims/complex_15_B_d.gif","right","","","","",""
"","null","html-keyboard-response","66","104936","0.0-17.0-0.2","SS1613142741605","","","null","","","","","<p><img src= images/blank.png width =""200"" height = ""200"" style = ""float:right""></p><p><img src=images/blank.png width =""800"" height = ""200""></p>","","","","","","","","","","","",""
"","92.99999987706542","sequential-stimulus-presentation","67","105838","0.0-17.0-1.2","SS1613142741605","trial","","40","800","892.9999998770654","images/stimuli/spore_stims/complex_15_A_d.gif","images/stimuli/spore_stims/complex_15_B_d.gif","","","","","3","complex_similar","images/stimuli/spore_stims/complex_15_B_d.gif","right","","","","",""
"","null","html-keyboard-response","68","106658","0.0-17.0-0.3","SS1613142741605","","","null","","","","","<p><img src= images/blank.png width =""200"" height = ""200"" style = ""float:right""></p><p><img src=images/blank.png width =""800"" height = ""200""></p>","","","","","","","","","","","",""
"","373.9999998360872","sequential-stimulus-presentation","69","107852","0.0-17.0-1.3","SS1613142741605","trial","","40","800","1173.9999998360872","images/stimuli/spore_stims/complex_15_A_d.gif","images/stimuli/spore_stims/complex_15_B_d.gif","","","","","3","complex_similar","images/stimuli/spore_stims/complex_15_B_d.gif","right","","","","",""
"","null","html-keyboard-response","70","108685","0.0-17.0-0.4","SS1613142741605","","","null","","","","","<p><img src= images/blank.png width =""200"" height = ""200"" style = ""float:right""></p><p><img src=images/blank.png width =""800"" height = ""200""></p>","","","","","","","","","","","",""
"","46.00000008940697","sequential-stimulus-presentation","71","109541","0.0-17.0-1.4","SS1613142741605","trial","","40","800","846.000000089407","images/stimuli/spore_stims/complex_15_A_d.gif","images/stimuli/spore_stims/complex_15_B_d.gif","","","","","3","complex_similar","images/stimuli/spore_stims/complex_15_B_d.gif","right","","","","",""
"","null","html-keyboard-response","72","110463","0.0-17.0-0.5","SS1613142741605","","","null","","","","","<p><img src= images/blank.png width =""200"" height = ""200"" style = ""float:right""></p><p><img src=images/blank.png width =""800"" height = ""200""></p>","","","","","","","","","","","",""
"","219.0000000409782","sequential-stimulus-presentation","73","111513","0.0-17.0-1.5","SS1613142741605","trial","","40","800","1019.0000000409782","images/stimuli/spore_stims/complex_15_A_d.gif","images/stimuli/spore_stims/complex_15_B_d.gif","","","","","3","complex_similar","images/stimuli/spore_stims/complex_15_A_d.gif","left","","","","",""
"","null","html-keyboard-response","74","112778","0.0-17.0-0.6","SS1613142741605","","","null","","","","","<p><img src= images/blank.png width =""200"" height = ""200"" style = ""float:right""></p><p><img src=images/blank.png width =""800"" height = ""200""></p>","","","","","","","","","","","",""
"","140.99999982863665","sequential-stimulus-presentation","75","113729","0.0-17.0-1.6","SS1613142741605","trial","","40","800","940.9999998286366","images/stimuli/spore_stims/complex_15_A_d.gif","images/stimuli/spore_stims/complex_15_B_d.gif","","","","","3","complex_similar","images/stimuli/spore_stims/complex_15_B_d.gif","right","","","","",""
"","null","html-keyboard-response","76","114645","0.0-17.0-0.7","SS1613142741605","","","null","","","","","<p><img src= images/blank.png width =""200"" height = ""200"" style = ""float:right""></p><p><img src=images/blank.png width =""800"" height = ""200""></p>","","","","","","","","","","","",""
"","486.9999997317791","sequential-stimulus-presentation","77","115940","0.0-17.0-1.7","SS1613142741605","trial","","40","800","1286.999999731779","images/stimuli/spore_stims/complex_15_A_d.gif","images/stimuli/spore_stims/complex_15_B_d.gif","","","","","3","complex_similar","images/stimuli/spore_stims/complex_15_B_d.gif","right","","","","",""
"","243.99999994784594","html-keyboard-response","78","116191","0.0-18.0","SS1613142741605","pref_question","","51","","","","","<video width ='960' height = '540' style='padding-top:8%' autoplay muted><source src='images/stimuli/wall_pref.mp4' type='video/mp4'></video>","3","right","66%","3","","","","","","","",""
"","194.99999983236194","sequential-stimulus-presentation","79","117195","0.0-19.0","SS1613142741605","pref_reveal","","40","800","994.9999998323619","null","null","","","","","3","","","","background","","","",""
"","null","html-keyboard-response","80","118053","0.0-20.0-0.0","SS1613142741605","","","null","","","","","<p><img src= images/blank.png width =""200"" height = ""200"" style = ""float:right""></p><p><img src=images/blank.png width =""800"" height = ""200""></p>","","","","","","","","","","","",""
"","335.9999996609986","sequential-stimulus-presentation","81","119219","0.0-20.0-1.0","SS1613142741605","trial","","40","800","1135.9999996609986","images/stimuli/spore_stims/simple_06_B_c.gif","images/stimuli/spore_stims/simple_04_B_b.gif","","","","","4","simple_dissimilar","images/stimuli/spore_stims/simple_04_B_b.gif","right","","","","",""
"","null","html-keyboard-response","82","120294","0.0-20.0-0.1","SS1613142741605","","","null","","","","","<p><img src= images/blank.png width =""200"" height = ""200"" style = ""float:right""></p><p><img src=images/blank.png width =""800"" height = ""200""></p>","","","","","","","","","","","",""
"","234.00000017136335","sequential-stimulus-presentation","83","121333","0.0-20.0-1.1","SS1613142741605","trial","","40","800","1034.0000001713634","images/stimuli/spore_stims/simple_06_B_c.gif","images/stimuli/spore_stims/simple_04_B_b.gif","","","","","4","simple_dissimilar","images/stimuli/spore_stims/simple_04_B_b.gif","right","","","","",""
"","null","html-keyboard-response","84","122524","0.0-20.0-0.2","SS1613142741605","","","null","","","","","<p><img src= images/blank.png width =""200"" height = ""200"" style = ""float:right""></p><p><img src=images/blank.png width =""800"" height = ""200""></p>","","","","","","","","","","","",""
"","15.00000013038516","sequential-stimulus-presentation","85","123350","0.0-20.0-1.2","SS1613142741605","trial","","40","800","815.0000001303852","images/stimuli/spore_stims/simple_06_B_c.gif","images/stimuli/spore_stims/simple_04_B_b.gif","","","","","4","simple_dissimilar","images/stimuli/spore_stims/simple_04_B_b.gif","right","","","","",""
"","null","html-keyboard-response","86","124596","0.0-20.0-0.3","SS1613142741605","","","null","","","","","<p><img src= images/blank.png width =""200"" height = ""200"" style = ""float:right""></p><p><img src=images/blank.png width =""800"" height = ""200""></p>","","","","","","","","","","","",""
"","55.99999986588955","sequential-stimulus-presentation","87","125466","0.0-20.0-1.3","SS1613142741605","trial","","40","800","855.9999998658895","images/stimuli/spore_stims/simple_06_B_c.gif","images/stimuli/spore_stims/simple_04_B_b.gif","","","","","4","simple_dissimilar","images/stimuli/spore_stims/simple_04_B_b.gif","right","","","","",""
"","null","html-keyboard-response","88","126444","0.0-20.0-0.4","SS1613142741605","","","null","","","","","<p><img src= images/blank.png width =""200"" height = ""200"" style = ""float:right""></p><p><img src=images/blank.png width =""800"" height = ""200""></p>","","","","","","","","","","","",""
"","249.0000003017485","sequential-stimulus-presentation","89","127499","0.0-20.0-1.4","SS1613142741605","trial","","40","800","1049.0000003017485","images/stimuli/spore_stims/simple_06_B_c.gif","images/stimuli/spore_stims/simple_04_B_b.gif","","","","","4","simple_dissimilar","images/stimuli/spore_stims/simple_04_B_b.gif","right","","","","",""
"","null","html-keyboard-response","90","128476","0.0-20.0-0.5","SS1613142741605","","","null","","","","","<p><img src= images/blank.png width =""200"" height = ""200"" style = ""float:right""></p><p><img src=images/blank.png width =""800"" height = ""200""></p>","","","","","","","","","","","",""
"","125.99999969825149","sequential-stimulus-presentation","91","129417","0.0-20.0-1.5","SS1613142741605","trial","","40","800","925.9999996982515","images/stimuli/spore_stims/simple_06_B_c.gif","images/stimuli/spore_stims/simple_04_B_b.gif","","","","","4","simple_dissimilar","images/stimuli/spore_stims/simple_06_B_c.gif","middle","","","","",""
"","null","html-keyboard-response","92","130715","0.0-20.0-0.6","SS1613142741605","","","null","","","","","<p><img src= images/blank.png width =""200"" height = ""200"" style = ""float:right""></p><p><img src=images/blank.png width =""800"" height = ""200""></p>","","","","","","","","","","","",""
"","654.999999795109","sequential-stimulus-presentation","93","132226","0.0-20.0-1.6","SS1613142741605","trial","","40","800","1454.999999795109","images/stimuli/spore_stims/simple_06_B_c.gif","images/stimuli/spore_stims/simple_04_B_b.gif","","","","","4","simple_dissimilar","images/stimuli/spore_stims/simple_04_B_b.gif","right","","","","",""
"","null","html-keyboard-response","94","133430","0.0-20.0-0.7","SS1613142741605","","","null","","","","","<p><img src= images/blank.png width =""200"" height = ""200"" style = ""float:right""></p><p><img src=images/blank.png width =""800"" height = ""200""></p>","","","","","","","","","","","",""
"","483.0000000074506","sequential-stimulus-presentation","95","134720","0.0-20.0-1.7","SS1613142741605","trial","","40","800","1283.0000000074506","images/stimuli/spore_stims/simple_06_B_c.gif","images/stimuli/spore_stims/simple_04_B_b.gif","","","","","4","simple_dissimilar","images/stimuli/spore_stims/simple_04_B_b.gif","right","","","","",""
"","110.00000033527613","html-keyboard-response","96","134839","0.0-21.0","SS1613142741605","pref_question","","51","","","","","<video width ='960' height = '540' style='padding-top:8%' autoplay muted><source src='images/stimuli/wall_pref.mp4' type='video/mp4'></video>","3","right","66%","4","","","","","","","",""
"","307.0000000298023","sequential-stimulus-presentation","97","135974","0.0-22.0","SS1613142741605","pref_reveal","","40","800","1107.0000000298023","null","null","","","","","4","","","","background","","","",""
"","null","html-keyboard-response","98","136853","0.0-23.0-0.0","SS1613142741605","","","null","","","","","<p><img src= images/blank.png width =""200"" height = ""200"" style = ""float:right""></p><p><img src=images/blank.png width =""800"" height = ""200""></p>","","","","","","","","","","","",""
"","38.000000175088644","sequential-stimulus-presentation","99","137702","0.0-23.0-1.0","SS1613142741605","trial","","40","800","838.0000001750886","images/stimuli/spore_stims/simple_05_A_c.gif","images/stimuli/spore_stims/simple_05_B_c.gif","","","","","5","simple_similar","images/stimuli/spore_stims/simple_05_B_c.gif","right","","","","",""
"","null","html-keyboard-response","100","138949","0.0-23.0-0.1","SS1613142741605","","","null","","","","","<p><img src= images/blank.png width =""200"" height = ""200"" style = ""float:right""></p><p><img src=images/blank.png width =""800"" height = ""200""></p>","","","","","","","","","","","",""
"","36.000000312924385","sequential-stimulus-presentation","101","139795","0.0-23.0-1.1","SS1613142741605","trial","","40","800","836.0000003129244","images/stimuli/spore_stims/simple_05_A_c.gif","images/stimuli/spore_stims/simple_05_B_c.gif","","","","","5","simple_similar","images/stimuli/spore_stims/simple_05_B_c.gif","right","","","","",""
"","null","html-keyboard-response","102","140603","0.0-23.0-0.2","SS1613142741605","","","null","","","","","<p><img src= images/blank.png width =""200"" height = ""200"" style = ""float:right""></p><p><img src=images/blank.png width =""800"" height = ""200""></p>","","","","","","","","","","","",""
"","288.99999987334013","sequential-stimulus-presentation","103","141699","0.0-23.0-1.2","SS1613142741605","trial","","40","800","1088.9999998733401","images/stimuli/spore_stims/simple_05_A_c.gif","images/stimuli/spore_stims/simple_05_B_c.gif","","","","","5","simple_similar","images/stimuli/spore_stims/simple_05_B_c.gif","right","","","","",""
"","null","html-keyboard-response","104","142970","0.0-23.0-0.3","SS1613142741605","","","null","","","","","<p><img src= images/blank.png width =""200"" height = ""200"" style = ""float:right""></p><p><img src=images/blank.png width =""800"" height = ""200""></p>","","","","","","","","","","","",""
"","277.9999999329448","sequential-stimulus-presentation","105","144102","0.0-23.0-1.3","SS1613142741605","trial","","40","800","1077.9999999329448","images/stimuli/spore_stims/simple_05_A_c.gif","images/stimuli/spore_stims/simple_05_B_c.gif","","","","","5","simple_similar","images/stimuli/spore_stims/simple_05_A_c.gif","left","","","","",""
"","null","html-keyboard-response","106","145223","0.0-23.0-0.4","SS1613142741605","","","null","","","","","<p><img src= images/blank.png width =""200"" height = ""200"" style = ""float:right""></p><p><img src=images/blank.png width =""800"" height = ""200""></p>","","","","","","","","","","","",""
"","439.99999994412065","sequential-stimulus-presentation","107","146470","0.0-23.0-1.4","SS1613142741605","trial","","40","800","1239.9999999441206","images/stimuli/spore_stims/simple_05_A_c.gif","images/stimuli/spore_stims/simple_05_B_c.gif","","","","","5","simple_similar","images/stimuli/spore_stims/simple_05_B_c.gif","right","","","","",""
"","null","html-keyboard-response","108","147387","0.0-23.0-0.5","SS1613142741605","","","null","","","","","<p><img src= images/blank.png width =""200"" height = ""200"" style = ""float:right""></p><p><img src=images/blank.png width =""800"" height = ""200""></p>","","","","","","","","","","","",""
"","359.99999986961484","sequential-stimulus-presentation","109","148559","0.0-23.0-1.5","SS1613142741605","trial","","40","800","1159.9999998696148","images/stimuli/spore_stims/simple_05_A_c.gif","images/stimuli/spore_stims/simple_05_B_c.gif","","","","","5","simple_similar","images/stimuli/spore_stims/simple_05_B_c.gif","right","","","","",""
"","null","html-keyboard-response","110","149585","0.0-23.0-0.6","SS1613142741605","","","null","","","","","<p><img src= images/blank.png width =""200"" height = ""200"" style = ""float:right""></p><p><img src=images/blank.png width =""800"" height = ""200""></p>","","","","","","","","","","","",""
"","419.9999999254942","sequential-stimulus-presentation","111","150820","0.0-23.0-1.6","SS1613142741605","trial","","40","800","1219.9999999254942","images/stimuli/spore_stims/simple_05_A_c.gif","images/stimuli/spore_stims/simple_05_B_c.gif","","","","","5","simple_similar","images/stimuli/spore_stims/simple_05_B_c.gif","right","","","","",""
"","null","html-keyboard-response","112","151804","0.0-23.0-0.7","SS1613142741605","","","null","","","","","<p><img src= images/blank.png width =""200"" height = ""200"" style = ""float:right""></p><p><img src=images/blank.png width =""800"" height = ""200""></p>","","","","","","","","","","","",""
"","86.00000012665987","sequential-stimulus-presentation","113","152706","0.0-23.0-1.7","SS1613142741605","trial","","40","800","886.0000001266599","images/stimuli/spore_stims/simple_05_A_c.gif","images/stimuli/spore_stims/simple_05_B_c.gif","","","","","5","simple_similar","images/stimuli/spore_stims/simple_05_B_c.gif","right","","","","",""
"","100.00000009313226","html-keyboard-response","114","152812","0.0-24.0","SS1613142741605","pref_question","","50","","","","","<video width ='960' height = '540' style='padding-top:8%' autoplay muted><source src='images/stimuli/wall_pref.mp4' type='video/mp4'></video>","2","middle","45%","5","","","","","","","",""
"","402.0000002346933","sequential-stimulus-presentation","115","154021","0.0-25.0","SS1613142741605","pref_reveal","","40","800","1202.0000002346933","null","null","","","","","5","","","","novel","","","",""
"","null","html-keyboard-response","116","155103","0.0-26.0-0.0","SS1613142741605","","","null","","","","","<p><img src= images/blank.png width =""200"" height = ""200"" style = ""float:right""></p><p><img src=images/blank.png width =""800"" height = ""200""></p>","","","","","","","","","","","",""
"","190.99999964237213","sequential-stimulus-presentation","117","156111","0.0-26.0-1.0","SS1613142741605","trial","","40","800","990.9999996423721","images/stimuli/spore_stims/simple_07_B_b.gif","images/stimuli/spore_stims/simple_13_A_b.gif","","","","","6","simple_dissimilar","images/stimuli/spore_stims/simple_13_A_b.gif","left","","","","",""
"","null","html-keyboard-response","118","156916","0.0-26.0-0.1","SS1613142741605","","","null","","","","","<p><img src= images/blank.png width =""200"" height = ""200"" style = ""float:right""></p><p><img src=images/blank.png width =""800"" height = ""200""></p>","","","","","","","","","","","",""
"","141.00000029429793","sequential-stimulus-presentation","119","157867","0.0-26.0-1.1","SS1613142741605","trial","","40","800","941.0000002942979","images/stimuli/spore_stims/simple_07_B_b.gif","images/stimuli/spore_stims/simple_13_A_b.gif","","","","","6","simple_dissimilar","images/stimuli/spore_stims/simple_13_A_b.gif","left","","","","",""
"","null","html-keyboard-response","120","158796","0.0-26.0-0.2","SS1613142741605","","","null","","","","","<p><img src= images/blank.png width =""200"" height = ""200"" style = ""float:right""></p><p><img src=images/blank.png width =""800"" height = ""200""></p>","","","","","","","","","","","",""
"","26.000000070780516","sequential-stimulus-presentation","121","159642","0.0-26.0-1.2","SS1613142741605","trial","","40","800","826.0000000707805","images/stimuli/spore_stims/simple_07_B_b.gif","images/stimuli/spore_stims/simple_13_A_b.gif","","","","","6","simple_dissimilar","images/stimuli/spore_stims/simple_13_A_b.gif","left","","","","",""
"","null","html-keyboard-response","122","160543","0.0-26.0-0.3","SS1613142741605","","","null","","","","","<p><img src= images/blank.png width =""200"" height = ""200"" style = ""float:right""></p><p><img src=images/blank.png width =""800"" height = ""200""></p>","","","","","","","","","","","",""
"","3.000000026077032","sequential-stimulus-presentation","123","161359","0.0-26.0-1.3","SS1613142741605","trial","","40","800","803.000000026077","images/stimuli/spore_stims/simple_07_B_b.gif","images/stimuli/spore_stims/simple_13_A_b.gif","","","","","6","simple_dissimilar","images/stimuli/spore_stims/simple_07_B_b.gif","right","","","","",""
"","null","html-keyboard-response","124","162660","0.0-26.0-0.4","SS1613142741605","","","null","","","","","<p><img src= images/blank.png width =""200"" height = ""200"" style = ""float:right""></p><p><img src=images/blank.png width =""800"" height = ""200""></p>","","","","","","","","","","","",""
"","316.9999998062849","sequential-stimulus-presentation","125","163786","0.0-26.0-1.4","SS1613142741605","trial","","40","800","1116.999999806285","images/stimuli/spore_stims/simple_07_B_b.gif","images/stimuli/spore_stims/simple_13_A_b.gif","","","","","6","simple_dissimilar","images/stimuli/spore_stims/simple_13_A_b.gif","left","","","","",""
"","null","html-keyboard-response","126","164795","0.0-26.0-0.5","SS1613142741605","","","null","","","","","<p><img src= images/blank.png width =""200"" height = ""200"" style = ""float:right""></p><p><img src=images/blank.png width =""800"" height = ""200""></p>","","","","","","","","","","","",""
"","30.999999959021807","sequential-stimulus-presentation","127","165642","0.0-26.0-1.5","SS1613142741605","trial","","40","800","830.9999999590218","images/stimuli/spore_stims/simple_07_B_b.gif","images/stimuli/spore_stims/simple_13_A_b.gif","","","","","6","simple_dissimilar","images/stimuli/spore_stims/simple_13_A_b.gif","left","","","","",""
"","null","html-keyboard-response","128","166775","0.0-26.0-0.6","SS1613142741605","","","null","","","","","<p><img src= images/blank.png width =""200"" height = ""200"" style = ""float:right""></p><p><img src=images/blank.png width =""800"" height = ""200""></p>","","","","","","","","","","","",""
"","116.00000038743019","sequential-stimulus-presentation","129","167705","0.0-26.0-1.6","SS1613142741605","trial","","40","800","916.0000003874302","images/stimuli/spore_stims/simple_07_B_b.gif","images/stimuli/spore_stims/simple_13_A_b.gif","","","","","6","simple_dissimilar","images/stimuli/spore_stims/simple_13_A_b.gif","left","","","","",""
"","null","html-keyboard-response","130","168799","0.0-26.0-0.7","SS1613142741605","","","null","","","","","<p><img src= images/blank.png width =""200"" height = ""200"" style = ""float:right""></p><p><img src=images/blank.png width =""800"" height = ""200""></p>","","","","","","","","","","","",""
"","207.99999963492155","sequential-stimulus-presentation","131","169818","0.0-26.0-1.7","SS1613142741605","trial","","40","800","1007.9999996349216","images/stimuli/spore_stims/simple_07_B_b.gif","images/stimuli/spore_stims/simple_13_A_b.gif","","","","","6","simple_dissimilar","images/stimuli/spore_stims/simple_13_A_b.gif","left","","","","",""
"","237.99999989569187","html-keyboard-response","132","170065","0.0-27.0","SS1613142741605","pref_question","","50","","","","","<video width ='960' height = '540' style='padding-top:8%' autoplay muted><source src='images/stimuli/wall_pref.mp4' type='video/mp4'></video>","2","middle","45%","6","","","","","","","",""
"","103.00000011920929","sequential-stimulus-presentation","133","170973","0.0-28.0","SS1613142741605","pref_reveal","","40","800","903.0000001192093","null","null","","","","","6","","","","novel","","","",""
"","null","html-keyboard-response","134","171881","0.0-29.0-0.0","SS1613142741605","","","null","","","","","<p><img src= images/blank.png width =""200"" height = ""200"" style = ""float:right""></p><p><img src=images/blank.png width =""800"" height = ""200""></p>","","","","","","","","","","","",""
"","81.99999993667006","sequential-stimulus-presentation","135","172828","0.0-29.0-1.0","SS1613142741605","trial","","40","800","881.9999999366701","images/stimuli/spore_stims/complex_05_B_c.gif","images/stimuli/spore_stims/complex_05_A_b.gif","","","","","7","complex_dissimilar","images/stimuli/spore_stims/complex_05_A_b.gif","left","","","","",""
"","null","html-keyboard-response","136","173782","0.0-29.0-0.1","SS1613142741605","","","null","","","","","<p><img src= images/blank.png width =""200"" height = ""200"" style = ""float:right""></p><p><img src=images/blank.png width =""800"" height = ""200""></p>","","","","","","","","","","","",""
"","456.0000002384186","sequential-stimulus-presentation","137","175045","0.0-29.0-1.1","SS1613142741605","trial","","40","800","1256.0000002384186","images/stimuli/spore_stims/complex_05_B_c.gif","images/stimuli/spore_stims/complex_05_A_b.gif","","","","","7","complex_dissimilar","images/stimuli/spore_stims/complex_05_A_b.gif","left","","","","",""
"","null","html-keyboard-response","138","176199","0.0-29.0-0.2","SS1613142741605","","","null","","","","","<p><img src= images/blank.png width =""200"" height = ""200"" style = ""float:right""></p><p><img src=images/blank.png width =""800"" height = ""200""></p>","","","","","","","","","","","",""
"","35.9999998472631","sequential-stimulus-presentation","139","177048","0.0-29.0-1.2","SS1613142741605","trial","","40","800","835.9999998472631","images/stimuli/spore_stims/complex_05_B_c.gif","images/stimuli/spore_stims/complex_05_A_b.gif","","","","","7","complex_dissimilar","images/stimuli/spore_stims/complex_05_B_c.gif","right","","","","",""
"","null","html-keyboard-response","140","178157","0.0-29.0-0.3","SS1613142741605","","","null","","","","","<p><img src= images/blank.png width =""200"" height = ""200"" style = ""float:right""></p><p><img src=images/blank.png width =""800"" height = ""200""></p>","","","","","","","","","","","",""
"","14717.999999877065","sequential-stimulus-presentation","141","193740","0.0-29.0-1.3","SS1613142741605","trial","","40","800","15517.999999877065","images/stimuli/spore_stims/complex_05_B_c.gif","images/stimuli/spore_stims/complex_05_A_b.gif","","","","","7","complex_dissimilar","images/stimuli/spore_stims/complex_05_A_b.gif","left","","","","",""
"","null","html-keyboard-response","142","194743","0.0-29.0-0.4","SS1613142741605","","","null","","","","","<p><img src= images/blank.png width =""200"" height = ""200"" style = ""float:right""></p><p><img src=images/blank.png width =""800"" height = ""200""></p>","","","","","","","","","","","",""
"","161.00000031292439","sequential-stimulus-presentation","143","195716","0.0-29.0-1.4","SS1613142741605","trial","","40","800","961.0000003129244","images/stimuli/spore_stims/complex_05_B_c.gif","images/stimuli/spore_stims/complex_05_A_b.gif","","","","","7","complex_dissimilar","images/stimuli/spore_stims/complex_05_A_b.gif","left","","","","",""
"","null","html-keyboard-response","144","196770","0.0-29.0-0.5","SS1613142741605","","","null","","","","","<p><img src= images/blank.png width =""200"" height = ""200"" style = ""float:right""></p><p><img src=images/blank.png width =""800"" height = ""200""></p>","","","","","","","","","","","",""
"","187.0000003837049","sequential-stimulus-presentation","145","197775","0.0-29.0-1.5","SS1613142741605","trial","","40","800","987.0000003837049","images/stimuli/spore_stims/complex_05_B_c.gif","images/stimuli/spore_stims/complex_05_A_b.gif","","","","","7","complex_dissimilar","images/stimuli/spore_stims/complex_05_A_b.gif","left","","","","",""
"","null","html-keyboard-response","146","198727","0.0-29.0-0.6","SS1613142741605","","","null","","","","","<p><img src= images/blank.png width =""200"" height = ""200"" style = ""float:right""></p><p><img src=images/blank.png width =""800"" height = ""200""></p>","","","","","","","","","","","",""
"","570.9999999962747","sequential-stimulus-presentation","147","200113","0.0-29.0-1.6","SS1613142741605","trial","","40","800","1370.9999999962747","images/stimuli/spore_stims/complex_05_B_c.gif","images/stimuli/spore_stims/complex_05_A_b.gif","","","","","7","complex_dissimilar","images/stimuli/spore_stims/complex_05_A_b.gif","left","","","","",""
"","null","html-keyboard-response","148","201210","0.0-29.0-0.7","SS1613142741605","","","null","","","","","<p><img src= images/blank.png width =""200"" height = ""200"" style = ""float:right""></p><p><img src=images/blank.png width =""800"" height = ""200""></p>","","","","","","","","","","","",""
"","245.9999998100102","sequential-stimulus-presentation","149","202269","0.0-29.0-1.7","SS1613142741605","trial","","40","800","1045.9999998100102","images/stimuli/spore_stims/complex_05_B_c.gif","images/stimuli/spore_stims/complex_05_A_b.gif","","","","","7","complex_dissimilar","images/stimuli/spore_stims/complex_05_A_b.gif","left","","","","",""
"","55.99999986588955","html-keyboard-response","150","202339","0.0-30.0","SS1613142741605","pref_question","","50","","","","","<video width ='960' height = '540' style='padding-top:8%' autoplay muted><source src='images/stimuli/wall_pref.mp4' type='video/mp4'></video>","2","middle","45%","7","","","","","","","",""
"","460.9999996609986","sequential-stimulus-presentation","151","203654","0.0-31.0","SS1613142741605","pref_reveal","","40","800","1260.9999996609986","null","null","","","","","7","","","","novel","","","",""
"","null","html-keyboard-response","152","204616","0.0-32.0-0.0","SS1613142741605","","","null","","","","","<p><img src= images/blank.png width =""200"" height = ""200"" style = ""float:right""></p><p><img src=images/blank.png width =""800"" height = ""200""></p>","","","","","","","","","","","",""
"","109.99999986961484","sequential-stimulus-presentation","153","205544","0.0-32.0-1.0","SS1613142741605","trial","","40","800","909.9999998696148","images/stimuli/spore_stims/complex_18_B_d.gif","images/stimuli/spore_stims/complex_07_B_a.gif","","","","","8","complex_dissimilar","images/stimuli/spore_stims/complex_07_B_a.gif","right","","","","",""
"","null","html-keyboard-response","154","206559","0.0-32.0-0.1","SS1613142741605","","","null","","","","","<p><img src= images/blank.png width =""200"" height = ""200"" style = ""float:right""></p><p><img src=images/blank.png width =""800"" height = ""200""></p>","","","","","","","","","","","",""
"","324.00000002235174","sequential-stimulus-presentation","155","207714","0.0-32.0-1.1","SS1613142741605","trial","","40","800","1124.0000000223517","images/stimuli/spore_stims/complex_18_B_d.gif","images/stimuli/spore_stims/complex_07_B_a.gif","","","","","8","complex_dissimilar","images/stimuli/spore_stims/complex_07_B_a.gif","right","","","","",""
"","null","html-keyboard-response","156","208954","0.0-32.0-0.2","SS1613142741605","","","null","","","","","<p><img src= images/blank.png width =""200"" height = ""200"" style = ""float:right""></p><p><img src=images/blank.png width =""800"" height = ""200""></p>","","","","","","","","","","","",""
"","76.00000035017729","sequential-stimulus-presentation","157","209841","0.0-32.0-1.2","SS1613142741605","trial","","40","800","876.0000003501773","images/stimuli/spore_stims/complex_18_B_d.gif","images/stimuli/spore_stims/complex_07_B_a.gif","","","","","8","complex_dissimilar","images/stimuli/spore_stims/complex_18_B_d.gif","left","","","","",""
"","null","html-keyboard-response","158","210836","0.0-32.0-0.3","SS1613142741605","","","null","","","","","<p><img src= images/blank.png width =""200"" height = ""200"" style = ""float:right""></p><p><img src=images/blank.png width =""800"" height = ""200""></p>","","","","","","","","","","","",""
"","40.99999973550439","sequential-stimulus-presentation","159","211711","0.0-32.0-1.3","SS1613142741605","trial","","40","800","840.9999997355044","images/stimuli/spore_stims/complex_18_B_d.gif","images/stimuli/spore_stims/complex_07_B_a.gif","","","","","8","complex_dissimilar","images/stimuli/spore_stims/complex_07_B_a.gif","right","","","","",""
"","null","html-keyboard-response","160","212896","0.0-32.0-0.4","SS1613142741605","","","null","","","","","<p><img src= images/blank.png width =""200"" height = ""200"" style = ""float:right""></p><p><img src=images/blank.png width =""800"" height = ""200""></p>","","","","","","","","","","","",""
"","294.9999999254942","sequential-stimulus-presentation","161","213999","0.0-32.0-1.4","SS1613142741605","trial","","40","800","1094.9999999254942","images/stimuli/spore_stims/complex_18_B_d.gif","images/stimuli/spore_stims/complex_07_B_a.gif","","","","","8","complex_dissimilar","images/stimuli/spore_stims/complex_07_B_a.gif","right","","","","",""
"","null","html-keyboard-response","162","214911","0.0-32.0-0.5","SS1613142741605","","","null","","","","","<p><img src= images/blank.png width =""200"" height = ""200"" style = ""float:right""></p><p><img src=images/blank.png width =""800"" height = ""200""></p>","","","","","","","","","","","",""
"","1533.9999999850988","sequential-stimulus-presentation","163","217253","0.0-32.0-1.5","SS1613142741605","trial","","40","800","2333.999999985099","images/stimuli/spore_stims/complex_18_B_d.gif","images/stimuli/spore_stims/complex_07_B_a.gif","","","","","8","complex_dissimilar","images/stimuli/spore_stims/complex_07_B_a.gif","right","","","","",""
"","null","html-keyboard-response","164","218362","0.0-32.0-0.6","SS1613142741605","","","null","","","","","<p><img src= images/blank.png width =""200"" height = ""200"" style = ""float:right""></p><p><img src=images/blank.png width =""800"" height = ""200""></p>","","","","","","","","","","","",""
"","25316.000000108033","sequential-stimulus-presentation","165","244501","0.0-32.0-1.6","SS1613142741605","trial","","40","800","26116.000000108033","images/stimuli/spore_stims/complex_18_B_d.gif","images/stimuli/spore_stims/complex_07_B_a.gif","","","","","8","complex_dissimilar","images/stimuli/spore_stims/complex_07_B_a.gif","right","","","","",""
"","null","html-keyboard-response","166","245598","0.0-32.0-0.7","SS1613142741605","","","null","","","","","<p><img src= images/blank.png width =""200"" height = ""200"" style = ""float:right""></p><p><img src=images/blank.png width =""800"" height = ""200""></p>","","","","","","","","","","","",""
"","1175.0000002793968","sequential-stimulus-presentation","167","247589","0.0-32.0-1.7","SS1613142741605","trial","","40","800","1975.0000002793968","images/stimuli/spore_stims/complex_18_B_d.gif","images/stimuli/spore_stims/complex_07_B_a.gif","","","","","8","complex_dissimilar","images/stimuli/spore_stims/complex_07_B_a.gif","right","","","","",""
"","4985.999999567866","html-keyboard-response","168","252586","0.0-33.0","SS1613142741605","pref_question","","50","","","","","<video width ='960' height = '540' style='padding-top:8%' autoplay muted><source src='images/stimuli/wall_pref.mp4' type='video/mp4'></video>","2","middle","45%","8","","","","","","","",""
"","190.99999964237213","sequential-stimulus-presentation","169","253587","0.0-34.0","SS1613142741605","pref_reveal","","40","800","990.9999996423721","null","null","","","","","8","","","","novel","","","",""
"","null","html-keyboard-response","170","254693","0.0-35.0-0.0","SS1613142741605","","","null","","","","","<p><img src= images/blank.png width =""200"" height = ""200"" style = ""float:right""></p><p><img src=images/blank.png width =""800"" height = ""200""></p>","","","","","","","","","","","",""
"","475.99999979138374","sequential-stimulus-presentation","171","255988","0.0-35.0-1.0","SS1613142741605","trial","","40","800","1275.9999997913837","images/stimuli/spore_stims/complex_04_A_d.gif","images/stimuli/spore_stims/complex_04_B_d.gif","","","","","9","complex_similar","images/stimuli/spore_stims/complex_04_B_d.gif","right","","","","",""
"","null","html-keyboard-response","172","257004","0.0-35.0-0.1","SS1613142741605","","","null","","","","","<p><img src= images/blank.png width =""200"" height = ""200"" style = ""float:right""></p><p><img src=images/blank.png width =""800"" height = ""200""></p>","","","","","","","","","","","",""
"","214.0000001527369","sequential-stimulus-presentation","173","258039","0.0-35.0-1.1","SS1613142741605","trial","","40","800","1014.0000001527369","images/stimuli/spore_stims/complex_04_A_d.gif","images/stimuli/spore_stims/complex_04_B_d.gif","","","","","9","complex_similar","images/stimuli/spore_stims/complex_04_B_d.gif","right","","","","",""
"","null","html-keyboard-response","174","259254","0.0-35.0-0.2","SS1613142741605","","","null","","","","","<p><img src= images/blank.png width =""200"" height = ""200"" style = ""float:right""></p><p><img src=images/blank.png width =""800"" height = ""200""></p>","","","","","","","","","","","",""
"","188.99999978020787","sequential-stimulus-presentation","175","260261","0.0-35.0-1.2","SS1613142741605","trial","","40","800","988.9999997802079","images/stimuli/spore_stims/complex_04_A_d.gif","images/stimuli/spore_stims/complex_04_B_d.gif","","","","","9","complex_similar","images/stimuli/spore_stims/complex_04_B_d.gif","right","","","","",""
"","null","html-keyboard-response","176","261229","0.0-35.0-0.3","SS1613142741605","","","null","","","","","<p><img src= images/blank.png width =""200"" height = ""200"" style = ""float:right""></p><p><img src=images/blank.png width =""800"" height = ""200""></p>","","","","","","","","","","","",""
"","405.9999999590218","sequential-stimulus-presentation","177","262456","0.0-35.0-1.3","SS1613142741605","trial","","40","800","1205.9999999590218","images/stimuli/spore_stims/complex_04_A_d.gif","images/stimuli/spore_stims/complex_04_B_d.gif","","","","","9","complex_similar","images/stimuli/spore_stims/complex_04_B_d.gif","right","","","","",""
"","null","html-keyboard-response","178","263686","0.0-35.0-0.4","SS1613142741605","","","null","","","","","<p><img src= images/blank.png width =""200"" height = ""200"" style = ""float:right""></p><p><img src=images/blank.png width =""800"" height = ""200""></p>","","","","","","","","","","","",""
"","212.99999998882413","sequential-stimulus-presentation","179","264709","0.0-35.0-1.4","SS1613142741605","trial","","40","800","1012.9999999888241","images/stimuli/spore_stims/complex_04_A_d.gif","images/stimuli/spore_stims/complex_04_B_d.gif","","","","","9","complex_similar","images/stimuli/spore_stims/complex_04_B_d.gif","right","","","","",""
"","null","html-keyboard-response","180","265926","0.0-35.0-0.5","SS1613142741605","","","null","","","","","<p><img src= images/blank.png width =""200"" height = ""200"" style = ""float:right""></p><p><img src=images/blank.png width =""800"" height = ""200""></p>","","","","","","","","","","","",""
"","190.00000040978193","sequential-stimulus-presentation","181","266937","0.0-35.0-1.5","SS1613142741605","trial","","40","800","990.0000004097819","images/stimuli/spore_stims/complex_04_A_d.gif","images/stimuli/spore_stims/complex_04_B_d.gif","","","","","9","complex_similar","images/stimuli/spore_stims/complex_04_B_d.gif","right","","","","",""
"","null","html-keyboard-response","182","267772","0.0-35.0-0.6","SS1613142741605","","","null","","","","","<p><img src= images/blank.png width =""200"" height = ""200"" style = ""float:right""></p><p><img src=images/blank.png width =""800"" height = ""200""></p>","","","","","","","","","","","",""
"","31.000000424683094","sequential-stimulus-presentation","183","268616","0.0-35.0-1.6","SS1613142741605","trial","","40","800","831.0000004246831","images/stimuli/spore_stims/complex_04_A_d.gif","images/stimuli/spore_stims/complex_04_B_d.gif","","","","","9","complex_similar","images/stimuli/spore_stims/complex_04_A_d.gif","left","","","","",""
"","null","html-keyboard-response","184","269507","0.0-35.0-0.7","SS1613142741605","","","null","","","","","<p><img src= images/blank.png width =""200"" height = ""200"" style = ""float:right""></p><p><img src=images/blank.png width =""800"" height = ""200""></p>","","","","","","","","","","","",""
"","424.9999998137355","sequential-stimulus-presentation","185","270743","0.0-35.0-1.7","SS1613142741605","trial","","40","800","1224.9999998137355","images/stimuli/spore_stims/complex_04_A_d.gif","images/stimuli/spore_stims/complex_04_B_d.gif","","","","","9","complex_similar","images/stimuli/spore_stims/complex_04_B_d.gif","right","","","","",""
"","222.9999997653067","html-keyboard-response","186","270976","0.0-36.0","SS1613142741605","pref_question","","49","","","","","<video width ='960' height = '540' style='padding-top:8%' autoplay muted><source src='images/stimuli/wall_pref.mp4' type='video/mp4'></video>","1","left","25%","9","","","","","","","",""
"","81.00000023841858","sequential-stimulus-presentation","187","271869","0.0-37.0","SS1613142741605","pref_reveal","","40","800","881.0000002384186","null","null","","","","","9","","","","deviant","","","",""
"","null","html-keyboard-response","188","272837","0.0-38.0-0.0","SS1613142741605","","","null","","","","","<p><img src= images/blank.png width =""200"" height = ""200"" style = ""float:right""></p><p><img src=images/blank.png width =""800"" height = ""200""></p>","","","","","","","","","","","",""
"","268.9999998547137","sequential-stimulus-presentation","189","273913","0.0-38.0-1.0","SS1613142741605","trial","","40","800","1068.9999998547137","images/stimuli/spore_stims/simple_01_A_c.gif","images/stimuli/spore_stims/simple_03_A_c.gif","","","","","10","simple_dissimilar","images/stimuli/spore_stims/simple_03_A_c.gif","left","","","","",""
"","null","html-keyboard-response","190","274781","0.0-38.0-0.1","SS1613142741605","","","null","","","","","<p><img src= images/blank.png width =""200"" height = ""200"" style = ""float:right""></p><p><img src=images/blank.png width =""800"" height = ""200""></p>","","","","","","","","","","","",""
"","356.9999998435378","sequential-stimulus-presentation","191","275949","0.0-38.0-1.1","SS1613142741605","trial","","40","800","1156.9999998435378","images/stimuli/spore_stims/simple_01_A_c.gif","images/stimuli/spore_stims/simple_03_A_c.gif","","","","","10","simple_dissimilar","images/stimuli/spore_stims/simple_03_A_c.gif","left","","","","",""
"","null","html-keyboard-response","192","276774","0.0-38.0-0.2","SS1613142741605","","","null","","","","","<p><img src= images/blank.png width =""200"" height = ""200"" style = ""float:right""></p><p><img src=images/blank.png width =""800"" height = ""200""></p>","","","","","","","","","","","",""
"","233.00000000745058","sequential-stimulus-presentation","193","277814","0.0-38.0-1.2","SS1613142741605","trial","","40","800","1033.0000000074506","images/stimuli/spore_stims/simple_01_A_c.gif","images/stimuli/spore_stims/simple_03_A_c.gif","","","","","10","simple_dissimilar","images/stimuli/spore_stims/simple_01_A_c.gif","middle","","","","",""
"","null","html-keyboard-response","194","279072","0.0-38.0-0.3","SS1613142741605","","","null","","","","","<p><img src= images/blank.png width =""200"" height = ""200"" style = ""float:right""></p><p><img src=images/blank.png width =""800"" height = ""200""></p>","","","","","","","","","","","",""
"","108.00000000745058","sequential-stimulus-presentation","195","280012","0.0-38.0-1.3","SS1613142741605","trial","","40","800","908.0000000074506","images/stimuli/spore_stims/simple_01_A_c.gif","images/stimuli/spore_stims/simple_03_A_c.gif","","","","","10","simple_dissimilar","images/stimuli/spore_stims/simple_03_A_c.gif","left","","","","",""
"","null","html-keyboard-response","196","281137","0.0-38.0-0.4","SS1613142741605","","","null","","","","","<p><img src= images/blank.png width =""200"" height = ""200"" style = ""float:right""></p><p><img src=images/blank.png width =""800"" height = ""200""></p>","","","","","","","","","","","",""
"","242.00000008568168","sequential-stimulus-presentation","197","282212","0.0-38.0-1.4","SS1613142741605","trial","","40","800","1042.0000000856817","images/stimuli/spore_stims/simple_01_A_c.gif","images/stimuli/spore_stims/simple_03_A_c.gif","","","","","10","simple_dissimilar","images/stimuli/spore_stims/simple_03_A_c.gif","left","","","","",""
"","null","html-keyboard-response","198","283396","0.0-38.0-0.5","SS1613142741605","","","null","","","","","<p><img src= images/blank.png width =""200"" height = ""200"" style = ""float:right""></p><p><img src=images/blank.png width =""800"" height = ""200""></p>","","","","","","","","","","","",""
"","121.99999997392297","sequential-stimulus-presentation","199","284328","0.0-38.0-1.5","SS1613142741605","trial","","40","800","921.999999973923","images/stimuli/spore_stims/simple_01_A_c.gif","images/stimuli/spore_stims/simple_03_A_c.gif","","","","","10","simple_dissimilar","images/stimuli/spore_stims/simple_03_A_c.gif","left","","","","",""
"","null","html-keyboard-response","200","285440","0.0-38.0-0.6","SS1613142741605","","","null","","","","","<p><img src= images/blank.png width =""200"" height = ""200"" style = ""float:right""></p><p><img src=images/blank.png width =""800"" height = ""200""></p>","","","","","","","","","","","",""
"","229.00000028312206","sequential-stimulus-presentation","201","286491","0.0-38.0-1.6","SS1613142741605","trial","","40","800","1029.000000283122","images/stimuli/spore_stims/simple_01_A_c.gif","images/stimuli/spore_stims/simple_03_A_c.gif","","","","","10","simple_dissimilar","images/stimuli/spore_stims/simple_03_A_c.gif","left","","","","",""
"","null","html-keyboard-response","202","287388","0.0-38.0-0.7","SS1613142741605","","","null","","","","","<p><img src= images/blank.png width =""200"" height = ""200"" style = ""float:right""></p><p><img src=images/blank.png width =""800"" height = ""200""></p>","","","","","","","","","","","",""
"","83.00000010058284","sequential-stimulus-presentation","203","288283","0.0-38.0-1.7","SS1613142741605","trial","","40","800","883.0000001005828","images/stimuli/spore_stims/simple_01_A_c.gif","images/stimuli/spore_stims/simple_03_A_c.gif","","","","","10","simple_dissimilar","images/stimuli/spore_stims/simple_03_A_c.gif","left","","","","",""
"","23.000000044703484","html-keyboard-response","204","288329","0.0-39.0","SS1613142741605","pref_question","","49","","","","","<video width ='960' height = '540' style='padding-top:8%' autoplay muted><source src='images/stimuli/wall_pref.mp4' type='video/mp4'></video>","1","left","25%","10","","","","","","","",""
"","44.999999925494194","sequential-stimulus-presentation","205","289186","0.0-40.0","SS1613142741605","pref_reveal","","40","800","844.9999999254942","null","null","","","","","10","","","","background","","","",""
"","null","html-keyboard-response","206","290128","0.0-41.0-0.0","SS1613142741605","","","null","","","","","<p><img src= images/blank.png width =""200"" height = ""200"" style = ""float:right""></p><p><img src=images/blank.png width =""800"" height = ""200""></p>","","","","","","","","","","","",""
"","143.99999985471368","sequential-stimulus-presentation","207","291081","0.0-41.0-1.0","SS1613142741605","trial","","40","800","943.9999998547137","images/stimuli/spore_stims/simple_16_B_b.gif","images/stimuli/spore_stims/simple_16_A_b.gif","","","","","11","simple_similar","images/stimuli/spore_stims/simple_16_A_b.gif","right","","","","",""
"","null","html-keyboard-response","208","291918","0.0-41.0-0.1","SS1613142741605","","","null","","","","","<p><img src= images/blank.png width =""200"" height = ""200"" style = ""float:right""></p><p><img src=images/blank.png width =""800"" height = ""200""></p>","","","","","","","","","","","",""
"","387.9999998025596","sequential-stimulus-presentation","209","293111","0.0-41.0-1.1","SS1613142741605","trial","","40","800","1187.9999998025596","images/stimuli/spore_stims/simple_16_B_b.gif","images/stimuli/spore_stims/simple_16_A_b.gif","","","","","11","simple_similar","images/stimuli/spore_stims/simple_16_A_b.gif","right","","","","",""
"","null","html-keyboard-response","210","294342","0.0-41.0-0.2","SS1613142741605","","","null","","","","","<p><img src= images/blank.png width =""200"" height = ""200"" style = ""float:right""></p><p><img src=images/blank.png width =""800"" height = ""200""></p>","","","","","","","","","","","",""
"","185.00000005587935","sequential-stimulus-presentation","211","295338","0.0-41.0-1.2","SS1613142741605","trial","","40","800","985.0000000558794","images/stimuli/spore_stims/simple_16_B_b.gif","images/stimuli/spore_stims/simple_16_A_b.gif","","","","","11","simple_similar","images/stimuli/spore_stims/simple_16_A_b.gif","right","","","","",""
"","null","html-keyboard-response","212","296632","0.0-41.0-0.3","SS1613142741605","","","null","","","","","<p><img src= images/blank.png width =""200"" height = ""200"" style = ""float:right""></p><p><img src=images/blank.png width =""800"" height = ""200""></p>","","","","","","","","","","","",""
"","222.00000006705523","sequential-stimulus-presentation","213","297672","0.0-41.0-1.3","SS1613142741605","trial","","40","800","1022.0000000670552","images/stimuli/spore_stims/simple_16_B_b.gif","images/stimuli/spore_stims/simple_16_A_b.gif","","","","","11","simple_similar","images/stimuli/spore_stims/simple_16_B_b.gif","left","","","","",""
"","null","html-keyboard-response","214","298565","0.0-41.0-0.4","SS1613142741605","","","null","","","","","<p><img src= images/blank.png width =""200"" height = ""200"" style = ""float:right""></p><p><img src=images/blank.png width =""800"" height = ""200""></p>","","","","","","","","","","","",""
"","305.99999986588955","sequential-stimulus-presentation","215","299689","0.0-41.0-1.4","SS1613142741605","trial","","40","800","1105.9999998658895","images/stimuli/spore_stims/simple_16_B_b.gif","images/stimuli/spore_stims/simple_16_A_b.gif","","","","","11","simple_similar","images/stimuli/spore_stims/simple_16_A_b.gif","right","","","","",""
"","null","html-keyboard-response","216","300964","0.0-41.0-0.5","SS1613142741605","","","null","","","","","<p><img src= images/blank.png width =""200"" height = ""200"" style = ""float:right""></p><p><img src=images/blank.png width =""800"" height = ""200""></p>","","","","","","","","","","","",""
"","125","sequential-stimulus-presentation","217","301903","0.0-41.0-1.5","SS1613142741605","trial","","40","800","925","images/stimuli/spore_stims/simple_16_B_b.gif","images/stimuli/spore_stims/simple_16_A_b.gif","","","","","11","simple_similar","images/stimuli/spore_stims/simple_16_A_b.gif","right","","","","",""
"","null","html-keyboard-response","218","303089","0.0-41.0-0.6","SS1613142741605","","","null","","","","","<p><img src= images/blank.png width =""200"" height = ""200"" style = ""float:right""></p><p><img src=images/blank.png width =""800"" height = ""200""></p>","","","","","","","","","","","",""
"","266.9999999925494","sequential-stimulus-presentation","219","304169","0.0-41.0-1.6","SS1613142741605","trial","","40","800","1066.9999999925494","images/stimuli/spore_stims/simple_16_B_b.gif","images/stimuli/spore_stims/simple_16_A_b.gif","","","","","11","simple_similar","images/stimuli/spore_stims/simple_16_A_b.gif","right","","","","",""
"","null","html-keyboard-response","220","305023","0.0-41.0-0.7","SS1613142741605","","","null","","","","","<p><img src= images/blank.png width =""200"" height = ""200"" style = ""float:right""></p><p><img src=images/blank.png width =""800"" height = ""200""></p>","","","","","","","","","","","",""
"","607.0000003091991","sequential-stimulus-presentation","221","306477","0.0-41.0-1.7","SS1613142741605","trial","","40","800","1407.000000309199","images/stimuli/spore_stims/simple_16_B_b.gif","images/stimuli/spore_stims/simple_16_A_b.gif","","","","","11","simple_similar","images/stimuli/spore_stims/simple_16_A_b.gif","right","","","","",""
"","40.99999973550439","html-keyboard-response","222","306528","0.0-42.0","SS1613142741605","pref_question","","50","","","","","<video width ='960' height = '540' style='padding-top:8%' autoplay muted><source src='images/stimuli/wall_pref.mp4' type='video/mp4'></video>","2","middle","45%","11","","","","","","","",""
"","889.9999996647239","sequential-stimulus-presentation","223","308228","0.0-43.0","SS1613142741605","pref_reveal","","40","800","1689.9999996647239","null","null","","","","","11","","","","novel","","","",""
"","null","html-keyboard-response","224","309415","0.0-44.0-0.0","SS1613142741605","","","null","","","","","<p><img src= images/blank.png width =""200"" height = ""200"" style = ""float:right""></p><p><img src=images/blank.png width =""800"" height = ""200""></p>","","","","","","","","","","","",""
"","555.9999998658895","sequential-stimulus-presentation","225","310785","0.0-44.0-1.0","SS1613142741605","trial","","40","800","1355.9999998658895","images/stimuli/spore_stims/simple_14_A_b.gif","images/stimuli/spore_stims/simple_14_B_b.gif","","","","","12","simple_similar","images/stimuli/spore_stims/simple_14_B_b.gif","left","","","","",""
"","null","html-keyboard-response","226","311653","0.0-44.0-0.1","SS1613142741605","","","null","","","","","<p><img src= images/blank.png width =""200"" height = ""200"" style = ""float:right""></p><p><img src=images/blank.png width =""800"" height = ""200""></p>","","","","","","","","","","","",""
"","269.00000032037497","sequential-stimulus-presentation","227","312735","0.0-44.0-1.1","SS1613142741605","trial","","40","800","1069.000000320375","images/stimuli/spore_stims/simple_14_A_b.gif","images/stimuli/spore_stims/simple_14_B_b.gif","","","","","12","simple_similar","images/stimuli/spore_stims/simple_14_B_b.gif","left","","","","",""
"","null","html-keyboard-response","228","313937","0.0-44.0-0.2","SS1613142741605","","","null","","","","","<p><img src= images/blank.png width =""200"" height = ""200"" style = ""float:right""></p><p><img src=images/blank.png width =""800"" height = ""200""></p>","","","","","","","","","","","",""
"","936.9999999180436","sequential-stimulus-presentation","229","315700","0.0-44.0-1.2","SS1613142741605","trial","","40","800","1736.9999999180436","images/stimuli/spore_stims/simple_14_A_b.gif","images/stimuli/spore_stims/simple_14_B_b.gif","","","","","12","simple_similar","images/stimuli/spore_stims/simple_14_B_b.gif","left","","","","",""
"","null","html-keyboard-response","230","316942","0.0-44.0-0.3","SS1613142741605","","","null","","","","","<p><img src= images/blank.png width =""200"" height = ""200"" style = ""float:right""></p><p><img src=images/blank.png width =""800"" height = ""200""></p>","","","","","","","","","","","",""
"","302.00000014156103","sequential-stimulus-presentation","231","318090","0.0-44.0-1.3","SS1613142741605","trial","","40","800","1102.000000141561","images/stimuli/spore_stims/simple_14_A_b.gif","images/stimuli/spore_stims/simple_14_B_b.gif","","","","","12","simple_similar","images/stimuli/spore_stims/simple_14_B_b.gif","left","","","","",""
"","null","html-keyboard-response","232","319192","0.0-44.0-0.4","SS1613142741605","","","null","","","","","<p><img src= images/blank.png width =""200"" height = ""200"" style = ""float:right""></p><p><img src=images/blank.png width =""800"" height = ""200""></p>","","","","","","","","","","","",""
"","232.0000003091991","sequential-stimulus-presentation","233","320232","0.0-44.0-1.4","SS1613142741605","trial","","40","800","1032.000000309199","images/stimuli/spore_stims/simple_14_A_b.gif","images/stimuli/spore_stims/simple_14_B_b.gif","","","","","12","simple_similar","images/stimuli/spore_stims/simple_14_B_b.gif","left","","","","",""
"","null","html-keyboard-response","234","321490","0.0-44.0-0.5","SS1613142741605","","","null","","","","","<p><img src= images/blank.png width =""200"" height = ""200"" style = ""float:right""></p><p><img src=images/blank.png width =""800"" height = ""200""></p>","","","","","","","","","","","",""
"","342.9999998770654","sequential-stimulus-presentation","235","322640","0.0-44.0-1.5","SS1613142741605","trial","","40","800","1142.9999998770654","images/stimuli/spore_stims/simple_14_A_b.gif","images/stimuli/spore_stims/simple_14_B_b.gif","","","","","12","simple_similar","images/stimuli/spore_stims/simple_14_A_b.gif","middle","","","","",""
"","null","html-keyboard-response","236","323732","0.0-44.0-0.6","SS1613142741605","","","null","","","","","<p><img src= images/blank.png width =""200"" height = ""200"" style = ""float:right""></p><p><img src=images/blank.png width =""800"" height = ""200""></p>","","","","","","","","","","","",""
"","157.00000012293458","sequential-stimulus-presentation","237","324705","0.0-44.0-1.6","SS1613142741605","trial","","40","800","957.0000001229346","images/stimuli/spore_stims/simple_14_A_b.gif","images/stimuli/spore_stims/simple_14_B_b.gif","","","","","12","simple_similar","images/stimuli/spore_stims/simple_14_B_b.gif","left","","","","",""
"","null","html-keyboard-response","238","325705","0.0-44.0-0.7","SS1613142741605","","","null","","","","","<p><img src= images/blank.png width =""200"" height = ""200"" style = ""float:right""></p><p><img src=images/blank.png width =""800"" height = ""200""></p>","","","","","","","","","","","",""
"","185.00000005587935","sequential-stimulus-presentation","239","326735","0.0-44.0-1.7","SS1613142741605","trial","","40","800","985.0000000558794","images/stimuli/spore_stims/simple_14_A_b.gif","images/stimuli/spore_stims/simple_14_B_b.gif","","","","","12","simple_similar","images/stimuli/spore_stims/simple_14_B_b.gif","left","","","","",""
"","108.00000000745058","html-keyboard-response","240","326859","0.0-45.0","SS1613142741605","pref_question","","49","","","","","<video width ='960' height = '540' style='padding-top:8%' autoplay muted><source src='images/stimuli/wall_pref.mp4' type='video/mp4'></video>","1","left","25%","12","","","","","","","",""
"","1117.0000000856817","sequential-stimulus-presentation","241","328791","0.0-46.0","SS1613142741605","pref_reveal","","40","800","1917.0000000856817","null","null","","","","","12","","","","background","","","",""
"","null","html-keyboard-response","242","329663","0.0-47.0-0.0","SS1613142741605","","","null","","","","","<p><img src= images/blank.png width =""200"" height = ""200"" style = ""float:right""></p><p><img src=images/blank.png width =""800"" height = ""200""></p>","","","","","","","","","","","",""
"","424.000000115484","sequential-stimulus-presentation","243","330905","0.0-47.0-1.0","SS1613142741605","trial","","40","800","1224.000000115484","images/stimuli/spore_stims/simple_18_B_a.gif","images/stimuli/spore_stims/simple_17_A_c.gif","","","","","13","simple_dissimilar","images/stimuli/spore_stims/simple_17_A_c.gif","left","","","","",""
"","null","html-keyboard-response","244","331784","0.0-47.0-0.1","SS1613142741605","","","null","","","","","<p><img src= images/blank.png width =""200"" height = ""200"" style = ""float:right""></p><p><img src=images/blank.png width =""800"" height = ""200""></p>","","","","","","","","","","","",""
"","291.99999989941716","sequential-stimulus-presentation","245","332906","0.0-47.0-1.1","SS1613142741605","trial","","40","800","1091.9999998994172","images/stimuli/spore_stims/simple_18_B_a.gif","images/stimuli/spore_stims/simple_17_A_c.gif","","","","","13","simple_dissimilar","images/stimuli/spore_stims/simple_17_A_c.gif","left","","","","",""
"","null","html-keyboard-response","246","333786","0.0-47.0-0.2","SS1613142741605","","","null","","","","","<p><img src= images/blank.png width =""200"" height = ""200"" style = ""float:right""></p><p><img src=images/blank.png width =""800"" height = ""200""></p>","","","","","","","","","","","",""
"","46.99999978765845","sequential-stimulus-presentation","247","334645","0.0-47.0-1.2","SS1613142741605","trial","","40","800","846.9999997876585","images/stimuli/spore_stims/simple_18_B_a.gif","images/stimuli/spore_stims/simple_17_A_c.gif","","","","","13","simple_dissimilar","images/stimuli/spore_stims/simple_17_A_c.gif","left","","","","",""
"","null","html-keyboard-response","248","335919","0.0-47.0-0.3","SS1613142741605","","","null","","","","","<p><img src= images/blank.png width =""200"" height = ""200"" style = ""float:right""></p><p><img src=images/blank.png width =""800"" height = ""200""></p>","","","","","","","","","","","",""
"","58.000000193715096","sequential-stimulus-presentation","249","336810","0.0-47.0-1.3","SS1613142741605","trial","","40","800","858.0000001937151","images/stimuli/spore_stims/simple_18_B_a.gif","images/stimuli/spore_stims/simple_17_A_c.gif","","","","","13","simple_dissimilar","images/stimuli/spore_stims/simple_17_A_c.gif","left","","","","",""
"","null","html-keyboard-response","250","337729","0.0-47.0-0.4","SS1613142741605","","","null","","","","","<p><img src= images/blank.png width =""200"" height = ""200"" style = ""float:right""></p><p><img src=images/blank.png width =""800"" height = ""200""></p>","","","","","","","","","","","",""
"","927.000000141561","sequential-stimulus-presentation","251","339471","0.0-47.0-1.4","SS1613142741605","trial","","40","800","1727.000000141561","images/stimuli/spore_stims/simple_18_B_a.gif","images/stimuli/spore_stims/simple_17_A_c.gif","","","","","13","simple_dissimilar","images/stimuli/spore_stims/simple_17_A_c.gif","left","","","","",""
"","null","html-keyboard-response","252","340354","0.0-47.0-0.5","SS1613142741605","","","null","","","","","<p><img src= images/blank.png width =""200"" height = ""200"" style = ""float:right""></p><p><img src=images/blank.png width =""800"" height = ""200""></p>","","","","","","","","","","","",""
"","339.9999998509884","sequential-stimulus-presentation","253","341507","0.0-47.0-1.5","SS1613142741605","trial","","40","800","1139.9999998509884","images/stimuli/spore_stims/simple_18_B_a.gif","images/stimuli/spore_stims/simple_17_A_c.gif","","","","","13","simple_dissimilar","images/stimuli/spore_stims/simple_17_A_c.gif","left","","","","",""
"","null","html-keyboard-response","254","342657","0.0-47.0-0.6","SS1613142741605","","","null","","","","","<p><img src= images/blank.png width =""200"" height = ""200"" style = ""float:right""></p><p><img src=images/blank.png width =""800"" height = ""200""></p>","","","","","","","","","","","",""
"","341.00000001490116","sequential-stimulus-presentation","255","343847","0.0-47.0-1.6","SS1613142741605","trial","","40","800","1141.0000000149012","images/stimuli/spore_stims/simple_18_B_a.gif","images/stimuli/spore_stims/simple_17_A_c.gif","","","","","13","simple_dissimilar","images/stimuli/spore_stims/simple_18_B_a.gif","middle","","","","",""
"","null","html-keyboard-response","256","344890","0.0-47.0-0.7","SS1613142741605","","","null","","","","","<p><img src= images/blank.png width =""200"" height = ""200"" style = ""float:right""></p><p><img src=images/blank.png width =""800"" height = ""200""></p>","","","","","","","","","","","",""
"","19.000000320374966","sequential-stimulus-presentation","257","345734","0.0-47.0-1.7","SS1613142741605","trial","","40","800","819.000000320375","images/stimuli/spore_stims/simple_18_B_a.gif","images/stimuli/spore_stims/simple_17_A_c.gif","","","","","13","simple_dissimilar","images/stimuli/spore_stims/simple_17_A_c.gif","left","","","","",""
"","384.0000000782311","html-keyboard-response","258","346138","0.0-48.0","SS1613142741605","pref_question","","49","","","","","<video width ='960' height = '540' style='padding-top:8%' autoplay muted><source src='images/stimuli/wall_pref.mp4' type='video/mp4'></video>","1","left","25%","13","","","","","","","",""
"","76.99999958276749","sequential-stimulus-presentation","259","347081","0.0-49.0","SS1613142741605","pref_reveal","","40","800","876.9999995827675","null","null","","","","","13","","","","background","","","",""
"","null","html-keyboard-response","260","348109","0.0-50.0-0.0","SS1613142741605","","","null","","","","","<p><img src= images/blank.png width =""200"" height = ""200"" style = ""float:right""></p><p><img src=images/blank.png width =""800"" height = ""200""></p>","","","","","","","","","","","",""
"","160.9999998472631","sequential-stimulus-presentation","261","349085","0.0-50.0-1.0","SS1613142741605","trial","","40","800","960.9999998472631","images/stimuli/spore_stims/complex_20_A_b.gif","images/stimuli/spore_stims/complex_10_B_b.gif","","","","","14","complex_dissimilar","images/stimuli/spore_stims/complex_10_B_b.gif","middle","","","","",""
"","null","html-keyboard-response","262","349907","0.0-50.0-0.1","SS1613142741605","","","null","","","","","<p><img src= images/blank.png width =""200"" height = ""200"" style = ""float:right""></p><p><img src=images/blank.png width =""800"" height = ""200""></p>","","","","","","","","","","","",""
"","422.9999999515712","sequential-stimulus-presentation","263","351144","0.0-50.0-1.1","SS1613142741605","trial","","40","800","1222.9999999515712","images/stimuli/spore_stims/complex_20_A_b.gif","images/stimuli/spore_stims/complex_10_B_b.gif","","","","","14","complex_dissimilar","images/stimuli/spore_stims/complex_10_B_b.gif","middle","","","","",""
"","null","html-keyboard-response","264","351982","0.0-50.0-0.2","SS1613142741605","","","null","","","","","<p><img src= images/blank.png width =""200"" height = ""200"" style = ""float:right""></p><p><img src=images/blank.png width =""800"" height = ""200""></p>","","","","","","","","","","","",""
"","310.00000005587935","sequential-stimulus-presentation","265","353113","0.0-50.0-1.2","SS1613142741605","trial","","40","800","1110.0000000558794","images/stimuli/spore_stims/complex_20_A_b.gif","images/stimuli/spore_stims/complex_10_B_b.gif","","","","","14","complex_dissimilar","images/stimuli/spore_stims/complex_10_B_b.gif","middle","","","","",""
"","null","html-keyboard-response","266","354369","0.0-50.0-0.3","SS1613142741605","","","null","","","","","<p><img src= images/blank.png width =""200"" height = ""200"" style = ""float:right""></p><p><img src=images/blank.png width =""800"" height = ""200""></p>","","","","","","","","","","","",""
"","358.0000000074506","sequential-stimulus-presentation","267","355568","0.0-50.0-1.3","SS1613142741605","trial","","40","800","1158.0000000074506","images/stimuli/spore_stims/complex_20_A_b.gif","images/stimuli/spore_stims/complex_10_B_b.gif","","","","","14","complex_dissimilar","images/stimuli/spore_stims/complex_10_B_b.gif","middle","","","","",""
"","null","html-keyboard-response","268","356739","0.0-50.0-0.4","SS1613142741605","","","null","","","","","<p><img src= images/blank.png width =""200"" height = ""200"" style = ""float:right""></p><p><img src=images/blank.png width =""800"" height = ""200""></p>","","","","","","","","","","","",""
"","918.9999997615814","sequential-stimulus-presentation","269","358472","0.0-50.0-1.4","SS1613142741605","trial","","40","800","1718.9999997615814","images/stimuli/spore_stims/complex_20_A_b.gif","images/stimuli/spore_stims/complex_10_B_b.gif","","","","","14","complex_dissimilar","images/stimuli/spore_stims/complex_10_B_b.gif","middle","","","","",""
"","null","html-keyboard-response","270","359707","0.0-50.0-0.5","SS1613142741605","","","null","","","","","<p><img src= images/blank.png width =""200"" height = ""200"" style = ""float:right""></p><p><img src=images/blank.png width =""800"" height = ""200""></p>","","","","","","","","","","","",""
"","43.000000063329935","sequential-stimulus-presentation","271","360568","0.0-50.0-1.5","SS1613142741605","trial","","40","800","843.0000000633299","images/stimuli/spore_stims/complex_20_A_b.gif","images/stimuli/spore_stims/complex_10_B_b.gif","","","","","14","complex_dissimilar","images/stimuli/spore_stims/complex_10_B_b.gif","middle","","","","",""
"","null","html-keyboard-response","272","361649","0.0-50.0-0.6","SS1613142741605","","","null","","","","","<p><img src= images/blank.png width =""200"" height = ""200"" style = ""float:right""></p><p><img src=images/blank.png width =""800"" height = ""200""></p>","","","","","","","","","","","",""
"","260.99999994039536","sequential-stimulus-presentation","273","362734","0.0-50.0-1.6","SS1613142741605","trial","","40","800","1060.9999999403954","images/stimuli/spore_stims/complex_20_A_b.gif","images/stimuli/spore_stims/complex_10_B_b.gif","","","","","14","complex_dissimilar","images/stimuli/spore_stims/complex_20_A_b.gif","left","","","","",""
"","null","html-keyboard-response","274","364032","0.0-50.0-0.7","SS1613142741605","","","null","","","","","<p><img src= images/blank.png width =""200"" height = ""200"" style = ""float:right""></p><p><img src=images/blank.png width =""800"" height = ""200""></p>","","","","","","","","","","","",""
"","111.9999997317791","sequential-stimulus-presentation","275","364957","0.0-50.0-1.7","SS1613142741605","trial","","40","800","911.9999997317791","images/stimuli/spore_stims/complex_20_A_b.gif","images/stimuli/spore_stims/complex_10_B_b.gif","","","","","14","complex_dissimilar","images/stimuli/spore_stims/complex_10_B_b.gif","middle","","","","",""
"","171.00000008940697","html-keyboard-response","276","365135","0.0-51.0","SS1613142741605","pref_question","","49","","","","","<video width ='960' height = '540' style='padding-top:8%' autoplay muted><source src='images/stimuli/wall_pref.mp4' type='video/mp4'></video>","1","left","25%","14","","","","","","","",""
"","292.00000036507845","sequential-stimulus-presentation","277","366238","0.0-52.0","SS1613142741605","pref_reveal","","40","800","1092.0000003650784","null","null","","","","","14","","","","deviant","","","",""
"","null","html-keyboard-response","278","367372","0.0-53.0-0.0","SS1613142741605","","","null","","","","","<p><img src= images/blank.png width =""200"" height = ""200"" style = ""float:right""></p><p><img src=images/blank.png width =""800"" height = ""200""></p>","","","","","","","","","","","",""
"","30.999999959021807","sequential-stimulus-presentation","279","368235","0.0-53.0-1.0","SS1613142741605","trial","","40","800","830.9999999590218","images/stimuli/spore_stims/complex_17_A_d.gif","images/stimuli/spore_stims/complex_17_B_d.gif","","","","","15","complex_similar","images/stimuli/spore_stims/complex_17_B_d.gif","left","","","","",""
"","null","html-keyboard-response","280","369295","0.0-53.0-0.1","SS1613142741605","","","null","","","","","<p><img src= images/blank.png width =""200"" height = ""200"" style = ""float:right""></p><p><img src=images/blank.png width =""800"" height = ""200""></p>","","","","","","","","","","","",""
"","407.99999982118607","sequential-stimulus-presentation","281","370513","0.0-53.0-1.1","SS1613142741605","trial","","40","800","1207.999999821186","images/stimuli/spore_stims/complex_17_A_d.gif","images/stimuli/spore_stims/complex_17_B_d.gif","","","","","15","complex_similar","images/stimuli/spore_stims/complex_17_B_d.gif","left","","","","",""
"","null","html-keyboard-response","282","371391","0.0-53.0-0.2","SS1613142741605","","","null","","","","","<p><img src= images/blank.png width =""200"" height = ""200"" style = ""float:right""></p><p><img src=images/blank.png width =""800"" height = ""200""></p>","","","","","","","","","","","",""
"","121.00000027567148","sequential-stimulus-presentation","283","372319","0.0-53.0-1.2","SS1613142741605","trial","","40","800","921.0000002756715","images/stimuli/spore_stims/complex_17_A_d.gif","images/stimuli/spore_stims/complex_17_B_d.gif","","","","","15","complex_similar","images/stimuli/spore_stims/complex_17_B_d.gif","left","","","","",""
"","null","html-keyboard-response","284","373204","0.0-53.0-0.3","SS1613142741605","","","null","","","","","<p><img src= images/blank.png width =""200"" height = ""200"" style = ""float:right""></p><p><img src=images/blank.png width =""800"" height = ""200""></p>","","","","","","","","","","","",""
"","279.00000009685755","sequential-stimulus-presentation","285","374296","0.0-53.0-1.3","SS1613142741605","trial","","40","800","1079.0000000968575","images/stimuli/spore_stims/complex_17_A_d.gif","images/stimuli/spore_stims/complex_17_B_d.gif","","","","","15","complex_similar","images/stimuli/spore_stims/complex_17_B_d.gif","left","","","","",""
"","null","html-keyboard-response","286","375225","0.0-53.0-0.4","SS1613142741605","","","null","","","","","<p><img src= images/blank.png width =""200"" height = ""200"" style = ""float:right""></p><p><img src=images/blank.png width =""800"" height = ""200""></p>","","","","","","","","","","","",""
"","327.0000000484288","sequential-stimulus-presentation","287","376365","0.0-53.0-1.4","SS1613142741605","trial","","40","800","1127.0000000484288","images/stimuli/spore_stims/complex_17_A_d.gif","images/stimuli/spore_stims/complex_17_B_d.gif","","","","","15","complex_similar","images/stimuli/spore_stims/complex_17_B_d.gif","left","","","","",""
"","null","html-keyboard-response","288","377245","0.0-53.0-0.5","SS1613142741605","","","null","","","","","<p><img src= images/blank.png width =""200"" height = ""200"" style = ""float:right""></p><p><img src=images/blank.png width =""800"" height = ""200""></p>","","","","","","","","","","","",""
"","174.000000115484","sequential-stimulus-presentation","289","378231","0.0-53.0-1.5","SS1613142741605","trial","","40","800","974.000000115484","images/stimuli/spore_stims/complex_17_A_d.gif","images/stimuli/spore_stims/complex_17_B_d.gif","","","","","15","complex_similar","images/stimuli/spore_stims/complex_17_A_d.gif","middle","","","","",""
"","null","html-keyboard-response","290","379111","0.0-53.0-0.6","SS1613142741605","","","null","","","","","<p><img src= images/blank.png width =""200"" height = ""200"" style = ""float:right""></p><p><img src=images/blank.png width =""800"" height = ""200""></p>","","","","","","","","","","","",""
"","208.00000010058284","sequential-stimulus-presentation","291","380130","0.0-53.0-1.6","SS1613142741605","trial","","40","800","1008.0000001005828","images/stimuli/spore_stims/complex_17_A_d.gif","images/stimuli/spore_stims/complex_17_B_d.gif","","","","","15","complex_similar","images/stimuli/spore_stims/complex_17_B_d.gif","left","","","","",""
"","null","html-keyboard-response","292","381048","0.0-53.0-0.7","SS1613142741605","","","null","","","","","<p><img src= images/blank.png width =""200"" height = ""200"" style = ""float:right""></p><p><img src=images/blank.png width =""800"" height = ""200""></p>","","","","","","","","","","","",""
"","395.00000001862645","sequential-stimulus-presentation","293","382252","0.0-53.0-1.7","SS1613142741605","trial","","40","800","1195.0000000186265","images/stimuli/spore_stims/complex_17_A_d.gif","images/stimuli/spore_stims/complex_17_B_d.gif","","","","","15","complex_similar","images/stimuli/spore_stims/complex_17_B_d.gif","left","","","","",""
"","44.999999925494194","html-keyboard-response","294","382320","0.0-54.0","SS1613142741605","pref_question","","50","","","","","<video width ='960' height = '540' style='padding-top:8%' autoplay muted><source src='images/stimuli/wall_pref.mp4' type='video/mp4'></video>","2","middle","45%","15","","","","","","","",""
"","134.0000000782311","sequential-stimulus-presentation","295","383271","0.0-55.0","SS1613142741605","pref_reveal","","40","800","934.0000000782311","null","null","","","","","15","","","","deviant","","","",""
"","null","html-keyboard-response","296","384278","0.0-56.0-0.0","SS1613142741605","","","null","","","","","<p><img src= images/blank.png width =""200"" height = ""200"" style = ""float:right""></p><p><img src=images/blank.png width =""800"" height = ""200""></p>","","","","","","","","","","","",""
"","188.0000000819564","sequential-stimulus-presentation","297","385276","0.0-56.0-1.0","SS1613142741605","trial","","40","800","988.0000000819564","images/stimuli/spore_stims/complex_13_A_d.gif","images/stimuli/spore_stims/complex_13_B_d.gif","","","","","16","complex_similar","images/stimuli/spore_stims/complex_13_B_d.gif","left","","","","",""
"","null","html-keyboard-response","298","386313","0.0-56.0-0.1","SS1613142741605","","","null","","","","","<p><img src= images/blank.png width =""200"" height = ""200"" style = ""float:right""></p><p><img src=images/blank.png width =""800"" height = ""200""></p>","","","","","","","","","","","",""
"","86.99999982491136","sequential-stimulus-presentation","299","387207","0.0-56.0-1.1","SS1613142741605","trial","","40","800","886.9999998249114","images/stimuli/spore_stims/complex_13_A_d.gif","images/stimuli/spore_stims/complex_13_B_d.gif","","","","","16","complex_similar","images/stimuli/spore_stims/complex_13_B_d.gif","left","","","","",""
"","null","html-keyboard-response","300","388313","0.0-56.0-0.2","SS1613142741605","","","null","","","","","<p><img src= images/blank.png width =""200"" height = ""200"" style = ""float:right""></p><p><img src=images/blank.png width =""800"" height = ""200""></p>","","","","","","","","","","","",""
"","437.9999996162951","sequential-stimulus-presentation","301","389622","0.0-56.0-1.2","SS1613142741605","trial","","40","800","1237.999999616295","images/stimuli/spore_stims/complex_13_A_d.gif","images/stimuli/spore_stims/complex_13_B_d.gif","","","","","16","complex_similar","images/stimuli/spore_stims/complex_13_B_d.gif","left","","","","",""
"","null","html-keyboard-response","302","390514","0.0-56.0-0.3","SS1613142741605","","","null","","","","","<p><img src= images/blank.png width =""200"" height = ""200"" style = ""float:right""></p><p><img src=images/blank.png width =""800"" height = ""200""></p>","","","","","","","","","","","",""
"","85.00000042840838","sequential-stimulus-presentation","303","391417","0.0-56.0-1.3","SS1613142741605","trial","","40","800","885.0000004284084","images/stimuli/spore_stims/complex_13_A_d.gif","images/stimuli/spore_stims/complex_13_B_d.gif","","","","","16","complex_similar","images/stimuli/spore_stims/complex_13_A_d.gif","right","","","","",""
"","null","html-keyboard-response","304","392592","0.0-56.0-0.4","SS1613142741605","","","null","","","","","<p><img src= images/blank.png width =""200"" height = ""200"" style = ""float:right""></p><p><img src=images/blank.png width =""800"" height = ""200""></p>","","","","","","","","","","","",""
"","149.00000020861626","sequential-stimulus-presentation","305","393552","0.0-56.0-1.4","SS1613142741605","trial","","40","800","949.0000002086163","images/stimuli/spore_stims/complex_13_A_d.gif","images/stimuli/spore_stims/complex_13_B_d.gif","","","","","16","complex_similar","images/stimuli/spore_stims/complex_13_B_d.gif","left","","","","",""
"","null","html-keyboard-response","306","394535","0.0-56.0-0.5","SS1613142741605","","","null","","","","","<p><img src= images/blank.png width =""200"" height = ""200"" style = ""float:right""></p><p><img src=images/blank.png width =""800"" height = ""200""></p>","","","","","","","","","","","",""
"","393.0000001564622","sequential-stimulus-presentation","307","395740","0.0-56.0-1.5","SS1613142741605","trial","","40","800","1193.0000001564622","images/stimuli/spore_stims/complex_13_A_d.gif","images/stimuli/spore_stims/complex_13_B_d.gif","","","","","16","complex_similar","images/stimuli/spore_stims/complex_13_B_d.gif","left","","","","",""
"","null","html-keyboard-response","308","396918","0.0-56.0-0.6","SS1613142741605","","","null","","","","","<p><img src= images/blank.png width =""200"" height = ""200"" style = ""float:right""></p><p><img src=images/blank.png width =""800"" height = ""200""></p>","","","","","","","","","","","",""
"","94.0000000409782","sequential-stimulus-presentation","309","397827","0.0-56.0-1.6","SS1613142741605","trial","","40","800","894.0000000409782","images/stimuli/spore_stims/complex_13_A_d.gif","images/stimuli/spore_stims/complex_13_B_d.gif","","","","","16","complex_similar","images/stimuli/spore_stims/complex_13_B_d.gif","left","","","","",""
"","null","html-keyboard-response","310","398812","0.0-56.0-0.7","SS1613142741605","","","null","","","","","<p><img src= images/blank.png width =""200"" height = ""200"" style = ""float:right""></p><p><img src=images/blank.png width =""800"" height = ""200""></p>","","","","","","","","","","","",""
"","215.00000031664968","sequential-stimulus-presentation","311","399849","0.0-56.0-1.7","SS1613142741605","trial","","40","800","1015.0000003166497","images/stimuli/spore_stims/complex_13_A_d.gif","images/stimuli/spore_stims/complex_13_B_d.gif","","","","","16","complex_similar","images/stimuli/spore_stims/complex_13_B_d.gif","left","","","","",""
"","219.0000000409782","html-keyboard-response","312","400075","0.0-57.0","SS1613142741605","pref_question","","51","","","","","<video width ='960' height = '540' style='padding-top:8%' autoplay muted><source src='images/stimuli/wall_pref.mp4' type='video/mp4'></video>","3","right","66%","16","","","","","","","",""
