"view_history","rt","trial_type","trial_index","time_elapsed","internal_node_id","subject","stimulus_type","trial_stimulus","key_press","minimum_viewing_duration","trial_looking_time","block_deviant","block_background","stimulus","wall_pref","location","location_percent","block_number","block_type","stimulus_displayed","position_displayed","stim_type_selected","responses","question_order","stimulus_left","stimulus_right"
"[{""page_index"":0,""viewing_time"":28452.609999999368}]","28452.974999999242","instructions","0","28456","0.0-0.0","SS1613141489593","","","","","","","","","","","","","","","","","","","",""
"[{""page_index"":0,""viewing_time"":10990.534999999902},{""page_index"":1,""viewing_time"":26395.449999999983}]","37386.19000000016","instructions","1","67848","0.0-1.0","SS1613141489593","instructions","","","","","","","","","","","","","","","","","","",""
"","8282.414999999673","sequential-stimulus-presentation","2","76937","0.0-2.0","SS1613141489593","","","40","800","9082.414999999673","null","null","","","","","","","","","","","","",""
"","3346.9800000002433","sequential-stimulus-presentation","3","81087","0.0-3.0","SS1613141489593","","","40","800","4146.980000000243","null","null","","","","","","","","","","","","",""
"[{""page_index"":0,""viewing_time"":3989.4050000002608}]","3989.5999999998894","instructions","4","85078","0.0-4.0","SS1613141489593","instructions","","","","","","","","","","","","","","","","","","",""
"","13249.090000000258","html-keyboard-response","5","98330","0.0-5.0","SS1613141489593","instructions","","49","","","","","<video width ='960' height = '540' autoplay muted><source src='images/stimuli/wall_pref.mp4' type='video/mp4'></video>","1","left","25%","","","","","","","","",""
"","4692.960000000312","sequential-stimulus-presentation","6","103826","0.0-6.0","SS1613141489593","pref_reveal","","40","800","5492.960000000312","null","null","","","","","","","","","","","","",""
"[{""page_index"":0,""viewing_time"":12245.219999999797},{""page_index"":1,""viewing_time"":168456.16000000061},{""page_index"":2,""viewing_time"":1774.0349999994505},{""page_index"":3,""viewing_time"":1532.0449999999255}]","184007.74499999988","instructions","7","287841","0.0-7.0","SS1613141489593","instructions","","","","","","","","","","","","","","","","","","",""
"","null","html-keyboard-response","8","288653","0.0-8.0-0.0","SS1613141489593","","","null","","","","","<p><img src= images/blank.png width =""200"" height = ""200"" style = ""float:right""></p><p><img src=images/blank.png width =""800"" height = ""200""></p>","","","","","","","","","","","",""
"","4473.285000000033","sequential-stimulus-presentation","9","293934","0.0-8.0-1.0","SS1613141489593","trial","","40","800","5273.285000000033","images/stimuli/spore_stims/complex_09_B_d.gif","images/stimuli/spore_stims/complex_09_A_d.gif","","","","","0","complex_similar","images/stimuli/spore_stims/complex_09_A_d.gif","left","","","","",""
"","null","html-keyboard-response","10","294916","0.0-8.0-0.1","SS1613141489593","","","null","","","","","<p><img src= images/blank.png width =""200"" height = ""200"" style = ""float:right""></p><p><img src=images/blank.png width =""800"" height = ""200""></p>","","","","","","","","","","","",""
"","6579.424999999872","sequential-stimulus-presentation","11","302303","0.0-8.0-1.1","SS1613141489593","trial","","40","800","7379.424999999872","images/stimuli/spore_stims/complex_09_B_d.gif","images/stimuli/spore_stims/complex_09_A_d.gif","","","","","0","complex_similar","images/stimuli/spore_stims/complex_09_A_d.gif","left","","","","",""
"","null","html-keyboard-response","12","303578","0.0-8.0-0.2","SS1613141489593","","","null","","","","","<p><img src= images/blank.png width =""200"" height = ""200"" style = ""float:right""></p><p><img src=images/blank.png width =""800"" height = ""200""></p>","","","","","","","","","","","",""
"","6125.699999999604","sequential-stimulus-presentation","13","310511","0.0-8.0-1.2","SS1613141489593","trial","","40","800","6925.699999999604","images/stimuli/spore_stims/complex_09_B_d.gif","images/stimuli/spore_stims/complex_09_A_d.gif","","","","","0","complex_similar","images/stimuli/spore_stims/complex_09_A_d.gif","left","","","","",""
"","null","html-keyboard-response","14","311781","0.0-8.0-0.3","SS1613141489593","","","null","","","","","<p><img src= images/blank.png width =""200"" height = ""200"" style = ""float:right""></p><p><img src=images/blank.png width =""800"" height = ""200""></p>","","","","","","","","","","","",""
"","4100.0750000002445","sequential-stimulus-presentation","15","316695","0.0-8.0-1.3","SS1613141489593","trial","","40","800","4900.0750000002445","images/stimuli/spore_stims/complex_09_B_d.gif","images/stimuli/spore_stims/complex_09_A_d.gif","","","","","0","complex_similar","images/stimuli/spore_stims/complex_09_A_d.gif","left","","","","",""
"","null","html-keyboard-response","16","317715","0.0-8.0-0.4","SS1613141489593","","","null","","","","","<p><img src= images/blank.png width =""200"" height = ""200"" style = ""float:right""></p><p><img src=images/blank.png width =""800"" height = ""200""></p>","","","","","","","","","","","",""
"","2766.7500000006985","sequential-stimulus-presentation","17","321286","0.0-8.0-1.4","SS1613141489593","trial","","40","800","3566.7500000006985","images/stimuli/spore_stims/complex_09_B_d.gif","images/stimuli/spore_stims/complex_09_A_d.gif","","","","","0","complex_similar","images/stimuli/spore_stims/complex_09_A_d.gif","left","","","","",""
"","null","html-keyboard-response","18","322409","0.0-8.0-0.5","SS1613141489593","","","null","","","","","<p><img src= images/blank.png width =""200"" height = ""200"" style = ""float:right""></p><p><img src=images/blank.png width =""800"" height = ""200""></p>","","","","","","","","","","","",""
"","2176.1750000005122","sequential-stimulus-presentation","19","325394","0.0-8.0-1.5","SS1613141489593","trial","","40","800","2976.1750000005122","images/stimuli/spore_stims/complex_09_B_d.gif","images/stimuli/spore_stims/complex_09_A_d.gif","","","","","0","complex_similar","images/stimuli/spore_stims/complex_09_A_d.gif","left","","","","",""
"","null","html-keyboard-response","20","326624","0.0-8.0-0.6","SS1613141489593","","","null","","","","","<p><img src= images/blank.png width =""200"" height = ""200"" style = ""float:right""></p><p><img src=images/blank.png width =""800"" height = ""200""></p>","","","","","","","","","","","",""
"","4823.824999999488","sequential-stimulus-presentation","21","332256","0.0-8.0-1.6","SS1613141489593","trial","","40","800","5623.824999999488","images/stimuli/spore_stims/complex_09_B_d.gif","images/stimuli/spore_stims/complex_09_A_d.gif","","","","","0","complex_similar","images/stimuli/spore_stims/complex_09_B_d.gif","middle","","","","",""
"","null","html-keyboard-response","22","333537","0.0-8.0-0.7","SS1613141489593","","","null","","","","","<p><img src= images/blank.png width =""200"" height = ""200"" style = ""float:right""></p><p><img src=images/blank.png width =""800"" height = ""200""></p>","","","","","","","","","","","",""
"","5193.705000000598","sequential-stimulus-presentation","23","339536","0.0-8.0-1.7","SS1613141489593","trial","","40","800","5993.705000000598","images/stimuli/spore_stims/complex_09_B_d.gif","images/stimuli/spore_stims/complex_09_A_d.gif","","","","","0","complex_similar","images/stimuli/spore_stims/complex_09_A_d.gif","left","","","","",""
"","2413.0299999996787","html-keyboard-response","24","341951","0.0-9.0","SS1613141489593","pref_question","","51","","","","","<video width ='960' height = '540' style='padding-top:8%' autoplay muted><source src='images/stimuli/wall_pref.mp4' type='video/mp4'></video>","3","right","66%","0","","","","","","","",""
"","4276.41500000027","sequential-stimulus-presentation","25","347033","0.0-10.0","SS1613141489593","pref_reveal","","40","800","5076.41500000027","null","null","","","","","0","","","","novel","","","",""
"","null","html-keyboard-response","26","347981","0.0-11.0-0.0","SS1613141489593","","","null","","","","","<p><img src= images/blank.png width =""200"" height = ""200"" style = ""float:right""></p><p><img src=images/blank.png width =""800"" height = ""200""></p>","","","","","","","","","","","",""
"","3837.1600000000326","sequential-stimulus-presentation","27","352623","0.0-11.0-1.0","SS1613141489593","trial","","40","800","4637.160000000033","images/stimuli/spore_stims/simple_15_B_a.gif","images/stimuli/spore_stims/simple_15_A_a.gif","","","","","1","simple_similar","images/stimuli/spore_stims/simple_15_A_a.gif","right","","","","",""
"","null","html-keyboard-response","28","353675","0.0-11.0-0.1","SS1613141489593","","","null","","","","","<p><img src= images/blank.png width =""200"" height = ""200"" style = ""float:right""></p><p><img src=images/blank.png width =""800"" height = ""200""></p>","","","","","","","","","","","",""
"","2260.835000000079","sequential-stimulus-presentation","29","356744","0.0-11.0-1.1","SS1613141489593","trial","","40","800","3060.835000000079","images/stimuli/spore_stims/simple_15_B_a.gif","images/stimuli/spore_stims/simple_15_A_a.gif","","","","","1","simple_similar","images/stimuli/spore_stims/simple_15_A_a.gif","right","","","","",""
"","null","html-keyboard-response","30","357647","0.0-11.0-0.2","SS1613141489593","","","null","","","","","<p><img src= images/blank.png width =""200"" height = ""200"" style = ""float:right""></p><p><img src=images/blank.png width =""800"" height = ""200""></p>","","","","","","","","","","","",""
"","2603.7649999998393","sequential-stimulus-presentation","31","361056","0.0-11.0-1.2","SS1613141489593","trial","","40","800","3403.7649999998393","images/stimuli/spore_stims/simple_15_B_a.gif","images/stimuli/spore_stims/simple_15_A_a.gif","","","","","1","simple_similar","images/stimuli/spore_stims/simple_15_A_a.gif","right","","","","",""
"","null","html-keyboard-response","32","361948","0.0-11.0-0.3","SS1613141489593","","","null","","","","","<p><img src= images/blank.png width =""200"" height = ""200"" style = ""float:right""></p><p><img src=images/blank.png width =""800"" height = ""200""></p>","","","","","","","","","","","",""
"","2551.8499999998603","sequential-stimulus-presentation","33","365305","0.0-11.0-1.3","SS1613141489593","trial","","40","800","3351.8499999998603","images/stimuli/spore_stims/simple_15_B_a.gif","images/stimuli/spore_stims/simple_15_A_a.gif","","","","","1","simple_similar","images/stimuli/spore_stims/simple_15_A_a.gif","right","","","","",""
"","null","html-keyboard-response","34","366349","0.0-11.0-0.4","SS1613141489593","","","null","","","","","<p><img src= images/blank.png width =""200"" height = ""200"" style = ""float:right""></p><p><img src=images/blank.png width =""800"" height = ""200""></p>","","","","","","","","","","","",""
"","1931.900000000489","sequential-stimulus-presentation","35","369087","0.0-11.0-1.4","SS1613141489593","trial","","40","800","2731.900000000489","images/stimuli/spore_stims/simple_15_B_a.gif","images/stimuli/spore_stims/simple_15_A_a.gif","","","","","1","simple_similar","images/stimuli/spore_stims/simple_15_A_a.gif","right","","","","",""
"","null","html-keyboard-response","36","370105","0.0-11.0-0.5","SS1613141489593","","","null","","","","","<p><img src= images/blank.png width =""200"" height = ""200"" style = ""float:right""></p><p><img src=images/blank.png width =""800"" height = ""200""></p>","","","","","","","","","","","",""
"","1554.795000000042","sequential-stimulus-presentation","37","372467","0.0-11.0-1.5","SS1613141489593","trial","","40","800","2354.795000000042","images/stimuli/spore_stims/simple_15_B_a.gif","images/stimuli/spore_stims/simple_15_A_a.gif","","","","","1","simple_similar","images/stimuli/spore_stims/simple_15_A_a.gif","right","","","","",""
"","null","html-keyboard-response","38","373553","0.0-11.0-0.6","SS1613141489593","","","null","","","","","<p><img src= images/blank.png width =""200"" height = ""200"" style = ""float:right""></p><p><img src=images/blank.png width =""800"" height = ""200""></p>","","","","","","","","","","","",""
"","3306.2450000006356","sequential-stimulus-presentation","39","377666","0.0-11.0-1.6","SS1613141489593","trial","","40","800","4106.245000000636","images/stimuli/spore_stims/simple_15_B_a.gif","images/stimuli/spore_stims/simple_15_A_a.gif","","","","","1","simple_similar","images/stimuli/spore_stims/simple_15_B_a.gif","middle","","","","",""
"","null","html-keyboard-response","40","378789","0.0-11.0-0.7","SS1613141489593","","","null","","","","","<p><img src= images/blank.png width =""200"" height = ""200"" style = ""float:right""></p><p><img src=images/blank.png width =""800"" height = ""200""></p>","","","","","","","","","","","",""
"","2997.5249999997322","sequential-stimulus-presentation","41","382593","0.0-11.0-1.7","SS1613141489593","trial","","40","800","3797.5249999997322","images/stimuli/spore_stims/simple_15_B_a.gif","images/stimuli/spore_stims/simple_15_A_a.gif","","","","","1","simple_similar","images/stimuli/spore_stims/simple_15_A_a.gif","right","","","","",""
"","2141.3499999998603","html-keyboard-response","42","384737","0.0-12.0","SS1613141489593","pref_question","","49","","","","","<video width ='960' height = '540' style='padding-top:8%' autoplay muted><source src='images/stimuli/wall_pref.mp4' type='video/mp4'></video>","1","left","25%","1","","","","","","","",""
"","3675.8200000003562","sequential-stimulus-presentation","43","389217","0.0-13.0","SS1613141489593","pref_reveal","","40","800","4475.820000000356","null","null","","","","","1","","","","novel","","","",""
"","null","html-keyboard-response","44","390521","0.0-14.0-0.0","SS1613141489593","","","null","","","","","<p><img src= images/blank.png width =""200"" height = ""200"" style = ""float:right""></p><p><img src=images/blank.png width =""800"" height = ""200""></p>","","","","","","","","","","","",""
"","4146.749999999884","sequential-stimulus-presentation","45","395475","0.0-14.0-1.0","SS1613141489593","trial","","40","800","4946.749999999884","images/stimuli/spore_stims/complex_19_B_c.gif","images/stimuli/spore_stims/complex_19_A_c.gif","","","","","2","complex_similar","images/stimuli/spore_stims/complex_19_A_c.gif","middle","","","","",""
"","null","html-keyboard-response","46","396414","0.0-14.0-0.1","SS1613141489593","","","null","","","","","<p><img src= images/blank.png width =""200"" height = ""200"" style = ""float:right""></p><p><img src=images/blank.png width =""800"" height = ""200""></p>","","","","","","","","","","","",""
"","4238.590000000899","sequential-stimulus-presentation","47","401458","0.0-14.0-1.1","SS1613141489593","trial","","40","800","5038.590000000899","images/stimuli/spore_stims/complex_19_B_c.gif","images/stimuli/spore_stims/complex_19_A_c.gif","","","","","2","complex_similar","images/stimuli/spore_stims/complex_19_A_c.gif","middle","","","","",""
"","null","html-keyboard-response","48","402492","0.0-14.0-0.2","SS1613141489593","","","null","","","","","<p><img src= images/blank.png width =""200"" height = ""200"" style = ""float:right""></p><p><img src=images/blank.png width =""800"" height = ""200""></p>","","","","","","","","","","","",""
"","2111.6600000004983","sequential-stimulus-presentation","49","405409","0.0-14.0-1.2","SS1613141489593","trial","","40","800","2911.6600000004983","images/stimuli/spore_stims/complex_19_B_c.gif","images/stimuli/spore_stims/complex_19_A_c.gif","","","","","2","complex_similar","images/stimuli/spore_stims/complex_19_A_c.gif","middle","","","","",""
"","null","html-keyboard-response","50","406323","0.0-14.0-0.3","SS1613141489593","","","null","","","","","<p><img src= images/blank.png width =""200"" height = ""200"" style = ""float:right""></p><p><img src=images/blank.png width =""800"" height = ""200""></p>","","","","","","","","","","","",""
"","1496.3699999998207","sequential-stimulus-presentation","51","408626","0.0-14.0-1.3","SS1613141489593","trial","","40","800","2296.3699999998207","images/stimuli/spore_stims/complex_19_B_c.gif","images/stimuli/spore_stims/complex_19_A_c.gif","","","","","2","complex_similar","images/stimuli/spore_stims/complex_19_A_c.gif","middle","","","","",""
"","null","html-keyboard-response","52","409659","0.0-14.0-0.4","SS1613141489593","","","null","","","","","<p><img src= images/blank.png width =""200"" height = ""200"" style = ""float:right""></p><p><img src=images/blank.png width =""800"" height = ""200""></p>","","","","","","","","","","","",""
"","3535.6699999993434","sequential-stimulus-presentation","53","414002","0.0-14.0-1.4","SS1613141489593","trial","","40","800","4335.669999999343","images/stimuli/spore_stims/complex_19_B_c.gif","images/stimuli/spore_stims/complex_19_A_c.gif","","","","","2","complex_similar","images/stimuli/spore_stims/complex_19_B_c.gif","right","","","","",""
"","null","html-keyboard-response","54","414974","0.0-14.0-0.5","SS1613141489593","","","null","","","","","<p><img src= images/blank.png width =""200"" height = ""200"" style = ""float:right""></p><p><img src=images/blank.png width =""800"" height = ""200""></p>","","","","","","","","","","","",""
"","3780.620000000461","sequential-stimulus-presentation","55","419562","0.0-14.0-1.5","SS1613141489593","trial","","40","800","4580.620000000461","images/stimuli/spore_stims/complex_19_B_c.gif","images/stimuli/spore_stims/complex_19_A_c.gif","","","","","2","complex_similar","images/stimuli/spore_stims/complex_19_A_c.gif","middle","","","","",""
"","null","html-keyboard-response","56","420818","0.0-14.0-0.6","SS1613141489593","","","null","","","","","<p><img src= images/blank.png width =""200"" height = ""200"" style = ""float:right""></p><p><img src=images/blank.png width =""800"" height = ""200""></p>","","","","","","","","","","","",""
"","2924.7599999998347","sequential-stimulus-presentation","57","424550","0.0-14.0-1.6","SS1613141489593","trial","","40","800","3724.7599999998347","images/stimuli/spore_stims/complex_19_B_c.gif","images/stimuli/spore_stims/complex_19_A_c.gif","","","","","2","complex_similar","images/stimuli/spore_stims/complex_19_A_c.gif","middle","","","","",""
"","null","html-keyboard-response","58","425579","0.0-14.0-0.7","SS1613141489593","","","null","","","","","<p><img src= images/blank.png width =""200"" height = ""200"" style = ""float:right""></p><p><img src=images/blank.png width =""800"" height = ""200""></p>","","","","","","","","","","","",""
"","2329.3200000007055","sequential-stimulus-presentation","59","428715","0.0-14.0-1.7","SS1613141489593","trial","","40","800","3129.3200000007055","images/stimuli/spore_stims/complex_19_B_c.gif","images/stimuli/spore_stims/complex_19_A_c.gif","","","","","2","complex_similar","images/stimuli/spore_stims/complex_19_A_c.gif","middle","","","","",""
"","1957.424999999581","html-keyboard-response","60","430675","0.0-15.0","SS1613141489593","pref_question","","49","","","","","<video width ='960' height = '540' style='padding-top:8%' autoplay muted><source src='images/stimuli/wall_pref.mp4' type='video/mp4'></video>","1","left","25%","2","","","","","","","",""
"","6732.410000000498","sequential-stimulus-presentation","61","438211","0.0-16.0","SS1613141489593","pref_reveal","","40","800","7532.410000000498","null","null","","","","","2","","","","novel","","","",""
"","null","html-keyboard-response","62","439077","0.0-17.0-0.0","SS1613141489593","","","null","","","","","<p><img src= images/blank.png width =""200"" height = ""200"" style = ""float:right""></p><p><img src=images/blank.png width =""800"" height = ""200""></p>","","","","","","","","","","","",""
"","2774.6600000000326","sequential-stimulus-presentation","63","442660","0.0-17.0-1.0","SS1613141489593","trial","","40","800","3574.6600000000326","images/stimuli/spore_stims/simple_06_B_c.gif","images/stimuli/spore_stims/simple_01_A_b.gif","","","","","3","simple_dissimilar","images/stimuli/spore_stims/simple_01_A_b.gif","left","","","","",""
"","null","html-keyboard-response","64","443707","0.0-17.0-0.1","SS1613141489593","","","null","","","","","<p><img src= images/blank.png width =""200"" height = ""200"" style = ""float:right""></p><p><img src=images/blank.png width =""800"" height = ""200""></p>","","","","","","","","","","","",""
"","2663.799999999348","sequential-stimulus-presentation","65","447179","0.0-17.0-1.1","SS1613141489593","trial","","40","800","3463.799999999348","images/stimuli/spore_stims/simple_06_B_c.gif","images/stimuli/spore_stims/simple_01_A_b.gif","","","","","3","simple_dissimilar","images/stimuli/spore_stims/simple_01_A_b.gif","left","","","","",""
"","null","html-keyboard-response","66","448319","0.0-17.0-0.2","SS1613141489593","","","null","","","","","<p><img src= images/blank.png width =""200"" height = ""200"" style = ""float:right""></p><p><img src=images/blank.png width =""800"" height = ""200""></p>","","","","","","","","","","","",""
"","4425.764999999956","sequential-stimulus-presentation","67","453555","0.0-17.0-1.2","SS1613141489593","trial","","40","800","5225.764999999956","images/stimuli/spore_stims/simple_06_B_c.gif","images/stimuli/spore_stims/simple_01_A_b.gif","","","","","3","simple_dissimilar","images/stimuli/spore_stims/simple_06_B_c.gif","right","","","","",""
"","null","html-keyboard-response","68","454494","0.0-17.0-0.3","SS1613141489593","","","null","","","","","<p><img src= images/blank.png width =""200"" height = ""200"" style = ""float:right""></p><p><img src=images/blank.png width =""800"" height = ""200""></p>","","","","","","","","","","","",""
"","2510.435000000114","sequential-stimulus-presentation","69","457811","0.0-17.0-1.3","SS1613141489593","trial","","40","800","3310.435000000114","images/stimuli/spore_stims/simple_06_B_c.gif","images/stimuli/spore_stims/simple_01_A_b.gif","","","","","3","simple_dissimilar","images/stimuli/spore_stims/simple_01_A_b.gif","left","","","","",""
"","null","html-keyboard-response","70","458661","0.0-17.0-0.4","SS1613141489593","","","null","","","","","<p><img src= images/blank.png width =""200"" height = ""200"" style = ""float:right""></p><p><img src=images/blank.png width =""800"" height = ""200""></p>","","","","","","","","","","","",""
"","2077.3799999997136","sequential-stimulus-presentation","71","461547","0.0-17.0-1.4","SS1613141489593","trial","","40","800","2877.3799999997136","images/stimuli/spore_stims/simple_06_B_c.gif","images/stimuli/spore_stims/simple_01_A_b.gif","","","","","3","simple_dissimilar","images/stimuli/spore_stims/simple_01_A_b.gif","left","","","","",""
"","null","html-keyboard-response","72","462668","0.0-17.0-0.5","SS1613141489593","","","null","","","","","<p><img src= images/blank.png width =""200"" height = ""200"" style = ""float:right""></p><p><img src=images/blank.png width =""800"" height = ""200""></p>","","","","","","","","","","","",""
"","1243.489999999816","sequential-stimulus-presentation","73","464716","0.0-17.0-1.5","SS1613141489593","trial","","40","800","2043.489999999816","images/stimuli/spore_stims/simple_06_B_c.gif","images/stimuli/spore_stims/simple_01_A_b.gif","","","","","3","simple_dissimilar","images/stimuli/spore_stims/simple_01_A_b.gif","left","","","","",""
"","null","html-keyboard-response","74","465521","0.0-17.0-0.6","SS1613141489593","","","null","","","","","<p><img src= images/blank.png width =""200"" height = ""200"" style = ""float:right""></p><p><img src=images/blank.png width =""800"" height = ""200""></p>","","","","","","","","","","","",""
"","2518.155000000668","sequential-stimulus-presentation","75","468843","0.0-17.0-1.6","SS1613141489593","trial","","40","800","3318.155000000668","images/stimuli/spore_stims/simple_06_B_c.gif","images/stimuli/spore_stims/simple_01_A_b.gif","","","","","3","simple_dissimilar","images/stimuli/spore_stims/simple_01_A_b.gif","left","","","","",""
"","null","html-keyboard-response","76","469784","0.0-17.0-0.7","SS1613141489593","","","null","","","","","<p><img src= images/blank.png width =""200"" height = ""200"" style = ""float:right""></p><p><img src=images/blank.png width =""800"" height = ""200""></p>","","","","","","","","","","","",""
"","2109.7650000001304","sequential-stimulus-presentation","77","472698","0.0-17.0-1.7","SS1613141489593","trial","","40","800","2909.7650000001304","images/stimuli/spore_stims/simple_06_B_c.gif","images/stimuli/spore_stims/simple_01_A_b.gif","","","","","3","simple_dissimilar","images/stimuli/spore_stims/simple_01_A_b.gif","left","","","","",""
"","1965.325000000128","html-keyboard-response","78","474666","0.0-18.0","SS1613141489593","pref_question","","50","","","","","<video width ='960' height = '540' style='padding-top:8%' autoplay muted><source src='images/stimuli/wall_pref.mp4' type='video/mp4'></video>","2","middle","45%","3","","","","","","","",""
"","2868.9600000006612","sequential-stimulus-presentation","79","478342","0.0-19.0","SS1613141489593","pref_reveal","","40","800","3668.9600000006612","null","null","","","","","3","","","","novel","","","",""
"","null","html-keyboard-response","80","479162","0.0-20.0-0.0","SS1613141489593","","","null","","","","","<p><img src= images/blank.png width =""200"" height = ""200"" style = ""float:right""></p><p><img src=images/blank.png width =""800"" height = ""200""></p>","","","","","","","","","","","",""
"","1970.8350000000792","sequential-stimulus-presentation","81","481956","0.0-20.0-1.0","SS1613141489593","trial","","40","800","2770.835000000079","images/stimuli/spore_stims/complex_16_A_b.gif","images/stimuli/spore_stims/complex_05_B_c.gif","","","","","4","complex_dissimilar","images/stimuli/spore_stims/complex_05_B_c.gif","left","","","","",""
"","null","html-keyboard-response","82","482975","0.0-20.0-0.1","SS1613141489593","","","null","","","","","<p><img src= images/blank.png width =""200"" height = ""200"" style = ""float:right""></p><p><img src=images/blank.png width =""800"" height = ""200""></p>","","","","","","","","","","","",""
"","6114.814999999828","sequential-stimulus-presentation","83","489896","0.0-20.0-1.1","SS1613141489593","trial","","40","800","6914.814999999828","images/stimuli/spore_stims/complex_16_A_b.gif","images/stimuli/spore_stims/complex_05_B_c.gif","","","","","4","complex_dissimilar","images/stimuli/spore_stims/complex_05_B_c.gif","left","","","","",""
"","null","html-keyboard-response","84","490964","0.0-20.0-0.2","SS1613141489593","","","null","","","","","<p><img src= images/blank.png width =""200"" height = ""200"" style = ""float:right""></p><p><img src=images/blank.png width =""800"" height = ""200""></p>","","","","","","","","","","","",""
"","947.9249999995809","sequential-stimulus-presentation","85","492716","0.0-20.0-1.2","SS1613141489593","trial","","40","800","1747.924999999581","images/stimuli/spore_stims/complex_16_A_b.gif","images/stimuli/spore_stims/complex_05_B_c.gif","","","","","4","complex_dissimilar","images/stimuli/spore_stims/complex_05_B_c.gif","left","","","","",""
"","null","html-keyboard-response","86","493749","0.0-20.0-0.3","SS1613141489593","","","null","","","","","<p><img src= images/blank.png width =""200"" height = ""200"" style = ""float:right""></p><p><img src=images/blank.png width =""800"" height = ""200""></p>","","","","","","","","","","","",""
"","2530.6799999998184","sequential-stimulus-presentation","87","497084","0.0-20.0-1.3","SS1613141489593","trial","","40","800","3330.6799999998184","images/stimuli/spore_stims/complex_16_A_b.gif","images/stimuli/spore_stims/complex_05_B_c.gif","","","","","4","complex_dissimilar","images/stimuli/spore_stims/complex_05_B_c.gif","left","","","","",""
"","null","html-keyboard-response","88","498170","0.0-20.0-0.4","SS1613141489593","","","null","","","","","<p><img src= images/blank.png width =""200"" height = ""200"" style = ""float:right""></p><p><img src=images/blank.png width =""800"" height = ""200""></p>","","","","","","","","","","","",""
"","2065.4249999998137","sequential-stimulus-presentation","89","501045","0.0-20.0-1.4","SS1613141489593","trial","","40","800","2865.4249999998137","images/stimuli/spore_stims/complex_16_A_b.gif","images/stimuli/spore_stims/complex_05_B_c.gif","","","","","4","complex_dissimilar","images/stimuli/spore_stims/complex_05_B_c.gif","left","","","","",""
"","null","html-keyboard-response","90","502176","0.0-20.0-0.5","SS1613141489593","","","null","","","","","<p><img src= images/blank.png width =""200"" height = ""200"" style = ""float:right""></p><p><img src=images/blank.png width =""800"" height = ""200""></p>","","","","","","","","","","","",""
"","1748.6899999994785","sequential-stimulus-presentation","91","504731","0.0-20.0-1.5","SS1613141489593","trial","","40","800","2548.6899999994785","images/stimuli/spore_stims/complex_16_A_b.gif","images/stimuli/spore_stims/complex_05_B_c.gif","","","","","4","complex_dissimilar","images/stimuli/spore_stims/complex_05_B_c.gif","left","","","","",""
"","null","html-keyboard-response","92","505794","0.0-20.0-0.6","SS1613141489593","","","null","","","","","<p><img src= images/blank.png width =""200"" height = ""200"" style = ""float:right""></p><p><img src=images/blank.png width =""800"" height = ""200""></p>","","","","","","","","","","","",""
"","2490.739999999292","sequential-stimulus-presentation","93","509092","0.0-20.0-1.6","SS1613141489593","trial","","40","800","3290.739999999292","images/stimuli/spore_stims/complex_16_A_b.gif","images/stimuli/spore_stims/complex_05_B_c.gif","","","","","4","complex_dissimilar","images/stimuli/spore_stims/complex_16_A_b.gif","middle","","","","",""
"","null","html-keyboard-response","94","510082","0.0-20.0-0.7","SS1613141489593","","","null","","","","","<p><img src= images/blank.png width =""200"" height = ""200"" style = ""float:right""></p><p><img src=images/blank.png width =""800"" height = ""200""></p>","","","","","","","","","","","",""
"","1663.169999999809","sequential-stimulus-presentation","95","512549","0.0-20.0-1.7","SS1613141489593","trial","","40","800","2463.169999999809","images/stimuli/spore_stims/complex_16_A_b.gif","images/stimuli/spore_stims/complex_05_B_c.gif","","","","","4","complex_dissimilar","images/stimuli/spore_stims/complex_05_B_c.gif","left","","","","",""
"","1964.889999999199","html-keyboard-response","96","514516","0.0-21.0","SS1613141489593","pref_question","","51","","","","","<video width ='960' height = '540' style='padding-top:8%' autoplay muted><source src='images/stimuli/wall_pref.mp4' type='video/mp4'></video>","3","right","66%","4","","","","","","","",""
"","2738.9899999998743","sequential-stimulus-presentation","97","518060","0.0-22.0","SS1613141489593","pref_reveal","","40","800","3538.9899999998743","null","null","","","","","4","","","","novel","","","",""
"","null","html-keyboard-response","98","518943","0.0-23.0-0.0","SS1613141489593","","","null","","","","","<p><img src= images/blank.png width =""200"" height = ""200"" style = ""float:right""></p><p><img src=images/blank.png width =""800"" height = ""200""></p>","","","","","","","","","","","",""
"","1624.6049999999814","sequential-stimulus-presentation","99","521374","0.0-23.0-1.0","SS1613141489593","trial","","40","800","2424.6049999999814","images/stimuli/spore_stims/complex_15_B_c.gif","images/stimuli/spore_stims/complex_15_A_c.gif","","","","","5","complex_similar","images/stimuli/spore_stims/complex_15_A_c.gif","right","","","","",""
"","null","html-keyboard-response","100","522581","0.0-23.0-0.1","SS1613141489593","","","null","","","","","<p><img src= images/blank.png width =""200"" height = ""200"" style = ""float:right""></p><p><img src=images/blank.png width =""800"" height = ""200""></p>","","","","","","","","","","","",""
"","1067.5550000005169","sequential-stimulus-presentation","101","524455","0.0-23.0-1.1","SS1613141489593","trial","","40","800","1867.5550000005169","images/stimuli/spore_stims/complex_15_B_c.gif","images/stimuli/spore_stims/complex_15_A_c.gif","","","","","5","complex_similar","images/stimuli/spore_stims/complex_15_A_c.gif","right","","","","",""
"","null","html-keyboard-response","102","525671","0.0-23.0-0.2","SS1613141489593","","","null","","","","","<p><img src= images/blank.png width =""200"" height = ""200"" style = ""float:right""></p><p><img src=images/blank.png width =""800"" height = ""200""></p>","","","","","","","","","","","",""
"","1440.5250000000233","sequential-stimulus-presentation","103","527918","0.0-23.0-1.2","SS1613141489593","trial","","40","800","2240.5250000000233","images/stimuli/spore_stims/complex_15_B_c.gif","images/stimuli/spore_stims/complex_15_A_c.gif","","","","","5","complex_similar","images/stimuli/spore_stims/complex_15_A_c.gif","right","","","","",""
"","null","html-keyboard-response","104","528767","0.0-23.0-0.3","SS1613141489593","","","null","","","","","<p><img src= images/blank.png width =""200"" height = ""200"" style = ""float:right""></p><p><img src=images/blank.png width =""800"" height = ""200""></p>","","","","","","","","","","","",""
"","2471.9449999992503","sequential-stimulus-presentation","105","532044","0.0-23.0-1.3","SS1613141489593","trial","","40","800","3271.9449999992503","images/stimuli/spore_stims/complex_15_B_c.gif","images/stimuli/spore_stims/complex_15_A_c.gif","","","","","5","complex_similar","images/stimuli/spore_stims/complex_15_B_c.gif","left","","","","",""
"","null","html-keyboard-response","106","533023","0.0-23.0-0.4","SS1613141489593","","","null","","","","","<p><img src= images/blank.png width =""200"" height = ""200"" style = ""float:right""></p><p><img src=images/blank.png width =""800"" height = ""200""></p>","","","","","","","","","","","",""
"","997.3950000003679","sequential-stimulus-presentation","107","534830","0.0-23.0-1.4","SS1613141489593","trial","","40","800","1797.3950000003679","images/stimuli/spore_stims/complex_15_B_c.gif","images/stimuli/spore_stims/complex_15_A_c.gif","","","","","5","complex_similar","images/stimuli/spore_stims/complex_15_A_c.gif","right","","","","",""
"","null","html-keyboard-response","108","535806","0.0-23.0-0.5","SS1613141489593","","","null","","","","","<p><img src= images/blank.png width =""200"" height = ""200"" style = ""float:right""></p><p><img src=images/blank.png width =""800"" height = ""200""></p>","","","","","","","","","","","",""
"","1752.839999999269","sequential-stimulus-presentation","109","538366","0.0-23.0-1.5","SS1613141489593","trial","","40","800","2552.839999999269","images/stimuli/spore_stims/complex_15_B_c.gif","images/stimuli/spore_stims/complex_15_A_c.gif","","","","","5","complex_similar","images/stimuli/spore_stims/complex_15_A_c.gif","right","","","","",""
"","null","html-keyboard-response","110","539354","0.0-23.0-0.6","SS1613141489593","","","null","","","","","<p><img src= images/blank.png width =""200"" height = ""200"" style = ""float:right""></p><p><img src=images/blank.png width =""800"" height = ""200""></p>","","","","","","","","","","","",""
"","1899.5899999999674","sequential-stimulus-presentation","111","542061","0.0-23.0-1.6","SS1613141489593","trial","","40","800","2699.5899999999674","images/stimuli/spore_stims/complex_15_B_c.gif","images/stimuli/spore_stims/complex_15_A_c.gif","","","","","5","complex_similar","images/stimuli/spore_stims/complex_15_A_c.gif","right","","","","",""
"","null","html-keyboard-response","112","543145","0.0-23.0-0.7","SS1613141489593","","","null","","","","","<p><img src= images/blank.png width =""200"" height = ""200"" style = ""float:right""></p><p><img src=images/blank.png width =""800"" height = ""200""></p>","","","","","","","","","","","",""
"","2166.6649999998044","sequential-stimulus-presentation","113","546118","0.0-23.0-1.7","SS1613141489593","trial","","40","800","2966.6649999998044","images/stimuli/spore_stims/complex_15_B_c.gif","images/stimuli/spore_stims/complex_15_A_c.gif","","","","","5","complex_similar","images/stimuli/spore_stims/complex_15_A_c.gif","right","","","","",""
"","1940.1300000000047","html-keyboard-response","114","548061","0.0-24.0","SS1613141489593","pref_question","","50","","","","","<video width ='960' height = '540' style='padding-top:8%' autoplay muted><source src='images/stimuli/wall_pref.mp4' type='video/mp4'></video>","2","middle","45%","5","","","","","","","",""
"","4738.690000000177","sequential-stimulus-presentation","115","553606","0.0-25.0","SS1613141489593","pref_reveal","","40","800","5538.690000000177","null","null","","","","","5","","","","novel","","","",""
"","null","html-keyboard-response","116","554780","0.0-26.0-0.0","SS1613141489593","","","null","","","","","<p><img src= images/blank.png width =""200"" height = ""200"" style = ""float:right""></p><p><img src=images/blank.png width =""800"" height = ""200""></p>","","","","","","","","","","","",""
"","1778.7550000002375","sequential-stimulus-presentation","117","557366","0.0-26.0-1.0","SS1613141489593","trial","","40","800","2578.7550000002375","images/stimuli/spore_stims/simple_12_B_a.gif","images/stimuli/spore_stims/simple_10_A_c.gif","","","","","6","simple_dissimilar","images/stimuli/spore_stims/simple_10_A_c.gif","right","","","","",""
"","null","html-keyboard-response","118","558621","0.0-26.0-0.1","SS1613141489593","","","null","","","","","<p><img src= images/blank.png width =""200"" height = ""200"" style = ""float:right""></p><p><img src=images/blank.png width =""800"" height = ""200""></p>","","","","","","","","","","","",""
"","367.04999999981374","sequential-stimulus-presentation","119","559798","0.0-26.0-1.1","SS1613141489593","trial","","40","800","1167.0499999998137","images/stimuli/spore_stims/simple_12_B_a.gif","images/stimuli/spore_stims/simple_10_A_c.gif","","","","","6","simple_dissimilar","images/stimuli/spore_stims/simple_10_A_c.gif","right","","","","",""
"","null","html-keyboard-response","120","560850","0.0-26.0-0.2","SS1613141489593","","","null","","","","","<p><img src= images/blank.png width =""200"" height = ""200"" style = ""float:right""></p><p><img src=images/blank.png width =""800"" height = ""200""></p>","","","","","","","","","","","",""
"","1007.4949999997625","sequential-stimulus-presentation","121","562662","0.0-26.0-1.2","SS1613141489593","trial","","40","800","1807.4949999997625","images/stimuli/spore_stims/simple_12_B_a.gif","images/stimuli/spore_stims/simple_10_A_c.gif","","","","","6","simple_dissimilar","images/stimuli/spore_stims/simple_10_A_c.gif","right","","","","",""
"","null","html-keyboard-response","122","563751","0.0-26.0-0.3","SS1613141489593","","","null","","","","","<p><img src= images/blank.png width =""200"" height = ""200"" style = ""float:right""></p><p><img src=images/blank.png width =""800"" height = ""200""></p>","","","","","","","","","","","",""
"","2532.7600000000093","sequential-stimulus-presentation","123","567093","0.0-26.0-1.3","SS1613141489593","trial","","40","800","3332.7600000000093","images/stimuli/spore_stims/simple_12_B_a.gif","images/stimuli/spore_stims/simple_10_A_c.gif","","","","","6","simple_dissimilar","images/stimuli/spore_stims/simple_12_B_a.gif","middle","","","","",""
"","null","html-keyboard-response","124","568070","0.0-26.0-0.4","SS1613141489593","","","null","","","","","<p><img src= images/blank.png width =""200"" height = ""200"" style = ""float:right""></p><p><img src=images/blank.png width =""800"" height = ""200""></p>","","","","","","","","","","","",""
"","1699.3549999996321","sequential-stimulus-presentation","125","570575","0.0-26.0-1.4","SS1613141489593","trial","","40","800","2499.354999999632","images/stimuli/spore_stims/simple_12_B_a.gif","images/stimuli/spore_stims/simple_10_A_c.gif","","","","","6","simple_dissimilar","images/stimuli/spore_stims/simple_10_A_c.gif","right","","","","",""
"","null","html-keyboard-response","126","571730","0.0-26.0-0.5","SS1613141489593","","","null","","","","","<p><img src= images/blank.png width =""200"" height = ""200"" style = ""float:right""></p><p><img src=images/blank.png width =""800"" height = ""200""></p>","","","","","","","","","","","",""
"","1437.0349999999162","sequential-stimulus-presentation","127","573975","0.0-26.0-1.5","SS1613141489593","trial","","40","800","2237.034999999916","images/stimuli/spore_stims/simple_12_B_a.gif","images/stimuli/spore_stims/simple_10_A_c.gif","","","","","6","simple_dissimilar","images/stimuli/spore_stims/simple_10_A_c.gif","right","","","","",""
"","null","html-keyboard-response","128","574877","0.0-26.0-0.6","SS1613141489593","","","null","","","","","<p><img src= images/blank.png width =""200"" height = ""200"" style = ""float:right""></p><p><img src=images/blank.png width =""800"" height = ""200""></p>","","","","","","","","","","","",""
"","1786.849999999511","sequential-stimulus-presentation","129","577470","0.0-26.0-1.6","SS1613141489593","trial","","40","800","2586.849999999511","images/stimuli/spore_stims/simple_12_B_a.gif","images/stimuli/spore_stims/simple_10_A_c.gif","","","","","6","simple_dissimilar","images/stimuli/spore_stims/simple_10_A_c.gif","right","","","","",""
"","null","html-keyboard-response","130","578475","0.0-26.0-0.7","SS1613141489593","","","null","","","","","<p><img src= images/blank.png width =""200"" height = ""200"" style = ""float:right""></p><p><img src=images/blank.png width =""800"" height = ""200""></p>","","","","","","","","","","","",""
"","2317.1149999998743","sequential-stimulus-presentation","131","581599","0.0-26.0-1.7","SS1613141489593","trial","","40","800","3117.1149999998743","images/stimuli/spore_stims/simple_12_B_a.gif","images/stimuli/spore_stims/simple_10_A_c.gif","","","","","6","simple_dissimilar","images/stimuli/spore_stims/simple_10_A_c.gif","right","","","","",""
"","2043.5800000004238","html-keyboard-response","132","583645","0.0-27.0","SS1613141489593","pref_question","","49","","","","","<video width ='960' height = '540' style='padding-top:8%' autoplay muted><source src='images/stimuli/wall_pref.mp4' type='video/mp4'></video>","1","left","25%","6","","","","","","","",""
"","4440.504999999539","sequential-stimulus-presentation","133","588895","0.0-28.0","SS1613141489593","pref_reveal","","40","800","5240.504999999539","null","null","","","","","6","","","","novel","","","",""
"","null","html-keyboard-response","134","589836","0.0-29.0-0.0","SS1613141489593","","","null","","","","","<p><img src= images/blank.png width =""200"" height = ""200"" style = ""float:right""></p><p><img src=images/blank.png width =""800"" height = ""200""></p>","","","","","","","","","","","",""
"","2288.0899999999674","sequential-stimulus-presentation","135","592931","0.0-29.0-1.0","SS1613141489593","trial","","40","800","3088.0899999999674","images/stimuli/spore_stims/simple_14_A_b.gif","images/stimuli/spore_stims/simple_14_B_b.gif","","","","","7","simple_similar","images/stimuli/spore_stims/simple_14_B_b.gif","left","","","","",""
"","null","html-keyboard-response","136","593976","0.0-29.0-0.1","SS1613141489593","","","null","","","","","<p><img src= images/blank.png width =""200"" height = ""200"" style = ""float:right""></p><p><img src=images/blank.png width =""800"" height = ""200""></p>","","","","","","","","","","","",""
"","816.4399999995949","sequential-stimulus-presentation","137","595598","0.0-29.0-1.1","SS1613141489593","trial","","40","800","1616.4399999995949","images/stimuli/spore_stims/simple_14_A_b.gif","images/stimuli/spore_stims/simple_14_B_b.gif","","","","","7","simple_similar","images/stimuli/spore_stims/simple_14_B_b.gif","left","","","","",""
"","null","html-keyboard-response","138","596676","0.0-29.0-0.2","SS1613141489593","","","null","","","","","<p><img src= images/blank.png width =""200"" height = ""200"" style = ""float:right""></p><p><img src=images/blank.png width =""800"" height = ""200""></p>","","","","","","","","","","","",""
"","1021.354999999865","sequential-stimulus-presentation","139","598503","0.0-29.0-1.2","SS1613141489593","trial","","40","800","1821.354999999865","images/stimuli/spore_stims/simple_14_A_b.gif","images/stimuli/spore_stims/simple_14_B_b.gif","","","","","7","simple_similar","images/stimuli/spore_stims/simple_14_B_b.gif","left","","","","",""
"","null","html-keyboard-response","140","599648","0.0-29.0-0.3","SS1613141489593","","","null","","","","","<p><img src= images/blank.png width =""200"" height = ""200"" style = ""float:right""></p><p><img src=images/blank.png width =""800"" height = ""200""></p>","","","","","","","","","","","",""
"","815.8000000003958","sequential-stimulus-presentation","141","601271","0.0-29.0-1.3","SS1613141489593","trial","","40","800","1615.8000000003958","images/stimuli/spore_stims/simple_14_A_b.gif","images/stimuli/spore_stims/simple_14_B_b.gif","","","","","7","simple_similar","images/stimuli/spore_stims/simple_14_B_b.gif","left","","","","",""
"","null","html-keyboard-response","142","602416","0.0-29.0-0.4","SS1613141489593","","","null","","","","","<p><img src= images/blank.png width =""200"" height = ""200"" style = ""float:right""></p><p><img src=images/blank.png width =""800"" height = ""200""></p>","","","","","","","","","","","",""
"","889.1800000001676","sequential-stimulus-presentation","143","604111","0.0-29.0-1.4","SS1613141489593","trial","","40","800","1689.1800000001676","images/stimuli/spore_stims/simple_14_A_b.gif","images/stimuli/spore_stims/simple_14_B_b.gif","","","","","7","simple_similar","images/stimuli/spore_stims/simple_14_B_b.gif","left","","","","",""
"","null","html-keyboard-response","144","605213","0.0-29.0-0.5","SS1613141489593","","","null","","","","","<p><img src= images/blank.png width =""200"" height = ""200"" style = ""float:right""></p><p><img src=images/blank.png width =""800"" height = ""200""></p>","","","","","","","","","","","",""
"","1276.0549999993527","sequential-stimulus-presentation","145","607295","0.0-29.0-1.5","SS1613141489593","trial","","40","800","2076.0549999993527","images/stimuli/spore_stims/simple_14_A_b.gif","images/stimuli/spore_stims/simple_14_B_b.gif","","","","","7","simple_similar","images/stimuli/spore_stims/simple_14_B_b.gif","left","","","","",""
"","null","html-keyboard-response","146","608482","0.0-29.0-0.6","SS1613141489593","","","null","","","","","<p><img src= images/blank.png width =""200"" height = ""200"" style = ""float:right""></p><p><img src=images/blank.png width =""800"" height = ""200""></p>","","","","","","","","","","","",""
"","3015.1499999992084","sequential-stimulus-presentation","147","612304","0.0-29.0-1.6","SS1613141489593","trial","","40","800","3815.1499999992084","images/stimuli/spore_stims/simple_14_A_b.gif","images/stimuli/spore_stims/simple_14_B_b.gif","","","","","7","simple_similar","images/stimuli/spore_stims/simple_14_A_b.gif","right","","","","",""
"","null","html-keyboard-response","148","613349","0.0-29.0-0.7","SS1613141489593","","","null","","","","","<p><img src= images/blank.png width =""200"" height = ""200"" style = ""float:right""></p><p><img src=images/blank.png width =""800"" height = ""200""></p>","","","","","","","","","","","",""
"","2299.8600000001024","sequential-stimulus-presentation","149","616456","0.0-29.0-1.7","SS1613141489593","trial","","40","800","3099.8600000001024","images/stimuli/spore_stims/simple_14_A_b.gif","images/stimuli/spore_stims/simple_14_B_b.gif","","","","","7","simple_similar","images/stimuli/spore_stims/simple_14_B_b.gif","left","","","","",""
"","2146.8599999998696","html-keyboard-response","150","618607","0.0-30.0","SS1613141489593","pref_question","","51","","","","","<video width ='960' height = '540' style='padding-top:8%' autoplay muted><source src='images/stimuli/wall_pref.mp4' type='video/mp4'></video>","3","right","66%","7","","","","","","","",""
"","2439.6049999995157","sequential-stimulus-presentation","151","621855","0.0-31.0","SS1613141489593","pref_reveal","","40","800","3239.6049999995157","null","null","","","","","7","","","","deviant","","","",""
"","null","html-keyboard-response","152","622681","0.0-32.0-0.0","SS1613141489593","","","null","","","","","<p><img src= images/blank.png width =""200"" height = ""200"" style = ""float:right""></p><p><img src=images/blank.png width =""800"" height = ""200""></p>","","","","","","","","","","","",""
"","2031.1099999998696","sequential-stimulus-presentation","153","625520","0.0-32.0-1.0","SS1613141489593","trial","","40","800","2831.1099999998696","images/stimuli/spore_stims/complex_02_B_a.gif","images/stimuli/spore_stims/complex_08_A_d.gif","","","","","8","complex_dissimilar","images/stimuli/spore_stims/complex_08_A_d.gif","right","","","","",""
"","null","html-keyboard-response","154","626634","0.0-32.0-0.1","SS1613141489593","","","null","","","","","<p><img src= images/blank.png width =""200"" height = ""200"" style = ""float:right""></p><p><img src=images/blank.png width =""800"" height = ""200""></p>","","","","","","","","","","","",""
"","1823.155000000028","sequential-stimulus-presentation","155","629265","0.0-32.0-1.1","SS1613141489593","trial","","40","800","2623.155000000028","images/stimuli/spore_stims/complex_02_B_a.gif","images/stimuli/spore_stims/complex_08_A_d.gif","","","","","8","complex_dissimilar","images/stimuli/spore_stims/complex_08_A_d.gif","right","","","","",""
"","null","html-keyboard-response","156","630522","0.0-32.0-0.2","SS1613141489593","","","null","","","","","<p><img src= images/blank.png width =""200"" height = ""200"" style = ""float:right""></p><p><img src=images/blank.png width =""800"" height = ""200""></p>","","","","","","","","","","","",""
"","1292.2749999997905","sequential-stimulus-presentation","157","632623","0.0-32.0-1.2","SS1613141489593","trial","","40","800","2092.2749999997905","images/stimuli/spore_stims/complex_02_B_a.gif","images/stimuli/spore_stims/complex_08_A_d.gif","","","","","8","complex_dissimilar","images/stimuli/spore_stims/complex_08_A_d.gif","right","","","","",""
"","null","html-keyboard-response","158","633527","0.0-32.0-0.3","SS1613141489593","","","null","","","","","<p><img src= images/blank.png width =""200"" height = ""200"" style = ""float:right""></p><p><img src=images/blank.png width =""800"" height = ""200""></p>","","","","","","","","","","","",""
"","2498.854999999865","sequential-stimulus-presentation","159","636832","0.0-32.0-1.3","SS1613141489593","trial","","40","800","3298.854999999865","images/stimuli/spore_stims/complex_02_B_a.gif","images/stimuli/spore_stims/complex_08_A_d.gif","","","","","8","complex_dissimilar","images/stimuli/spore_stims/complex_08_A_d.gif","right","","","","",""
"","null","html-keyboard-response","160","638135","0.0-32.0-0.4","SS1613141489593","","","null","","","","","<p><img src= images/blank.png width =""200"" height = ""200"" style = ""float:right""></p><p><img src=images/blank.png width =""800"" height = ""200""></p>","","","","","","","","","","","",""
"","1043.6350000000093","sequential-stimulus-presentation","161","639984","0.0-32.0-1.4","SS1613141489593","trial","","40","800","1843.6350000000093","images/stimuli/spore_stims/complex_02_B_a.gif","images/stimuli/spore_stims/complex_08_A_d.gif","","","","","8","complex_dissimilar","images/stimuli/spore_stims/complex_08_A_d.gif","right","","","","",""
"","null","html-keyboard-response","162","641177","0.0-32.0-0.5","SS1613141489593","","","null","","","","","<p><img src= images/blank.png width =""200"" height = ""200"" style = ""float:right""></p><p><img src=images/blank.png width =""800"" height = ""200""></p>","","","","","","","","","","","",""
"","5558.105000000098","sequential-stimulus-presentation","163","647545","0.0-32.0-1.5","SS1613141489593","trial","","40","800","6358.105000000098","images/stimuli/spore_stims/complex_02_B_a.gif","images/stimuli/spore_stims/complex_08_A_d.gif","","","","","8","complex_dissimilar","images/stimuli/spore_stims/complex_08_A_d.gif","right","","","","",""
"","null","html-keyboard-response","164","648729","0.0-32.0-0.6","SS1613141489593","","","null","","","","","<p><img src= images/blank.png width =""200"" height = ""200"" style = ""float:right""></p><p><img src=images/blank.png width =""800"" height = ""200""></p>","","","","","","","","","","","",""
"","2708.5599999999395","sequential-stimulus-presentation","165","652249","0.0-32.0-1.6","SS1613141489593","trial","","40","800","3508.5599999999395","images/stimuli/spore_stims/complex_02_B_a.gif","images/stimuli/spore_stims/complex_08_A_d.gif","","","","","8","complex_dissimilar","images/stimuli/spore_stims/complex_08_A_d.gif","right","","","","",""
"","null","html-keyboard-response","166","653112","0.0-32.0-0.7","SS1613141489593","","","null","","","","","<p><img src= images/blank.png width =""200"" height = ""200"" style = ""float:right""></p><p><img src=images/blank.png width =""800"" height = ""200""></p>","","","","","","","","","","","",""
"","2062.2400000002235","sequential-stimulus-presentation","167","655984","0.0-32.0-1.7","SS1613141489593","trial","","40","800","2862.2400000002235","images/stimuli/spore_stims/complex_02_B_a.gif","images/stimuli/spore_stims/complex_08_A_d.gif","","","","","8","complex_dissimilar","images/stimuli/spore_stims/complex_02_B_a.gif","middle","","","","",""
"","2714.724999999744","html-keyboard-response","168","658704","0.0-33.0","SS1613141489593","pref_question","","50","","","","","<video width ='960' height = '540' style='padding-top:8%' autoplay muted><source src='images/stimuli/wall_pref.mp4' type='video/mp4'></video>","2","middle","45%","8","","","","","","","",""
"","4420.025000000256","sequential-stimulus-presentation","169","663930","0.0-34.0","SS1613141489593","pref_reveal","","40","800","5220.025000000256","null","null","","","","","8","","","","deviant","","","",""
"","null","html-keyboard-response","170","664972","0.0-35.0-0.0","SS1613141489593","","","null","","","","","<p><img src= images/blank.png width =""200"" height = ""200"" style = ""float:right""></p><p><img src=images/blank.png width =""800"" height = ""200""></p>","","","","","","","","","","","",""
"","3908.9249999996973","sequential-stimulus-presentation","171","669689","0.0-35.0-1.0","SS1613141489593","trial","","40","800","4708.924999999697","images/stimuli/spore_stims/complex_11_B_c.gif","images/stimuli/spore_stims/complex_06_B_b.gif","","","","","9","complex_dissimilar","images/stimuli/spore_stims/complex_06_B_b.gif","right","","","","",""
"","null","html-keyboard-response","172","670641","0.0-35.0-0.1","SS1613141489593","","","null","","","","","<p><img src= images/blank.png width =""200"" height = ""200"" style = ""float:right""></p><p><img src=images/blank.png width =""800"" height = ""200""></p>","","","","","","","","","","","",""
"","44479.62999999977","sequential-stimulus-presentation","173","715932","0.0-35.0-1.1","SS1613141489593","trial","","40","800","45279.62999999977","images/stimuli/spore_stims/complex_11_B_c.gif","images/stimuli/spore_stims/complex_06_B_b.gif","","","","","9","complex_dissimilar","images/stimuli/spore_stims/complex_06_B_b.gif","right","","","","",""
"","null","html-keyboard-response","174","716931","0.0-35.0-0.2","SS1613141489593","","","null","","","","","<p><img src= images/blank.png width =""200"" height = ""200"" style = ""float:right""></p><p><img src=images/blank.png width =""800"" height = ""200""></p>","","","","","","","","","","","",""
"","3262.4999999998836","sequential-stimulus-presentation","175","721003","0.0-35.0-1.2","SS1613141489593","trial","","40","800","4062.4999999998836","images/stimuli/spore_stims/complex_11_B_c.gif","images/stimuli/spore_stims/complex_06_B_b.gif","","","","","9","complex_dissimilar","images/stimuli/spore_stims/complex_11_B_c.gif","middle","","","","",""
"","null","html-keyboard-response","176","721829","0.0-35.0-0.3","SS1613141489593","","","null","","","","","<p><img src= images/blank.png width =""200"" height = ""200"" style = ""float:right""></p><p><img src=images/blank.png width =""800"" height = ""200""></p>","","","","","","","","","","","",""
"","1359.5650000006426","sequential-stimulus-presentation","177","723994","0.0-35.0-1.3","SS1613141489593","trial","","40","800","2159.5650000006426","images/stimuli/spore_stims/complex_11_B_c.gif","images/stimuli/spore_stims/complex_06_B_b.gif","","","","","9","complex_dissimilar","images/stimuli/spore_stims/complex_06_B_b.gif","right","","","","",""
"","null","html-keyboard-response","178","724897","0.0-35.0-0.4","SS1613141489593","","","null","","","","","<p><img src= images/blank.png width =""200"" height = ""200"" style = ""float:right""></p><p><img src=images/blank.png width =""800"" height = ""200""></p>","","","","","","","","","","","",""
"","1538.5999999998603","sequential-stimulus-presentation","179","727244","0.0-35.0-1.4","SS1613141489593","trial","","40","800","2338.5999999998603","images/stimuli/spore_stims/complex_11_B_c.gif","images/stimuli/spore_stims/complex_06_B_b.gif","","","","","9","complex_dissimilar","images/stimuli/spore_stims/complex_06_B_b.gif","right","","","","",""
"","null","html-keyboard-response","180","728368","0.0-35.0-0.5","SS1613141489593","","","null","","","","","<p><img src= images/blank.png width =""200"" height = ""200"" style = ""float:right""></p><p><img src=images/blank.png width =""800"" height = ""200""></p>","","","","","","","","","","","",""
"","959.2899999998044","sequential-stimulus-presentation","181","730138","0.0-35.0-1.5","SS1613141489593","trial","","40","800","1759.2899999998044","images/stimuli/spore_stims/complex_11_B_c.gif","images/stimuli/spore_stims/complex_06_B_b.gif","","","","","9","complex_dissimilar","images/stimuli/spore_stims/complex_06_B_b.gif","right","","","","",""
"","null","html-keyboard-response","182","731388","0.0-35.0-0.6","SS1613141489593","","","null","","","","","<p><img src= images/blank.png width =""200"" height = ""200"" style = ""float:right""></p><p><img src=images/blank.png width =""800"" height = ""200""></p>","","","","","","","","","","","",""
"","406.9149999995716","sequential-stimulus-presentation","183","732602","0.0-35.0-1.6","SS1613141489593","trial","","40","800","1206.9149999995716","images/stimuli/spore_stims/complex_11_B_c.gif","images/stimuli/spore_stims/complex_06_B_b.gif","","","","","9","complex_dissimilar","images/stimuli/spore_stims/complex_06_B_b.gif","right","","","","",""
"","null","html-keyboard-response","184","733586","0.0-35.0-0.7","SS1613141489593","","","null","","","","","<p><img src= images/blank.png width =""200"" height = ""200"" style = ""float:right""></p><p><img src=images/blank.png width =""800"" height = ""200""></p>","","","","","","","","","","","",""
"","208.35499999974854","sequential-stimulus-presentation","185","734611","0.0-35.0-1.7","SS1613141489593","trial","","40","800","1008.3549999997485","images/stimuli/spore_stims/complex_11_B_c.gif","images/stimuli/spore_stims/complex_06_B_b.gif","","","","","9","complex_dissimilar","images/stimuli/spore_stims/complex_06_B_b.gif","right","","","","",""
"","4476.480000000331","html-keyboard-response","186","739092","0.0-36.0","SS1613141489593","pref_question","","50","","","","","<video width ='960' height = '540' style='padding-top:8%' autoplay muted><source src='images/stimuli/wall_pref.mp4' type='video/mp4'></video>","2","middle","45%","9","","","","","","","",""
"","1644.9699999992736","sequential-stimulus-presentation","187","741548","0.0-37.0","SS1613141489593","pref_reveal","","40","800","2444.9699999992736","null","null","","","","","9","","","","deviant","","","",""
"","null","html-keyboard-response","188","742640","0.0-38.0-0.0","SS1613141489593","","","null","","","","","<p><img src= images/blank.png width =""200"" height = ""200"" style = ""float:right""></p><p><img src=images/blank.png width =""800"" height = ""200""></p>","","","","","","","","","","","",""
"","3171.679999999469","sequential-stimulus-presentation","189","746643","0.0-38.0-1.0","SS1613141489593","trial","","40","800","3971.679999999469","images/stimuli/spore_stims/complex_12_B_d.gif","images/stimuli/spore_stims/complex_12_A_d.gif","","","","","10","complex_similar","images/stimuli/spore_stims/complex_12_A_d.gif","middle","","","","",""
"","null","html-keyboard-response","190","747904","0.0-38.0-0.1","SS1613141489593","","","null","","","","","<p><img src= images/blank.png width =""200"" height = ""200"" style = ""float:right""></p><p><img src=images/blank.png width =""800"" height = ""200""></p>","","","","","","","","","","","",""
"","2819.7499999996508","sequential-stimulus-presentation","191","751531","0.0-38.0-1.1","SS1613141489593","trial","","40","800","3619.7499999996508","images/stimuli/spore_stims/complex_12_B_d.gif","images/stimuli/spore_stims/complex_12_A_d.gif","","","","","10","complex_similar","images/stimuli/spore_stims/complex_12_A_d.gif","middle","","","","",""
"","null","html-keyboard-response","192","752485","0.0-38.0-0.2","SS1613141489593","","","null","","","","","<p><img src= images/blank.png width =""200"" height = ""200"" style = ""float:right""></p><p><img src=images/blank.png width =""800"" height = ""200""></p>","","","","","","","","","","","",""
"","3093.679999999935","sequential-stimulus-presentation","193","756387","0.0-38.0-1.2","SS1613141489593","trial","","40","800","3893.679999999935","images/stimuli/spore_stims/complex_12_B_d.gif","images/stimuli/spore_stims/complex_12_A_d.gif","","","","","10","complex_similar","images/stimuli/spore_stims/complex_12_A_d.gif","middle","","","","",""
"","null","html-keyboard-response","194","757448","0.0-38.0-0.3","SS1613141489593","","","null","","","","","<p><img src= images/blank.png width =""200"" height = ""200"" style = ""float:right""></p><p><img src=images/blank.png width =""800"" height = ""200""></p>","","","","","","","","","","","",""
"","908.3699999999953","sequential-stimulus-presentation","195","759181","0.0-38.0-1.3","SS1613141489593","trial","","40","800","1708.3699999999953","images/stimuli/spore_stims/complex_12_B_d.gif","images/stimuli/spore_stims/complex_12_A_d.gif","","","","","10","complex_similar","images/stimuli/spore_stims/complex_12_A_d.gif","middle","","","","",""
"","null","html-keyboard-response","196","760037","0.0-38.0-0.4","SS1613141489593","","","null","","","","","<p><img src= images/blank.png width =""200"" height = ""200"" style = ""float:right""></p><p><img src=images/blank.png width =""800"" height = ""200""></p>","","","","","","","","","","","",""
"","912.5750000001863","sequential-stimulus-presentation","197","761756","0.0-38.0-1.4","SS1613141489593","trial","","40","800","1712.5750000001863","images/stimuli/spore_stims/complex_12_B_d.gif","images/stimuli/spore_stims/complex_12_A_d.gif","","","","","10","complex_similar","images/stimuli/spore_stims/complex_12_A_d.gif","middle","","","","",""
"","null","html-keyboard-response","198","762971","0.0-38.0-0.5","SS1613141489593","","","null","","","","","<p><img src= images/blank.png width =""200"" height = ""200"" style = ""float:right""></p><p><img src=images/blank.png width =""800"" height = ""200""></p>","","","","","","","","","","","",""
"","2116.6599999996834","sequential-stimulus-presentation","199","765892","0.0-38.0-1.5","SS1613141489593","trial","","40","800","2916.6599999996834","images/stimuli/spore_stims/complex_12_B_d.gif","images/stimuli/spore_stims/complex_12_A_d.gif","","","","","10","complex_similar","images/stimuli/spore_stims/complex_12_A_d.gif","middle","","","","",""
"","null","html-keyboard-response","200","766754","0.0-38.0-0.6","SS1613141489593","","","null","","","","","<p><img src= images/blank.png width =""200"" height = ""200"" style = ""float:right""></p><p><img src=images/blank.png width =""800"" height = ""200""></p>","","","","","","","","","","","",""
"","3379.305000000284","sequential-stimulus-presentation","201","770939","0.0-38.0-1.6","SS1613141489593","trial","","40","800","4179.305000000284","images/stimuli/spore_stims/complex_12_B_d.gif","images/stimuli/spore_stims/complex_12_A_d.gif","","","","","10","complex_similar","images/stimuli/spore_stims/complex_12_B_d.gif","right","","","","",""
"","null","html-keyboard-response","202","771772","0.0-38.0-0.7","SS1613141489593","","","null","","","","","<p><img src= images/blank.png width =""200"" height = ""200"" style = ""float:right""></p><p><img src=images/blank.png width =""800"" height = ""200""></p>","","","","","","","","","","","",""
"","4278.414999998873","sequential-stimulus-presentation","203","776861","0.0-38.0-1.7","SS1613141489593","trial","","40","800","5078.414999998873","images/stimuli/spore_stims/complex_12_B_d.gif","images/stimuli/spore_stims/complex_12_A_d.gif","","","","","10","complex_similar","images/stimuli/spore_stims/complex_12_A_d.gif","middle","","","","",""
"","1707.5450000010896","html-keyboard-response","204","778573","0.0-39.0","SS1613141489593","pref_question","","49","","","","","<video width ='960' height = '540' style='padding-top:8%' autoplay muted><source src='images/stimuli/wall_pref.mp4' type='video/mp4'></video>","1","left","25%","10","","","","","","","",""
"","2018.530000001192","sequential-stimulus-presentation","205","781404","0.0-40.0","SS1613141489593","pref_reveal","","40","800","2818.530000001192","null","null","","","","","10","","","","novel","","","",""
"","null","html-keyboard-response","206","782365","0.0-41.0-0.0","SS1613141489593","","","null","","","","","<p><img src= images/blank.png width =""200"" height = ""200"" style = ""float:right""></p><p><img src=images/blank.png width =""800"" height = ""200""></p>","","","","","","","","","","","",""
"","1953.9549999990268","sequential-stimulus-presentation","207","785126","0.0-41.0-1.0","SS1613141489593","trial","","40","800","2753.9549999990268","images/stimuli/spore_stims/complex_17_B_a.gif","images/stimuli/spore_stims/complex_10_B_b.gif","","","","","11","complex_dissimilar","images/stimuli/spore_stims/complex_10_B_b.gif","middle","","","","",""
"","null","html-keyboard-response","208","786224","0.0-41.0-0.1","SS1613141489593","","","null","","","","","<p><img src= images/blank.png width =""200"" height = ""200"" style = ""float:right""></p><p><img src=images/blank.png width =""800"" height = ""200""></p>","","","","","","","","","","","",""
"","425.1850000000559","sequential-stimulus-presentation","209","787462","0.0-41.0-1.1","SS1613141489593","trial","","40","800","1225.1850000000559","images/stimuli/spore_stims/complex_17_B_a.gif","images/stimuli/spore_stims/complex_10_B_b.gif","","","","","11","complex_dissimilar","images/stimuli/spore_stims/complex_10_B_b.gif","middle","","","","",""
"","null","html-keyboard-response","210","788618","0.0-41.0-0.2","SS1613141489593","","","null","","","","","<p><img src= images/blank.png width =""200"" height = ""200"" style = ""float:right""></p><p><img src=images/blank.png width =""800"" height = ""200""></p>","","","","","","","","","","","",""
"","1090.1199999989476","sequential-stimulus-presentation","211","790517","0.0-41.0-1.2","SS1613141489593","trial","","40","800","1890.1199999989476","images/stimuli/spore_stims/complex_17_B_a.gif","images/stimuli/spore_stims/complex_10_B_b.gif","","","","","11","complex_dissimilar","images/stimuli/spore_stims/complex_10_B_b.gif","middle","","","","",""
"","null","html-keyboard-response","212","791602","0.0-41.0-0.3","SS1613141489593","","","null","","","","","<p><img src= images/blank.png width =""200"" height = ""200"" style = ""float:right""></p><p><img src=images/blank.png width =""800"" height = ""200""></p>","","","","","","","","","","","",""
"","1206.2050000003073","sequential-stimulus-presentation","213","793615","0.0-41.0-1.3","SS1613141489593","trial","","40","800","2006.2050000003073","images/stimuli/spore_stims/complex_17_B_a.gif","images/stimuli/spore_stims/complex_10_B_b.gif","","","","","11","complex_dissimilar","images/stimuli/spore_stims/complex_10_B_b.gif","middle","","","","",""
"","null","html-keyboard-response","214","794706","0.0-41.0-0.4","SS1613141489593","","","null","","","","","<p><img src= images/blank.png width =""200"" height = ""200"" style = ""float:right""></p><p><img src=images/blank.png width =""800"" height = ""200""></p>","","","","","","","","","","","",""
"","1218.1000000000931","sequential-stimulus-presentation","215","796734","0.0-41.0-1.4","SS1613141489593","trial","","40","800","2018.1000000000931","images/stimuli/spore_stims/complex_17_B_a.gif","images/stimuli/spore_stims/complex_10_B_b.gif","","","","","11","complex_dissimilar","images/stimuli/spore_stims/complex_10_B_b.gif","middle","","","","",""
"","null","html-keyboard-response","216","797707","0.0-41.0-0.5","SS1613141489593","","","null","","","","","<p><img src= images/blank.png width =""200"" height = ""200"" style = ""float:right""></p><p><img src=images/blank.png width =""800"" height = ""200""></p>","","","","","","","","","","","",""
"","2132.014999999199","sequential-stimulus-presentation","217","800645","0.0-41.0-1.5","SS1613141489593","trial","","40","800","2932.014999999199","images/stimuli/spore_stims/complex_17_B_a.gif","images/stimuli/spore_stims/complex_10_B_b.gif","","","","","11","complex_dissimilar","images/stimuli/spore_stims/complex_17_B_a.gif","left","","","","",""
"","null","html-keyboard-response","218","801783","0.0-41.0-0.6","SS1613141489593","","","null","","","","","<p><img src= images/blank.png width =""200"" height = ""200"" style = ""float:right""></p><p><img src=images/blank.png width =""800"" height = ""200""></p>","","","","","","","","","","","",""
"","729.6550000009593","sequential-stimulus-presentation","219","803319","0.0-41.0-1.6","SS1613141489593","trial","","40","800","1529.6550000009593","images/stimuli/spore_stims/complex_17_B_a.gif","images/stimuli/spore_stims/complex_10_B_b.gif","","","","","11","complex_dissimilar","images/stimuli/spore_stims/complex_10_B_b.gif","middle","","","","",""
"","null","html-keyboard-response","220","804204","0.0-41.0-0.7","SS1613141489593","","","null","","","","","<p><img src= images/blank.png width =""200"" height = ""200"" style = ""float:right""></p><p><img src=images/blank.png width =""800"" height = ""200""></p>","","","","","","","","","","","",""
"","1950.5750000007683","sequential-stimulus-presentation","221","806965","0.0-41.0-1.7","SS1613141489593","trial","","40","800","2750.5750000007683","images/stimuli/spore_stims/complex_17_B_a.gif","images/stimuli/spore_stims/complex_10_B_b.gif","","","","","11","complex_dissimilar","images/stimuli/spore_stims/complex_10_B_b.gif","middle","","","","",""
"","2201.535000000149","html-keyboard-response","222","809174","0.0-42.0","SS1613141489593","pref_question","","51","","","","","<video width ='960' height = '540' style='padding-top:8%' autoplay muted><source src='images/stimuli/wall_pref.mp4' type='video/mp4'></video>","3","right","66%","11","","","","","","","",""
"","2690.7350000001024","sequential-stimulus-presentation","223","812671","0.0-43.0","SS1613141489593","pref_reveal","","40","800","3490.7350000001024","null","null","","","","","11","","","","novel","","","",""
"","null","html-keyboard-response","224","813529","0.0-44.0-0.0","SS1613141489593","","","null","","","","","<p><img src= images/blank.png width =""200"" height = ""200"" style = ""float:right""></p><p><img src=images/blank.png width =""800"" height = ""200""></p>","","","","","","","","","","","",""
"","1922.6949999992503","sequential-stimulus-presentation","225","816263","0.0-44.0-1.0","SS1613141489593","trial","","40","800","2722.6949999992503","images/stimuli/spore_stims/complex_18_A_a.gif","images/stimuli/spore_stims/complex_18_B_a.gif","","","","","12","complex_similar","images/stimuli/spore_stims/complex_18_B_a.gif","left","","","","",""
"","null","html-keyboard-response","226","817080","0.0-44.0-0.1","SS1613141489593","","","null","","","","","<p><img src= images/blank.png width =""200"" height = ""200"" style = ""float:right""></p><p><img src=images/blank.png width =""800"" height = ""200""></p>","","","","","","","","","","","",""
"","326.1500000007218","sequential-stimulus-presentation","227","818216","0.0-44.0-1.1","SS1613141489593","trial","","40","800","1126.1500000007218","images/stimuli/spore_stims/complex_18_A_a.gif","images/stimuli/spore_stims/complex_18_B_a.gif","","","","","12","complex_similar","images/stimuli/spore_stims/complex_18_B_a.gif","left","","","","",""
"","null","html-keyboard-response","228","819241","0.0-44.0-0.2","SS1613141489593","","","null","","","","","<p><img src= images/blank.png width =""200"" height = ""200"" style = ""float:right""></p><p><img src=images/blank.png width =""800"" height = ""200""></p>","","","","","","","","","","","",""
"","950.6750000000466","sequential-stimulus-presentation","229","820999","0.0-44.0-1.2","SS1613141489593","trial","","40","800","1750.6750000000466","images/stimuli/spore_stims/complex_18_A_a.gif","images/stimuli/spore_stims/complex_18_B_a.gif","","","","","12","complex_similar","images/stimuli/spore_stims/complex_18_B_a.gif","left","","","","",""
"","null","html-keyboard-response","230","822104","0.0-44.0-0.3","SS1613141489593","","","null","","","","","<p><img src= images/blank.png width =""200"" height = ""200"" style = ""float:right""></p><p><img src=images/blank.png width =""800"" height = ""200""></p>","","","","","","","","","","","",""
"","520.6249999991851","sequential-stimulus-presentation","231","823432","0.0-44.0-1.3","SS1613141489593","trial","","40","800","1320.624999999185","images/stimuli/spore_stims/complex_18_A_a.gif","images/stimuli/spore_stims/complex_18_B_a.gif","","","","","12","complex_similar","images/stimuli/spore_stims/complex_18_B_a.gif","left","","","","",""
"","null","html-keyboard-response","232","824401","0.0-44.0-0.4","SS1613141489593","","","null","","","","","<p><img src= images/blank.png width =""200"" height = ""200"" style = ""float:right""></p><p><img src=images/blank.png width =""800"" height = ""200""></p>","","","","","","","","","","","",""
"","827.4149999998044","sequential-stimulus-presentation","233","826040","0.0-44.0-1.4","SS1613141489593","trial","","40","800","1627.4149999998044","images/stimuli/spore_stims/complex_18_A_a.gif","images/stimuli/spore_stims/complex_18_B_a.gif","","","","","12","complex_similar","images/stimuli/spore_stims/complex_18_B_a.gif","left","","","","",""
"","null","html-keyboard-response","234","827037","0.0-44.0-0.5","SS1613141489593","","","null","","","","","<p><img src= images/blank.png width =""200"" height = ""200"" style = ""float:right""></p><p><img src=images/blank.png width =""800"" height = ""200""></p>","","","","","","","","","","","",""
"","1195.7199999997392","sequential-stimulus-presentation","235","829050","0.0-44.0-1.5","SS1613141489593","trial","","40","800","1995.7199999997392","images/stimuli/spore_stims/complex_18_A_a.gif","images/stimuli/spore_stims/complex_18_B_a.gif","","","","","12","complex_similar","images/stimuli/spore_stims/complex_18_A_a.gif","middle","","","","",""
"","null","html-keyboard-response","236","830245","0.0-44.0-0.6","SS1613141489593","","","null","","","","","<p><img src= images/blank.png width =""200"" height = ""200"" style = ""float:right""></p><p><img src=images/blank.png width =""800"" height = ""200""></p>","","","","","","","","","","","",""
"","378.6450000006007","sequential-stimulus-presentation","237","831432","0.0-44.0-1.6","SS1613141489593","trial","","40","800","1178.6450000006007","images/stimuli/spore_stims/complex_18_A_a.gif","images/stimuli/spore_stims/complex_18_B_a.gif","","","","","12","complex_similar","images/stimuli/spore_stims/complex_18_B_a.gif","left","","","","",""
"","null","html-keyboard-response","238","832350","0.0-44.0-0.7","SS1613141489593","","","null","","","","","<p><img src= images/blank.png width =""200"" height = ""200"" style = ""float:right""></p><p><img src=images/blank.png width =""800"" height = ""200""></p>","","","","","","","","","","","",""
"","746.1050000000978","sequential-stimulus-presentation","239","833904","0.0-44.0-1.7","SS1613141489593","trial","","40","800","1546.1050000000978","images/stimuli/spore_stims/complex_18_A_a.gif","images/stimuli/spore_stims/complex_18_B_a.gif","","","","","12","complex_similar","images/stimuli/spore_stims/complex_18_B_a.gif","left","","","","",""
"","2359.5249999997905","html-keyboard-response","240","836268","0.0-45.0","SS1613141489593","pref_question","","51","","","","","<video width ='960' height = '540' style='padding-top:8%' autoplay muted><source src='images/stimuli/wall_pref.mp4' type='video/mp4'></video>","3","right","66%","12","","","","","","","",""
"","2599.7649999990826","sequential-stimulus-presentation","241","839680","0.0-46.0","SS1613141489593","pref_reveal","","40","800","3399.7649999990826","null","null","","","","","12","","","","novel","","","",""
"","null","html-keyboard-response","242","840860","0.0-47.0-0.0","SS1613141489593","","","null","","","","","<p><img src= images/blank.png width =""200"" height = ""200"" style = ""float:right""></p><p><img src=images/blank.png width =""800"" height = ""200""></p>","","","","","","","","","","","",""
"","2297.024999999907","sequential-stimulus-presentation","243","843966","0.0-47.0-1.0","SS1613141489593","trial","","40","800","3097.024999999907","images/stimuli/spore_stims/complex_05_A_a.gif","images/stimuli/spore_stims/complex_14_B_c.gif","","","","","13","complex_dissimilar","images/stimuli/spore_stims/complex_14_B_c.gif","right","","","","",""
"","null","html-keyboard-response","244","845198","0.0-47.0-0.1","SS1613141489593","","","null","","","","","<p><img src= images/blank.png width =""200"" height = ""200"" style = ""float:right""></p><p><img src=images/blank.png width =""800"" height = ""200""></p>","","","","","","","","","","","",""
"","1636.034999999567","sequential-stimulus-presentation","245","847641","0.0-47.0-1.1","SS1613141489593","trial","","40","800","2436.034999999567","images/stimuli/spore_stims/complex_05_A_a.gif","images/stimuli/spore_stims/complex_14_B_c.gif","","","","","13","complex_dissimilar","images/stimuli/spore_stims/complex_14_B_c.gif","right","","","","",""
"","null","html-keyboard-response","246","848592","0.0-47.0-0.2","SS1613141489593","","","null","","","","","<p><img src= images/blank.png width =""200"" height = ""200"" style = ""float:right""></p><p><img src=images/blank.png width =""800"" height = ""200""></p>","","","","","","","","","","","",""
"","3419.8949999990873","sequential-stimulus-presentation","247","852825","0.0-47.0-1.2","SS1613141489593","trial","","40","800","4219.894999999087","images/stimuli/spore_stims/complex_05_A_a.gif","images/stimuli/spore_stims/complex_14_B_c.gif","","","","","13","complex_dissimilar","images/stimuli/spore_stims/complex_14_B_c.gif","right","","","","",""
"","null","html-keyboard-response","248","853890","0.0-47.0-0.3","SS1613141489593","","","null","","","","","<p><img src= images/blank.png width =""200"" height = ""200"" style = ""float:right""></p><p><img src=images/blank.png width =""800"" height = ""200""></p>","","","","","","","","","","","",""
"","588.9999999998836","sequential-stimulus-presentation","249","855290","0.0-47.0-1.3","SS1613141489593","trial","","40","800","1388.9999999998836","images/stimuli/spore_stims/complex_05_A_a.gif","images/stimuli/spore_stims/complex_14_B_c.gif","","","","","13","complex_dissimilar","images/stimuli/spore_stims/complex_05_A_a.gif","left","","","","",""
"","null","html-keyboard-response","250","856290","0.0-47.0-0.4","SS1613141489593","","","null","","","","","<p><img src= images/blank.png width =""200"" height = ""200"" style = ""float:right""></p><p><img src=images/blank.png width =""800"" height = ""200""></p>","","","","","","","","","","","",""
"","559.9500000006519","sequential-stimulus-presentation","251","857657","0.0-47.0-1.4","SS1613141489593","trial","","40","800","1359.950000000652","images/stimuli/spore_stims/complex_05_A_a.gif","images/stimuli/spore_stims/complex_14_B_c.gif","","","","","13","complex_dissimilar","images/stimuli/spore_stims/complex_14_B_c.gif","right","","","","",""
"","null","html-keyboard-response","252","858948","0.0-47.0-0.5","SS1613141489593","","","null","","","","","<p><img src= images/blank.png width =""200"" height = ""200"" style = ""float:right""></p><p><img src=images/blank.png width =""800"" height = ""200""></p>","","","","","","","","","","","",""
"","489.8149999988964","sequential-stimulus-presentation","253","860249","0.0-47.0-1.5","SS1613141489593","trial","","40","800","1289.8149999988964","images/stimuli/spore_stims/complex_05_A_a.gif","images/stimuli/spore_stims/complex_14_B_c.gif","","","","","13","complex_dissimilar","images/stimuli/spore_stims/complex_14_B_c.gif","right","","","","",""
"","null","html-keyboard-response","254","861256","0.0-47.0-0.6","SS1613141489593","","","null","","","","","<p><img src= images/blank.png width =""200"" height = ""200"" style = ""float:right""></p><p><img src=images/blank.png width =""800"" height = ""200""></p>","","","","","","","","","","","",""
"","975.2249999983469","sequential-stimulus-presentation","255","863041","0.0-47.0-1.6","SS1613141489593","trial","","40","800","1775.224999998347","images/stimuli/spore_stims/complex_05_A_a.gif","images/stimuli/spore_stims/complex_14_B_c.gif","","","","","13","complex_dissimilar","images/stimuli/spore_stims/complex_14_B_c.gif","right","","","","",""
"","null","html-keyboard-response","256","863871","0.0-47.0-0.7","SS1613141489593","","","null","","","","","<p><img src= images/blank.png width =""200"" height = ""200"" style = ""float:right""></p><p><img src=images/blank.png width =""800"" height = ""200""></p>","","","","","","","","","","","",""
"","1020.0000000004657","sequential-stimulus-presentation","257","865698","0.0-47.0-1.7","SS1613141489593","trial","","40","800","1820.0000000004657","images/stimuli/spore_stims/complex_05_A_a.gif","images/stimuli/spore_stims/complex_14_B_c.gif","","","","","13","complex_dissimilar","images/stimuli/spore_stims/complex_14_B_c.gif","right","","","","",""
"","1955.425000000163","html-keyboard-response","258","867659","0.0-48.0","SS1613141489593","pref_question","","50","","","","","<video width ='960' height = '540' style='padding-top:8%' autoplay muted><source src='images/stimuli/wall_pref.mp4' type='video/mp4'></video>","2","middle","45%","13","","","","","","","",""
"","8525.120000000228","sequential-stimulus-presentation","259","876995","0.0-49.0","SS1613141489593","pref_reveal","","40","800","9325.120000000228","null","null","","","","","13","","","","novel","","","",""
"","null","html-keyboard-response","260","877892","0.0-50.0-0.0","SS1613141489593","","","null","","","","","<p><img src= images/blank.png width =""200"" height = ""200"" style = ""float:right""></p><p><img src=images/blank.png width =""800"" height = ""200""></p>","","","","","","","","","","","",""
"","4267.350000000093","sequential-stimulus-presentation","261","882970","0.0-50.0-1.0","SS1613141489593","trial","","40","800","5067.350000000093","images/stimuli/spore_stims/simple_20_B_b.gif","images/stimuli/spore_stims/simple_12_A_b.gif","","","","","14","simple_dissimilar","images/stimuli/spore_stims/simple_12_A_b.gif","right","","","","",""
"","null","html-keyboard-response","262","884276","0.0-50.0-0.1","SS1613141489593","","","null","","","","","<p><img src= images/blank.png width =""200"" height = ""200"" style = ""float:right""></p><p><img src=images/blank.png width =""800"" height = ""200""></p>","","","","","","","","","","","",""
"","2201.73000000068","sequential-stimulus-presentation","263","887290","0.0-50.0-1.1","SS1613141489593","trial","","40","800","3001.73000000068","images/stimuli/spore_stims/simple_20_B_b.gif","images/stimuli/spore_stims/simple_12_A_b.gif","","","","","14","simple_dissimilar","images/stimuli/spore_stims/simple_12_A_b.gif","right","","","","",""
"","null","html-keyboard-response","264","888290","0.0-50.0-0.2","SS1613141489593","","","null","","","","","<p><img src= images/blank.png width =""200"" height = ""200"" style = ""float:right""></p><p><img src=images/blank.png width =""800"" height = ""200""></p>","","","","","","","","","","","",""
"","837.9550000008894","sequential-stimulus-presentation","265","889939","0.0-50.0-1.2","SS1613141489593","trial","","40","800","1637.9550000008894","images/stimuli/spore_stims/simple_20_B_b.gif","images/stimuli/spore_stims/simple_12_A_b.gif","","","","","14","simple_dissimilar","images/stimuli/spore_stims/simple_12_A_b.gif","right","","","","",""
"","null","html-keyboard-response","266","891167","0.0-50.0-0.3","SS1613141489593","","","null","","","","","<p><img src= images/blank.png width =""200"" height = ""200"" style = ""float:right""></p><p><img src=images/blank.png width =""800"" height = ""200""></p>","","","","","","","","","","","",""
"","1528.6550000001444","sequential-stimulus-presentation","267","893507","0.0-50.0-1.3","SS1613141489593","trial","","40","800","2328.6550000001444","images/stimuli/spore_stims/simple_20_B_b.gif","images/stimuli/spore_stims/simple_12_A_b.gif","","","","","14","simple_dissimilar","images/stimuli/spore_stims/simple_20_B_b.gif","left","","","","",""
"","null","html-keyboard-response","268","894387","0.0-50.0-0.4","SS1613141489593","","","null","","","","","<p><img src= images/blank.png width =""200"" height = ""200"" style = ""float:right""></p><p><img src=images/blank.png width =""800"" height = ""200""></p>","","","","","","","","","","","",""
"","726.5349999997998","sequential-stimulus-presentation","269","895922","0.0-50.0-1.4","SS1613141489593","trial","","40","800","1526.5349999997998","images/stimuli/spore_stims/simple_20_B_b.gif","images/stimuli/spore_stims/simple_12_A_b.gif","","","","","14","simple_dissimilar","images/stimuli/spore_stims/simple_12_A_b.gif","right","","","","",""
"","null","html-keyboard-response","270","897175","0.0-50.0-0.5","SS1613141489593","","","null","","","","","<p><img src= images/blank.png width =""200"" height = ""200"" style = ""float:right""></p><p><img src=images/blank.png width =""800"" height = ""200""></p>","","","","","","","","","","","",""
"","27.65499999979511","sequential-stimulus-presentation","271","898012","0.0-50.0-1.5","SS1613141489593","trial","","40","800","827.6549999997951","images/stimuli/spore_stims/simple_20_B_b.gif","images/stimuli/spore_stims/simple_12_A_b.gif","","","","","14","simple_dissimilar","images/stimuli/spore_stims/simple_12_A_b.gif","right","","","","",""
"","null","html-keyboard-response","272","899040","0.0-50.0-0.6","SS1613141489593","","","null","","","","","<p><img src= images/blank.png width =""200"" height = ""200"" style = ""float:right""></p><p><img src=images/blank.png width =""800"" height = ""200""></p>","","","","","","","","","","","",""
"","1010.9550000015879","sequential-stimulus-presentation","273","900859","0.0-50.0-1.6","SS1613141489593","trial","","40","800","1810.955000001588","images/stimuli/spore_stims/simple_20_B_b.gif","images/stimuli/spore_stims/simple_12_A_b.gif","","","","","14","simple_dissimilar","images/stimuli/spore_stims/simple_12_A_b.gif","right","","","","",""
"","null","html-keyboard-response","274","901752","0.0-50.0-0.7","SS1613141489593","","","null","","","","","<p><img src= images/blank.png width =""200"" height = ""200"" style = ""float:right""></p><p><img src=images/blank.png width =""800"" height = ""200""></p>","","","","","","","","","","","",""
"","791.6550000008428","sequential-stimulus-presentation","275","903354","0.0-50.0-1.7","SS1613141489593","trial","","40","800","1591.6550000008428","images/stimuli/spore_stims/simple_20_B_b.gif","images/stimuli/spore_stims/simple_12_A_b.gif","","","","","14","simple_dissimilar","images/stimuli/spore_stims/simple_12_A_b.gif","right","","","","",""
"","1519.0299999994459","html-keyboard-response","276","904884","0.0-51.0","SS1613141489593","pref_question","","49","","","","","<video width ='960' height = '540' style='padding-top:8%' autoplay muted><source src='images/stimuli/wall_pref.mp4' type='video/mp4'></video>","1","left","25%","14","","","","","","","",""
"","3789.380000000121","sequential-stimulus-presentation","277","909481","0.0-52.0","SS1613141489593","pref_reveal","","40","800","4589.380000000121","null","null","","","","","14","","","","deviant","","","",""
"","null","html-keyboard-response","278","910710","0.0-53.0-0.0","SS1613141489593","","","null","","","","","<p><img src= images/blank.png width =""200"" height = ""200"" style = ""float:right""></p><p><img src=images/blank.png width =""800"" height = ""200""></p>","","","","","","","","","","","",""
"","1714.7700000004843","sequential-stimulus-presentation","279","913234","0.0-53.0-1.0","SS1613141489593","trial","","40","800","2514.7700000004843","images/stimuli/spore_stims/simple_02_B_c.gif","images/stimuli/spore_stims/simple_02_A_c.gif","","","","","15","simple_similar","images/stimuli/spore_stims/simple_02_A_c.gif","left","","","","",""
"","null","html-keyboard-response","280","914238","0.0-53.0-0.1","SS1613141489593","","","null","","","","","<p><img src= images/blank.png width =""200"" height = ""200"" style = ""float:right""></p><p><img src=images/blank.png width =""800"" height = ""200""></p>","","","","","","","","","","","",""
"","563.97999999905","sequential-stimulus-presentation","281","915611","0.0-53.0-1.1","SS1613141489593","trial","","40","800","1363.97999999905","images/stimuli/spore_stims/simple_02_B_c.gif","images/stimuli/spore_stims/simple_02_A_c.gif","","","","","15","simple_similar","images/stimuli/spore_stims/simple_02_A_c.gif","left","","","","",""
"","null","html-keyboard-response","282","916461","0.0-53.0-0.2","SS1613141489593","","","null","","","","","<p><img src= images/blank.png width =""200"" height = ""200"" style = ""float:right""></p><p><img src=images/blank.png width =""800"" height = ""200""></p>","","","","","","","","","","","",""
"","2189.019999999786","sequential-stimulus-presentation","283","919459","0.0-53.0-1.2","SS1613141489593","trial","","40","800","2989.019999999786","images/stimuli/spore_stims/simple_02_B_c.gif","images/stimuli/spore_stims/simple_02_A_c.gif","","","","","15","simple_similar","images/stimuli/spore_stims/simple_02_B_c.gif","middle","","","","",""
"","null","html-keyboard-response","284","920424","0.0-53.0-0.3","SS1613141489593","","","null","","","","","<p><img src= images/blank.png width =""200"" height = ""200"" style = ""float:right""></p><p><img src=images/blank.png width =""800"" height = ""200""></p>","","","","","","","","","","","",""
"","1779.6149999994086","sequential-stimulus-presentation","285","923011","0.0-53.0-1.3","SS1613141489593","trial","","40","800","2579.6149999994086","images/stimuli/spore_stims/simple_02_B_c.gif","images/stimuli/spore_stims/simple_02_A_c.gif","","","","","15","simple_similar","images/stimuli/spore_stims/simple_02_A_c.gif","left","","","","",""
"","null","html-keyboard-response","286","924278","0.0-53.0-0.4","SS1613141489593","","","null","","","","","<p><img src= images/blank.png width =""200"" height = ""200"" style = ""float:right""></p><p><img src=images/blank.png width =""800"" height = ""200""></p>","","","","","","","","","","","",""
"","1926.910000000149","sequential-stimulus-presentation","287","927014","0.0-53.0-1.4","SS1613141489593","trial","","40","800","2726.910000000149","images/stimuli/spore_stims/simple_02_B_c.gif","images/stimuli/spore_stims/simple_02_A_c.gif","","","","","15","simple_similar","images/stimuli/spore_stims/simple_02_A_c.gif","left","","","","",""
"","null","html-keyboard-response","288","927855","0.0-53.0-0.5","SS1613141489593","","","null","","","","","<p><img src= images/blank.png width =""200"" height = ""200"" style = ""float:right""></p><p><img src=images/blank.png width =""800"" height = ""200""></p>","","","","","","","","","","","",""
"","4421.510000000126","sequential-stimulus-presentation","289","933084","0.0-53.0-1.5","SS1613141489593","trial","","40","800","5221.510000000126","images/stimuli/spore_stims/simple_02_B_c.gif","images/stimuli/spore_stims/simple_02_A_c.gif","","","","","15","simple_similar","images/stimuli/spore_stims/simple_02_A_c.gif","left","","","","",""
"","null","html-keyboard-response","290","934328","0.0-53.0-0.6","SS1613141489593","","","null","","","","","<p><img src= images/blank.png width =""200"" height = ""200"" style = ""float:right""></p><p><img src=images/blank.png width =""800"" height = ""200""></p>","","","","","","","","","","","",""
"","778.7849999986356","sequential-stimulus-presentation","291","935915","0.0-53.0-1.6","SS1613141489593","trial","","40","800","1578.7849999986356","images/stimuli/spore_stims/simple_02_B_c.gif","images/stimuli/spore_stims/simple_02_A_c.gif","","","","","15","simple_similar","images/stimuli/spore_stims/simple_02_A_c.gif","left","","","","",""
"","null","html-keyboard-response","292","937147","0.0-53.0-0.7","SS1613141489593","","","null","","","","","<p><img src= images/blank.png width =""200"" height = ""200"" style = ""float:right""></p><p><img src=images/blank.png width =""800"" height = ""200""></p>","","","","","","","","","","","",""
"","3622.209999999497","sequential-stimulus-presentation","293","941581","0.0-53.0-1.7","SS1613141489593","trial","","40","800","4422.209999999497","images/stimuli/spore_stims/simple_02_B_c.gif","images/stimuli/spore_stims/simple_02_A_c.gif","","","","","15","simple_similar","images/stimuli/spore_stims/simple_02_A_c.gif","left","","","","",""
"","2072.334999998915","html-keyboard-response","294","943659","0.0-54.0","SS1613141489593","pref_question","","50","","","","","<video width ='960' height = '540' style='padding-top:8%' autoplay muted><source src='images/stimuli/wall_pref.mp4' type='video/mp4'></video>","2","middle","45%","15","","","","","","","",""
"","1937.2899999999208","sequential-stimulus-presentation","295","946407","0.0-55.0","SS1613141489593","pref_reveal","","40","800","2737.289999999921","null","null","","","","","15","","","","deviant","","","",""
"","null","html-keyboard-response","296","947515","0.0-56.0-0.0","SS1613141489593","","","null","","","","","<p><img src= images/blank.png width =""200"" height = ""200"" style = ""float:right""></p><p><img src=images/blank.png width =""800"" height = ""200""></p>","","","","","","","","","","","",""
"","1582.7899999986403","sequential-stimulus-presentation","297","949908","0.0-56.0-1.0","SS1613141489593","trial","","40","800","2382.7899999986403","images/stimuli/spore_stims/simple_16_B_d.gif","images/stimuli/spore_stims/simple_08_B_b.gif","","","","","16","simple_dissimilar","images/stimuli/spore_stims/simple_08_B_b.gif","left","","","","",""
"","null","html-keyboard-response","298","951094","0.0-56.0-0.1","SS1613141489593","","","null","","","","","<p><img src= images/blank.png width =""200"" height = ""200"" style = ""float:right""></p><p><img src=images/blank.png width =""800"" height = ""200""></p>","","","","","","","","","","","",""
"","1424.0599999993574","sequential-stimulus-presentation","299","953325","0.0-56.0-1.1","SS1613141489593","trial","","40","800","2224.0599999993574","images/stimuli/spore_stims/simple_16_B_d.gif","images/stimuli/spore_stims/simple_08_B_b.gif","","","","","16","simple_dissimilar","images/stimuli/spore_stims/simple_08_B_b.gif","left","","","","",""
"","null","html-keyboard-response","300","954287","0.0-56.0-0.2","SS1613141489593","","","null","","","","","<p><img src= images/blank.png width =""200"" height = ""200"" style = ""float:right""></p><p><img src=images/blank.png width =""800"" height = ""200""></p>","","","","","","","","","","","",""
"","796.0800000000745","sequential-stimulus-presentation","301","955901","0.0-56.0-1.2","SS1613141489593","trial","","40","800","1596.0800000000745","images/stimuli/spore_stims/simple_16_B_d.gif","images/stimuli/spore_stims/simple_08_B_b.gif","","","","","16","simple_dissimilar","images/stimuli/spore_stims/simple_08_B_b.gif","left","","","","",""
"","null","html-keyboard-response","302","957118","0.0-56.0-0.3","SS1613141489593","","","null","","","","","<p><img src= images/blank.png width =""200"" height = ""200"" style = ""float:right""></p><p><img src=images/blank.png width =""800"" height = ""200""></p>","","","","","","","","","","","",""
"","458.0099999984959","sequential-stimulus-presentation","303","958383","0.0-56.0-1.3","SS1613141489593","trial","","40","800","1258.009999998496","images/stimuli/spore_stims/simple_16_B_d.gif","images/stimuli/spore_stims/simple_08_B_b.gif","","","","","16","simple_dissimilar","images/stimuli/spore_stims/simple_08_B_b.gif","left","","","","",""
"","null","html-keyboard-response","304","959643","0.0-56.0-0.4","SS1613141489593","","","null","","","","","<p><img src= images/blank.png width =""200"" height = ""200"" style = ""float:right""></p><p><img src=images/blank.png width =""800"" height = ""200""></p>","","","","","","","","","","","",""
"","1025.6250000002328","sequential-stimulus-presentation","305","961477","0.0-56.0-1.4","SS1613141489593","trial","","40","800","1825.6250000002328","images/stimuli/spore_stims/simple_16_B_d.gif","images/stimuli/spore_stims/simple_08_B_b.gif","","","","","16","simple_dissimilar","images/stimuli/spore_stims/simple_08_B_b.gif","left","","","","",""
"","null","html-keyboard-response","306","962762","0.0-56.0-0.5","SS1613141489593","","","null","","","","","<p><img src= images/blank.png width =""200"" height = ""200"" style = ""float:right""></p><p><img src=images/blank.png width =""800"" height = ""200""></p>","","","","","","","","","","","",""
"","402.12499999871943","sequential-stimulus-presentation","307","963972","0.0-56.0-1.5","SS1613141489593","trial","","40","800","1202.1249999987194","images/stimuli/spore_stims/simple_16_B_d.gif","images/stimuli/spore_stims/simple_08_B_b.gif","","","","","16","simple_dissimilar","images/stimuli/spore_stims/simple_08_B_b.gif","left","","","","",""
"","null","html-keyboard-response","308","964853","0.0-56.0-0.6","SS1613141489593","","","null","","","","","<p><img src= images/blank.png width =""200"" height = ""200"" style = ""float:right""></p><p><img src=images/blank.png width =""800"" height = ""200""></p>","","","","","","","","","","","",""
"","1100.8600000004517","sequential-stimulus-presentation","309","966765","0.0-56.0-1.6","SS1613141489593","trial","","40","800","1900.8600000004517","images/stimuli/spore_stims/simple_16_B_d.gif","images/stimuli/spore_stims/simple_08_B_b.gif","","","","","16","simple_dissimilar","images/stimuli/spore_stims/simple_08_B_b.gif","left","","","","",""
"","null","html-keyboard-response","310","968002","0.0-56.0-0.7","SS1613141489593","","","null","","","","","<p><img src= images/blank.png width =""200"" height = ""200"" style = ""float:right""></p><p><img src=images/blank.png width =""800"" height = ""200""></p>","","","","","","","","","","","",""
"","1944.7749999999069","sequential-stimulus-presentation","311","970757","0.0-56.0-1.7","SS1613141489593","trial","","40","800","2744.774999999907","images/stimuli/spore_stims/simple_16_B_d.gif","images/stimuli/spore_stims/simple_08_B_b.gif","","","","","16","simple_dissimilar","images/stimuli/spore_stims/simple_16_B_d.gif","right","","","","",""
