"view_history","rt","trial_type","trial_index","time_elapsed","internal_node_id","subject","stimulus_type","trial_stimulus","key_press","minimum_viewing_duration","trial_looking_time","block_deviant","block_background","stimulus","wall_pref","location","location_percent","block_number","block_type","stimulus_displayed","position_displayed","stim_type_selected","responses","question_order","stimulus_left","stimulus_right"
"[{""page_index"":0,""viewing_time"":2125.375000294298}]","2125.789999961853","instructions","0","2128","0.0-0.0","SS1613138780480","","","","","","","","","","","","","","","","","","","",""
"[{""page_index"":0,""viewing_time"":1056.7899998277426},{""page_index"":1,""viewing_time"":6093.120000325143}]","7150.185000151396","instructions","1","11285","0.0-1.0","SS1613138780480","instructions","","","","","","","","","","","","","","","","","","",""
"","1175.299999769777","sequential-stimulus-presentation","2","13443","0.0-2.0","SS1613138780480","","","40","800","1975.299999769777","null","null","","","","","","","","","","","","",""
"","324.8350000940263","sequential-stimulus-presentation","3","14589","0.0-3.0","SS1613138780480","","","40","800","1124.8350000940263","null","null","","","","","","","","","","","","",""
"[{""page_index"":0,""viewing_time"":1066.0249995999038}]","1066.2949997931719","instructions","4","15657","0.0-4.0","SS1613138780480","instructions","","","","","","","","","","","","","","","","","","",""
"","2341.7500001378357","html-keyboard-response","5","18004","0.0-5.0","SS1613138780480","instructions","","50","","","","","<video width ='960' height = '540' autoplay muted><source src='images/stimuli/wall_pref.mp4' type='video/mp4'></video>","2","middle","45%","","","","","","","","",""
"","284.74999964237213","sequential-stimulus-presentation","6","19112","0.0-6.0","SS1613138780480","pref_reveal","","40","800","1084.7499996423721","null","null","","","","","","","","","","","","",""
"[{""page_index"":0,""viewing_time"":2109.490000177175},{""page_index"":1,""viewing_time"":520.4349998384714},{""page_index"":2,""viewing_time"":849.9150001443923},{""page_index"":3,""viewing_time"":818.0149998515844}]","4298.365000169724","instructions","7","23416","0.0-7.0","SS1613138780480","instructions","","","","","","","","","","","","","","","","","","",""
"","null","html-keyboard-response","8","24278","0.0-8.0-0.0","SS1613138780480","","","null","","","","","<p><img src= images/blank.png width =""200"" height = ""200"" style = ""float:right""></p><p><img src=images/blank.png width =""800"" height = ""200""></p>","","","","","","","","","","","",""
"","504.7249998897314","sequential-stimulus-presentation","9","25620","0.0-8.0-1.0","SS1613138780480","trial","","40","800","1304.7249998897314","images/stimuli/spore_stims/simple_09_A_b.gif","images/stimuli/spore_stims/simple_05_A_a.gif","","","","","0","simple_dissimilar","images/stimuli/spore_stims/simple_05_A_a.gif","right","","","","",""
"","null","html-keyboard-response","10","26560","0.0-8.0-0.1","SS1613138780480","","","null","","","","","<p><img src= images/blank.png width =""200"" height = ""200"" style = ""float:right""></p><p><img src=images/blank.png width =""800"" height = ""200""></p>","","","","","","","","","","","",""
"","194.64999996125698","sequential-stimulus-presentation","11","27588","0.0-8.0-1.1","SS1613138780480","trial","","40","800","994.649999961257","images/stimuli/spore_stims/simple_09_A_b.gif","images/stimuli/spore_stims/simple_05_A_a.gif","","","","","0","simple_dissimilar","images/stimuli/spore_stims/simple_05_A_a.gif","right","","","","",""
"","null","html-keyboard-response","12","28653","0.0-8.0-0.2","SS1613138780480","","","null","","","","","<p><img src= images/blank.png width =""200"" height = ""200"" style = ""float:right""></p><p><img src=images/blank.png width =""800"" height = ""200""></p>","","","","","","","","","","","",""
"","18.03999999538064","sequential-stimulus-presentation","13","29492","0.0-8.0-1.2","SS1613138780480","trial","","40","800","818.0399999953806","images/stimuli/spore_stims/simple_09_A_b.gif","images/stimuli/spore_stims/simple_05_A_a.gif","","","","","0","simple_dissimilar","images/stimuli/spore_stims/simple_05_A_a.gif","right","","","","",""
"","null","html-keyboard-response","14","30606","0.0-8.0-0.3","SS1613138780480","","","null","","","","","<p><img src= images/blank.png width =""200"" height = ""200"" style = ""float:right""></p><p><img src=images/blank.png width =""800"" height = ""200""></p>","","","","","","","","","","","",""
"","51.4600002206862","sequential-stimulus-presentation","15","31482","0.0-8.0-1.3","SS1613138780480","trial","","40","800","851.4600002206862","images/stimuli/spore_stims/simple_09_A_b.gif","images/stimuli/spore_stims/simple_05_A_a.gif","","","","","0","simple_dissimilar","images/stimuli/spore_stims/simple_05_A_a.gif","right","","","","",""
"","null","html-keyboard-response","16","32625","0.0-8.0-0.4","SS1613138780480","","","null","","","","","<p><img src= images/blank.png width =""200"" height = ""200"" style = ""float:right""></p><p><img src=images/blank.png width =""800"" height = ""200""></p>","","","","","","","","","","","",""
"","122.82499996945262","sequential-stimulus-presentation","17","33600","0.0-8.0-1.4","SS1613138780480","trial","","40","800","922.8249999694526","images/stimuli/spore_stims/simple_09_A_b.gif","images/stimuli/spore_stims/simple_05_A_a.gif","","","","","0","simple_dissimilar","images/stimuli/spore_stims/simple_09_A_b.gif","left","","","","",""
"","null","html-keyboard-response","18","34533","0.0-8.0-0.5","SS1613138780480","","","null","","","","","<p><img src= images/blank.png width =""200"" height = ""200"" style = ""float:right""></p><p><img src=images/blank.png width =""800"" height = ""200""></p>","","","","","","","","","","","",""
"","20.905000157654285","sequential-stimulus-presentation","19","35374","0.0-8.0-1.5","SS1613138780480","trial","","40","800","820.9050001576543","images/stimuli/spore_stims/simple_09_A_b.gif","images/stimuli/spore_stims/simple_05_A_a.gif","","","","","0","simple_dissimilar","images/stimuli/spore_stims/simple_05_A_a.gif","right","","","","",""
"","null","html-keyboard-response","20","36401","0.0-8.0-0.6","SS1613138780480","","","null","","","","","<p><img src= images/blank.png width =""200"" height = ""200"" style = ""float:right""></p><p><img src=images/blank.png width =""800"" height = ""200""></p>","","","","","","","","","","","",""
"","74.24499979242682","sequential-stimulus-presentation","21","37319","0.0-8.0-1.6","SS1613138780480","trial","","40","800","874.2449997924268","images/stimuli/spore_stims/simple_09_A_b.gif","images/stimuli/spore_stims/simple_05_A_a.gif","","","","","0","simple_dissimilar","images/stimuli/spore_stims/simple_05_A_a.gif","right","","","","",""
"","null","html-keyboard-response","22","38606","0.0-8.0-0.7","SS1613138780480","","","null","","","","","<p><img src= images/blank.png width =""200"" height = ""200"" style = ""float:right""></p><p><img src=images/blank.png width =""800"" height = ""200""></p>","","","","","","","","","","","",""
"","130.42999990284443","sequential-stimulus-presentation","23","39555","0.0-8.0-1.7","SS1613138780480","trial","","40","800","930.4299999028444","images/stimuli/spore_stims/simple_09_A_b.gif","images/stimuli/spore_stims/simple_05_A_a.gif","","","","","0","simple_dissimilar","images/stimuli/spore_stims/simple_05_A_a.gif","right","","","","",""
"","1815.5649998225272","html-keyboard-response","24","41380","0.0-9.0","SS1613138780480","pref_question","","50","","","","","<video width ='960' height = '540' style='padding-top:8%' autoplay muted><source src='images/stimuli/wall_pref.mp4' type='video/mp4'></video>","2","middle","45%","0","","","","","","","",""
"","89.24500038847327","sequential-stimulus-presentation","25","42291","0.0-10.0","SS1613138780480","pref_reveal","","40","800","889.2450003884733","null","null","","","","","0","","","","novel","","","",""
"","null","html-keyboard-response","26","43194","0.0-11.0-0.0","SS1613138780480","","","null","","","","","<p><img src= images/blank.png width =""200"" height = ""200"" style = ""float:right""></p><p><img src=images/blank.png width =""800"" height = ""200""></p>","","","","","","","","","","","",""
"","16.964999958872795","sequential-stimulus-presentation","27","44040","0.0-11.0-1.0","SS1613138780480","trial","","40","800","816.9649999588728","images/stimuli/spore_stims/complex_18_A_d.gif","images/stimuli/spore_stims/complex_06_A_b.gif","","","","","1","complex_dissimilar","images/stimuli/spore_stims/complex_06_A_b.gif","middle","","","","",""
"","null","html-keyboard-response","28","44868","0.0-11.0-0.1","SS1613138780480","","","null","","","","","<p><img src= images/blank.png width =""200"" height = ""200"" style = ""float:right""></p><p><img src=images/blank.png width =""800"" height = ""200""></p>","","","","","","","","","","","",""
"","63.504999969154596","sequential-stimulus-presentation","29","45824","0.0-11.0-1.1","SS1613138780480","trial","","40","800","863.5049999691546","images/stimuli/spore_stims/complex_18_A_d.gif","images/stimuli/spore_stims/complex_06_A_b.gif","","","","","1","complex_dissimilar","images/stimuli/spore_stims/complex_06_A_b.gif","middle","","","","",""
"","null","html-keyboard-response","30","47033","0.0-11.0-0.2","SS1613138780480","","","null","","","","","<p><img src= images/blank.png width =""200"" height = ""200"" style = ""float:right""></p><p><img src=images/blank.png width =""800"" height = ""200""></p>","","","","","","","","","","","",""
"","156.6099999472499","sequential-stimulus-presentation","31","48003","0.0-11.0-1.2","SS1613138780480","trial","","40","800","956.6099999472499","images/stimuli/spore_stims/complex_18_A_d.gif","images/stimuli/spore_stims/complex_06_A_b.gif","","","","","1","complex_dissimilar","images/stimuli/spore_stims/complex_06_A_b.gif","middle","","","","",""
"","null","html-keyboard-response","32","49134","0.0-11.0-0.3","SS1613138780480","","","null","","","","","<p><img src= images/blank.png width =""200"" height = ""200"" style = ""float:right""></p><p><img src=images/blank.png width =""800"" height = ""200""></p>","","","","","","","","","","","",""
"","204.60000028833747","sequential-stimulus-presentation","33","50154","0.0-11.0-1.3","SS1613138780480","trial","","40","800","1004.6000002883375","images/stimuli/spore_stims/complex_18_A_d.gif","images/stimuli/spore_stims/complex_06_A_b.gif","","","","","1","complex_dissimilar","images/stimuli/spore_stims/complex_06_A_b.gif","middle","","","","",""
"","null","html-keyboard-response","34","51397","0.0-11.0-0.4","SS1613138780480","","","null","","","","","<p><img src= images/blank.png width =""200"" height = ""200"" style = ""float:right""></p><p><img src=images/blank.png width =""800"" height = ""200""></p>","","","","","","","","","","","",""
"","2.6099998503923416","sequential-stimulus-presentation","35","52208","0.0-11.0-1.4","SS1613138780480","trial","","40","800","802.6099998503923","images/stimuli/spore_stims/complex_18_A_d.gif","images/stimuli/spore_stims/complex_06_A_b.gif","","","","","1","complex_dissimilar","images/stimuli/spore_stims/complex_06_A_b.gif","middle","","","","",""
"","null","html-keyboard-response","36","53133","0.0-11.0-0.5","SS1613138780480","","","null","","","","","<p><img src= images/blank.png width =""200"" height = ""200"" style = ""float:right""></p><p><img src=images/blank.png width =""800"" height = ""200""></p>","","","","","","","","","","","",""
"","6.22999994084239","sequential-stimulus-presentation","37","53953","0.0-11.0-1.5","SS1613138780480","trial","","40","800","806.2299999408424","images/stimuli/spore_stims/complex_18_A_d.gif","images/stimuli/spore_stims/complex_06_A_b.gif","","","","","1","complex_dissimilar","images/stimuli/spore_stims/complex_18_A_d.gif","left","","","","",""
"","null","html-keyboard-response","38","55095","0.0-11.0-0.6","SS1613138780480","","","null","","","","","<p><img src= images/blank.png width =""200"" height = ""200"" style = ""float:right""></p><p><img src=images/blank.png width =""800"" height = ""200""></p>","","","","","","","","","","","",""
"","232.35000018030405","sequential-stimulus-presentation","39","56154","0.0-11.0-1.6","SS1613138780480","trial","","40","800","1032.350000180304","images/stimuli/spore_stims/complex_18_A_d.gif","images/stimuli/spore_stims/complex_06_A_b.gif","","","","","1","complex_dissimilar","images/stimuli/spore_stims/complex_06_A_b.gif","middle","","","","",""
"","null","html-keyboard-response","40","57445","0.0-11.0-0.7","SS1613138780480","","","null","","","","","<p><img src= images/blank.png width =""200"" height = ""200"" style = ""float:right""></p><p><img src=images/blank.png width =""800"" height = ""200""></p>","","","","","","","","","","","",""
"","6.780000403523445","sequential-stimulus-presentation","41","58274","0.0-11.0-1.7","SS1613138780480","trial","","40","800","806.7800004035234","images/stimuli/spore_stims/complex_18_A_d.gif","images/stimuli/spore_stims/complex_06_A_b.gif","","","","","1","complex_dissimilar","images/stimuli/spore_stims/complex_06_A_b.gif","middle","","","","",""
"","1420.1799998991191","html-keyboard-response","42","59704","0.0-12.0","SS1613138780480","pref_question","","50","","","","","<video width ='960' height = '540' style='padding-top:8%' autoplay muted><source src='images/stimuli/wall_pref.mp4' type='video/mp4'></video>","2","middle","45%","1","","","","","","","",""
"","136.02500036358833","sequential-stimulus-presentation","43","60661","0.0-13.0","SS1613138780480","pref_reveal","","40","800","936.0250003635883","null","null","","","","","1","","","","background","","","",""
"","null","html-keyboard-response","44","61954","0.0-14.0-0.0","SS1613138780480","","","null","","","","","<p><img src= images/blank.png width =""200"" height = ""200"" style = ""float:right""></p><p><img src=images/blank.png width =""800"" height = ""200""></p>","","","","","","","","","","","",""
"","118.66499995812774","sequential-stimulus-presentation","45","62899","0.0-14.0-1.0","SS1613138780480","trial","","40","800","918.6649999581277","images/stimuli/spore_stims/complex_11_A_b.gif","images/stimuli/spore_stims/complex_20_B_c.gif","","","","","2","complex_dissimilar","images/stimuli/spore_stims/complex_20_B_c.gif","left","","","","",""
"","null","html-keyboard-response","46","63845","0.0-14.0-0.1","SS1613138780480","","","null","","","","","<p><img src= images/blank.png width =""200"" height = ""200"" style = ""float:right""></p><p><img src=images/blank.png width =""800"" height = ""200""></p>","","","","","","","","","","","",""
"","221.2350000627339","sequential-stimulus-presentation","47","64883","0.0-14.0-1.1","SS1613138780480","trial","","40","800","1021.2350000627339","images/stimuli/spore_stims/complex_11_A_b.gif","images/stimuli/spore_stims/complex_20_B_c.gif","","","","","2","complex_dissimilar","images/stimuli/spore_stims/complex_20_B_c.gif","left","","","","",""
"","null","html-keyboard-response","48","65983","0.0-14.0-0.2","SS1613138780480","","","null","","","","","<p><img src= images/blank.png width =""200"" height = ""200"" style = ""float:right""></p><p><img src=images/blank.png width =""800"" height = ""200""></p>","","","","","","","","","","","",""
"","30.150000005960464","sequential-stimulus-presentation","49","66829","0.0-14.0-1.2","SS1613138780480","trial","","40","800","830.1500000059605","images/stimuli/spore_stims/complex_11_A_b.gif","images/stimuli/spore_stims/complex_20_B_c.gif","","","","","2","complex_dissimilar","images/stimuli/spore_stims/complex_20_B_c.gif","left","","","","",""
"","null","html-keyboard-response","50","68082","0.0-14.0-0.3","SS1613138780480","","","null","","","","","<p><img src= images/blank.png width =""200"" height = ""200"" style = ""float:right""></p><p><img src=images/blank.png width =""800"" height = ""200""></p>","","","","","","","","","","","",""
"","31.265000347048044","sequential-stimulus-presentation","51","68932","0.0-14.0-1.3","SS1613138780480","trial","","40","800","831.265000347048","images/stimuli/spore_stims/complex_11_A_b.gif","images/stimuli/spore_stims/complex_20_B_c.gif","","","","","2","complex_dissimilar","images/stimuli/spore_stims/complex_20_B_c.gif","left","","","","",""
"","null","html-keyboard-response","52","70225","0.0-14.0-0.4","SS1613138780480","","","null","","","","","<p><img src= images/blank.png width =""200"" height = ""200"" style = ""float:right""></p><p><img src=images/blank.png width =""800"" height = ""200""></p>","","","","","","","","","","","",""
"","264.38499987125397","sequential-stimulus-presentation","53","71344","0.0-14.0-1.4","SS1613138780480","trial","","40","800","1064.384999871254","images/stimuli/spore_stims/complex_11_A_b.gif","images/stimuli/spore_stims/complex_20_B_c.gif","","","","","2","complex_dissimilar","images/stimuli/spore_stims/complex_20_B_c.gif","left","","","","",""
"","null","html-keyboard-response","54","72596","0.0-14.0-0.5","SS1613138780480","","","null","","","","","<p><img src= images/blank.png width =""200"" height = ""200"" style = ""float:right""></p><p><img src=images/blank.png width =""800"" height = ""200""></p>","","","","","","","","","","","",""
"","112.11000010371208","sequential-stimulus-presentation","55","73531","0.0-14.0-1.5","SS1613138780480","trial","","40","800","912.1100001037121","images/stimuli/spore_stims/complex_11_A_b.gif","images/stimuli/spore_stims/complex_20_B_c.gif","","","","","2","complex_dissimilar","images/stimuli/spore_stims/complex_11_A_b.gif","right","","","","",""
"","null","html-keyboard-response","56","74658","0.0-14.0-0.6","SS1613138780480","","","null","","","","","<p><img src= images/blank.png width =""200"" height = ""200"" style = ""float:right""></p><p><img src=images/blank.png width =""800"" height = ""200""></p>","","","","","","","","","","","",""
"","245.23000000044703","sequential-stimulus-presentation","57","75721","0.0-14.0-1.6","SS1613138780480","trial","","40","800","1045.230000000447","images/stimuli/spore_stims/complex_11_A_b.gif","images/stimuli/spore_stims/complex_20_B_c.gif","","","","","2","complex_dissimilar","images/stimuli/spore_stims/complex_20_B_c.gif","left","","","","",""
"","null","html-keyboard-response","58","76761","0.0-14.0-0.7","SS1613138780480","","","null","","","","","<p><img src= images/blank.png width =""200"" height = ""200"" style = ""float:right""></p><p><img src=images/blank.png width =""800"" height = ""200""></p>","","","","","","","","","","","",""
"","228.98499993607402","sequential-stimulus-presentation","59","77809","0.0-14.0-1.7","SS1613138780480","trial","","40","800","1028.984999936074","images/stimuli/spore_stims/complex_11_A_b.gif","images/stimuli/spore_stims/complex_20_B_c.gif","","","","","2","complex_dissimilar","images/stimuli/spore_stims/complex_20_B_c.gif","left","","","","",""
"","33.16999971866608","html-keyboard-response","60","77855","0.0-15.0","SS1613138780480","pref_question","","50","","","","","<video width ='960' height = '540' style='padding-top:8%' autoplay muted><source src='images/stimuli/wall_pref.mp4' type='video/mp4'></video>","2","middle","45%","2","","","","","","","",""
"","188.4800000116229","sequential-stimulus-presentation","61","78886","0.0-16.0","SS1613138780480","pref_reveal","","40","800","988.4800000116229","null","null","","","","","2","","","","novel","","","",""
"","null","html-keyboard-response","62","80126","0.0-17.0-0.0","SS1613138780480","","","null","","","","","<p><img src= images/blank.png width =""200"" height = ""200"" style = ""float:right""></p><p><img src=images/blank.png width =""800"" height = ""200""></p>","","","","","","","","","","","",""
"","193.71999986469746","sequential-stimulus-presentation","63","81141","0.0-17.0-1.0","SS1613138780480","trial","","40","800","993.7199998646975","images/stimuli/spore_stims/complex_12_A_b.gif","images/stimuli/spore_stims/complex_12_B_b.gif","","","","","3","complex_similar","images/stimuli/spore_stims/complex_12_B_b.gif","right","","","","",""
"","null","html-keyboard-response","64","81994","0.0-17.0-0.1","SS1613138780480","","","null","","","","","<p><img src= images/blank.png width =""200"" height = ""200"" style = ""float:right""></p><p><img src=images/blank.png width =""800"" height = ""200""></p>","","","","","","","","","","","",""
"","231.97499988600612","sequential-stimulus-presentation","65","83052","0.0-17.0-1.1","SS1613138780480","trial","","40","800","1031.9749998860061","images/stimuli/spore_stims/complex_12_A_b.gif","images/stimuli/spore_stims/complex_12_B_b.gif","","","","","3","complex_similar","images/stimuli/spore_stims/complex_12_B_b.gif","right","","","","",""
"","null","html-keyboard-response","66","84196","0.0-17.0-0.2","SS1613138780480","","","null","","","","","<p><img src= images/blank.png width =""200"" height = ""200"" style = ""float:right""></p><p><img src=images/blank.png width =""800"" height = ""200""></p>","","","","","","","","","","","",""
"","62.70999973639846","sequential-stimulus-presentation","67","85088","0.0-17.0-1.2","SS1613138780480","trial","","40","800","862.7099997363985","images/stimuli/spore_stims/complex_12_A_b.gif","images/stimuli/spore_stims/complex_12_B_b.gif","","","","","3","complex_similar","images/stimuli/spore_stims/complex_12_B_b.gif","right","","","","",""
"","null","html-keyboard-response","68","86235","0.0-17.0-0.3","SS1613138780480","","","null","","","","","<p><img src= images/blank.png width =""200"" height = ""200"" style = ""float:right""></p><p><img src=images/blank.png width =""800"" height = ""200""></p>","","","","","","","","","","","",""
"","205.4750001989305","sequential-stimulus-presentation","69","87267","0.0-17.0-1.3","SS1613138780480","trial","","40","800","1005.4750001989305","images/stimuli/spore_stims/complex_12_A_b.gif","images/stimuli/spore_stims/complex_12_B_b.gif","","","","","3","complex_similar","images/stimuli/spore_stims/complex_12_B_b.gif","right","","","","",""
"","null","html-keyboard-response","70","88382","0.0-17.0-0.4","SS1613138780480","","","null","","","","","<p><img src= images/blank.png width =""200"" height = ""200"" style = ""float:right""></p><p><img src=images/blank.png width =""800"" height = ""200""></p>","","","","","","","","","","","",""
"","162.37499983981252","sequential-stimulus-presentation","71","89361","0.0-17.0-1.4","SS1613138780480","trial","","40","800","962.3749998398125","images/stimuli/spore_stims/complex_12_A_b.gif","images/stimuli/spore_stims/complex_12_B_b.gif","","","","","3","complex_similar","images/stimuli/spore_stims/complex_12_A_b.gif","left","","","","",""
"","null","html-keyboard-response","72","90255","0.0-17.0-0.5","SS1613138780480","","","null","","","","","<p><img src= images/blank.png width =""200"" height = ""200"" style = ""float:right""></p><p><img src=images/blank.png width =""800"" height = ""200""></p>","","","","","","","","","","","",""
"","22.109999787062407","sequential-stimulus-presentation","73","91122","0.0-17.0-1.5","SS1613138780480","trial","","40","800","822.1099997870624","images/stimuli/spore_stims/complex_12_A_b.gif","images/stimuli/spore_stims/complex_12_B_b.gif","","","","","3","complex_similar","images/stimuli/spore_stims/complex_12_B_b.gif","right","","","","",""
"","null","html-keyboard-response","74","92129","0.0-17.0-0.6","SS1613138780480","","","null","","","","","<p><img src= images/blank.png width =""200"" height = ""200"" style = ""float:right""></p><p><img src=images/blank.png width =""800"" height = ""200""></p>","","","","","","","","","","","",""
"","142.5499999895692","sequential-stimulus-presentation","75","93088","0.0-17.0-1.6","SS1613138780480","trial","","40","800","942.5499999895692","images/stimuli/spore_stims/complex_12_A_b.gif","images/stimuli/spore_stims/complex_12_B_b.gif","","","","","3","complex_similar","images/stimuli/spore_stims/complex_12_B_b.gif","right","","","","",""
"","null","html-keyboard-response","76","94075","0.0-17.0-0.7","SS1613138780480","","","null","","","","","<p><img src= images/blank.png width =""200"" height = ""200"" style = ""float:right""></p><p><img src=images/blank.png width =""800"" height = ""200""></p>","","","","","","","","","","","",""
"","10.774999856948853","sequential-stimulus-presentation","77","94907","0.0-17.0-1.7","SS1613138780480","trial","","40","800","810.7749998569489","images/stimuli/spore_stims/complex_12_A_b.gif","images/stimuli/spore_stims/complex_12_B_b.gif","","","","","3","complex_similar","images/stimuli/spore_stims/complex_12_B_b.gif","right","","","","",""
"","717.4349999986589","html-keyboard-response","78","95640","0.0-18.0","SS1613138780480","pref_question","","50","","","","","<video width ='960' height = '540' style='padding-top:8%' autoplay muted><source src='images/stimuli/wall_pref.mp4' type='video/mp4'></video>","2","middle","45%","3","","","","","","","",""
"","132.5800004415214","sequential-stimulus-presentation","79","96617","0.0-19.0","SS1613138780480","pref_reveal","","40","800","932.5800004415214","null","null","","","","","3","","","","novel","","","",""
"","null","html-keyboard-response","80","97784","0.0-20.0-0.0","SS1613138780480","","","null","","","","","<p><img src= images/blank.png width =""200"" height = ""200"" style = ""float:right""></p><p><img src=images/blank.png width =""800"" height = ""200""></p>","","","","","","","","","","","",""
"","17.60500017553568","sequential-stimulus-presentation","81","98713","0.0-20.0-1.0","SS1613138780480","trial","","40","800","817.6050001755357","images/stimuli/spore_stims/complex_01_A_a.gif","images/stimuli/spore_stims/complex_01_B_a.gif","","","","","4","complex_similar","images/stimuli/spore_stims/complex_01_B_a.gif","left","","","","",""
"","null","html-keyboard-response","82","99551","0.0-20.0-0.1","SS1613138780480","","","null","","","","","<p><img src= images/blank.png width =""200"" height = ""200"" style = ""float:right""></p><p><img src=images/blank.png width =""800"" height = ""200""></p>","","","","","","","","","","","",""
"","174.85499987378716","sequential-stimulus-presentation","83","100541","0.0-20.0-1.1","SS1613138780480","trial","","40","800","974.8549998737872","images/stimuli/spore_stims/complex_01_A_a.gif","images/stimuli/spore_stims/complex_01_B_a.gif","","","","","4","complex_similar","images/stimuli/spore_stims/complex_01_B_a.gif","left","","","","",""
"","null","html-keyboard-response","84","101694","0.0-20.0-0.2","SS1613138780480","","","null","","","","","<p><img src= images/blank.png width =""200"" height = ""200"" style = ""float:right""></p><p><img src=images/blank.png width =""800"" height = ""200""></p>","","","","","","","","","","","",""
"","402.0599997602403","sequential-stimulus-presentation","85","102943","0.0-20.0-1.2","SS1613138780480","trial","","40","800","1202.0599997602403","images/stimuli/spore_stims/complex_01_A_a.gif","images/stimuli/spore_stims/complex_01_B_a.gif","","","","","4","complex_similar","images/stimuli/spore_stims/complex_01_B_a.gif","left","","","","",""
"","null","html-keyboard-response","86","104184","0.0-20.0-0.3","SS1613138780480","","","null","","","","","<p><img src= images/blank.png width =""200"" height = ""200"" style = ""float:right""></p><p><img src=images/blank.png width =""800"" height = ""200""></p>","","","","","","","","","","","",""
"","175.7899997755885","sequential-stimulus-presentation","87","105178","0.0-20.0-1.3","SS1613138780480","trial","","40","800","975.7899997755885","images/stimuli/spore_stims/complex_01_A_a.gif","images/stimuli/spore_stims/complex_01_B_a.gif","","","","","4","complex_similar","images/stimuli/spore_stims/complex_01_B_a.gif","left","","","","",""
"","null","html-keyboard-response","88","106464","0.0-20.0-0.4","SS1613138780480","","","null","","","","","<p><img src= images/blank.png width =""200"" height = ""200"" style = ""float:right""></p><p><img src=images/blank.png width =""800"" height = ""200""></p>","","","","","","","","","","","",""
"","240.24999979883432","sequential-stimulus-presentation","89","107525","0.0-20.0-1.4","SS1613138780480","trial","","40","800","1040.2499997988343","images/stimuli/spore_stims/complex_01_A_a.gif","images/stimuli/spore_stims/complex_01_B_a.gif","","","","","4","complex_similar","images/stimuli/spore_stims/complex_01_B_a.gif","left","","","","",""
"","null","html-keyboard-response","90","108695","0.0-20.0-0.5","SS1613138780480","","","null","","","","","<p><img src= images/blank.png width =""200"" height = ""200"" style = ""float:right""></p><p><img src=images/blank.png width =""800"" height = ""200""></p>","","","","","","","","","","","",""
"","102.16000024229288","sequential-stimulus-presentation","91","109627","0.0-20.0-1.5","SS1613138780480","trial","","40","800","902.1600002422929","images/stimuli/spore_stims/complex_01_A_a.gif","images/stimuli/spore_stims/complex_01_B_a.gif","","","","","4","complex_similar","images/stimuli/spore_stims/complex_01_B_a.gif","left","","","","",""
"","null","html-keyboard-response","92","110789","0.0-20.0-0.6","SS1613138780480","","","null","","","","","<p><img src= images/blank.png width =""200"" height = ""200"" style = ""float:right""></p><p><img src=images/blank.png width =""800"" height = ""200""></p>","","","","","","","","","","","",""
"","103.279999922961","sequential-stimulus-presentation","93","111769","0.0-20.0-1.6","SS1613138780480","trial","","40","800","903.279999922961","images/stimuli/spore_stims/complex_01_A_a.gif","images/stimuli/spore_stims/complex_01_B_a.gif","","","","","4","complex_similar","images/stimuli/spore_stims/complex_01_A_a.gif","right","","","","",""
"","null","html-keyboard-response","94","112608","0.0-20.0-0.7","SS1613138780480","","","null","","","","","<p><img src= images/blank.png width =""200"" height = ""200"" style = ""float:right""></p><p><img src=images/blank.png width =""800"" height = ""200""></p>","","","","","","","","","","","",""
"","364.98000007122755","sequential-stimulus-presentation","95","113795","0.0-20.0-1.7","SS1613138780480","trial","","40","800","1164.9800000712276","images/stimuli/spore_stims/complex_01_A_a.gif","images/stimuli/spore_stims/complex_01_B_a.gif","","","","","4","complex_similar","images/stimuli/spore_stims/complex_01_B_a.gif","left","","","","",""
"","749.899999704212","html-keyboard-response","96","114562","0.0-21.0","SS1613138780480","pref_question","","49","","","","","<video width ='960' height = '540' style='padding-top:8%' autoplay muted><source src='images/stimuli/wall_pref.mp4' type='video/mp4'></video>","1","left","25%","4","","","","","","","",""
"","34.909999929368496","sequential-stimulus-presentation","97","115407","0.0-22.0","SS1613138780480","pref_reveal","","40","800","834.9099999293685","null","null","","","","","4","","","","background","","","",""
"","null","html-keyboard-response","98","116375","0.0-23.0-0.0","SS1613138780480","","","null","","","","","<p><img src= images/blank.png width =""200"" height = ""200"" style = ""float:right""></p><p><img src=images/blank.png width =""800"" height = ""200""></p>","","","","","","","","","","","",""
"","197.69500009715557","sequential-stimulus-presentation","99","117393","0.0-23.0-1.0","SS1613138780480","trial","","40","800","997.6950000971556","images/stimuli/spore_stims/complex_16_B_a.gif","images/stimuli/spore_stims/complex_02_A_c.gif","","","","","5","complex_dissimilar","images/stimuli/spore_stims/complex_02_A_c.gif","left","","","","",""
"","null","html-keyboard-response","100","118645","0.0-23.0-0.1","SS1613138780480","","","null","","","","","<p><img src= images/blank.png width =""200"" height = ""200"" style = ""float:right""></p><p><img src=images/blank.png width =""800"" height = ""200""></p>","","","","","","","","","","","",""
"","277.7800001204014","sequential-stimulus-presentation","101","119750","0.0-23.0-1.1","SS1613138780480","trial","","40","800","1077.7800001204014","images/stimuli/spore_stims/complex_16_B_a.gif","images/stimuli/spore_stims/complex_02_A_c.gif","","","","","5","complex_dissimilar","images/stimuli/spore_stims/complex_02_A_c.gif","left","","","","",""
"","null","html-keyboard-response","102","120605","0.0-23.0-0.2","SS1613138780480","","","null","","","","","<p><img src= images/blank.png width =""200"" height = ""200"" style = ""float:right""></p><p><img src=images/blank.png width =""800"" height = ""200""></p>","","","","","","","","","","","",""
"","41.99999989941716","sequential-stimulus-presentation","103","121472","0.0-23.0-1.2","SS1613138780480","trial","","40","800","841.9999998994172","images/stimuli/spore_stims/complex_16_B_a.gif","images/stimuli/spore_stims/complex_02_A_c.gif","","","","","5","complex_dissimilar","images/stimuli/spore_stims/complex_02_A_c.gif","left","","","","",""
"","null","html-keyboard-response","104","122294","0.0-23.0-0.3","SS1613138780480","","","null","","","","","<p><img src= images/blank.png width =""200"" height = ""200"" style = ""float:right""></p><p><img src=images/blank.png width =""800"" height = ""200""></p>","","","","","","","","","","","",""
"","300.24500004947186","sequential-stimulus-presentation","105","123421","0.0-23.0-1.3","SS1613138780480","trial","","40","800","1100.2450000494719","images/stimuli/spore_stims/complex_16_B_a.gif","images/stimuli/spore_stims/complex_02_A_c.gif","","","","","5","complex_dissimilar","images/stimuli/spore_stims/complex_02_A_c.gif","left","","","","",""
"","null","html-keyboard-response","106","124328","0.0-23.0-0.4","SS1613138780480","","","null","","","","","<p><img src= images/blank.png width =""200"" height = ""200"" style = ""float:right""></p><p><img src=images/blank.png width =""800"" height = ""200""></p>","","","","","","","","","","","",""
"","167.02499985694885","sequential-stimulus-presentation","107","125322","0.0-23.0-1.4","SS1613138780480","trial","","40","800","967.0249998569489","images/stimuli/spore_stims/complex_16_B_a.gif","images/stimuli/spore_stims/complex_02_A_c.gif","","","","","5","complex_dissimilar","images/stimuli/spore_stims/complex_02_A_c.gif","left","","","","",""
"","null","html-keyboard-response","108","126213","0.0-23.0-0.5","SS1613138780480","","","null","","","","","<p><img src= images/blank.png width =""200"" height = ""200"" style = ""float:right""></p><p><img src=images/blank.png width =""800"" height = ""200""></p>","","","","","","","","","","","",""
"","40.94999982044101","sequential-stimulus-presentation","109","127074","0.0-23.0-1.5","SS1613138780480","trial","","40","800","840.949999820441","images/stimuli/spore_stims/complex_16_B_a.gif","images/stimuli/spore_stims/complex_02_A_c.gif","","","","","5","complex_dissimilar","images/stimuli/spore_stims/complex_16_B_a.gif","right","","","","",""
"","null","html-keyboard-response","110","127949","0.0-23.0-0.6","SS1613138780480","","","null","","","","","<p><img src= images/blank.png width =""200"" height = ""200"" style = ""float:right""></p><p><img src=images/blank.png width =""800"" height = ""200""></p>","","","","","","","","","","","",""
"","8.170000277459621","sequential-stimulus-presentation","111","128791","0.0-23.0-1.6","SS1613138780480","trial","","40","800","808.1700002774596","images/stimuli/spore_stims/complex_16_B_a.gif","images/stimuli/spore_stims/complex_02_A_c.gif","","","","","5","complex_dissimilar","images/stimuli/spore_stims/complex_02_A_c.gif","left","","","","",""
"","null","html-keyboard-response","112","130015","0.0-23.0-0.7","SS1613138780480","","","null","","","","","<p><img src= images/blank.png width =""200"" height = ""200"" style = ""float:right""></p><p><img src=images/blank.png width =""800"" height = ""200""></p>","","","","","","","","","","","",""
"","34.405000042170286","sequential-stimulus-presentation","113","130940","0.0-23.0-1.7","SS1613138780480","trial","","40","800","834.4050000421703","images/stimuli/spore_stims/complex_16_B_a.gif","images/stimuli/spore_stims/complex_02_A_c.gif","","","","","5","complex_dissimilar","images/stimuli/spore_stims/complex_02_A_c.gif","left","","","","",""
"","1342.3899998888373","html-keyboard-response","114","132312","0.0-24.0","SS1613138780480","pref_question","","98","","","","","<video width ='960' height = '540' style='padding-top:8%' autoplay muted><source src='images/stimuli/wall_pref.mp4' type='video/mp4'></video>","2","middle","45%","5","","","","","","","",""
"","109.45500014349818","sequential-stimulus-presentation","115","133256","0.0-25.0","SS1613138780480","pref_reveal","","40","800","909.4550001434982","null","null","","","","","5","","","","novel","","","",""
"","null","html-keyboard-response","116","134149","0.0-26.0-0.0","SS1613138780480","","","null","","","","","<p><img src= images/blank.png width =""200"" height = ""200"" style = ""float:right""></p><p><img src=images/blank.png width =""800"" height = ""200""></p>","","","","","","","","","","","",""
"","362.29499988257885","sequential-stimulus-presentation","117","135343","0.0-26.0-1.0","SS1613138780480","trial","","40","800","1162.2949998825788","images/stimuli/spore_stims/complex_02_A_b.gif","images/stimuli/spore_stims/complex_02_B_b.gif","","","","","6","complex_similar","images/stimuli/spore_stims/complex_02_B_b.gif","left","","","","",""
"","null","html-keyboard-response","118","136333","0.0-26.0-0.1","SS1613138780480","","","null","","","","","<p><img src= images/blank.png width =""200"" height = ""200"" style = ""float:right""></p><p><img src=images/blank.png width =""800"" height = ""200""></p>","","","","","","","","","","","",""
"","134.32499999180436","sequential-stimulus-presentation","119","137290","0.0-26.0-1.1","SS1613138780480","trial","","40","800","934.3249999918044","images/stimuli/spore_stims/complex_02_A_b.gif","images/stimuli/spore_stims/complex_02_B_b.gif","","","","","6","complex_similar","images/stimuli/spore_stims/complex_02_B_b.gif","left","","","","",""
"","null","html-keyboard-response","120","138482","0.0-26.0-0.2","SS1613138780480","","","null","","","","","<p><img src= images/blank.png width =""200"" height = ""200"" style = ""float:right""></p><p><img src=images/blank.png width =""800"" height = ""200""></p>","","","","","","","","","","","",""
"","6.240000016987324","sequential-stimulus-presentation","121","139302","0.0-26.0-1.2","SS1613138780480","trial","","40","800","806.2400000169873","images/stimuli/spore_stims/complex_02_A_b.gif","images/stimuli/spore_stims/complex_02_B_b.gif","","","","","6","complex_similar","images/stimuli/spore_stims/complex_02_B_b.gif","left","","","","",""
"","null","html-keyboard-response","122","140514","0.0-26.0-0.3","SS1613138780480","","","null","","","","","<p><img src= images/blank.png width =""200"" height = ""200"" style = ""float:right""></p><p><img src=images/blank.png width =""800"" height = ""200""></p>","","","","","","","","","","","",""
"","393.29000003635883","sequential-stimulus-presentation","123","141732","0.0-26.0-1.3","SS1613138780480","trial","","40","800","1193.2900000363588","images/stimuli/spore_stims/complex_02_A_b.gif","images/stimuli/spore_stims/complex_02_B_b.gif","","","","","6","complex_similar","images/stimuli/spore_stims/complex_02_B_b.gif","left","","","","",""
"","null","html-keyboard-response","124","143005","0.0-26.0-0.4","SS1613138780480","","","null","","","","","<p><img src= images/blank.png width =""200"" height = ""200"" style = ""float:right""></p><p><img src=images/blank.png width =""800"" height = ""200""></p>","","","","","","","","","","","",""
"","217.2200004570186","sequential-stimulus-presentation","125","144040","0.0-26.0-1.4","SS1613138780480","trial","","40","800","1017.2200004570186","images/stimuli/spore_stims/complex_02_A_b.gif","images/stimuli/spore_stims/complex_02_B_b.gif","","","","","6","complex_similar","images/stimuli/spore_stims/complex_02_A_b.gif","middle","","","","",""
"","null","html-keyboard-response","126","145245","0.0-26.0-0.5","SS1613138780480","","","null","","","","","<p><img src= images/blank.png width =""200"" height = ""200"" style = ""float:right""></p><p><img src=images/blank.png width =""800"" height = ""200""></p>","","","","","","","","","","","",""
"","160.050000064075","sequential-stimulus-presentation","127","146229","0.0-26.0-1.5","SS1613138780480","trial","","40","800","960.050000064075","images/stimuli/spore_stims/complex_02_A_b.gif","images/stimuli/spore_stims/complex_02_B_b.gif","","","","","6","complex_similar","images/stimuli/spore_stims/complex_02_B_b.gif","left","","","","",""
"","null","html-keyboard-response","128","147086","0.0-26.0-0.6","SS1613138780480","","","null","","","","","<p><img src= images/blank.png width =""200"" height = ""200"" style = ""float:right""></p><p><img src=images/blank.png width =""800"" height = ""200""></p>","","","","","","","","","","","",""
"","218.20000000298023","sequential-stimulus-presentation","129","148131","0.0-26.0-1.6","SS1613138780480","trial","","40","800","1018.2000000029802","images/stimuli/spore_stims/complex_02_A_b.gif","images/stimuli/spore_stims/complex_02_B_b.gif","","","","","6","complex_similar","images/stimuli/spore_stims/complex_02_B_b.gif","left","","","","",""
"","null","html-keyboard-response","130","149432","0.0-26.0-0.7","SS1613138780480","","","null","","","","","<p><img src= images/blank.png width =""200"" height = ""200"" style = ""float:right""></p><p><img src=images/blank.png width =""800"" height = ""200""></p>","","","","","","","","","","","",""
"","514.3649997189641","sequential-stimulus-presentation","131","150821","0.0-26.0-1.7","SS1613138780480","trial","","40","800","1314.364999718964","images/stimuli/spore_stims/complex_02_A_b.gif","images/stimuli/spore_stims/complex_02_B_b.gif","","","","","6","complex_similar","images/stimuli/spore_stims/complex_02_B_b.gif","left","","","","",""
"","1320.7700001075864","html-keyboard-response","132","152151","0.0-27.0","SS1613138780480","pref_question","","99","","","","","<video width ='960' height = '540' style='padding-top:8%' autoplay muted><source src='images/stimuli/wall_pref.mp4' type='video/mp4'></video>","3","right","66%","6","","","","","","","",""
"","181.95500038564205","sequential-stimulus-presentation","133","153150","0.0-28.0","SS1613138780480","pref_reveal","","40","800","981.955000385642","null","null","","","","","6","","","","novel","","","",""
"","null","html-keyboard-response","134","154316","0.0-29.0-0.0","SS1613138780480","","","null","","","","","<p><img src= images/blank.png width =""200"" height = ""200"" style = ""float:right""></p><p><img src=images/blank.png width =""800"" height = ""200""></p>","","","","","","","","","","","",""
"","200.829999987036","sequential-stimulus-presentation","135","155354","0.0-29.0-1.0","SS1613138780480","trial","","40","800","1000.829999987036","images/stimuli/spore_stims/complex_04_A_a.gif","images/stimuli/spore_stims/complex_04_B_a.gif","","","","","7","complex_similar","images/stimuli/spore_stims/complex_04_B_a.gif","right","","","","",""
"","null","html-keyboard-response","136","156395","0.0-29.0-0.1","SS1613138780480","","","null","","","","","<p><img src= images/blank.png width =""200"" height = ""200"" style = ""float:right""></p><p><img src=images/blank.png width =""800"" height = ""200""></p>","","","","","","","","","","","",""
"","104.28000008687377","sequential-stimulus-presentation","137","157329","0.0-29.0-1.1","SS1613138780480","trial","","40","800","904.2800000868738","images/stimuli/spore_stims/complex_04_A_a.gif","images/stimuli/spore_stims/complex_04_B_a.gif","","","","","7","complex_similar","images/stimuli/spore_stims/complex_04_B_a.gif","right","","","","",""
"","null","html-keyboard-response","138","158311","0.0-29.0-0.2","SS1613138780480","","","null","","","","","<p><img src= images/blank.png width =""200"" height = ""200"" style = ""float:right""></p><p><img src=images/blank.png width =""800"" height = ""200""></p>","","","","","","","","","","","",""
"","173.93500031903386","sequential-stimulus-presentation","139","159301","0.0-29.0-1.2","SS1613138780480","trial","","40","800","973.9350003190339","images/stimuli/spore_stims/complex_04_A_a.gif","images/stimuli/spore_stims/complex_04_B_a.gif","","","","","7","complex_similar","images/stimuli/spore_stims/complex_04_B_a.gif","right","","","","",""
"","null","html-keyboard-response","140","160125","0.0-29.0-0.3","SS1613138780480","","","null","","","","","<p><img src= images/blank.png width =""200"" height = ""200"" style = ""float:right""></p><p><img src=images/blank.png width =""800"" height = ""200""></p>","","","","","","","","","","","",""
"","9.53999999910593","sequential-stimulus-presentation","141","160961","0.0-29.0-1.3","SS1613138780480","trial","","40","800","809.5399999991059","images/stimuli/spore_stims/complex_04_A_a.gif","images/stimuli/spore_stims/complex_04_B_a.gif","","","","","7","complex_similar","images/stimuli/spore_stims/complex_04_B_a.gif","right","","","","",""
"","null","html-keyboard-response","142","161975","0.0-29.0-0.4","SS1613138780480","","","null","","","","","<p><img src= images/blank.png width =""200"" height = ""200"" style = ""float:right""></p><p><img src=images/blank.png width =""800"" height = ""200""></p>","","","","","","","","","","","",""
"","120.76500011608005","sequential-stimulus-presentation","143","162932","0.0-29.0-1.4","SS1613138780480","trial","","40","800","920.76500011608","images/stimuli/spore_stims/complex_04_A_a.gif","images/stimuli/spore_stims/complex_04_B_a.gif","","","","","7","complex_similar","images/stimuli/spore_stims/complex_04_A_a.gif","left","","","","",""
"","null","html-keyboard-response","144","163844","0.0-29.0-0.5","SS1613138780480","","","null","","","","","<p><img src= images/blank.png width =""200"" height = ""200"" style = ""float:right""></p><p><img src=images/blank.png width =""800"" height = ""200""></p>","","","","","","","","","","","",""
"","20.660000387579203","sequential-stimulus-presentation","145","164703","0.0-29.0-1.5","SS1613138780480","trial","","40","800","820.6600003875792","images/stimuli/spore_stims/complex_04_A_a.gif","images/stimuli/spore_stims/complex_04_B_a.gif","","","","","7","complex_similar","images/stimuli/spore_stims/complex_04_B_a.gif","right","","","","",""
"","null","html-keyboard-response","146","165924","0.0-29.0-0.6","SS1613138780480","","","null","","","","","<p><img src= images/blank.png width =""200"" height = ""200"" style = ""float:right""></p><p><img src=images/blank.png width =""800"" height = ""200""></p>","","","","","","","","","","","",""
"","92.47000003233552","sequential-stimulus-presentation","147","166834","0.0-29.0-1.6","SS1613138780480","trial","","40","800","892.4700000323355","images/stimuli/spore_stims/complex_04_A_a.gif","images/stimuli/spore_stims/complex_04_B_a.gif","","","","","7","complex_similar","images/stimuli/spore_stims/complex_04_B_a.gif","right","","","","",""
"","null","html-keyboard-response","148","167926","0.0-29.0-0.7","SS1613138780480","","","null","","","","","<p><img src= images/blank.png width =""200"" height = ""200"" style = ""float:right""></p><p><img src=images/blank.png width =""800"" height = ""200""></p>","","","","","","","","","","","",""
"","165.03500007092953","sequential-stimulus-presentation","149","168912","0.0-29.0-1.7","SS1613138780480","trial","","40","800","965.0350000709295","images/stimuli/spore_stims/complex_04_A_a.gif","images/stimuli/spore_stims/complex_04_B_a.gif","","","","","7","complex_similar","images/stimuli/spore_stims/complex_04_B_a.gif","right","","","","",""
"","1206.7249999381602","html-keyboard-response","150","170138","0.0-30.0","SS1613138780480","pref_question","","99","","","","","<video width ='960' height = '540' style='padding-top:8%' autoplay muted><source src='images/stimuli/wall_pref.mp4' type='video/mp4'></video>","3","right","66%","7","","","","","","","",""
"","27.125000022351742","sequential-stimulus-presentation","151","170989","0.0-31.0","SS1613138780480","pref_reveal","","40","800","827.1250000223517","null","null","","","","","7","","","","background","","","",""
"","null","html-keyboard-response","152","172232","0.0-32.0-0.0","SS1613138780480","","","null","","","","","<p><img src= images/blank.png width =""200"" height = ""200"" style = ""float:right""></p><p><img src=images/blank.png width =""800"" height = ""200""></p>","","","","","","","","","","","",""
"","208.319999743253","sequential-stimulus-presentation","153","173272","0.0-32.0-1.0","SS1613138780480","trial","","40","800","1008.319999743253","images/stimuli/spore_stims/complex_08_A_b.gif","images/stimuli/spore_stims/complex_16_A_d.gif","","","","","8","complex_dissimilar","images/stimuli/spore_stims/complex_16_A_d.gif","middle","","","","",""
"","null","html-keyboard-response","154","174249","0.0-32.0-0.1","SS1613138780480","","","null","","","","","<p><img src= images/blank.png width =""200"" height = ""200"" style = ""float:right""></p><p><img src=images/blank.png width =""800"" height = ""200""></p>","","","","","","","","","","","",""
"","147.7000000886619","sequential-stimulus-presentation","155","175218","0.0-32.0-1.1","SS1613138780480","trial","","40","800","947.7000000886619","images/stimuli/spore_stims/complex_08_A_b.gif","images/stimuli/spore_stims/complex_16_A_d.gif","","","","","8","complex_dissimilar","images/stimuli/spore_stims/complex_16_A_d.gif","middle","","","","",""
"","null","html-keyboard-response","156","176195","0.0-32.0-0.2","SS1613138780480","","","null","","","","","<p><img src= images/blank.png width =""200"" height = ""200"" style = ""float:right""></p><p><img src=images/blank.png width =""800"" height = ""200""></p>","","","","","","","","","","","",""
"","107.82500030472875","sequential-stimulus-presentation","157","177152","0.0-32.0-1.2","SS1613138780480","trial","","40","800","907.8250003047287","images/stimuli/spore_stims/complex_08_A_b.gif","images/stimuli/spore_stims/complex_16_A_d.gif","","","","","8","complex_dissimilar","images/stimuli/spore_stims/complex_16_A_d.gif","middle","","","","",""
"","null","html-keyboard-response","158","178299","0.0-32.0-0.3","SS1613138780480","","","null","","","","","<p><img src= images/blank.png width =""200"" height = ""200"" style = ""float:right""></p><p><img src=images/blank.png width =""800"" height = ""200""></p>","","","","","","","","","","","",""
"","747.805000282824","sequential-stimulus-presentation","159","179872","0.0-32.0-1.3","SS1613138780480","trial","","40","800","1547.805000282824","images/stimuli/spore_stims/complex_08_A_b.gif","images/stimuli/spore_stims/complex_16_A_d.gif","","","","","8","complex_dissimilar","images/stimuli/spore_stims/complex_16_A_d.gif","middle","","","","",""
"","null","html-keyboard-response","160","181175","0.0-32.0-0.4","SS1613138780480","","","null","","","","","<p><img src= images/blank.png width =""200"" height = ""200"" style = ""float:right""></p><p><img src=images/blank.png width =""800"" height = ""200""></p>","","","","","","","","","","","",""
"","35.804999992251396","sequential-stimulus-presentation","161","182038","0.0-32.0-1.4","SS1613138780480","trial","","40","800","835.8049999922514","images/stimuli/spore_stims/complex_08_A_b.gif","images/stimuli/spore_stims/complex_16_A_d.gif","","","","","8","complex_dissimilar","images/stimuli/spore_stims/complex_08_A_b.gif","right","","","","",""
"","null","html-keyboard-response","162","183075","0.0-32.0-0.5","SS1613138780480","","","null","","","","","<p><img src= images/blank.png width =""200"" height = ""200"" style = ""float:right""></p><p><img src=images/blank.png width =""800"" height = ""200""></p>","","","","","","","","","","","",""
"","54.040000308305025","sequential-stimulus-presentation","163","183951","0.0-32.0-1.5","SS1613138780480","trial","","40","800","854.040000308305","images/stimuli/spore_stims/complex_08_A_b.gif","images/stimuli/spore_stims/complex_16_A_d.gif","","","","","8","complex_dissimilar","images/stimuli/spore_stims/complex_16_A_d.gif","middle","","","","",""
"","null","html-keyboard-response","164","184866","0.0-32.0-0.6","SS1613138780480","","","null","","","","","<p><img src= images/blank.png width =""200"" height = ""200"" style = ""float:right""></p><p><img src=images/blank.png width =""800"" height = ""200""></p>","","","","","","","","","","","",""
"","113.70000010356307","sequential-stimulus-presentation","165","185810","0.0-32.0-1.6","SS1613138780480","trial","","40","800","913.7000001035631","images/stimuli/spore_stims/complex_08_A_b.gif","images/stimuli/spore_stims/complex_16_A_d.gif","","","","","8","complex_dissimilar","images/stimuli/spore_stims/complex_16_A_d.gif","middle","","","","",""
"","null","html-keyboard-response","166","186866","0.0-32.0-0.7","SS1613138780480","","","null","","","","","<p><img src= images/blank.png width =""200"" height = ""200"" style = ""float:right""></p><p><img src=images/blank.png width =""800"" height = ""200""></p>","","","","","","","","","","","",""
"","29.014999978244305","sequential-stimulus-presentation","167","187724","0.0-32.0-1.7","SS1613138780480","trial","","40","800","829.0149999782443","images/stimuli/spore_stims/complex_08_A_b.gif","images/stimuli/spore_stims/complex_16_A_d.gif","","","","","8","complex_dissimilar","images/stimuli/spore_stims/complex_16_A_d.gif","middle","","","","",""
"","1315.7500000670552","html-keyboard-response","168","189061","0.0-33.0","SS1613138780480","pref_question","","97","","","","","<video width ='960' height = '540' style='padding-top:8%' autoplay muted><source src='images/stimuli/wall_pref.mp4' type='video/mp4'></video>","1","left","25%","8","","","","","","","",""
"","104.48000021278858","sequential-stimulus-presentation","169","189991","0.0-34.0","SS1613138780480","pref_reveal","","40","800","904.4800002127886","null","null","","","","","8","","","","novel","","","",""
"","null","html-keyboard-response","170","191205","0.0-35.0-0.0","SS1613138780480","","","null","","","","","<p><img src= images/blank.png width =""200"" height = ""200"" style = ""float:right""></p><p><img src=images/blank.png width =""800"" height = ""200""></p>","","","","","","","","","","","",""
"","121.66000017896295","sequential-stimulus-presentation","171","192159","0.0-35.0-1.0","SS1613138780480","trial","","40","800","921.660000178963","images/stimuli/spore_stims/simple_18_A_b.gif","images/stimuli/spore_stims/simple_19_B_d.gif","","","","","9","simple_dissimilar","images/stimuli/spore_stims/simple_19_B_d.gif","left","","","","",""
"","null","html-keyboard-response","172","193365","0.0-35.0-0.1","SS1613138780480","","","null","","","","","<p><img src= images/blank.png width =""200"" height = ""200"" style = ""float:right""></p><p><img src=images/blank.png width =""800"" height = ""200""></p>","","","","","","","","","","","",""
"","178.53999976068735","sequential-stimulus-presentation","173","194375","0.0-35.0-1.1","SS1613138780480","trial","","40","800","978.5399997606874","images/stimuli/spore_stims/simple_18_A_b.gif","images/stimuli/spore_stims/simple_19_B_d.gif","","","","","9","simple_dissimilar","images/stimuli/spore_stims/simple_19_B_d.gif","left","","","","",""
"","null","html-keyboard-response","174","195516","0.0-35.0-0.2","SS1613138780480","","","null","","","","","<p><img src= images/blank.png width =""200"" height = ""200"" style = ""float:right""></p><p><img src=images/blank.png width =""800"" height = ""200""></p>","","","","","","","","","","","",""
"","187.7300003543496","sequential-stimulus-presentation","175","196540","0.0-35.0-1.2","SS1613138780480","trial","","40","800","987.7300003543496","images/stimuli/spore_stims/simple_18_A_b.gif","images/stimuli/spore_stims/simple_19_B_d.gif","","","","","9","simple_dissimilar","images/stimuli/spore_stims/simple_19_B_d.gif","left","","","","",""
"","null","html-keyboard-response","176","197450","0.0-35.0-0.3","SS1613138780480","","","null","","","","","<p><img src= images/blank.png width =""200"" height = ""200"" style = ""float:right""></p><p><img src=images/blank.png width =""800"" height = ""200""></p>","","","","","","","","","","","",""
"","64.52000001445413","sequential-stimulus-presentation","177","198341","0.0-35.0-1.3","SS1613138780480","trial","","40","800","864.5200000144541","images/stimuli/spore_stims/simple_18_A_b.gif","images/stimuli/spore_stims/simple_19_B_d.gif","","","","","9","simple_dissimilar","images/stimuli/spore_stims/simple_19_B_d.gif","left","","","","",""
"","null","html-keyboard-response","178","199601","0.0-35.0-0.4","SS1613138780480","","","null","","","","","<p><img src= images/blank.png width =""200"" height = ""200"" style = ""float:right""></p><p><img src=images/blank.png width =""800"" height = ""200""></p>","","","","","","","","","","","",""
"","65.53500005975366","sequential-stimulus-presentation","179","200490","0.0-35.0-1.4","SS1613138780480","trial","","40","800","865.5350000597537","images/stimuli/spore_stims/simple_18_A_b.gif","images/stimuli/spore_stims/simple_19_B_d.gif","","","","","9","simple_dissimilar","images/stimuli/spore_stims/simple_19_B_d.gif","left","","","","",""
"","null","html-keyboard-response","180","201445","0.0-35.0-0.5","SS1613138780480","","","null","","","","","<p><img src= images/blank.png width =""200"" height = ""200"" style = ""float:right""></p><p><img src=images/blank.png width =""800"" height = ""200""></p>","","","","","","","","","","","",""
"","396.44999988377094","sequential-stimulus-presentation","181","202670","0.0-35.0-1.5","SS1613138780480","trial","","40","800","1196.449999883771","images/stimuli/spore_stims/simple_18_A_b.gif","images/stimuli/spore_stims/simple_19_B_d.gif","","","","","9","simple_dissimilar","images/stimuli/spore_stims/simple_19_B_d.gif","left","","","","",""
"","null","html-keyboard-response","182","203626","0.0-35.0-0.6","SS1613138780480","","","null","","","","","<p><img src= images/blank.png width =""200"" height = ""200"" style = ""float:right""></p><p><img src=images/blank.png width =""800"" height = ""200""></p>","","","","","","","","","","","",""
"","94.07000010833144","sequential-stimulus-presentation","183","204549","0.0-35.0-1.6","SS1613138780480","trial","","40","800","894.0700001083314","images/stimuli/spore_stims/simple_18_A_b.gif","images/stimuli/spore_stims/simple_19_B_d.gif","","","","","9","simple_dissimilar","images/stimuli/spore_stims/simple_19_B_d.gif","left","","","","",""
"","null","html-keyboard-response","184","205424","0.0-35.0-0.7","SS1613138780480","","","null","","","","","<p><img src= images/blank.png width =""200"" height = ""200"" style = ""float:right""></p><p><img src=images/blank.png width =""800"" height = ""200""></p>","","","","","","","","","","","",""
"","89.70999997109175","sequential-stimulus-presentation","185","206409","0.0-35.0-1.7","SS1613138780480","trial","","40","800","889.7099999710917","images/stimuli/spore_stims/simple_18_A_b.gif","images/stimuli/spore_stims/simple_19_B_d.gif","","","","","9","simple_dissimilar","images/stimuli/spore_stims/simple_18_A_b.gif","middle","","","","",""
"","1077.0300002768636","html-keyboard-response","186","207530","0.0-36.0","SS1613138780480","pref_question","","97","","","","","<video width ='960' height = '540' style='padding-top:8%' autoplay muted><source src='images/stimuli/wall_pref.mp4' type='video/mp4'></video>","1","left","25%","9","","","","","","","",""
"","77.21500005573034","sequential-stimulus-presentation","187","208444","0.0-37.0","SS1613138780480","pref_reveal","","40","800","877.2150000557303","null","null","","","","","9","","","","background","","","",""
"","null","html-keyboard-response","188","209416","0.0-38.0-0.0","SS1613138780480","","","null","","","","","<p><img src= images/blank.png width =""200"" height = ""200"" style = ""float:right""></p><p><img src=images/blank.png width =""800"" height = ""200""></p>","","","","","","","","","","","",""
"","35.35499982535839","sequential-stimulus-presentation","189","210281","0.0-38.0-1.0","SS1613138780480","trial","","40","800","835.3549998253584","images/stimuli/spore_stims/simple_10_B_b.gif","images/stimuli/spore_stims/simple_10_A_b.gif","","","","","10","simple_similar","images/stimuli/spore_stims/simple_10_A_b.gif","right","","","","",""
"","null","html-keyboard-response","190","211305","0.0-38.0-0.1","SS1613138780480","","","null","","","","","<p><img src= images/blank.png width =""200"" height = ""200"" style = ""float:right""></p><p><img src=images/blank.png width =""800"" height = ""200""></p>","","","","","","","","","","","",""
"","66.99500000104308","sequential-stimulus-presentation","191","212193","0.0-38.0-1.1","SS1613138780480","trial","","40","800","866.9950000010431","images/stimuli/spore_stims/simple_10_B_b.gif","images/stimuli/spore_stims/simple_10_A_b.gif","","","","","10","simple_similar","images/stimuli/spore_stims/simple_10_A_b.gif","right","","","","",""
"","null","html-keyboard-response","192","213191","0.0-38.0-0.2","SS1613138780480","","","null","","","","","<p><img src= images/blank.png width =""200"" height = ""200"" style = ""float:right""></p><p><img src=images/blank.png width =""800"" height = ""200""></p>","","","","","","","","","","","",""
"","110.26499979197979","sequential-stimulus-presentation","193","214143","0.0-38.0-1.2","SS1613138780480","trial","","40","800","910.2649997919798","images/stimuli/spore_stims/simple_10_B_b.gif","images/stimuli/spore_stims/simple_10_A_b.gif","","","","","10","simple_similar","images/stimuli/spore_stims/simple_10_A_b.gif","right","","","","",""
"","null","html-keyboard-response","194","214998","0.0-38.0-0.3","SS1613138780480","","","null","","","","","<p><img src= images/blank.png width =""200"" height = ""200"" style = ""float:right""></p><p><img src=images/blank.png width =""800"" height = ""200""></p>","","","","","","","","","","","",""
"","142.65999989584088","sequential-stimulus-presentation","195","215966","0.0-38.0-1.3","SS1613138780480","trial","","40","800","942.6599998958409","images/stimuli/spore_stims/simple_10_B_b.gif","images/stimuli/spore_stims/simple_10_A_b.gif","","","","","10","simple_similar","images/stimuli/spore_stims/simple_10_A_b.gif","right","","","","",""
"","null","html-keyboard-response","196","216832","0.0-38.0-0.4","SS1613138780480","","","null","","","","","<p><img src= images/blank.png width =""200"" height = ""200"" style = ""float:right""></p><p><img src=images/blank.png width =""800"" height = ""200""></p>","","","","","","","","","","","",""
"","70.44999999925494","sequential-stimulus-presentation","197","217796","0.0-38.0-1.4","SS1613138780480","trial","","40","800","870.4499999992549","images/stimuli/spore_stims/simple_10_B_b.gif","images/stimuli/spore_stims/simple_10_A_b.gif","","","","","10","simple_similar","images/stimuli/spore_stims/simple_10_A_b.gif","right","","","","",""
"","null","html-keyboard-response","198","219075","0.0-38.0-0.5","SS1613138780480","","","null","","","","","<p><img src= images/blank.png width =""200"" height = ""200"" style = ""float:right""></p><p><img src=images/blank.png width =""800"" height = ""200""></p>","","","","","","","","","","","",""
"","1141.3849997334182","sequential-stimulus-presentation","199","221051","0.0-38.0-1.5","SS1613138780480","trial","","40","800","1941.3849997334182","images/stimuli/spore_stims/simple_10_B_b.gif","images/stimuli/spore_stims/simple_10_A_b.gif","","","","","10","simple_similar","images/stimuli/spore_stims/simple_10_A_b.gif","right","","","","",""
"","null","html-keyboard-response","200","221995","0.0-38.0-0.6","SS1613138780480","","","null","","","","","<p><img src= images/blank.png width =""200"" height = ""200"" style = ""float:right""></p><p><img src=images/blank.png width =""800"" height = ""200""></p>","","","","","","","","","","","",""
"","318.05000035092235","sequential-stimulus-presentation","201","223149","0.0-38.0-1.6","SS1613138780480","trial","","40","800","1118.0500003509223","images/stimuli/spore_stims/simple_10_B_b.gif","images/stimuli/spore_stims/simple_10_A_b.gif","","","","","10","simple_similar","images/stimuli/spore_stims/simple_10_A_b.gif","right","","","","",""
"","null","html-keyboard-response","202","224395","0.0-38.0-0.7","SS1613138780480","","","null","","","","","<p><img src= images/blank.png width =""200"" height = ""200"" style = ""float:right""></p><p><img src=images/blank.png width =""800"" height = ""200""></p>","","","","","","","","","","","",""
"","224.77500000968575","sequential-stimulus-presentation","203","225443","0.0-38.0-1.7","SS1613138780480","trial","","40","800","1024.7750000096858","images/stimuli/spore_stims/simple_10_B_b.gif","images/stimuli/spore_stims/simple_10_A_b.gif","","","","","10","simple_similar","images/stimuli/spore_stims/simple_10_B_b.gif","middle","","","","",""
"","762.0149999856949","html-keyboard-response","204","226254","0.0-39.0","SS1613138780480","pref_question","","97","","","","","<video width ='960' height = '540' style='padding-top:8%' autoplay muted><source src='images/stimuli/wall_pref.mp4' type='video/mp4'></video>","1","left","25%","10","","","","","","","",""
"","14.36999998986721","sequential-stimulus-presentation","205","227105","0.0-40.0","SS1613138780480","pref_reveal","","40","800","814.3699999898672","null","null","","","","","10","","","","novel","","","",""
"","null","html-keyboard-response","206","228295","0.0-41.0-0.0","SS1613138780480","","","null","","","","","<p><img src= images/blank.png width =""200"" height = ""200"" style = ""float:right""></p><p><img src=images/blank.png width =""800"" height = ""200""></p>","","","","","","","","","","","",""
"","164.71499996259809","sequential-stimulus-presentation","207","229289","0.0-41.0-1.0","SS1613138780480","trial","","40","800","964.7149999625981","images/stimuli/spore_stims/simple_14_B_d.gif","images/stimuli/spore_stims/simple_14_A_d.gif","","","","","11","simple_similar","images/stimuli/spore_stims/simple_14_A_d.gif","right","","","","",""
"","null","html-keyboard-response","208","230178","0.0-41.0-0.1","SS1613138780480","","","null","","","","","<p><img src= images/blank.png width =""200"" height = ""200"" style = ""float:right""></p><p><img src=images/blank.png width =""800"" height = ""200""></p>","","","","","","","","","","","",""
"","62.18500016257167","sequential-stimulus-presentation","209","231070","0.0-41.0-1.1","SS1613138780480","trial","","40","800","862.1850001625717","images/stimuli/spore_stims/simple_14_B_d.gif","images/stimuli/spore_stims/simple_14_A_d.gif","","","","","11","simple_similar","images/stimuli/spore_stims/simple_14_A_d.gif","right","","","","",""
"","null","html-keyboard-response","210","232345","0.0-41.0-0.2","SS1613138780480","","","null","","","","","<p><img src= images/blank.png width =""200"" height = ""200"" style = ""float:right""></p><p><img src=images/blank.png width =""800"" height = ""200""></p>","","","","","","","","","","","",""
"","110.6350002810359","sequential-stimulus-presentation","211","233288","0.0-41.0-1.2","SS1613138780480","trial","","40","800","910.6350002810359","images/stimuli/spore_stims/simple_14_B_d.gif","images/stimuli/spore_stims/simple_14_A_d.gif","","","","","11","simple_similar","images/stimuli/spore_stims/simple_14_A_d.gif","right","","","","",""
"","null","html-keyboard-response","212","234244","0.0-41.0-0.3","SS1613138780480","","","null","","","","","<p><img src= images/blank.png width =""200"" height = ""200"" style = ""float:right""></p><p><img src=images/blank.png width =""800"" height = ""200""></p>","","","","","","","","","","","",""
"","68.4799998998642","sequential-stimulus-presentation","213","235143","0.0-41.0-1.3","SS1613138780480","trial","","40","800","868.4799998998642","images/stimuli/spore_stims/simple_14_B_d.gif","images/stimuli/spore_stims/simple_14_A_d.gif","","","","","11","simple_similar","images/stimuli/spore_stims/simple_14_A_d.gif","right","","","","",""
"","null","html-keyboard-response","214","236252","0.0-41.0-0.4","SS1613138780480","","","null","","","","","<p><img src= images/blank.png width =""200"" height = ""200"" style = ""float:right""></p><p><img src=images/blank.png width =""800"" height = ""200""></p>","","","","","","","","","","","",""
"","374.8900000937283","sequential-stimulus-presentation","215","237458","0.0-41.0-1.4","SS1613138780480","trial","","40","800","1174.8900000937283","images/stimuli/spore_stims/simple_14_B_d.gif","images/stimuli/spore_stims/simple_14_A_d.gif","","","","","11","simple_similar","images/stimuli/spore_stims/simple_14_A_d.gif","right","","","","",""
"","null","html-keyboard-response","216","238382","0.0-41.0-0.5","SS1613138780480","","","null","","","","","<p><img src= images/blank.png width =""200"" height = ""200"" style = ""float:right""></p><p><img src=images/blank.png width =""800"" height = ""200""></p>","","","","","","","","","","","",""
"","275.14499984681606","sequential-stimulus-presentation","217","239494","0.0-41.0-1.5","SS1613138780480","trial","","40","800","1075.144999846816","images/stimuli/spore_stims/simple_14_B_d.gif","images/stimuli/spore_stims/simple_14_A_d.gif","","","","","11","simple_similar","images/stimuli/spore_stims/simple_14_B_d.gif","middle","","","","",""
"","null","html-keyboard-response","218","240775","0.0-41.0-0.6","SS1613138780480","","","null","","","","","<p><img src= images/blank.png width =""200"" height = ""200"" style = ""float:right""></p><p><img src=images/blank.png width =""800"" height = ""200""></p>","","","","","","","","","","","",""
"","4.0699997916817665","sequential-stimulus-presentation","219","241610","0.0-41.0-1.6","SS1613138780480","trial","","40","800","804.0699997916818","images/stimuli/spore_stims/simple_14_B_d.gif","images/stimuli/spore_stims/simple_14_A_d.gif","","","","","11","simple_similar","images/stimuli/spore_stims/simple_14_A_d.gif","right","","","","",""
"","null","html-keyboard-response","220","242715","0.0-41.0-0.7","SS1613138780480","","","null","","","","","<p><img src= images/blank.png width =""200"" height = ""200"" style = ""float:right""></p><p><img src=images/blank.png width =""800"" height = ""200""></p>","","","","","","","","","","","",""
"","271.3250000961125","sequential-stimulus-presentation","221","243819","0.0-41.0-1.7","SS1613138780480","trial","","40","800","1071.3250000961125","images/stimuli/spore_stims/simple_14_B_d.gif","images/stimuli/spore_stims/simple_14_A_d.gif","","","","","11","simple_similar","images/stimuli/spore_stims/simple_14_A_d.gif","right","","","","",""
"","1089.6350000984967","html-keyboard-response","222","244985","0.0-42.0","SS1613138780480","pref_question","","97","","","","","<video width ='960' height = '540' style='padding-top:8%' autoplay muted><source src='images/stimuli/wall_pref.mp4' type='video/mp4'></video>","1","left","25%","11","","","","","","","",""
"","956.0899999924004","sequential-stimulus-presentation","223","246779","0.0-43.0","SS1613138780480","pref_reveal","","40","800","1756.0899999924004","null","null","","","","","11","","","","novel","","","",""
"","null","html-keyboard-response","224","247966","0.0-44.0-0.0","SS1613138780480","","","null","","","","","<p><img src= images/blank.png width =""200"" height = ""200"" style = ""float:right""></p><p><img src=images/blank.png width =""800"" height = ""200""></p>","","","","","","","","","","","",""
"","170.9000002592802","sequential-stimulus-presentation","225","248961","0.0-44.0-1.0","SS1613138780480","trial","","40","800","970.9000002592802","images/stimuli/spore_stims/simple_12_A_c.gif","images/stimuli/spore_stims/simple_12_B_c.gif","","","","","12","simple_similar","images/stimuli/spore_stims/simple_12_B_c.gif","right","","","","",""
"","null","html-keyboard-response","226","250165","0.0-44.0-0.1","SS1613138780480","","","null","","","","","<p><img src= images/blank.png width =""200"" height = ""200"" style = ""float:right""></p><p><img src=images/blank.png width =""800"" height = ""200""></p>","","","","","","","","","","","",""
"","99.15499994531274","sequential-stimulus-presentation","227","251100","0.0-44.0-1.1","SS1613138780480","trial","","40","800","899.1549999453127","images/stimuli/spore_stims/simple_12_A_c.gif","images/stimuli/spore_stims/simple_12_B_c.gif","","","","","12","simple_similar","images/stimuli/spore_stims/simple_12_B_c.gif","right","","","","",""
"","null","html-keyboard-response","228","252332","0.0-44.0-0.2","SS1613138780480","","","null","","","","","<p><img src= images/blank.png width =""200"" height = ""200"" style = ""float:right""></p><p><img src=images/blank.png width =""800"" height = ""200""></p>","","","","","","","","","","","",""
"","163.94999995827675","sequential-stimulus-presentation","229","253340","0.0-44.0-1.2","SS1613138780480","trial","","40","800","963.9499999582767","images/stimuli/spore_stims/simple_12_A_c.gif","images/stimuli/spore_stims/simple_12_B_c.gif","","","","","12","simple_similar","images/stimuli/spore_stims/simple_12_B_c.gif","right","","","","",""
"","null","html-keyboard-response","230","254582","0.0-44.0-0.3","SS1613138780480","","","null","","","","","<p><img src= images/blank.png width =""200"" height = ""200"" style = ""float:right""></p><p><img src=images/blank.png width =""800"" height = ""200""></p>","","","","","","","","","","","",""
"","154.05000001192093","sequential-stimulus-presentation","231","255579","0.0-44.0-1.3","SS1613138780480","trial","","40","800","954.0500000119209","images/stimuli/spore_stims/simple_12_A_c.gif","images/stimuli/spore_stims/simple_12_B_c.gif","","","","","12","simple_similar","images/stimuli/spore_stims/simple_12_A_c.gif","middle","","","","",""
"","null","html-keyboard-response","232","256815","0.0-44.0-0.4","SS1613138780480","","","null","","","","","<p><img src= images/blank.png width =""200"" height = ""200"" style = ""float:right""></p><p><img src=images/blank.png width =""800"" height = ""200""></p>","","","","","","","","","","","",""
"","132.22499983385205","sequential-stimulus-presentation","233","257778","0.0-44.0-1.4","SS1613138780480","trial","","40","800","932.224999833852","images/stimuli/spore_stims/simple_12_A_c.gif","images/stimuli/spore_stims/simple_12_B_c.gif","","","","","12","simple_similar","images/stimuli/spore_stims/simple_12_B_c.gif","right","","","","",""
"","null","html-keyboard-response","234","258873","0.0-44.0-0.5","SS1613138780480","","","null","","","","","<p><img src= images/blank.png width =""200"" height = ""200"" style = ""float:right""></p><p><img src=images/blank.png width =""800"" height = ""200""></p>","","","","","","","","","","","",""
"","148.65500014275312","sequential-stimulus-presentation","235","259859","0.0-44.0-1.5","SS1613138780480","trial","","40","800","948.6550001427531","images/stimuli/spore_stims/simple_12_A_c.gif","images/stimuli/spore_stims/simple_12_B_c.gif","","","","","12","simple_similar","images/stimuli/spore_stims/simple_12_B_c.gif","right","","","","",""
"","null","html-keyboard-response","236","261153","0.0-44.0-0.6","SS1613138780480","","","null","","","","","<p><img src= images/blank.png width =""200"" height = ""200"" style = ""float:right""></p><p><img src=images/blank.png width =""800"" height = ""200""></p>","","","","","","","","","","","",""
"","217.55499998107553","sequential-stimulus-presentation","237","262258","0.0-44.0-1.6","SS1613138780480","trial","","40","800","1017.5549999810755","images/stimuli/spore_stims/simple_12_A_c.gif","images/stimuli/spore_stims/simple_12_B_c.gif","","","","","12","simple_similar","images/stimuli/spore_stims/simple_12_B_c.gif","right","","","","",""
"","null","html-keyboard-response","238","263365","0.0-44.0-0.7","SS1613138780480","","","null","","","","","<p><img src= images/blank.png width =""200"" height = ""200"" style = ""float:right""></p><p><img src=images/blank.png width =""800"" height = ""200""></p>","","","","","","","","","","","",""
"","127.25500017404556","sequential-stimulus-presentation","239","264312","0.0-44.0-1.7","SS1613138780480","trial","","40","800","927.2550001740456","images/stimuli/spore_stims/simple_12_A_c.gif","images/stimuli/spore_stims/simple_12_B_c.gif","","","","","12","simple_similar","images/stimuli/spore_stims/simple_12_B_c.gif","right","","","","",""
"","1424.1499998606741","html-keyboard-response","240","265779","0.0-45.0","SS1613138780480","pref_question","","97","","","","","<video width ='960' height = '540' style='padding-top:8%' autoplay muted><source src='images/stimuli/wall_pref.mp4' type='video/mp4'></video>","1","left","25%","12","","","","","","","",""
"","16.970000229775906","sequential-stimulus-presentation","241","266638","0.0-46.0","SS1613138780480","pref_reveal","","40","800","816.9700002297759","null","null","","","","","12","","","","novel","","","",""
"","null","html-keyboard-response","242","267690","0.0-47.0-0.0","SS1613138780480","","","null","","","","","<p><img src= images/blank.png width =""200"" height = ""200"" style = ""float:right""></p><p><img src=images/blank.png width =""800"" height = ""200""></p>","","","","","","","","","","","",""
"","77.91500026360154","sequential-stimulus-presentation","243","268598","0.0-47.0-1.0","SS1613138780480","trial","","40","800","877.9150002636015","images/stimuli/spore_stims/simple_20_A_a.gif","images/stimuli/spore_stims/simple_09_B_a.gif","","","","","13","simple_dissimilar","images/stimuli/spore_stims/simple_09_B_a.gif","right","","","","",""
"","null","html-keyboard-response","244","269445","0.0-47.0-0.1","SS1613138780480","","","null","","","","","<p><img src= images/blank.png width =""200"" height = ""200"" style = ""float:right""></p><p><img src=images/blank.png width =""800"" height = ""200""></p>","","","","","","","","","","","",""
"","121.02499976754189","sequential-stimulus-presentation","245","270499","0.0-47.0-1.1","SS1613138780480","trial","","40","800","921.0249997675419","images/stimuli/spore_stims/simple_20_A_a.gif","images/stimuli/spore_stims/simple_09_B_a.gif","","","","","13","simple_dissimilar","images/stimuli/spore_stims/simple_09_B_a.gif","right","","","","",""
"","null","html-keyboard-response","246","271695","0.0-47.0-0.2","SS1613138780480","","","null","","","","","<p><img src= images/blank.png width =""200"" height = ""200"" style = ""float:right""></p><p><img src=images/blank.png width =""800"" height = ""200""></p>","","","","","","","","","","","",""
"","140.61499992385507","sequential-stimulus-presentation","247","272679","0.0-47.0-1.2","SS1613138780480","trial","","40","800","940.6149999238551","images/stimuli/spore_stims/simple_20_A_a.gif","images/stimuli/spore_stims/simple_09_B_a.gif","","","","","13","simple_dissimilar","images/stimuli/spore_stims/simple_09_B_a.gif","right","","","","",""
"","null","html-keyboard-response","248","273695","0.0-47.0-0.3","SS1613138780480","","","null","","","","","<p><img src= images/blank.png width =""200"" height = ""200"" style = ""float:right""></p><p><img src=images/blank.png width =""800"" height = ""200""></p>","","","","","","","","","","","",""
"","113.39000007137656","sequential-stimulus-presentation","249","274631","0.0-47.0-1.3","SS1613138780480","trial","","40","800","913.3900000713766","images/stimuli/spore_stims/simple_20_A_a.gif","images/stimuli/spore_stims/simple_09_B_a.gif","","","","","13","simple_dissimilar","images/stimuli/spore_stims/simple_09_B_a.gif","right","","","","",""
"","null","html-keyboard-response","250","275575","0.0-47.0-0.4","SS1613138780480","","","null","","","","","<p><img src= images/blank.png width =""200"" height = ""200"" style = ""float:right""></p><p><img src=images/blank.png width =""800"" height = ""200""></p>","","","","","","","","","","","",""
"","143.4200000949204","sequential-stimulus-presentation","251","276549","0.0-47.0-1.4","SS1613138780480","trial","","40","800","943.4200000949204","images/stimuli/spore_stims/simple_20_A_a.gif","images/stimuli/spore_stims/simple_09_B_a.gif","","","","","13","simple_dissimilar","images/stimuli/spore_stims/simple_20_A_a.gif","left","","","","",""
"","null","html-keyboard-response","252","277685","0.0-47.0-0.5","SS1613138780480","","","null","","","","","<p><img src= images/blank.png width =""200"" height = ""200"" style = ""float:right""></p><p><img src=images/blank.png width =""800"" height = ""200""></p>","","","","","","","","","","","",""
"","84.23499995842576","sequential-stimulus-presentation","253","278619","0.0-47.0-1.5","SS1613138780480","trial","","40","800","884.2349999584258","images/stimuli/spore_stims/simple_20_A_a.gif","images/stimuli/spore_stims/simple_09_B_a.gif","","","","","13","simple_dissimilar","images/stimuli/spore_stims/simple_09_B_a.gif","right","","","","",""
"","null","html-keyboard-response","254","279484","0.0-47.0-0.6","SS1613138780480","","","null","","","","","<p><img src= images/blank.png width =""200"" height = ""200"" style = ""float:right""></p><p><img src=images/blank.png width =""800"" height = ""200""></p>","","","","","","","","","","","",""
"","158.16000010818243","sequential-stimulus-presentation","255","280484","0.0-47.0-1.6","SS1613138780480","trial","","40","800","958.1600001081824","images/stimuli/spore_stims/simple_20_A_a.gif","images/stimuli/spore_stims/simple_09_B_a.gif","","","","","13","simple_dissimilar","images/stimuli/spore_stims/simple_09_B_a.gif","right","","","","",""
"","null","html-keyboard-response","256","281454","0.0-47.0-0.7","SS1613138780480","","","null","","","","","<p><img src= images/blank.png width =""200"" height = ""200"" style = ""float:right""></p><p><img src=images/blank.png width =""800"" height = ""200""></p>","","","","","","","","","","","",""
"","549.0949996747077","sequential-stimulus-presentation","257","282830","0.0-47.0-1.7","SS1613138780480","trial","","40","800","1349.0949996747077","images/stimuli/spore_stims/simple_20_A_a.gif","images/stimuli/spore_stims/simple_09_B_a.gif","","","","","13","simple_dissimilar","images/stimuli/spore_stims/simple_09_B_a.gif","right","","","","",""
"","1023.379999678582","html-keyboard-response","258","283883","0.0-48.0","SS1613138780480","pref_question","","97","","","","","<video width ='960' height = '540' style='padding-top:8%' autoplay muted><source src='images/stimuli/wall_pref.mp4' type='video/mp4'></video>","1","left","25%","13","","","","","","","",""
"","485.445000231266","sequential-stimulus-presentation","259","285253","0.0-49.0","SS1613138780480","pref_reveal","","40","800","1285.445000231266","null","null","","","","","13","","","","deviant","","","",""
"","null","html-keyboard-response","260","286565","0.0-50.0-0.0","SS1613138780480","","","null","","","","","<p><img src= images/blank.png width =""200"" height = ""200"" style = ""float:right""></p><p><img src=images/blank.png width =""800"" height = ""200""></p>","","","","","","","","","","","",""
"","160.31499998643994","sequential-stimulus-presentation","261","287557","0.0-50.0-1.0","SS1613138780480","trial","","40","800","960.31499998644","images/stimuli/spore_stims/simple_16_A_d.gif","images/stimuli/spore_stims/simple_16_B_d.gif","","","","","14","simple_similar","images/stimuli/spore_stims/simple_16_B_d.gif","left","","","","",""
"","null","html-keyboard-response","262","288688","0.0-50.0-0.1","SS1613138780480","","","null","","","","","<p><img src= images/blank.png width =""200"" height = ""200"" style = ""float:right""></p><p><img src=images/blank.png width =""800"" height = ""200""></p>","","","","","","","","","","","",""
"","50.32999999821186","sequential-stimulus-presentation","263","289568","0.0-50.0-1.1","SS1613138780480","trial","","40","800","850.3299999982119","images/stimuli/spore_stims/simple_16_A_d.gif","images/stimuli/spore_stims/simple_16_B_d.gif","","","","","14","simple_similar","images/stimuli/spore_stims/simple_16_B_d.gif","left","","","","",""
"","null","html-keyboard-response","264","290675","0.0-50.0-0.2","SS1613138780480","","","null","","","","","<p><img src= images/blank.png width =""200"" height = ""200"" style = ""float:right""></p><p><img src=images/blank.png width =""800"" height = ""200""></p>","","","","","","","","","","","",""
"","99.86000042408705","sequential-stimulus-presentation","265","291624","0.0-50.0-1.2","SS1613138780480","trial","","40","800","899.860000424087","images/stimuli/spore_stims/simple_16_A_d.gif","images/stimuli/spore_stims/simple_16_B_d.gif","","","","","14","simple_similar","images/stimuli/spore_stims/simple_16_A_d.gif","right","","","","",""
"","null","html-keyboard-response","266","292707","0.0-50.0-0.3","SS1613138780480","","","null","","","","","<p><img src= images/blank.png width =""200"" height = ""200"" style = ""float:right""></p><p><img src=images/blank.png width =""800"" height = ""200""></p>","","","","","","","","","","","",""
"","398.44000013545156","sequential-stimulus-presentation","267","293999","0.0-50.0-1.3","SS1613138780480","trial","","40","800","1198.4400001354516","images/stimuli/spore_stims/simple_16_A_d.gif","images/stimuli/spore_stims/simple_16_B_d.gif","","","","","14","simple_similar","images/stimuli/spore_stims/simple_16_B_d.gif","left","","","","",""
"","null","html-keyboard-response","268","295014","0.0-50.0-0.4","SS1613138780480","","","null","","","","","<p><img src= images/blank.png width =""200"" height = ""200"" style = ""float:right""></p><p><img src=images/blank.png width =""800"" height = ""200""></p>","","","","","","","","","","","",""
"","187.95999977737665","sequential-stimulus-presentation","269","296034","0.0-50.0-1.4","SS1613138780480","trial","","40","800","987.9599997773767","images/stimuli/spore_stims/simple_16_A_d.gif","images/stimuli/spore_stims/simple_16_B_d.gif","","","","","14","simple_similar","images/stimuli/spore_stims/simple_16_B_d.gif","left","","","","",""
"","null","html-keyboard-response","270","297024","0.0-50.0-0.5","SS1613138780480","","","null","","","","","<p><img src= images/blank.png width =""200"" height = ""200"" style = ""float:right""></p><p><img src=images/blank.png width =""800"" height = ""200""></p>","","","","","","","","","","","",""
"","274.3250001221895","sequential-stimulus-presentation","271","298123","0.0-50.0-1.5","SS1613138780480","trial","","40","800","1074.3250001221895","images/stimuli/spore_stims/simple_16_A_d.gif","images/stimuli/spore_stims/simple_16_B_d.gif","","","","","14","simple_similar","images/stimuli/spore_stims/simple_16_B_d.gif","left","","","","",""
"","null","html-keyboard-response","272","299394","0.0-50.0-0.6","SS1613138780480","","","null","","","","","<p><img src= images/blank.png width =""200"" height = ""200"" style = ""float:right""></p><p><img src=images/blank.png width =""800"" height = ""200""></p>","","","","","","","","","","","",""
"","175.23499997332692","sequential-stimulus-presentation","273","300450","0.0-50.0-1.6","SS1613138780480","trial","","40","800","975.2349999733269","images/stimuli/spore_stims/simple_16_A_d.gif","images/stimuli/spore_stims/simple_16_B_d.gif","","","","","14","simple_similar","images/stimuli/spore_stims/simple_16_B_d.gif","left","","","","",""
"","null","html-keyboard-response","274","301474","0.0-50.0-0.7","SS1613138780480","","","null","","","","","<p><img src= images/blank.png width =""200"" height = ""200"" style = ""float:right""></p><p><img src=images/blank.png width =""800"" height = ""200""></p>","","","","","","","","","","","",""
"","14.390000142157078","sequential-stimulus-presentation","275","302318","0.0-50.0-1.7","SS1613138780480","trial","","40","800","814.3900001421571","images/stimuli/spore_stims/simple_16_A_d.gif","images/stimuli/spore_stims/simple_16_B_d.gif","","","","","14","simple_similar","images/stimuli/spore_stims/simple_16_B_d.gif","left","","","","",""
"","1220.5900000408292","html-keyboard-response","276","303599","0.0-51.0","SS1613138780480","pref_question","","98","","","","","<video width ='960' height = '540' style='padding-top:8%' autoplay muted><source src='images/stimuli/wall_pref.mp4' type='video/mp4'></video>","2","middle","45%","14","","","","","","","",""
"","127.21499986946583","sequential-stimulus-presentation","277","304560","0.0-52.0","SS1613138780480","pref_reveal","","40","800","927.2149998694658","null","null","","","","","14","","","","novel","","","",""
"","null","html-keyboard-response","278","305784","0.0-53.0-0.0","SS1613138780480","","","null","","","","","<p><img src= images/blank.png width =""200"" height = ""200"" style = ""float:right""></p><p><img src=images/blank.png width =""800"" height = ""200""></p>","","","","","","","","","","","",""
"","365.82500021904707","sequential-stimulus-presentation","279","306979","0.0-53.0-1.0","SS1613138780480","trial","","40","800","1165.825000219047","images/stimuli/spore_stims/simple_11_B_a.gif","images/stimuli/spore_stims/simple_11_A_a.gif","","","","","15","simple_similar","images/stimuli/spore_stims/simple_11_A_a.gif","right","","","","",""
"","null","html-keyboard-response","280","308232","0.0-53.0-0.1","SS1613138780480","","","null","","","","","<p><img src= images/blank.png width =""200"" height = ""200"" style = ""float:right""></p><p><img src=images/blank.png width =""800"" height = ""200""></p>","","","","","","","","","","","",""
"","117.0899998396635","sequential-stimulus-presentation","281","309223","0.0-53.0-1.1","SS1613138780480","trial","","40","800","917.0899998396635","images/stimuli/spore_stims/simple_11_B_a.gif","images/stimuli/spore_stims/simple_11_A_a.gif","","","","","15","simple_similar","images/stimuli/spore_stims/simple_11_A_a.gif","right","","","","",""
"","null","html-keyboard-response","282","310075","0.0-53.0-0.2","SS1613138780480","","","null","","","","","<p><img src= images/blank.png width =""200"" height = ""200"" style = ""float:right""></p><p><img src=images/blank.png width =""800"" height = ""200""></p>","","","","","","","","","","","",""
"","57.93000012636185","sequential-stimulus-presentation","283","310983","0.0-53.0-1.2","SS1613138780480","trial","","40","800","857.9300001263618","images/stimuli/spore_stims/simple_11_B_a.gif","images/stimuli/spore_stims/simple_11_A_a.gif","","","","","15","simple_similar","images/stimuli/spore_stims/simple_11_A_a.gif","right","","","","",""
"","null","html-keyboard-response","284","312223","0.0-53.0-0.3","SS1613138780480","","","null","","","","","<p><img src= images/blank.png width =""200"" height = ""200"" style = ""float:right""></p><p><img src=images/blank.png width =""800"" height = ""200""></p>","","","","","","","","","","","",""
"","159.95999984443188","sequential-stimulus-presentation","285","313205","0.0-53.0-1.3","SS1613138780480","trial","","40","800","959.9599998444319","images/stimuli/spore_stims/simple_11_B_a.gif","images/stimuli/spore_stims/simple_11_A_a.gif","","","","","15","simple_similar","images/stimuli/spore_stims/simple_11_A_a.gif","right","","","","",""
"","null","html-keyboard-response","286","314454","0.0-53.0-0.4","SS1613138780480","","","null","","","","","<p><img src= images/blank.png width =""200"" height = ""200"" style = ""float:right""></p><p><img src=images/blank.png width =""800"" height = ""200""></p>","","","","","","","","","","","",""
"","219.59500014781952","sequential-stimulus-presentation","287","315543","0.0-53.0-1.4","SS1613138780480","trial","","40","800","1019.5950001478195","images/stimuli/spore_stims/simple_11_B_a.gif","images/stimuli/spore_stims/simple_11_A_a.gif","","","","","15","simple_similar","images/stimuli/spore_stims/simple_11_A_a.gif","right","","","","",""
"","null","html-keyboard-response","288","316794","0.0-53.0-0.5","SS1613138780480","","","null","","","","","<p><img src= images/blank.png width =""200"" height = ""200"" style = ""float:right""></p><p><img src=images/blank.png width =""800"" height = ""200""></p>","","","","","","","","","","","",""
"","132.9100001603365","sequential-stimulus-presentation","289","317757","0.0-53.0-1.5","SS1613138780480","trial","","40","800","932.9100001603365","images/stimuli/spore_stims/simple_11_B_a.gif","images/stimuli/spore_stims/simple_11_A_a.gif","","","","","15","simple_similar","images/stimuli/spore_stims/simple_11_A_a.gif","right","","","","",""
"","null","html-keyboard-response","290","318723","0.0-53.0-0.6","SS1613138780480","","","null","","","","","<p><img src= images/blank.png width =""200"" height = ""200"" style = ""float:right""></p><p><img src=images/blank.png width =""800"" height = ""200""></p>","","","","","","","","","","","",""
"","13.425000011920929","sequential-stimulus-presentation","291","319563","0.0-53.0-1.6","SS1613138780480","trial","","40","800","813.4250000119209","images/stimuli/spore_stims/simple_11_B_a.gif","images/stimuli/spore_stims/simple_11_A_a.gif","","","","","15","simple_similar","images/stimuli/spore_stims/simple_11_B_a.gif","left","","","","",""
"","null","html-keyboard-response","292","320594","0.0-53.0-0.7","SS1613138780480","","","null","","","","","<p><img src= images/blank.png width =""200"" height = ""200"" style = ""float:right""></p><p><img src=images/blank.png width =""800"" height = ""200""></p>","","","","","","","","","","","",""
"","146.65499981492758","sequential-stimulus-presentation","293","321573","0.0-53.0-1.7","SS1613138780480","trial","","40","800","946.6549998149276","images/stimuli/spore_stims/simple_11_B_a.gif","images/stimuli/spore_stims/simple_11_A_a.gif","","","","","15","simple_similar","images/stimuli/spore_stims/simple_11_A_a.gif","right","","","","",""
"","1122.2400004044175","html-keyboard-response","294","322772","0.0-54.0","SS1613138780480","pref_question","","98","","","","","<video width ='960' height = '540' style='padding-top:8%' autoplay muted><source src='images/stimuli/wall_pref.mp4' type='video/mp4'></video>","2","middle","45%","15","","","","","","","",""
"","94.95000028982759","sequential-stimulus-presentation","295","323699","0.0-55.0","SS1613138780480","pref_reveal","","40","800","894.9500002898276","null","null","","","","","15","","","","novel","","","",""
"","null","html-keyboard-response","296","324965","0.0-56.0-0.0","SS1613138780480","","","null","","","","","<p><img src= images/blank.png width =""200"" height = ""200"" style = ""float:right""></p><p><img src=images/blank.png width =""800"" height = ""200""></p>","","","","","","","","","","","",""
"","29.145000036805868","sequential-stimulus-presentation","297","325826","0.0-56.0-1.0","SS1613138780480","trial","","40","800","829.1450000368059","images/stimuli/spore_stims/simple_02_A_c.gif","images/stimuli/spore_stims/simple_08_A_a.gif","","","","","16","simple_dissimilar","images/stimuli/spore_stims/simple_08_A_a.gif","right","","","","",""
"","null","html-keyboard-response","298","326852","0.0-56.0-0.1","SS1613138780480","","","null","","","","","<p><img src= images/blank.png width =""200"" height = ""200"" style = ""float:right""></p><p><img src=images/blank.png width =""800"" height = ""200""></p>","","","","","","","","","","","",""
"","102.32000006362796","sequential-stimulus-presentation","299","327777","0.0-56.0-1.1","SS1613138780480","trial","","40","800","902.320000063628","images/stimuli/spore_stims/simple_02_A_c.gif","images/stimuli/spore_stims/simple_08_A_a.gif","","","","","16","simple_dissimilar","images/stimuli/spore_stims/simple_08_A_a.gif","right","","","","",""
"","null","html-keyboard-response","300","328795","0.0-56.0-0.2","SS1613138780480","","","null","","","","","<p><img src= images/blank.png width =""200"" height = ""200"" style = ""float:right""></p><p><img src=images/blank.png width =""800"" height = ""200""></p>","","","","","","","","","","","",""
"","16.439999919384718","sequential-stimulus-presentation","301","329700","0.0-56.0-1.2","SS1613138780480","trial","","40","800","816.4399999193847","images/stimuli/spore_stims/simple_02_A_c.gif","images/stimuli/spore_stims/simple_08_A_a.gif","","","","","16","simple_dissimilar","images/stimuli/spore_stims/simple_08_A_a.gif","right","","","","",""
"","null","html-keyboard-response","302","330816","0.0-56.0-0.3","SS1613138780480","","","null","","","","","<p><img src= images/blank.png width =""200"" height = ""200"" style = ""float:right""></p><p><img src=images/blank.png width =""800"" height = ""200""></p>","","","","","","","","","","","",""
"","4.764999728649855","sequential-stimulus-presentation","303","331651","0.0-56.0-1.3","SS1613138780480","trial","","40","800","804.7649997286499","images/stimuli/spore_stims/simple_02_A_c.gif","images/stimuli/spore_stims/simple_08_A_a.gif","","","","","16","simple_dissimilar","images/stimuli/spore_stims/simple_02_A_c.gif","left","","","","",""
"","null","html-keyboard-response","304","332685","0.0-56.0-0.4","SS1613138780480","","","null","","","","","<p><img src= images/blank.png width =""200"" height = ""200"" style = ""float:right""></p><p><img src=images/blank.png width =""800"" height = ""200""></p>","","","","","","","","","","","",""
"","166.90499987453222","sequential-stimulus-presentation","305","333692","0.0-56.0-1.4","SS1613138780480","trial","","40","800","966.9049998745322","images/stimuli/spore_stims/simple_02_A_c.gif","images/stimuli/spore_stims/simple_08_A_a.gif","","","","","16","simple_dissimilar","images/stimuli/spore_stims/simple_08_A_a.gif","right","","","","",""
"","null","html-keyboard-response","306","334959","0.0-56.0-0.5","SS1613138780480","","","null","","","","","<p><img src= images/blank.png width =""200"" height = ""200"" style = ""float:right""></p><p><img src=images/blank.png width =""800"" height = ""200""></p>","","","","","","","","","","","",""
"","239.35499973595142","sequential-stimulus-presentation","307","336059","0.0-56.0-1.5","SS1613138780480","trial","","40","800","1039.3549997359514","images/stimuli/spore_stims/simple_02_A_c.gif","images/stimuli/spore_stims/simple_08_A_a.gif","","","","","16","simple_dissimilar","images/stimuli/spore_stims/simple_08_A_a.gif","right","","","","",""
"","null","html-keyboard-response","308","337225","0.0-56.0-0.6","SS1613138780480","","","null","","","","","<p><img src= images/blank.png width =""200"" height = ""200"" style = ""float:right""></p><p><img src=images/blank.png width =""800"" height = ""200""></p>","","","","","","","","","","","",""
"","63.26999980956316","sequential-stimulus-presentation","309","338135","0.0-56.0-1.6","SS1613138780480","trial","","40","800","863.2699998095632","images/stimuli/spore_stims/simple_02_A_c.gif","images/stimuli/spore_stims/simple_08_A_a.gif","","","","","16","simple_dissimilar","images/stimuli/spore_stims/simple_08_A_a.gif","right","","","","",""
"","null","html-keyboard-response","310","339282","0.0-56.0-0.7","SS1613138780480","","","null","","","","","<p><img src= images/blank.png width =""200"" height = ""200"" style = ""float:right""></p><p><img src=images/blank.png width =""800"" height = ""200""></p>","","","","","","","","","","","",""
"","45.05999991670251","sequential-stimulus-presentation","311","340161","0.0-56.0-1.7","SS1613138780480","trial","","40","800","845.0599999167025","images/stimuli/spore_stims/simple_02_A_c.gif","images/stimuli/spore_stims/simple_08_A_a.gif","","","","","16","simple_dissimilar","images/stimuli/spore_stims/simple_08_A_a.gif","right","","","","",""
"","995.8100002259016","html-keyboard-response","312","341184","0.0-57.0","SS1613138780480","pref_question","","97","","","","","<video width ='960' height = '540' style='padding-top:8%' autoplay muted><source src='images/stimuli/wall_pref.mp4' type='video/mp4'></video>","1","left","25%","16","","","","","","","",""
