"view_history","rt","trial_type","trial_index","time_elapsed","internal_node_id","subject","stimulus_type","trial_stimulus","key_press","minimum_viewing_duration","trial_looking_time","block_deviant","block_background","stimulus","wall_pref","location","location_percent","block_number","block_type","stimulus_displayed","position_displayed","stim_type_selected"
"[{""page_index"":0,""viewing_time"":280510.00000000204}]","280511.99999999884","instructions","0","280552","0.0-0.0","SS1613013473119","","","","","","","","","","","","","","","",""
"[{""page_index"":0,""viewing_time"":78708.9999999989},{""page_index"":1,""viewing_time"":38896.00000000064}]","117605.99999999977","instructions","1","400164","0.0-1.0","SS1613013473119","instructions","","","","","","","","","","","","","","",""
"","380102.9999999991","sequential-stimulus-presentation","2","781082","0.0-2.0","SS1613013473119","","","40","800","380902.9999999991","null","null","","","","","","","","",""
"","24372.000000003027","sequential-stimulus-presentation","3","806263","0.0-3.0","SS1613013473119","","","40","800","25172.000000003027","null","null","","","","","","","","",""
"[{""page_index"":0,""viewing_time"":25779.00000000233}]","25780.00000000256","instructions","4","832045","0.0-4.0","SS1613013473119","instructions","","","","","","","","","","","","","","",""
"","77627.00000000035","html-keyboard-response","5","909678","0.0-5.0","SS1613013473119","instructions","","50","","","","","<video width ='960' height = '540' autoplay muted><source src='images/stimuli/wall_pref.mp4' type='video/mp4'></video>","2","middle","45%","","","","",""
"","18221.000000001397","sequential-stimulus-presentation","6","928706","0.0-6.0","SS1613013473119","pref_reveal","","40","800","19021.000000001397","null","null","","","","","","","","",""
"[{""page_index"":0,""viewing_time"":3400.999999998021},{""page_index"":1,""viewing_time"":19472.00000000163},{""page_index"":2,""viewing_time"":1741.9999999983702},{""page_index"":3,""viewing_time"":1836.9999999995343}]","26452.999999997788","instructions","7","955162","0.0-7.0","SS1613013473119","instructions","","","","","","","","","","","","","","",""
"","null","html-keyboard-response","8","956468","0.0-8.0-0.0","SS1613013473119","","","null","","","","","<p><img src= images/blank.png width =""200"" height = ""200"" style = ""float:right""></p><p><img src=images/blank.png width =""800"" height = ""200""></p>","","","","","","","",""
"","15788.000000000466","sequential-stimulus-presentation","9","973067","0.0-8.0-1.0","SS1613013473119","trial","","40","800","16588.000000000466","images/stimuli/spore_stims/simple_19_A_c.gif","images/stimuli/spore_stims/simple_19_B_c.gif","","","","","0","simple_similar","images/stimuli/spore_stims/simple_19_B_c.gif","middle",""
"","null","html-keyboard-response","10","973875","0.0-8.0-0.1","SS1613013473119","","","null","","","","","<p><img src= images/blank.png width =""200"" height = ""200"" style = ""float:right""></p><p><img src=images/blank.png width =""800"" height = ""200""></p>","","","","","","","",""
"","3075.0000000006985","sequential-stimulus-presentation","11","977764","0.0-8.0-1.1","SS1613013473119","trial","","40","800","3875.0000000006985","images/stimuli/spore_stims/simple_19_A_c.gif","images/stimuli/spore_stims/simple_19_B_c.gif","","","","","0","simple_similar","images/stimuli/spore_stims/simple_19_B_c.gif","middle",""
"","null","html-keyboard-response","12","978939","0.0-8.0-0.2","SS1613013473119","","","null","","","","","<p><img src= images/blank.png width =""200"" height = ""200"" style = ""float:right""></p><p><img src=images/blank.png width =""800"" height = ""200""></p>","","","","","","","",""
"","2074.0000000004657","sequential-stimulus-presentation","13","981823","0.0-8.0-1.2","SS1613013473119","trial","","40","800","2874.0000000004657","images/stimuli/spore_stims/simple_19_A_c.gif","images/stimuli/spore_stims/simple_19_B_c.gif","","","","","0","simple_similar","images/stimuli/spore_stims/simple_19_B_c.gif","middle",""
"","null","html-keyboard-response","14","983038","0.0-8.0-0.3","SS1613013473119","","","null","","","","","<p><img src= images/blank.png width =""200"" height = ""200"" style = ""float:right""></p><p><img src=images/blank.png width =""800"" height = ""200""></p>","","","","","","","",""
"","2513.9999999990687","sequential-stimulus-presentation","15","986367","0.0-8.0-1.3","SS1613013473119","trial","","40","800","3313.9999999990687","images/stimuli/spore_stims/simple_19_A_c.gif","images/stimuli/spore_stims/simple_19_B_c.gif","","","","","0","simple_similar","images/stimuli/spore_stims/simple_19_B_c.gif","middle",""
"","null","html-keyboard-response","16","987399","0.0-8.0-0.4","SS1613013473119","","","null","","","","","<p><img src= images/blank.png width =""200"" height = ""200"" style = ""float:right""></p><p><img src=images/blank.png width =""800"" height = ""200""></p>","","","","","","","",""
"","5248.999999999767","sequential-stimulus-presentation","17","993458","0.0-8.0-1.4","SS1613013473119","trial","","40","800","6048.999999999767","images/stimuli/spore_stims/simple_19_A_c.gif","images/stimuli/spore_stims/simple_19_B_c.gif","","","","","0","simple_similar","images/stimuli/spore_stims/simple_19_B_c.gif","middle",""
"","null","html-keyboard-response","18","994290","0.0-8.0-0.5","SS1613013473119","","","null","","","","","<p><img src= images/blank.png width =""200"" height = ""200"" style = ""float:right""></p><p><img src=images/blank.png width =""800"" height = ""200""></p>","","","","","","","",""
"","2110.0000000006985","sequential-stimulus-presentation","19","997218","0.0-8.0-1.5","SS1613013473119","trial","","40","800","2910.0000000006985","images/stimuli/spore_stims/simple_19_A_c.gif","images/stimuli/spore_stims/simple_19_B_c.gif","","","","","0","simple_similar","images/stimuli/spore_stims/simple_19_A_c.gif","left",""
"","null","html-keyboard-response","20","998113","0.0-8.0-0.6","SS1613013473119","","","null","","","","","<p><img src= images/blank.png width =""200"" height = ""200"" style = ""float:right""></p><p><img src=images/blank.png width =""800"" height = ""200""></p>","","","","","","","",""
"","1018","sequential-stimulus-presentation","21","999949","0.0-8.0-1.6","SS1613013473119","trial","","40","800","1818","images/stimuli/spore_stims/simple_19_A_c.gif","images/stimuli/spore_stims/simple_19_B_c.gif","","","","","0","simple_similar","images/stimuli/spore_stims/simple_19_B_c.gif","middle",""
"","null","html-keyboard-response","22","1000934","0.0-8.0-0.7","SS1613013473119","","","null","","","","","<p><img src= images/blank.png width =""200"" height = ""200"" style = ""float:right""></p><p><img src=images/blank.png width =""800"" height = ""200""></p>","","","","","","","",""
"","618.9999999988358","sequential-stimulus-presentation","23","1002362","0.0-8.0-1.7","SS1613013473119","trial","","40","800","1418.9999999988358","images/stimuli/spore_stims/simple_19_A_c.gif","images/stimuli/spore_stims/simple_19_B_c.gif","","","","","0","simple_similar","images/stimuli/spore_stims/simple_19_B_c.gif","middle",""
"","35524.99999999767","html-keyboard-response","24","1037895","0.0-9.0","SS1613013473119","pref_question","","51","","","","","<video width ='960' height = '540' style='padding-top:8%' autoplay muted><source src='images/stimuli/wall_pref.mp4' type='video/mp4'></video>","3","right","66%","0","","","",""
"","8541.000000001164","sequential-stimulus-presentation","25","1047243","0.0-10.0","SS1613013473119","pref_reveal","","40","800","9341.000000001164","null","null","","","","","0","","","","novel"
"","null","html-keyboard-response","26","1048409","0.0-11.0-0.0","SS1613013473119","","","null","","","","","<p><img src= images/blank.png width =""200"" height = ""200"" style = ""float:right""></p><p><img src=images/blank.png width =""800"" height = ""200""></p>","","","","","","","",""
"","4886.0000000020955","sequential-stimulus-presentation","27","1054100","0.0-11.0-1.0","SS1613013473119","trial","","40","800","5686.0000000020955","images/stimuli/spore_stims/simple_14_A_d.gif","images/stimuli/spore_stims/simple_14_B_d.gif","","","","","1","simple_similar","images/stimuli/spore_stims/simple_14_B_d.gif","middle",""
"","null","html-keyboard-response","28","1055207","0.0-11.0-0.1","SS1613013473119","","","null","","","","","<p><img src= images/blank.png width =""200"" height = ""200"" style = ""float:right""></p><p><img src=images/blank.png width =""800"" height = ""200""></p>","","","","","","","",""
"","1384.0000000018626","sequential-stimulus-presentation","29","1057401","0.0-11.0-1.1","SS1613013473119","trial","","40","800","2184.0000000018626","images/stimuli/spore_stims/simple_14_A_d.gif","images/stimuli/spore_stims/simple_14_B_d.gif","","","","","1","simple_similar","images/stimuli/spore_stims/simple_14_B_d.gif","middle",""
"","null","html-keyboard-response","30","1058534","0.0-11.0-0.2","SS1613013473119","","","null","","","","","<p><img src= images/blank.png width =""200"" height = ""200"" style = ""float:right""></p><p><img src=images/blank.png width =""800"" height = ""200""></p>","","","","","","","",""
"","1077.0000000011642","sequential-stimulus-presentation","31","1060417","0.0-11.0-1.2","SS1613013473119","trial","","40","800","1877.0000000011642","images/stimuli/spore_stims/simple_14_A_d.gif","images/stimuli/spore_stims/simple_14_B_d.gif","","","","","1","simple_similar","images/stimuli/spore_stims/simple_14_A_d.gif","right",""
"","null","html-keyboard-response","32","1061317","0.0-11.0-0.3","SS1613013473119","","","null","","","","","<p><img src= images/blank.png width =""200"" height = ""200"" style = ""float:right""></p><p><img src=images/blank.png width =""800"" height = ""200""></p>","","","","","","","",""
"","2075.0000000006985","sequential-stimulus-presentation","33","1064224","0.0-11.0-1.3","SS1613013473119","trial","","40","800","2875.0000000006985","images/stimuli/spore_stims/simple_14_A_d.gif","images/stimuli/spore_stims/simple_14_B_d.gif","","","","","1","simple_similar","images/stimuli/spore_stims/simple_14_B_d.gif","middle",""
"","null","html-keyboard-response","34","1065094","0.0-11.0-0.4","SS1613013473119","","","null","","","","","<p><img src= images/blank.png width =""200"" height = ""200"" style = ""float:right""></p><p><img src=images/blank.png width =""800"" height = ""200""></p>","","","","","","","",""
"","2279.999999998836","sequential-stimulus-presentation","35","1068195","0.0-11.0-1.4","SS1613013473119","trial","","40","800","3079.999999998836","images/stimuli/spore_stims/simple_14_A_d.gif","images/stimuli/spore_stims/simple_14_B_d.gif","","","","","1","simple_similar","images/stimuli/spore_stims/simple_14_B_d.gif","middle",""
"","null","html-keyboard-response","36","1069239","0.0-11.0-0.5","SS1613013473119","","","null","","","","","<p><img src= images/blank.png width =""200"" height = ""200"" style = ""float:right""></p><p><img src=images/blank.png width =""800"" height = ""200""></p>","","","","","","","",""
"","950.9999999974389","sequential-stimulus-presentation","37","1071002","0.0-11.0-1.5","SS1613013473119","trial","","40","800","1750.9999999974389","images/stimuli/spore_stims/simple_14_A_d.gif","images/stimuli/spore_stims/simple_14_B_d.gif","","","","","1","simple_similar","images/stimuli/spore_stims/simple_14_B_d.gif","middle",""
"","null","html-keyboard-response","38","1072172","0.0-11.0-0.6","SS1613013473119","","","null","","","","","<p><img src= images/blank.png width =""200"" height = ""200"" style = ""float:right""></p><p><img src=images/blank.png width =""800"" height = ""200""></p>","","","","","","","",""
"","845.0000000011642","sequential-stimulus-presentation","39","1073828","0.0-11.0-1.6","SS1613013473119","trial","","40","800","1645.0000000011642","images/stimuli/spore_stims/simple_14_A_d.gif","images/stimuli/spore_stims/simple_14_B_d.gif","","","","","1","simple_similar","images/stimuli/spore_stims/simple_14_B_d.gif","middle",""
"","null","html-keyboard-response","40","1074749","0.0-11.0-0.7","SS1613013473119","","","null","","","","","<p><img src= images/blank.png width =""200"" height = ""200"" style = ""float:right""></p><p><img src=images/blank.png width =""800"" height = ""200""></p>","","","","","","","",""
"","2288.0000000004657","sequential-stimulus-presentation","41","1077845","0.0-11.0-1.7","SS1613013473119","trial","","40","800","3088.0000000004657","images/stimuli/spore_stims/simple_14_A_d.gif","images/stimuli/spore_stims/simple_14_B_d.gif","","","","","1","simple_similar","images/stimuli/spore_stims/simple_14_B_d.gif","middle",""
"","8458.999999998836","html-keyboard-response","42","1086308","0.0-12.0","SS1613013473119","pref_question","","51","","","","","<video width ='960' height = '540' style='padding-top:8%' autoplay muted><source src='images/stimuli/wall_pref.mp4' type='video/mp4'></video>","3","right","66%","1","","","",""
"","2067.9999999993015","sequential-stimulus-presentation","43","1089182","0.0-13.0","SS1613013473119","pref_reveal","","40","800","2867.9999999993015","null","null","","","","","1","","","","deviant"
"","null","html-keyboard-response","44","1090238","0.0-14.0-0.0","SS1613013473119","","","null","","","","","<p><img src= images/blank.png width =""200"" height = ""200"" style = ""float:right""></p><p><img src=images/blank.png width =""800"" height = ""200""></p>","","","","","","","",""
"","183.99999999743886","sequential-stimulus-presentation","45","1091233","0.0-14.0-1.0","SS1613013473119","trial","","40","800","983.9999999974389","images/stimuli/spore_stims/complex_06_B_d.gif","images/stimuli/spore_stims/complex_18_B_c.gif","","","","","2","complex_dissimilar","images/stimuli/spore_stims/complex_18_B_c.gif","left",""
"","null","html-keyboard-response","46","1092342","0.0-14.0-0.1","SS1613013473119","","","null","","","","","<p><img src= images/blank.png width =""200"" height = ""200"" style = ""float:right""></p><p><img src=images/blank.png width =""800"" height = ""200""></p>","","","","","","","",""
"","2043.9999999979045","sequential-stimulus-presentation","47","1095196","0.0-14.0-1.1","SS1613013473119","trial","","40","800","2843.9999999979045","images/stimuli/spore_stims/complex_06_B_d.gif","images/stimuli/spore_stims/complex_18_B_c.gif","","","","","2","complex_dissimilar","images/stimuli/spore_stims/complex_18_B_c.gif","left",""
"","null","html-keyboard-response","48","1096033","0.0-14.0-0.2","SS1613013473119","","","null","","","","","<p><img src= images/blank.png width =""200"" height = ""200"" style = ""float:right""></p><p><img src=images/blank.png width =""800"" height = ""200""></p>","","","","","","","",""
"","275.99999999813735","sequential-stimulus-presentation","49","1097125","0.0-14.0-1.2","SS1613013473119","trial","","40","800","1075.9999999981374","images/stimuli/spore_stims/complex_06_B_d.gif","images/stimuli/spore_stims/complex_18_B_c.gif","","","","","2","complex_dissimilar","images/stimuli/spore_stims/complex_18_B_c.gif","left",""
"","null","html-keyboard-response","50","1098073","0.0-14.0-0.3","SS1613013473119","","","null","","","","","<p><img src= images/blank.png width =""200"" height = ""200"" style = ""float:right""></p><p><img src=images/blank.png width =""800"" height = ""200""></p>","","","","","","","",""
"","612.0000000009313","sequential-stimulus-presentation","51","1099512","0.0-14.0-1.3","SS1613013473119","trial","","40","800","1412.0000000009313","images/stimuli/spore_stims/complex_06_B_d.gif","images/stimuli/spore_stims/complex_18_B_c.gif","","","","","2","complex_dissimilar","images/stimuli/spore_stims/complex_18_B_c.gif","left",""
"","null","html-keyboard-response","52","1100574","0.0-14.0-0.4","SS1613013473119","","","null","","","","","<p><img src= images/blank.png width =""200"" height = ""200"" style = ""float:right""></p><p><img src=images/blank.png width =""800"" height = ""200""></p>","","","","","","","",""
"","2658.999999999767","sequential-stimulus-presentation","53","1104040","0.0-14.0-1.4","SS1613013473119","trial","","40","800","3458.999999999767","images/stimuli/spore_stims/complex_06_B_d.gif","images/stimuli/spore_stims/complex_18_B_c.gif","","","","","2","complex_dissimilar","images/stimuli/spore_stims/complex_06_B_d.gif","middle",""
"","null","html-keyboard-response","54","1104852","0.0-14.0-0.5","SS1613013473119","","","null","","","","","<p><img src= images/blank.png width =""200"" height = ""200"" style = ""float:right""></p><p><img src=images/blank.png width =""800"" height = ""200""></p>","","","","","","","",""
"","797.9999999988358","sequential-stimulus-presentation","55","1106462","0.0-14.0-1.5","SS1613013473119","trial","","40","800","1597.9999999988358","images/stimuli/spore_stims/complex_06_B_d.gif","images/stimuli/spore_stims/complex_18_B_c.gif","","","","","2","complex_dissimilar","images/stimuli/spore_stims/complex_18_B_c.gif","left",""
"","null","html-keyboard-response","56","1107700","0.0-14.0-0.6","SS1613013473119","","","null","","","","","<p><img src= images/blank.png width =""200"" height = ""200"" style = ""float:right""></p><p><img src=images/blank.png width =""800"" height = ""200""></p>","","","","","","","",""
"","2377.0000000004657","sequential-stimulus-presentation","57","1110892","0.0-14.0-1.6","SS1613013473119","trial","","40","800","3177.0000000004657","images/stimuli/spore_stims/complex_06_B_d.gif","images/stimuli/spore_stims/complex_18_B_c.gif","","","","","2","complex_dissimilar","images/stimuli/spore_stims/complex_18_B_c.gif","left",""
"","null","html-keyboard-response","58","1111951","0.0-14.0-0.7","SS1613013473119","","","null","","","","","<p><img src= images/blank.png width =""200"" height = ""200"" style = ""float:right""></p><p><img src=images/blank.png width =""800"" height = ""200""></p>","","","","","","","",""
"","1049.9999999993015","sequential-stimulus-presentation","59","1113837","0.0-14.0-1.7","SS1613013473119","trial","","40","800","1849.9999999993015","images/stimuli/spore_stims/complex_06_B_d.gif","images/stimuli/spore_stims/complex_18_B_c.gif","","","","","2","complex_dissimilar","images/stimuli/spore_stims/complex_18_B_c.gif","left",""
"","2728.9999999993015","html-keyboard-response","60","1116574","0.0-15.0","SS1613013473119","pref_question","","50","","","","","<video width ='960' height = '540' style='padding-top:8%' autoplay muted><source src='images/stimuli/wall_pref.mp4' type='video/mp4'></video>","2","middle","45%","2","","","",""
"","1669.9999999981374","sequential-stimulus-presentation","61","1119053","0.0-16.0","SS1613013473119","pref_reveal","","40","800","2469.9999999981374","null","null","","","","","2","","","","deviant"
"","null","html-keyboard-response","62","1120117","0.0-17.0-0.0","SS1613013473119","","","null","","","","","<p><img src= images/blank.png width =""200"" height = ""200"" style = ""float:right""></p><p><img src=images/blank.png width =""800"" height = ""200""></p>","","","","","","","",""
"","1134.0000000018626","sequential-stimulus-presentation","63","1122064","0.0-17.0-1.0","SS1613013473119","trial","","40","800","1934.0000000018626","images/stimuli/spore_stims/simple_05_A_c.gif","images/stimuli/spore_stims/simple_08_A_a.gif","","","","","3","simple_dissimilar","images/stimuli/spore_stims/simple_08_A_a.gif","left",""
"","null","html-keyboard-response","64","1122989","0.0-17.0-0.1","SS1613013473119","","","null","","","","","<p><img src= images/blank.png width =""200"" height = ""200"" style = ""float:right""></p><p><img src=images/blank.png width =""800"" height = ""200""></p>","","","","","","","",""
"","458.9999999990687","sequential-stimulus-presentation","65","1124258","0.0-17.0-1.1","SS1613013473119","trial","","40","800","1258.9999999990687","images/stimuli/spore_stims/simple_05_A_c.gif","images/stimuli/spore_stims/simple_08_A_a.gif","","","","","3","simple_dissimilar","images/stimuli/spore_stims/simple_08_A_a.gif","left",""
"","null","html-keyboard-response","66","1125284","0.0-17.0-0.2","SS1613013473119","","","null","","","","","<p><img src= images/blank.png width =""200"" height = ""200"" style = ""float:right""></p><p><img src=images/blank.png width =""800"" height = ""200""></p>","","","","","","","",""
"","579.9999999981374","sequential-stimulus-presentation","67","1126699","0.0-17.0-1.2","SS1613013473119","trial","","40","800","1379.9999999981374","images/stimuli/spore_stims/simple_05_A_c.gif","images/stimuli/spore_stims/simple_08_A_a.gif","","","","","3","simple_dissimilar","images/stimuli/spore_stims/simple_08_A_a.gif","left",""
"","null","html-keyboard-response","68","1127796","0.0-17.0-0.3","SS1613013473119","","","null","","","","","<p><img src= images/blank.png width =""200"" height = ""200"" style = ""float:right""></p><p><img src=images/blank.png width =""800"" height = ""200""></p>","","","","","","","",""
"","405.00000000256114","sequential-stimulus-presentation","69","1129011","0.0-17.0-1.3","SS1613013473119","trial","","40","800","1205.0000000025611","images/stimuli/spore_stims/simple_05_A_c.gif","images/stimuli/spore_stims/simple_08_A_a.gif","","","","","3","simple_dissimilar","images/stimuli/spore_stims/simple_08_A_a.gif","left",""
"","null","html-keyboard-response","70","1130115","0.0-17.0-0.4","SS1613013473119","","","null","","","","","<p><img src= images/blank.png width =""200"" height = ""200"" style = ""float:right""></p><p><img src=images/blank.png width =""800"" height = ""200""></p>","","","","","","","",""
"","408.99999999976717","sequential-stimulus-presentation","71","1131337","0.0-17.0-1.4","SS1613013473119","trial","","40","800","1208.9999999997672","images/stimuli/spore_stims/simple_05_A_c.gif","images/stimuli/spore_stims/simple_08_A_a.gif","","","","","3","simple_dissimilar","images/stimuli/spore_stims/simple_08_A_a.gif","left",""
"","null","html-keyboard-response","72","1132536","0.0-17.0-0.5","SS1613013473119","","","null","","","","","<p><img src= images/blank.png width =""200"" height = ""200"" style = ""float:right""></p><p><img src=images/blank.png width =""800"" height = ""200""></p>","","","","","","","",""
"","2771.0000000006985","sequential-stimulus-presentation","73","1136119","0.0-17.0-1.5","SS1613013473119","trial","","40","800","3571.0000000006985","images/stimuli/spore_stims/simple_05_A_c.gif","images/stimuli/spore_stims/simple_08_A_a.gif","","","","","3","simple_dissimilar","images/stimuli/spore_stims/simple_05_A_c.gif","right",""
"","null","html-keyboard-response","74","1137184","0.0-17.0-0.6","SS1613013473119","","","null","","","","","<p><img src= images/blank.png width =""200"" height = ""200"" style = ""float:right""></p><p><img src=images/blank.png width =""800"" height = ""200""></p>","","","","","","","",""
"","1212.9999999997672","sequential-stimulus-presentation","75","1139210","0.0-17.0-1.6","SS1613013473119","trial","","40","800","2012.9999999997672","images/stimuli/spore_stims/simple_05_A_c.gif","images/stimuli/spore_stims/simple_08_A_a.gif","","","","","3","simple_dissimilar","images/stimuli/spore_stims/simple_08_A_a.gif","left",""
"","null","html-keyboard-response","76","1140398","0.0-17.0-0.7","SS1613013473119","","","null","","","","","<p><img src= images/blank.png width =""200"" height = ""200"" style = ""float:right""></p><p><img src=images/blank.png width =""800"" height = ""200""></p>","","","","","","","",""
"","435.00000000116415","sequential-stimulus-presentation","77","1141648","0.0-17.0-1.7","SS1613013473119","trial","","40","800","1235.0000000011642","images/stimuli/spore_stims/simple_05_A_c.gif","images/stimuli/spore_stims/simple_08_A_a.gif","","","","","3","simple_dissimilar","images/stimuli/spore_stims/simple_08_A_a.gif","left",""
"","2470.9999999976717","html-keyboard-response","78","1144128","0.0-18.0","SS1613013473119","pref_question","","50","","","","","<video width ='960' height = '540' style='padding-top:8%' autoplay muted><source src='images/stimuli/wall_pref.mp4' type='video/mp4'></video>","2","middle","45%","3","","","",""
"","1819.9999999997672","sequential-stimulus-presentation","79","1146761","0.0-19.0","SS1613013473119","pref_reveal","","40","800","2619.999999999767","null","null","","","","","3","","","","novel"
"","null","html-keyboard-response","80","1147743","0.0-20.0-0.0","SS1613013473119","","","null","","","","","<p><img src= images/blank.png width =""200"" height = ""200"" style = ""float:right""></p><p><img src=images/blank.png width =""800"" height = ""200""></p>","","","","","","","",""
"","526.0000000016298","sequential-stimulus-presentation","81","1149079","0.0-20.0-1.0","SS1613013473119","trial","","40","800","1326.0000000016298","images/stimuli/spore_stims/simple_11_B_c.gif","images/stimuli/spore_stims/simple_11_A_c.gif","","","","","4","simple_similar","images/stimuli/spore_stims/simple_11_A_c.gif","left",""
"","null","html-keyboard-response","82","1149905","0.0-20.0-0.1","SS1613013473119","","","null","","","","","<p><img src= images/blank.png width =""200"" height = ""200"" style = ""float:right""></p><p><img src=images/blank.png width =""800"" height = ""200""></p>","","","","","","","",""
"","402.00000000186265","sequential-stimulus-presentation","83","1151120","0.0-20.0-1.1","SS1613013473119","trial","","40","800","1202.0000000018626","images/stimuli/spore_stims/simple_11_B_c.gif","images/stimuli/spore_stims/simple_11_A_c.gif","","","","","4","simple_similar","images/stimuli/spore_stims/simple_11_A_c.gif","left",""
"","null","html-keyboard-response","84","1152284","0.0-20.0-0.2","SS1613013473119","","","null","","","","","<p><img src= images/blank.png width =""200"" height = ""200"" style = ""float:right""></p><p><img src=images/blank.png width =""800"" height = ""200""></p>","","","","","","","",""
"","684.9999999976717","sequential-stimulus-presentation","85","1153821","0.0-20.0-1.2","SS1613013473119","trial","","40","800","1484.9999999976717","images/stimuli/spore_stims/simple_11_B_c.gif","images/stimuli/spore_stims/simple_11_A_c.gif","","","","","4","simple_similar","images/stimuli/spore_stims/simple_11_B_c.gif","right",""
"","null","html-keyboard-response","86","1154891","0.0-20.0-0.3","SS1613013473119","","","null","","","","","<p><img src= images/blank.png width =""200"" height = ""200"" style = ""float:right""></p><p><img src=images/blank.png width =""800"" height = ""200""></p>","","","","","","","",""
"","323.00000000046566","sequential-stimulus-presentation","87","1156026","0.0-20.0-1.3","SS1613013473119","trial","","40","800","1123.0000000004657","images/stimuli/spore_stims/simple_11_B_c.gif","images/stimuli/spore_stims/simple_11_A_c.gif","","","","","4","simple_similar","images/stimuli/spore_stims/simple_11_A_c.gif","left",""
"","null","html-keyboard-response","88","1157175","0.0-20.0-0.4","SS1613013473119","","","null","","","","","<p><img src= images/blank.png width =""200"" height = ""200"" style = ""float:right""></p><p><img src=images/blank.png width =""800"" height = ""200""></p>","","","","","","","",""
"","323.00000000023283","sequential-stimulus-presentation","89","1158311","0.0-20.0-1.4","SS1613013473119","trial","","40","800","1123.0000000002328","images/stimuli/spore_stims/simple_11_B_c.gif","images/stimuli/spore_stims/simple_11_A_c.gif","","","","","4","simple_similar","images/stimuli/spore_stims/simple_11_A_c.gif","left",""
"","null","html-keyboard-response","90","1159298","0.0-20.0-0.5","SS1613013473119","","","null","","","","","<p><img src= images/blank.png width =""200"" height = ""200"" style = ""float:right""></p><p><img src=images/blank.png width =""800"" height = ""200""></p>","","","","","","","",""
"","415.0000000009313","sequential-stimulus-presentation","91","1160557","0.0-20.0-1.5","SS1613013473119","trial","","40","800","1215.0000000009313","images/stimuli/spore_stims/simple_11_B_c.gif","images/stimuli/spore_stims/simple_11_A_c.gif","","","","","4","simple_similar","images/stimuli/spore_stims/simple_11_A_c.gif","left",""
"","null","html-keyboard-response","92","1161660","0.0-20.0-0.6","SS1613013473119","","","null","","","","","<p><img src= images/blank.png width =""200"" height = ""200"" style = ""float:right""></p><p><img src=images/blank.png width =""800"" height = ""200""></p>","","","","","","","",""
"","2023.0000000009313","sequential-stimulus-presentation","93","1164503","0.0-20.0-1.6","SS1613013473119","trial","","40","800","2823.0000000009313","images/stimuli/spore_stims/simple_11_B_c.gif","images/stimuli/spore_stims/simple_11_A_c.gif","","","","","4","simple_similar","images/stimuli/spore_stims/simple_11_A_c.gif","left",""
"","null","html-keyboard-response","94","1165389","0.0-20.0-0.7","SS1613013473119","","","null","","","","","<p><img src= images/blank.png width =""200"" height = ""200"" style = ""float:right""></p><p><img src=images/blank.png width =""800"" height = ""200""></p>","","","","","","","",""
"","417.000000001397","sequential-stimulus-presentation","95","1166613","0.0-20.0-1.7","SS1613013473119","trial","","40","800","1217.000000001397","images/stimuli/spore_stims/simple_11_B_c.gif","images/stimuli/spore_stims/simple_11_A_c.gif","","","","","4","simple_similar","images/stimuli/spore_stims/simple_11_A_c.gif","left",""
"","3155.000000002561","html-keyboard-response","96","1169778","0.0-21.0","SS1613013473119","pref_question","","51","","","","","<video width ='960' height = '540' style='padding-top:8%' autoplay muted><source src='images/stimuli/wall_pref.mp4' type='video/mp4'></video>","3","right","66%","4","","","",""
"","823.0000000002328","sequential-stimulus-presentation","97","1171416","0.0-22.0","SS1613013473119","pref_reveal","","40","800","1623.0000000002328","null","null","","","","","4","","","","deviant"
"","null","html-keyboard-response","98","1172376","0.0-23.0-0.0","SS1613013473119","","","null","","","","","<p><img src= images/blank.png width =""200"" height = ""200"" style = ""float:right""></p><p><img src=images/blank.png width =""800"" height = ""200""></p>","","","","","","","",""
"","440.0000000023283","sequential-stimulus-presentation","99","1173637","0.0-23.0-1.0","SS1613013473119","trial","","40","800","1240.0000000023283","images/stimuli/spore_stims/complex_20_A_c.gif","images/stimuli/spore_stims/complex_14_A_c.gif","","","","","5","complex_dissimilar","images/stimuli/spore_stims/complex_14_A_c.gif","right",""
"","null","html-keyboard-response","100","1174456","0.0-23.0-0.1","SS1613013473119","","","null","","","","","<p><img src= images/blank.png width =""200"" height = ""200"" style = ""float:right""></p><p><img src=images/blank.png width =""800"" height = ""200""></p>","","","","","","","",""
"","86.99999999953434","sequential-stimulus-presentation","101","1175356","0.0-23.0-1.1","SS1613013473119","trial","","40","800","886.9999999995343","images/stimuli/spore_stims/complex_20_A_c.gif","images/stimuli/spore_stims/complex_14_A_c.gif","","","","","5","complex_dissimilar","images/stimuli/spore_stims/complex_14_A_c.gif","right",""
"","null","html-keyboard-response","102","1176231","0.0-23.0-0.2","SS1613013473119","","","null","","","","","<p><img src= images/blank.png width =""200"" height = ""200"" style = ""float:right""></p><p><img src=images/blank.png width =""800"" height = ""200""></p>","","","","","","","",""
"","322.00000000023283","sequential-stimulus-presentation","103","1177369","0.0-23.0-1.2","SS1613013473119","trial","","40","800","1122.0000000002328","images/stimuli/spore_stims/complex_20_A_c.gif","images/stimuli/spore_stims/complex_14_A_c.gif","","","","","5","complex_dissimilar","images/stimuli/spore_stims/complex_14_A_c.gif","right",""
"","null","html-keyboard-response","104","1178185","0.0-23.0-0.3","SS1613013473119","","","null","","","","","<p><img src= images/blank.png width =""200"" height = ""200"" style = ""float:right""></p><p><img src=images/blank.png width =""800"" height = ""200""></p>","","","","","","","",""
"","405.0000000023283","sequential-stimulus-presentation","105","1179406","0.0-23.0-1.3","SS1613013473119","trial","","40","800","1205.0000000023283","images/stimuli/spore_stims/complex_20_A_c.gif","images/stimuli/spore_stims/complex_14_A_c.gif","","","","","5","complex_dissimilar","images/stimuli/spore_stims/complex_14_A_c.gif","right",""
"","null","html-keyboard-response","106","1180222","0.0-23.0-0.4","SS1613013473119","","","null","","","","","<p><img src= images/blank.png width =""200"" height = ""200"" style = ""float:right""></p><p><img src=images/blank.png width =""800"" height = ""200""></p>","","","","","","","",""
"","205.00000000186265","sequential-stimulus-presentation","107","1181239","0.0-23.0-1.4","SS1613013473119","trial","","40","800","1005.0000000018626","images/stimuli/spore_stims/complex_20_A_c.gif","images/stimuli/spore_stims/complex_14_A_c.gif","","","","","5","complex_dissimilar","images/stimuli/spore_stims/complex_20_A_c.gif","left",""
"","null","html-keyboard-response","108","1182338","0.0-23.0-0.5","SS1613013473119","","","null","","","","","<p><img src= images/blank.png width =""200"" height = ""200"" style = ""float:right""></p><p><img src=images/blank.png width =""800"" height = ""200""></p>","","","","","","","",""
"","602.9999999990687","sequential-stimulus-presentation","109","1183748","0.0-23.0-1.5","SS1613013473119","trial","","40","800","1402.9999999990687","images/stimuli/spore_stims/complex_20_A_c.gif","images/stimuli/spore_stims/complex_14_A_c.gif","","","","","5","complex_dissimilar","images/stimuli/spore_stims/complex_14_A_c.gif","right",""
"","null","html-keyboard-response","110","1184736","0.0-23.0-0.6","SS1613013473119","","","null","","","","","<p><img src= images/blank.png width =""200"" height = ""200"" style = ""float:right""></p><p><img src=images/blank.png width =""800"" height = ""200""></p>","","","","","","","",""
"","1540.9999999974389","sequential-stimulus-presentation","111","1187089","0.0-23.0-1.6","SS1613013473119","trial","","40","800","2340.999999997439","images/stimuli/spore_stims/complex_20_A_c.gif","images/stimuli/spore_stims/complex_14_A_c.gif","","","","","5","complex_dissimilar","images/stimuli/spore_stims/complex_14_A_c.gif","right",""
"","null","html-keyboard-response","112","1187955","0.0-23.0-0.7","SS1613013473119","","","null","","","","","<p><img src= images/blank.png width =""200"" height = ""200"" style = ""float:right""></p><p><img src=images/blank.png width =""800"" height = ""200""></p>","","","","","","","",""
"","306.00000000046566","sequential-stimulus-presentation","113","1189076","0.0-23.0-1.7","SS1613013473119","trial","","40","800","1106.0000000004657","images/stimuli/spore_stims/complex_20_A_c.gif","images/stimuli/spore_stims/complex_14_A_c.gif","","","","","5","complex_dissimilar","images/stimuli/spore_stims/complex_14_A_c.gif","right",""
"","3903.999999998603","html-keyboard-response","114","1192986","0.0-24.0","SS1613013473119","pref_question","","50","","","","","<video width ='960' height = '540' style='padding-top:8%' autoplay muted><source src='images/stimuli/wall_pref.mp4' type='video/mp4'></video>","2","middle","45%","5","","","",""
"","1864.9999999981374","sequential-stimulus-presentation","115","1195663","0.0-25.0","SS1613013473119","pref_reveal","","40","800","2664.9999999981374","null","null","","","","","5","","","","novel"
"","null","html-keyboard-response","116","1196895","0.0-26.0-0.0","SS1613013473119","","","null","","","","","<p><img src= images/blank.png width =""200"" height = ""200"" style = ""float:right""></p><p><img src=images/blank.png width =""800"" height = ""200""></p>","","","","","","","",""
"","778.0000000020955","sequential-stimulus-presentation","117","1198490","0.0-26.0-1.0","SS1613013473119","trial","","40","800","1578.0000000020955","images/stimuli/spore_stims/simple_17_B_b.gif","images/stimuli/spore_stims/simple_06_B_c.gif","","","","","6","simple_dissimilar","images/stimuli/spore_stims/simple_06_B_c.gif","left",""
"","null","html-keyboard-response","118","1199495","0.0-26.0-0.1","SS1613013473119","","","null","","","","","<p><img src= images/blank.png width =""200"" height = ""200"" style = ""float:right""></p><p><img src=images/blank.png width =""800"" height = ""200""></p>","","","","","","","",""
"","398.00000000116415","sequential-stimulus-presentation","119","1200719","0.0-26.0-1.1","SS1613013473119","trial","","40","800","1198.0000000011642","images/stimuli/spore_stims/simple_17_B_b.gif","images/stimuli/spore_stims/simple_06_B_c.gif","","","","","6","simple_dissimilar","images/stimuli/spore_stims/simple_06_B_c.gif","left",""
"","null","html-keyboard-response","120","1201700","0.0-26.0-0.2","SS1613013473119","","","null","","","","","<p><img src= images/blank.png width =""200"" height = ""200"" style = ""float:right""></p><p><img src=images/blank.png width =""800"" height = ""200""></p>","","","","","","","",""
"","413.00000000046566","sequential-stimulus-presentation","121","1202922","0.0-26.0-1.2","SS1613013473119","trial","","40","800","1213.0000000004657","images/stimuli/spore_stims/simple_17_B_b.gif","images/stimuli/spore_stims/simple_06_B_c.gif","","","","","6","simple_dissimilar","images/stimuli/spore_stims/simple_17_B_b.gif","middle",""
"","null","html-keyboard-response","122","1204224","0.0-26.0-0.3","SS1613013473119","","","null","","","","","<p><img src= images/blank.png width =""200"" height = ""200"" style = ""float:right""></p><p><img src=images/blank.png width =""800"" height = ""200""></p>","","","","","","","",""
"","673.9999999990687","sequential-stimulus-presentation","123","1205715","0.0-26.0-1.3","SS1613013473119","trial","","40","800","1473.9999999990687","images/stimuli/spore_stims/simple_17_B_b.gif","images/stimuli/spore_stims/simple_06_B_c.gif","","","","","6","simple_dissimilar","images/stimuli/spore_stims/simple_06_B_c.gif","left",""
"","null","html-keyboard-response","124","1206551","0.0-26.0-0.4","SS1613013473119","","","null","","","","","<p><img src= images/blank.png width =""200"" height = ""200"" style = ""float:right""></p><p><img src=images/blank.png width =""800"" height = ""200""></p>","","","","","","","",""
"","434.0000000009313","sequential-stimulus-presentation","125","1207799","0.0-26.0-1.4","SS1613013473119","trial","","40","800","1234.0000000009313","images/stimuli/spore_stims/simple_17_B_b.gif","images/stimuli/spore_stims/simple_06_B_c.gif","","","","","6","simple_dissimilar","images/stimuli/spore_stims/simple_06_B_c.gif","left",""
"","null","html-keyboard-response","126","1208969","0.0-26.0-0.5","SS1613013473119","","","null","","","","","<p><img src= images/blank.png width =""200"" height = ""200"" style = ""float:right""></p><p><img src=images/blank.png width =""800"" height = ""200""></p>","","","","","","","",""
"","407.99999999953434","sequential-stimulus-presentation","127","1210190","0.0-26.0-1.5","SS1613013473119","trial","","40","800","1207.9999999995343","images/stimuli/spore_stims/simple_17_B_b.gif","images/stimuli/spore_stims/simple_06_B_c.gif","","","","","6","simple_dissimilar","images/stimuli/spore_stims/simple_06_B_c.gif","left",""
"","null","html-keyboard-response","128","1211084","0.0-26.0-0.6","SS1613013473119","","","null","","","","","<p><img src= images/blank.png width =""200"" height = ""200"" style = ""float:right""></p><p><img src=images/blank.png width =""800"" height = ""200""></p>","","","","","","","",""
"","600.9999999988358","sequential-stimulus-presentation","129","1212497","0.0-26.0-1.6","SS1613013473119","trial","","40","800","1400.9999999988358","images/stimuli/spore_stims/simple_17_B_b.gif","images/stimuli/spore_stims/simple_06_B_c.gif","","","","","6","simple_dissimilar","images/stimuli/spore_stims/simple_06_B_c.gif","left",""
"","null","html-keyboard-response","130","1213612","0.0-26.0-0.7","SS1613013473119","","","null","","","","","<p><img src= images/blank.png width =""200"" height = ""200"" style = ""float:right""></p><p><img src=images/blank.png width =""800"" height = ""200""></p>","","","","","","","",""
"","324.99999999720603","sequential-stimulus-presentation","131","1214749","0.0-26.0-1.7","SS1613013473119","trial","","40","800","1124.999999997206","images/stimuli/spore_stims/simple_17_B_b.gif","images/stimuli/spore_stims/simple_06_B_c.gif","","","","","6","simple_dissimilar","images/stimuli/spore_stims/simple_06_B_c.gif","left",""
"","2867.0000000020955","html-keyboard-response","132","1217622","0.0-27.0","SS1613013473119","pref_question","","49","","","","","<video width ='960' height = '540' style='padding-top:8%' autoplay muted><source src='images/stimuli/wall_pref.mp4' type='video/mp4'></video>","1","left","25%","6","","","",""
"","647.0000000009313","sequential-stimulus-presentation","133","1219081","0.0-28.0","SS1613013473119","pref_reveal","","40","800","1447.0000000009313","null","null","","","","","6","","","","background"
"","null","html-keyboard-response","134","1220152","0.0-29.0-0.0","SS1613013473119","","","null","","","","","<p><img src= images/blank.png width =""200"" height = ""200"" style = ""float:right""></p><p><img src=images/blank.png width =""800"" height = ""200""></p>","","","","","","","",""
"","590","sequential-stimulus-presentation","135","1221559","0.0-29.0-1.0","SS1613013473119","trial","","40","800","1390","images/stimuli/spore_stims/complex_17_B_c.gif","images/stimuli/spore_stims/complex_09_B_c.gif","","","","","7","complex_dissimilar","images/stimuli/spore_stims/complex_09_B_c.gif","right",""
"","null","html-keyboard-response","136","1222553","0.0-29.0-0.1","SS1613013473119","","","null","","","","","<p><img src= images/blank.png width =""200"" height = ""200"" style = ""float:right""></p><p><img src=images/blank.png width =""800"" height = ""200""></p>","","","","","","","",""
"","439.999999998603","sequential-stimulus-presentation","137","1223808","0.0-29.0-1.1","SS1613013473119","trial","","40","800","1239.999999998603","images/stimuli/spore_stims/complex_17_B_c.gif","images/stimuli/spore_stims/complex_09_B_c.gif","","","","","7","complex_dissimilar","images/stimuli/spore_stims/complex_09_B_c.gif","right",""
"","null","html-keyboard-response","138","1225009","0.0-29.0-0.2","SS1613013473119","","","null","","","","","<p><img src= images/blank.png width =""200"" height = ""200"" style = ""float:right""></p><p><img src=images/blank.png width =""800"" height = ""200""></p>","","","","","","","",""
"","83.99999999906868","sequential-stimulus-presentation","139","1225912","0.0-29.0-1.2","SS1613013473119","trial","","40","800","883.9999999990687","images/stimuli/spore_stims/complex_17_B_c.gif","images/stimuli/spore_stims/complex_09_B_c.gif","","","","","7","complex_dissimilar","images/stimuli/spore_stims/complex_09_B_c.gif","right",""
"","null","html-keyboard-response","140","1227197","0.0-29.0-0.3","SS1613013473119","","","null","","","","","<p><img src= images/blank.png width =""200"" height = ""200"" style = ""float:right""></p><p><img src=images/blank.png width =""800"" height = ""200""></p>","","","","","","","",""
"","341.00000000023283","sequential-stimulus-presentation","141","1228349","0.0-29.0-1.3","SS1613013473119","trial","","40","800","1141.0000000002328","images/stimuli/spore_stims/complex_17_B_c.gif","images/stimuli/spore_stims/complex_09_B_c.gif","","","","","7","complex_dissimilar","images/stimuli/spore_stims/complex_17_B_c.gif","middle",""
"","null","html-keyboard-response","142","1229419","0.0-29.0-0.4","SS1613013473119","","","null","","","","","<p><img src= images/blank.png width =""200"" height = ""200"" style = ""float:right""></p><p><img src=images/blank.png width =""800"" height = ""200""></p>","","","","","","","",""
"","331.9999999983702","sequential-stimulus-presentation","143","1230560","0.0-29.0-1.4","SS1613013473119","trial","","40","800","1131.9999999983702","images/stimuli/spore_stims/complex_17_B_c.gif","images/stimuli/spore_stims/complex_09_B_c.gif","","","","","7","complex_dissimilar","images/stimuli/spore_stims/complex_09_B_c.gif","right",""
"","null","html-keyboard-response","144","1231558","0.0-29.0-0.5","SS1613013473119","","","null","","","","","<p><img src= images/blank.png width =""200"" height = ""200"" style = ""float:right""></p><p><img src=images/blank.png width =""800"" height = ""200""></p>","","","","","","","",""
"","335.9999999993015","sequential-stimulus-presentation","145","1232720","0.0-29.0-1.5","SS1613013473119","trial","","40","800","1135.9999999993015","images/stimuli/spore_stims/complex_17_B_c.gif","images/stimuli/spore_stims/complex_09_B_c.gif","","","","","7","complex_dissimilar","images/stimuli/spore_stims/complex_09_B_c.gif","right",""
"","null","html-keyboard-response","146","1233545","0.0-29.0-0.6","SS1613013473119","","","null","","","","","<p><img src= images/blank.png width =""200"" height = ""200"" style = ""float:right""></p><p><img src=images/blank.png width =""800"" height = ""200""></p>","","","","","","","",""
"","542.000000001397","sequential-stimulus-presentation","147","1234902","0.0-29.0-1.6","SS1613013473119","trial","","40","800","1342.000000001397","images/stimuli/spore_stims/complex_17_B_c.gif","images/stimuli/spore_stims/complex_09_B_c.gif","","","","","7","complex_dissimilar","images/stimuli/spore_stims/complex_09_B_c.gif","right",""
"","null","html-keyboard-response","148","1235871","0.0-29.0-0.7","SS1613013473119","","","null","","","","","<p><img src= images/blank.png width =""200"" height = ""200"" style = ""float:right""></p><p><img src=images/blank.png width =""800"" height = ""200""></p>","","","","","","","",""
"","301.99999999976717","sequential-stimulus-presentation","149","1236986","0.0-29.0-1.7","SS1613013473119","trial","","40","800","1101.9999999997672","images/stimuli/spore_stims/complex_17_B_c.gif","images/stimuli/spore_stims/complex_09_B_c.gif","","","","","7","complex_dissimilar","images/stimuli/spore_stims/complex_09_B_c.gif","right",""
"","2701.999999997439","html-keyboard-response","150","1239696","0.0-30.0","SS1613013473119","pref_question","","50","","","","","<video width ='960' height = '540' style='padding-top:8%' autoplay muted><source src='images/stimuli/wall_pref.mp4' type='video/mp4'></video>","2","middle","45%","7","","","",""
"","617.0000000020955","sequential-stimulus-presentation","151","1241133","0.0-31.0","SS1613013473119","pref_reveal","","40","800","1417.0000000020955","null","null","","","","","7","","","","deviant"
"","null","html-keyboard-response","152","1242066","0.0-32.0-0.0","SS1613013473119","","","null","","","","","<p><img src= images/blank.png width =""200"" height = ""200"" style = ""float:right""></p><p><img src=images/blank.png width =""800"" height = ""200""></p>","","","","","","","",""
"","759.0000000018626","sequential-stimulus-presentation","153","1243656","0.0-32.0-1.0","SS1613013473119","trial","","40","800","1559.0000000018626","images/stimuli/spore_stims/complex_07_B_d.gif","images/stimuli/spore_stims/complex_09_A_a.gif","","","","","8","complex_dissimilar","images/stimuli/spore_stims/complex_09_A_a.gif","right",""
"","null","html-keyboard-response","154","1244683","0.0-32.0-0.1","SS1613013473119","","","null","","","","","<p><img src= images/blank.png width =""200"" height = ""200"" style = ""float:right""></p><p><img src=images/blank.png width =""800"" height = ""200""></p>","","","","","","","",""
"","399.00000000116415","sequential-stimulus-presentation","155","1245904","0.0-32.0-1.1","SS1613013473119","trial","","40","800","1199.0000000011642","images/stimuli/spore_stims/complex_07_B_d.gif","images/stimuli/spore_stims/complex_09_A_a.gif","","","","","8","complex_dissimilar","images/stimuli/spore_stims/complex_09_A_a.gif","right",""
"","null","html-keyboard-response","156","1247039","0.0-32.0-0.2","SS1613013473119","","","null","","","","","<p><img src= images/blank.png width =""200"" height = ""200"" style = ""float:right""></p><p><img src=images/blank.png width =""800"" height = ""200""></p>","","","","","","","",""
"","343.99999999720603","sequential-stimulus-presentation","157","1248195","0.0-32.0-1.2","SS1613013473119","trial","","40","800","1143.999999997206","images/stimuli/spore_stims/complex_07_B_d.gif","images/stimuli/spore_stims/complex_09_A_a.gif","","","","","8","complex_dissimilar","images/stimuli/spore_stims/complex_07_B_d.gif","left",""
"","null","html-keyboard-response","158","1249123","0.0-32.0-0.3","SS1613013473119","","","null","","","","","<p><img src= images/blank.png width =""200"" height = ""200"" style = ""float:right""></p><p><img src=images/blank.png width =""800"" height = ""200""></p>","","","","","","","",""
"","594.0000000009313","sequential-stimulus-presentation","159","1250540","0.0-32.0-1.3","SS1613013473119","trial","","40","800","1394.0000000009313","images/stimuli/spore_stims/complex_07_B_d.gif","images/stimuli/spore_stims/complex_09_A_a.gif","","","","","8","complex_dissimilar","images/stimuli/spore_stims/complex_09_A_a.gif","right",""
"","null","html-keyboard-response","160","1251677","0.0-32.0-0.4","SS1613013473119","","","null","","","","","<p><img src= images/blank.png width =""200"" height = ""200"" style = ""float:right""></p><p><img src=images/blank.png width =""800"" height = ""200""></p>","","","","","","","",""
"","222.00000000162981","sequential-stimulus-presentation","161","1252725","0.0-32.0-1.4","SS1613013473119","trial","","40","800","1022.0000000016298","images/stimuli/spore_stims/complex_07_B_d.gif","images/stimuli/spore_stims/complex_09_A_a.gif","","","","","8","complex_dissimilar","images/stimuli/spore_stims/complex_09_A_a.gif","right",""
"","null","html-keyboard-response","162","1253821","0.0-32.0-0.5","SS1613013473119","","","null","","","","","<p><img src= images/blank.png width =""200"" height = ""200"" style = ""float:right""></p><p><img src=images/blank.png width =""800"" height = ""200""></p>","","","","","","","",""
"","297.99999999883585","sequential-stimulus-presentation","163","1254934","0.0-32.0-1.5","SS1613013473119","trial","","40","800","1097.9999999988358","images/stimuli/spore_stims/complex_07_B_d.gif","images/stimuli/spore_stims/complex_09_A_a.gif","","","","","8","complex_dissimilar","images/stimuli/spore_stims/complex_09_A_a.gif","right",""
"","null","html-keyboard-response","164","1255970","0.0-32.0-0.6","SS1613013473119","","","null","","","","","<p><img src= images/blank.png width =""200"" height = ""200"" style = ""float:right""></p><p><img src=images/blank.png width =""800"" height = ""200""></p>","","","","","","","",""
"","296.0000000020955","sequential-stimulus-presentation","165","1257083","0.0-32.0-1.6","SS1613013473119","trial","","40","800","1096.0000000020955","images/stimuli/spore_stims/complex_07_B_d.gif","images/stimuli/spore_stims/complex_09_A_a.gif","","","","","8","complex_dissimilar","images/stimuli/spore_stims/complex_09_A_a.gif","right",""
"","null","html-keyboard-response","166","1258326","0.0-32.0-0.7","SS1613013473119","","","null","","","","","<p><img src= images/blank.png width =""200"" height = ""200"" style = ""float:right""></p><p><img src=images/blank.png width =""800"" height = ""200""></p>","","","","","","","",""
"","350.0000000023283","sequential-stimulus-presentation","167","1259495","0.0-32.0-1.7","SS1613013473119","trial","","40","800","1150.0000000023283","images/stimuli/spore_stims/complex_07_B_d.gif","images/stimuli/spore_stims/complex_09_A_a.gif","","","","","8","complex_dissimilar","images/stimuli/spore_stims/complex_09_A_a.gif","right",""
"","1997.9999999995343","html-keyboard-response","168","1261505","0.0-33.0","SS1613013473119","pref_question","","51","","","","","<video width ='960' height = '540' style='padding-top:8%' autoplay muted><source src='images/stimuli/wall_pref.mp4' type='video/mp4'></video>","3","right","66%","8","","","",""
"","843.0000000006985","sequential-stimulus-presentation","169","1263169","0.0-34.0","SS1613013473119","pref_reveal","","40","800","1643.0000000006985","null","null","","","","","8","","","","background"
"","null","html-keyboard-response","170","1264081","0.0-35.0-0.0","SS1613013473119","","","null","","","","","<p><img src= images/blank.png width =""200"" height = ""200"" style = ""float:right""></p><p><img src=images/blank.png width =""800"" height = ""200""></p>","","","","","","","",""
"","775.9999999979045","sequential-stimulus-presentation","171","1265679","0.0-35.0-1.0","SS1613013473119","trial","","40","800","1575.9999999979045","images/stimuli/spore_stims/complex_17_B_c.gif","images/stimuli/spore_stims/complex_17_A_c.gif","","","","","9","complex_similar","images/stimuli/spore_stims/complex_17_A_c.gif","right",""
"","null","html-keyboard-response","172","1266704","0.0-35.0-0.1","SS1613013473119","","","null","","","","","<p><img src= images/blank.png width =""200"" height = ""200"" style = ""float:right""></p><p><img src=images/blank.png width =""800"" height = ""200""></p>","","","","","","","",""
"","397.0000000006985","sequential-stimulus-presentation","173","1267915","0.0-35.0-1.1","SS1613013473119","trial","","40","800","1197.0000000006985","images/stimuli/spore_stims/complex_17_B_c.gif","images/stimuli/spore_stims/complex_17_A_c.gif","","","","","9","complex_similar","images/stimuli/spore_stims/complex_17_A_c.gif","right",""
"","null","html-keyboard-response","174","1268878","0.0-35.0-0.2","SS1613013473119","","","null","","","","","<p><img src= images/blank.png width =""200"" height = ""200"" style = ""float:right""></p><p><img src=images/blank.png width =""800"" height = ""200""></p>","","","","","","","",""
"","383.00000000186265","sequential-stimulus-presentation","175","1270077","0.0-35.0-1.2","SS1613013473119","trial","","40","800","1183.0000000018626","images/stimuli/spore_stims/complex_17_B_c.gif","images/stimuli/spore_stims/complex_17_A_c.gif","","","","","9","complex_similar","images/stimuli/spore_stims/complex_17_A_c.gif","right",""
"","null","html-keyboard-response","176","1271314","0.0-35.0-0.3","SS1613013473119","","","null","","","","","<p><img src= images/blank.png width =""200"" height = ""200"" style = ""float:right""></p><p><img src=images/blank.png width =""800"" height = ""200""></p>","","","","","","","",""
"","248.99999999976717","sequential-stimulus-presentation","177","1272377","0.0-35.0-1.3","SS1613013473119","trial","","40","800","1048.9999999997672","images/stimuli/spore_stims/complex_17_B_c.gif","images/stimuli/spore_stims/complex_17_A_c.gif","","","","","9","complex_similar","images/stimuli/spore_stims/complex_17_A_c.gif","right",""
"","null","html-keyboard-response","178","1273325","0.0-35.0-0.4","SS1613013473119","","","null","","","","","<p><img src= images/blank.png width =""200"" height = ""200"" style = ""float:right""></p><p><img src=images/blank.png width =""800"" height = ""200""></p>","","","","","","","",""
"","385.999999998603","sequential-stimulus-presentation","179","1274525","0.0-35.0-1.4","SS1613013473119","trial","","40","800","1185.999999998603","images/stimuli/spore_stims/complex_17_B_c.gif","images/stimuli/spore_stims/complex_17_A_c.gif","","","","","9","complex_similar","images/stimuli/spore_stims/complex_17_A_c.gif","right",""
"","null","html-keyboard-response","180","1275474","0.0-35.0-0.5","SS1613013473119","","","null","","","","","<p><img src= images/blank.png width =""200"" height = ""200"" style = ""float:right""></p><p><img src=images/blank.png width =""800"" height = ""200""></p>","","","","","","","",""
"","51.99999999976717","sequential-stimulus-presentation","181","1276334","0.0-35.0-1.5","SS1613013473119","trial","","40","800","851.9999999997672","images/stimuli/spore_stims/complex_17_B_c.gif","images/stimuli/spore_stims/complex_17_A_c.gif","","","","","9","complex_similar","images/stimuli/spore_stims/complex_17_A_c.gif","right",""
"","null","html-keyboard-response","182","1277640","0.0-35.0-0.6","SS1613013473119","","","null","","","","","<p><img src= images/blank.png width =""200"" height = ""200"" style = ""float:right""></p><p><img src=images/blank.png width =""800"" height = ""200""></p>","","","","","","","",""
"","586.9999999995343","sequential-stimulus-presentation","183","1279044","0.0-35.0-1.6","SS1613013473119","trial","","40","800","1386.9999999995343","images/stimuli/spore_stims/complex_17_B_c.gif","images/stimuli/spore_stims/complex_17_A_c.gif","","","","","9","complex_similar","images/stimuli/spore_stims/complex_17_B_c.gif","middle",""
"","null","html-keyboard-response","184","1280068","0.0-35.0-0.7","SS1613013473119","","","null","","","","","<p><img src= images/blank.png width =""200"" height = ""200"" style = ""float:right""></p><p><img src=images/blank.png width =""800"" height = ""200""></p>","","","","","","","",""
"","666.0000000009313","sequential-stimulus-presentation","185","1281560","0.0-35.0-1.7","SS1613013473119","trial","","40","800","1466.0000000009313","images/stimuli/spore_stims/complex_17_B_c.gif","images/stimuli/spore_stims/complex_17_A_c.gif","","","","","9","complex_similar","images/stimuli/spore_stims/complex_17_A_c.gif","right",""
"","2161","html-keyboard-response","186","1283735","0.0-36.0","SS1613013473119","pref_question","","50","","","","","<video width ='960' height = '540' style='padding-top:8%' autoplay muted><source src='images/stimuli/wall_pref.mp4' type='video/mp4'></video>","2","middle","45%","9","","","",""
"","835.9999999993015","sequential-stimulus-presentation","187","1285384","0.0-37.0","SS1613013473119","pref_reveal","","40","800","1635.9999999993015","null","null","","","","","9","","","","deviant"
"","null","html-keyboard-response","188","1286228","0.0-38.0-0.0","SS1613013473119","","","null","","","","","<p><img src= images/blank.png width =""200"" height = ""200"" style = ""float:right""></p><p><img src=images/blank.png width =""800"" height = ""200""></p>","","","","","","","",""
"","449.00000000046566","sequential-stimulus-presentation","189","1287535","0.0-38.0-1.0","SS1613013473119","trial","","40","800","1249.0000000004657","images/stimuli/spore_stims/complex_06_B_d.gif","images/stimuli/spore_stims/complex_06_A_d.gif","","","","","10","complex_similar","images/stimuli/spore_stims/complex_06_A_d.gif","right",""
"","null","html-keyboard-response","190","1288372","0.0-38.0-0.1","SS1613013473119","","","null","","","","","<p><img src= images/blank.png width =""200"" height = ""200"" style = ""float:right""></p><p><img src=images/blank.png width =""800"" height = ""200""></p>","","","","","","","",""
"","678","sequential-stimulus-presentation","191","1289877","0.0-38.0-1.1","SS1613013473119","trial","","40","800","1478","images/stimuli/spore_stims/complex_06_B_d.gif","images/stimuli/spore_stims/complex_06_A_d.gif","","","","","10","complex_similar","images/stimuli/spore_stims/complex_06_A_d.gif","right",""
"","null","html-keyboard-response","192","1291076","0.0-38.0-0.2","SS1613013473119","","","null","","","","","<p><img src= images/blank.png width =""200"" height = ""200"" style = ""float:right""></p><p><img src=images/blank.png width =""800"" height = ""200""></p>","","","","","","","",""
"","756.0000000011642","sequential-stimulus-presentation","193","1292648","0.0-38.0-1.2","SS1613013473119","trial","","40","800","1556.0000000011642","images/stimuli/spore_stims/complex_06_B_d.gif","images/stimuli/spore_stims/complex_06_A_d.gif","","","","","10","complex_similar","images/stimuli/spore_stims/complex_06_A_d.gif","right",""
"","null","html-keyboard-response","194","1293677","0.0-38.0-0.3","SS1613013473119","","","null","","","","","<p><img src= images/blank.png width =""200"" height = ""200"" style = ""float:right""></p><p><img src=images/blank.png width =""800"" height = ""200""></p>","","","","","","","",""
"","364.9999999979045","sequential-stimulus-presentation","195","1294857","0.0-38.0-1.3","SS1613013473119","trial","","40","800","1164.9999999979045","images/stimuli/spore_stims/complex_06_B_d.gif","images/stimuli/spore_stims/complex_06_A_d.gif","","","","","10","complex_similar","images/stimuli/spore_stims/complex_06_A_d.gif","right",""
"","null","html-keyboard-response","196","1295861","0.0-38.0-0.4","SS1613013473119","","","null","","","","","<p><img src= images/blank.png width =""200"" height = ""200"" style = ""float:right""></p><p><img src=images/blank.png width =""800"" height = ""200""></p>","","","","","","","",""
"","716.0000000004657","sequential-stimulus-presentation","197","1297393","0.0-38.0-1.4","SS1613013473119","trial","","40","800","1516.0000000004657","images/stimuli/spore_stims/complex_06_B_d.gif","images/stimuli/spore_stims/complex_06_A_d.gif","","","","","10","complex_similar","images/stimuli/spore_stims/complex_06_B_d.gif","middle",""
"","null","html-keyboard-response","198","1298350","0.0-38.0-0.5","SS1613013473119","","","null","","","","","<p><img src= images/blank.png width =""200"" height = ""200"" style = ""float:right""></p><p><img src=images/blank.png width =""800"" height = ""200""></p>","","","","","","","",""
"","217.99999999720603","sequential-stimulus-presentation","199","1299391","0.0-38.0-1.5","SS1613013473119","trial","","40","800","1017.999999997206","images/stimuli/spore_stims/complex_06_B_d.gif","images/stimuli/spore_stims/complex_06_A_d.gif","","","","","10","complex_similar","images/stimuli/spore_stims/complex_06_A_d.gif","right",""
"","null","html-keyboard-response","200","1300350","0.0-38.0-0.6","SS1613013473119","","","null","","","","","<p><img src= images/blank.png width =""200"" height = ""200"" style = ""float:right""></p><p><img src=images/blank.png width =""800"" height = ""200""></p>","","","","","","","",""
"","175.99999999953434","sequential-stimulus-presentation","201","1301350","0.0-38.0-1.6","SS1613013473119","trial","","40","800","975.9999999995343","images/stimuli/spore_stims/complex_06_B_d.gif","images/stimuli/spore_stims/complex_06_A_d.gif","","","","","10","complex_similar","images/stimuli/spore_stims/complex_06_A_d.gif","right",""
"","null","html-keyboard-response","202","1302228","0.0-38.0-0.7","SS1613013473119","","","null","","","","","<p><img src= images/blank.png width =""200"" height = ""200"" style = ""float:right""></p><p><img src=images/blank.png width =""800"" height = ""200""></p>","","","","","","","",""
"","324.0000000006985","sequential-stimulus-presentation","203","1303375","0.0-38.0-1.7","SS1613013473119","trial","","40","800","1124.0000000006985","images/stimuli/spore_stims/complex_06_B_d.gif","images/stimuli/spore_stims/complex_06_A_d.gif","","","","","10","complex_similar","images/stimuli/spore_stims/complex_06_A_d.gif","right",""
"","3863.9999999976717","html-keyboard-response","204","1307248","0.0-39.0","SS1613013473119","pref_question","","50","","","","","<video width ='960' height = '540' style='padding-top:8%' autoplay muted><source src='images/stimuli/wall_pref.mp4' type='video/mp4'></video>","2","middle","45%","10","","","",""
"","493.99999999883585","sequential-stimulus-presentation","205","1308556","0.0-40.0","SS1613013473119","pref_reveal","","40","800","1293.9999999988358","null","null","","","","","10","","","","deviant"
"","null","html-keyboard-response","206","1309834","0.0-41.0-0.0","SS1613013473119","","","null","","","","","<p><img src= images/blank.png width =""200"" height = ""200"" style = ""float:right""></p><p><img src=images/blank.png width =""800"" height = ""200""></p>","","","","","","","",""
"","1157.9999999993015","sequential-stimulus-presentation","207","1311810","0.0-41.0-1.0","SS1613013473119","trial","","40","800","1957.9999999993015","images/stimuli/spore_stims/simple_11_B_c.gif","images/stimuli/spore_stims/simple_15_A_d.gif","","","","","11","simple_dissimilar","images/stimuli/spore_stims/simple_15_A_d.gif","middle",""
"","null","html-keyboard-response","208","1312790","0.0-41.0-0.1","SS1613013473119","","","null","","","","","<p><img src= images/blank.png width =""200"" height = ""200"" style = ""float:right""></p><p><img src=images/blank.png width =""800"" height = ""200""></p>","","","","","","","",""
"","469.0000000009313","sequential-stimulus-presentation","209","1314076","0.0-41.0-1.1","SS1613013473119","trial","","40","800","1269.0000000009313","images/stimuli/spore_stims/simple_11_B_c.gif","images/stimuli/spore_stims/simple_15_A_d.gif","","","","","11","simple_dissimilar","images/stimuli/spore_stims/simple_15_A_d.gif","middle",""
"","null","html-keyboard-response","210","1314931","0.0-41.0-0.2","SS1613013473119","","","null","","","","","<p><img src= images/blank.png width =""200"" height = ""200"" style = ""float:right""></p><p><img src=images/blank.png width =""800"" height = ""200""></p>","","","","","","","",""
"","660","sequential-stimulus-presentation","211","1316420","0.0-41.0-1.2","SS1613013473119","trial","","40","800","1460","images/stimuli/spore_stims/simple_11_B_c.gif","images/stimuli/spore_stims/simple_15_A_d.gif","","","","","11","simple_dissimilar","images/stimuli/spore_stims/simple_11_B_c.gif","right",""
"","null","html-keyboard-response","212","1317555","0.0-41.0-0.3","SS1613013473119","","","null","","","","","<p><img src= images/blank.png width =""200"" height = ""200"" style = ""float:right""></p><p><img src=images/blank.png width =""800"" height = ""200""></p>","","","","","","","",""
"","314.99999999883585","sequential-stimulus-presentation","213","1318722","0.0-41.0-1.3","SS1613013473119","trial","","40","800","1114.9999999988358","images/stimuli/spore_stims/simple_11_B_c.gif","images/stimuli/spore_stims/simple_15_A_d.gif","","","","","11","simple_dissimilar","images/stimuli/spore_stims/simple_15_A_d.gif","middle",""
"","null","html-keyboard-response","214","1319625","0.0-41.0-0.4","SS1613013473119","","","null","","","","","<p><img src= images/blank.png width =""200"" height = ""200"" style = ""float:right""></p><p><img src=images/blank.png width =""800"" height = ""200""></p>","","","","","","","",""
"","416.9999999976717","sequential-stimulus-presentation","215","1320857","0.0-41.0-1.4","SS1613013473119","trial","","40","800","1216.9999999976717","images/stimuli/spore_stims/simple_11_B_c.gif","images/stimuli/spore_stims/simple_15_A_d.gif","","","","","11","simple_dissimilar","images/stimuli/spore_stims/simple_15_A_d.gif","middle",""
"","null","html-keyboard-response","216","1322142","0.0-41.0-0.5","SS1613013473119","","","null","","","","","<p><img src= images/blank.png width =""200"" height = ""200"" style = ""float:right""></p><p><img src=images/blank.png width =""800"" height = ""200""></p>","","","","","","","",""
"","468.99999999720603","sequential-stimulus-presentation","217","1323427","0.0-41.0-1.5","SS1613013473119","trial","","40","800","1268.999999997206","images/stimuli/spore_stims/simple_11_B_c.gif","images/stimuli/spore_stims/simple_15_A_d.gif","","","","","11","simple_dissimilar","images/stimuli/spore_stims/simple_15_A_d.gif","middle",""
"","null","html-keyboard-response","218","1324352","0.0-41.0-0.6","SS1613013473119","","","null","","","","","<p><img src= images/blank.png width =""200"" height = ""200"" style = ""float:right""></p><p><img src=images/blank.png width =""800"" height = ""200""></p>","","","","","","","",""
"","366.9999999983702","sequential-stimulus-presentation","219","1325533","0.0-41.0-1.6","SS1613013473119","trial","","40","800","1166.9999999983702","images/stimuli/spore_stims/simple_11_B_c.gif","images/stimuli/spore_stims/simple_15_A_d.gif","","","","","11","simple_dissimilar","images/stimuli/spore_stims/simple_15_A_d.gif","middle",""
"","null","html-keyboard-response","220","1326355","0.0-41.0-0.7","SS1613013473119","","","null","","","","","<p><img src= images/blank.png width =""200"" height = ""200"" style = ""float:right""></p><p><img src=images/blank.png width =""800"" height = ""200""></p>","","","","","","","",""
"","311.99999999813735","sequential-stimulus-presentation","221","1327482","0.0-41.0-1.7","SS1613013473119","trial","","40","800","1111.9999999981374","images/stimuli/spore_stims/simple_11_B_c.gif","images/stimuli/spore_stims/simple_15_A_d.gif","","","","","11","simple_dissimilar","images/stimuli/spore_stims/simple_15_A_d.gif","middle",""
"","1954.9999999981374","html-keyboard-response","222","1329446","0.0-42.0","SS1613013473119","pref_question","","49","","","","","<video width ='960' height = '540' style='padding-top:8%' autoplay muted><source src='images/stimuli/wall_pref.mp4' type='video/mp4'></video>","1","left","25%","11","","","",""
"","866.9999999983702","sequential-stimulus-presentation","223","1331123","0.0-43.0","SS1613013473119","pref_reveal","","40","800","1666.9999999983702","null","null","","","","","11","","","","novel"
"","null","html-keyboard-response","224","1332169","0.0-44.0-0.0","SS1613013473119","","","null","","","","","<p><img src= images/blank.png width =""200"" height = ""200"" style = ""float:right""></p><p><img src=images/blank.png width =""800"" height = ""200""></p>","","","","","","","",""
"","1004.0000000006985","sequential-stimulus-presentation","225","1333992","0.0-44.0-1.0","SS1613013473119","trial","","40","800","1804.0000000006985","images/stimuli/spore_stims/complex_02_B_b.gif","images/stimuli/spore_stims/complex_02_A_b.gif","","","","","12","complex_similar","images/stimuli/spore_stims/complex_02_A_b.gif","left",""
"","null","html-keyboard-response","226","1334928","0.0-44.0-0.1","SS1613013473119","","","null","","","","","<p><img src= images/blank.png width =""200"" height = ""200"" style = ""float:right""></p><p><img src=images/blank.png width =""800"" height = ""200""></p>","","","","","","","",""
"","320.99999999976717","sequential-stimulus-presentation","227","1336069","0.0-44.0-1.1","SS1613013473119","trial","","40","800","1120.9999999997672","images/stimuli/spore_stims/complex_02_B_b.gif","images/stimuli/spore_stims/complex_02_A_b.gif","","","","","12","complex_similar","images/stimuli/spore_stims/complex_02_A_b.gif","left",""
"","null","html-keyboard-response","228","1337347","0.0-44.0-0.2","SS1613013473119","","","null","","","","","<p><img src= images/blank.png width =""200"" height = ""200"" style = ""float:right""></p><p><img src=images/blank.png width =""800"" height = ""200""></p>","","","","","","","",""
"","220.9999999976717","sequential-stimulus-presentation","229","1338394","0.0-44.0-1.2","SS1613013473119","trial","","40","800","1020.9999999976717","images/stimuli/spore_stims/complex_02_B_b.gif","images/stimuli/spore_stims/complex_02_A_b.gif","","","","","12","complex_similar","images/stimuli/spore_stims/complex_02_A_b.gif","left",""
"","null","html-keyboard-response","230","1339657","0.0-44.0-0.3","SS1613013473119","","","null","","","","","<p><img src= images/blank.png width =""200"" height = ""200"" style = ""float:right""></p><p><img src=images/blank.png width =""800"" height = ""200""></p>","","","","","","","",""
"","216.00000000046566","sequential-stimulus-presentation","231","1340699","0.0-44.0-1.3","SS1613013473119","trial","","40","800","1016.0000000004657","images/stimuli/spore_stims/complex_02_B_b.gif","images/stimuli/spore_stims/complex_02_A_b.gif","","","","","12","complex_similar","images/stimuli/spore_stims/complex_02_A_b.gif","left",""
"","null","html-keyboard-response","232","1341898","0.0-44.0-0.4","SS1613013473119","","","null","","","","","<p><img src= images/blank.png width =""200"" height = ""200"" style = ""float:right""></p><p><img src=images/blank.png width =""800"" height = ""200""></p>","","","","","","","",""
"","701.0000000009313","sequential-stimulus-presentation","233","1343454","0.0-44.0-1.4","SS1613013473119","trial","","40","800","1501.0000000009313","images/stimuli/spore_stims/complex_02_B_b.gif","images/stimuli/spore_stims/complex_02_A_b.gif","","","","","12","complex_similar","images/stimuli/spore_stims/complex_02_A_b.gif","left",""
"","null","html-keyboard-response","234","1344274","0.0-44.0-0.5","SS1613013473119","","","null","","","","","<p><img src= images/blank.png width =""200"" height = ""200"" style = ""float:right""></p><p><img src=images/blank.png width =""800"" height = ""200""></p>","","","","","","","",""
"","388.9999999993015","sequential-stimulus-presentation","235","1345487","0.0-44.0-1.5","SS1613013473119","trial","","40","800","1188.9999999993015","images/stimuli/spore_stims/complex_02_B_b.gif","images/stimuli/spore_stims/complex_02_A_b.gif","","","","","12","complex_similar","images/stimuli/spore_stims/complex_02_A_b.gif","left",""
"","null","html-keyboard-response","236","1346346","0.0-44.0-0.6","SS1613013473119","","","null","","","","","<p><img src= images/blank.png width =""200"" height = ""200"" style = ""float:right""></p><p><img src=images/blank.png width =""800"" height = ""200""></p>","","","","","","","",""
"","376.00000000023283","sequential-stimulus-presentation","237","1347566","0.0-44.0-1.6","SS1613013473119","trial","","40","800","1176.0000000002328","images/stimuli/spore_stims/complex_02_B_b.gif","images/stimuli/spore_stims/complex_02_A_b.gif","","","","","12","complex_similar","images/stimuli/spore_stims/complex_02_A_b.gif","left",""
"","null","html-keyboard-response","238","1348638","0.0-44.0-0.7","SS1613013473119","","","null","","","","","<p><img src= images/blank.png width =""200"" height = ""200"" style = ""float:right""></p><p><img src=images/blank.png width =""800"" height = ""200""></p>","","","","","","","",""
"","7058.000000000931","sequential-stimulus-presentation","239","1356513","0.0-44.0-1.7","SS1613013473119","trial","","40","800","7858.000000000931","images/stimuli/spore_stims/complex_02_B_b.gif","images/stimuli/spore_stims/complex_02_A_b.gif","","","","","12","complex_similar","images/stimuli/spore_stims/complex_02_B_b.gif","right",""
"","4235.0000000006985","html-keyboard-response","240","1360764","0.0-45.0","SS1613013473119","pref_question","","50","","","","","<video width ='960' height = '540' style='padding-top:8%' autoplay muted><source src='images/stimuli/wall_pref.mp4' type='video/mp4'></video>","2","middle","45%","12","","","",""
"","1042.000000001397","sequential-stimulus-presentation","241","1362621","0.0-46.0","SS1613013473119","pref_reveal","","40","800","1842.000000001397","null","null","","","","","12","","","","novel"
"","null","html-keyboard-response","242","1363832","0.0-47.0-0.0","SS1613013473119","","","null","","","","","<p><img src= images/blank.png width =""200"" height = ""200"" style = ""float:right""></p><p><img src=images/blank.png width =""800"" height = ""200""></p>","","","","","","","",""
"","1407.9999999995343","sequential-stimulus-presentation","243","1366073","0.0-47.0-1.0","SS1613013473119","trial","","40","800","2207.9999999995343","images/stimuli/spore_stims/complex_05_A_d.gif","images/stimuli/spore_stims/complex_05_B_d.gif","","","","","13","complex_similar","images/stimuli/spore_stims/complex_05_B_d.gif","right",""
"","null","html-keyboard-response","244","1366888","0.0-47.0-0.1","SS1613013473119","","","null","","","","","<p><img src= images/blank.png width =""200"" height = ""200"" style = ""float:right""></p><p><img src=images/blank.png width =""800"" height = ""200""></p>","","","","","","","",""
"","450.99999999720603","sequential-stimulus-presentation","245","1368158","0.0-47.0-1.1","SS1613013473119","trial","","40","800","1250.999999997206","images/stimuli/spore_stims/complex_05_A_d.gif","images/stimuli/spore_stims/complex_05_B_d.gif","","","","","13","complex_similar","images/stimuli/spore_stims/complex_05_B_d.gif","right",""
"","null","html-keyboard-response","246","1369084","0.0-47.0-0.2","SS1613013473119","","","null","","","","","<p><img src= images/blank.png width =""200"" height = ""200"" style = ""float:right""></p><p><img src=images/blank.png width =""800"" height = ""200""></p>","","","","","","","",""
"","31.999999999068677","sequential-stimulus-presentation","247","1369932","0.0-47.0-1.2","SS1613013473119","trial","","40","800","831.9999999990687","images/stimuli/spore_stims/complex_05_A_d.gif","images/stimuli/spore_stims/complex_05_B_d.gif","","","","","13","complex_similar","images/stimuli/spore_stims/complex_05_A_d.gif","left",""
"","null","html-keyboard-response","248","1371172","0.0-47.0-0.3","SS1613013473119","","","null","","","","","<p><img src= images/blank.png width =""200"" height = ""200"" style = ""float:right""></p><p><img src=images/blank.png width =""800"" height = ""200""></p>","","","","","","","",""
"","332.99999999883585","sequential-stimulus-presentation","249","1372327","0.0-47.0-1.3","SS1613013473119","trial","","40","800","1132.9999999988358","images/stimuli/spore_stims/complex_05_A_d.gif","images/stimuli/spore_stims/complex_05_B_d.gif","","","","","13","complex_similar","images/stimuli/spore_stims/complex_05_B_d.gif","right",""
"","null","html-keyboard-response","250","1373530","0.0-47.0-0.4","SS1613013473119","","","null","","","","","<p><img src= images/blank.png width =""200"" height = ""200"" style = ""float:right""></p><p><img src=images/blank.png width =""800"" height = ""200""></p>","","","","","","","",""
"","397.0000000009313","sequential-stimulus-presentation","251","1374744","0.0-47.0-1.4","SS1613013473119","trial","","40","800","1197.0000000009313","images/stimuli/spore_stims/complex_05_A_d.gif","images/stimuli/spore_stims/complex_05_B_d.gif","","","","","13","complex_similar","images/stimuli/spore_stims/complex_05_B_d.gif","right",""
"","null","html-keyboard-response","252","1375639","0.0-47.0-0.5","SS1613013473119","","","null","","","","","<p><img src= images/blank.png width =""200"" height = ""200"" style = ""float:right""></p><p><img src=images/blank.png width =""800"" height = ""200""></p>","","","","","","","",""
"","830.9999999981374","sequential-stimulus-presentation","253","1377309","0.0-47.0-1.5","SS1613013473119","trial","","40","800","1630.9999999981374","images/stimuli/spore_stims/complex_05_A_d.gif","images/stimuli/spore_stims/complex_05_B_d.gif","","","","","13","complex_similar","images/stimuli/spore_stims/complex_05_B_d.gif","right",""
"","null","html-keyboard-response","254","1378474","0.0-47.0-0.6","SS1613013473119","","","null","","","","","<p><img src= images/blank.png width =""200"" height = ""200"" style = ""float:right""></p><p><img src=images/blank.png width =""800"" height = ""200""></p>","","","","","","","",""
"","256.9999999976717","sequential-stimulus-presentation","255","1379552","0.0-47.0-1.6","SS1613013473119","trial","","40","800","1056.9999999976717","images/stimuli/spore_stims/complex_05_A_d.gif","images/stimuli/spore_stims/complex_05_B_d.gif","","","","","13","complex_similar","images/stimuli/spore_stims/complex_05_B_d.gif","right",""
"","null","html-keyboard-response","256","1380401","0.0-47.0-0.7","SS1613013473119","","","null","","","","","<p><img src= images/blank.png width =""200"" height = ""200"" style = ""float:right""></p><p><img src=images/blank.png width =""800"" height = ""200""></p>","","","","","","","",""
"","309.9999999976717","sequential-stimulus-presentation","257","1381538","0.0-47.0-1.7","SS1613013473119","trial","","40","800","1109.9999999976717","images/stimuli/spore_stims/complex_05_A_d.gif","images/stimuli/spore_stims/complex_05_B_d.gif","","","","","13","complex_similar","images/stimuli/spore_stims/complex_05_B_d.gif","right",""
"","26967.0000000007","html-keyboard-response","258","1408527","0.0-48.0","SS1613013473119","pref_question","","51","","","","","<video width ='960' height = '540' style='padding-top:8%' autoplay muted><source src='images/stimuli/wall_pref.mp4' type='video/mp4'></video>","3","right","66%","13","","","",""
"","4279.999999999069","sequential-stimulus-presentation","259","1413627","0.0-49.0","SS1613013473119","pref_reveal","","40","800","5079.999999999069","null","null","","","","","13","","","","background"
"","null","html-keyboard-response","260","1414441","0.0-50.0-0.0","SS1613013473119","","","null","","","","","<p><img src= images/blank.png width =""200"" height = ""200"" style = ""float:right""></p><p><img src=images/blank.png width =""800"" height = ""200""></p>","","","","","","","",""
"","1571","sequential-stimulus-presentation","261","1416824","0.0-50.0-1.0","SS1613013473119","trial","","40","800","2371","images/stimuli/spore_stims/simple_12_A_a.gif","images/stimuli/spore_stims/simple_20_B_b.gif","","","","","14","simple_dissimilar","images/stimuli/spore_stims/simple_20_B_b.gif","middle",""
"","null","html-keyboard-response","262","1417842","0.0-50.0-0.1","SS1613013473119","","","null","","","","","<p><img src= images/blank.png width =""200"" height = ""200"" style = ""float:right""></p><p><img src=images/blank.png width =""800"" height = ""200""></p>","","","","","","","",""
"","2441.000000002561","sequential-stimulus-presentation","263","1421103","0.0-50.0-1.1","SS1613013473119","trial","","40","800","3241.000000002561","images/stimuli/spore_stims/simple_12_A_a.gif","images/stimuli/spore_stims/simple_20_B_b.gif","","","","","14","simple_dissimilar","images/stimuli/spore_stims/simple_20_B_b.gif","middle",""
"","null","html-keyboard-response","264","1422403","0.0-50.0-0.2","SS1613013473119","","","null","","","","","<p><img src= images/blank.png width =""200"" height = ""200"" style = ""float:right""></p><p><img src=images/blank.png width =""800"" height = ""200""></p>","","","","","","","",""
"","3222.9999999981374","sequential-stimulus-presentation","265","1426444","0.0-50.0-1.2","SS1613013473119","trial","","40","800","4022.9999999981374","images/stimuli/spore_stims/simple_12_A_a.gif","images/stimuli/spore_stims/simple_20_B_b.gif","","","","","14","simple_dissimilar","images/stimuli/spore_stims/simple_20_B_b.gif","middle",""
"","null","html-keyboard-response","266","1427561","0.0-50.0-0.3","SS1613013473119","","","null","","","","","<p><img src= images/blank.png width =""200"" height = ""200"" style = ""float:right""></p><p><img src=images/blank.png width =""800"" height = ""200""></p>","","","","","","","",""
"","2475.999999998836","sequential-stimulus-presentation","267","1430855","0.0-50.0-1.3","SS1613013473119","trial","","40","800","3275.999999998836","images/stimuli/spore_stims/simple_12_A_a.gif","images/stimuli/spore_stims/simple_20_B_b.gif","","","","","14","simple_dissimilar","images/stimuli/spore_stims/simple_20_B_b.gif","middle",""
"","null","html-keyboard-response","268","1431855","0.0-50.0-0.4","SS1613013473119","","","null","","","","","<p><img src= images/blank.png width =""200"" height = ""200"" style = ""float:right""></p><p><img src=images/blank.png width =""800"" height = ""200""></p>","","","","","","","",""
"","2273.9999999976717","sequential-stimulus-presentation","269","1434947","0.0-50.0-1.4","SS1613013473119","trial","","40","800","3073.9999999976717","images/stimuli/spore_stims/simple_12_A_a.gif","images/stimuli/spore_stims/simple_20_B_b.gif","","","","","14","simple_dissimilar","images/stimuli/spore_stims/simple_20_B_b.gif","middle",""
"","null","html-keyboard-response","270","1436088","0.0-50.0-0.5","SS1613013473119","","","null","","","","","<p><img src= images/blank.png width =""200"" height = ""200"" style = ""float:right""></p><p><img src=images/blank.png width =""800"" height = ""200""></p>","","","","","","","",""
"","740.9999999981374","sequential-stimulus-presentation","271","1437649","0.0-50.0-1.5","SS1613013473119","trial","","40","800","1540.9999999981374","images/stimuli/spore_stims/simple_12_A_a.gif","images/stimuli/spore_stims/simple_20_B_b.gif","","","","","14","simple_dissimilar","images/stimuli/spore_stims/simple_20_B_b.gif","middle",""
"","null","html-keyboard-response","272","1438929","0.0-50.0-0.6","SS1613013473119","","","null","","","","","<p><img src= images/blank.png width =""200"" height = ""200"" style = ""float:right""></p><p><img src=images/blank.png width =""800"" height = ""200""></p>","","","","","","","",""
"","929","sequential-stimulus-presentation","273","1440668","0.0-50.0-1.6","SS1613013473119","trial","","40","800","1729","images/stimuli/spore_stims/simple_12_A_a.gif","images/stimuli/spore_stims/simple_20_B_b.gif","","","","","14","simple_dissimilar","images/stimuli/spore_stims/simple_12_A_a.gif","right",""
"","null","html-keyboard-response","274","1441768","0.0-50.0-0.7","SS1613013473119","","","null","","","","","<p><img src= images/blank.png width =""200"" height = ""200"" style = ""float:right""></p><p><img src=images/blank.png width =""800"" height = ""200""></p>","","","","","","","",""
"","673.9999999990687","sequential-stimulus-presentation","275","1443260","0.0-50.0-1.7","SS1613013473119","trial","","40","800","1473.9999999990687","images/stimuli/spore_stims/simple_12_A_a.gif","images/stimuli/spore_stims/simple_20_B_b.gif","","","","","14","simple_dissimilar","images/stimuli/spore_stims/simple_20_B_b.gif","middle",""
"","3864.9999999979045","html-keyboard-response","276","1447144","0.0-51.0","SS1613013473119","pref_question","","51","","","","","<video width ='960' height = '540' style='padding-top:8%' autoplay muted><source src='images/stimuli/wall_pref.mp4' type='video/mp4'></video>","3","right","66%","14","","","",""
"","4089","sequential-stimulus-presentation","277","1452043","0.0-52.0","SS1613013473119","pref_reveal","","40","800","4889","null","null","","","","","14","","","","deviant"
"","null","html-keyboard-response","278","1453355","0.0-53.0-0.0","SS1613013473119","","","null","","","","","<p><img src= images/blank.png width =""200"" height = ""200"" style = ""float:right""></p><p><img src=images/blank.png width =""800"" height = ""200""></p>","","","","","","","",""
"","833.9999999990687","sequential-stimulus-presentation","279","1455008","0.0-53.0-1.0","SS1613013473119","trial","","40","800","1633.9999999990687","images/stimuli/spore_stims/complex_03_B_b.gif","images/stimuli/spore_stims/complex_05_A_b.gif","","","","","15","complex_dissimilar","images/stimuli/spore_stims/complex_05_A_b.gif","left",""
"","null","html-keyboard-response","280","1456297","0.0-53.0-0.1","SS1613013473119","","","null","","","","","<p><img src= images/blank.png width =""200"" height = ""200"" style = ""float:right""></p><p><img src=images/blank.png width =""800"" height = ""200""></p>","","","","","","","",""
"","564.999999998603","sequential-stimulus-presentation","281","1457680","0.0-53.0-1.1","SS1613013473119","trial","","40","800","1364.999999998603","images/stimuli/spore_stims/complex_03_B_b.gif","images/stimuli/spore_stims/complex_05_A_b.gif","","","","","15","complex_dissimilar","images/stimuli/spore_stims/complex_05_A_b.gif","left",""
"","null","html-keyboard-response","282","1458833","0.0-53.0-0.2","SS1613013473119","","","null","","","","","<p><img src= images/blank.png width =""200"" height = ""200"" style = ""float:right""></p><p><img src=images/blank.png width =""800"" height = ""200""></p>","","","","","","","",""
"","521.0000000004657","sequential-stimulus-presentation","283","1460172","0.0-53.0-1.2","SS1613013473119","trial","","40","800","1321.0000000004657","images/stimuli/spore_stims/complex_03_B_b.gif","images/stimuli/spore_stims/complex_05_A_b.gif","","","","","15","complex_dissimilar","images/stimuli/spore_stims/complex_05_A_b.gif","left",""
"","null","html-keyboard-response","284","1461334","0.0-53.0-0.3","SS1613013473119","","","null","","","","","<p><img src= images/blank.png width =""200"" height = ""200"" style = ""float:right""></p><p><img src=images/blank.png width =""800"" height = ""200""></p>","","","","","","","",""
"","4638.999999999069","sequential-stimulus-presentation","285","1466791","0.0-53.0-1.3","SS1613013473119","trial","","40","800","5438.999999999069","images/stimuli/spore_stims/complex_03_B_b.gif","images/stimuli/spore_stims/complex_05_A_b.gif","","","","","15","complex_dissimilar","images/stimuli/spore_stims/complex_05_A_b.gif","left",""
"","null","html-keyboard-response","286","1467722","0.0-53.0-0.4","SS1613013473119","","","null","","","","","<p><img src= images/blank.png width =""200"" height = ""200"" style = ""float:right""></p><p><img src=images/blank.png width =""800"" height = ""200""></p>","","","","","","","",""
"","581.999999998603","sequential-stimulus-presentation","287","1469123","0.0-53.0-1.4","SS1613013473119","trial","","40","800","1381.999999998603","images/stimuli/spore_stims/complex_03_B_b.gif","images/stimuli/spore_stims/complex_05_A_b.gif","","","","","15","complex_dissimilar","images/stimuli/spore_stims/complex_05_A_b.gif","left",""
"","null","html-keyboard-response","288","1470408","0.0-53.0-0.5","SS1613013473119","","","null","","","","","<p><img src= images/blank.png width =""200"" height = ""200"" style = ""float:right""></p><p><img src=images/blank.png width =""800"" height = ""200""></p>","","","","","","","",""
"","600.999999998603","sequential-stimulus-presentation","289","1471841","0.0-53.0-1.5","SS1613013473119","trial","","40","800","1400.999999998603","images/stimuli/spore_stims/complex_03_B_b.gif","images/stimuli/spore_stims/complex_05_A_b.gif","","","","","15","complex_dissimilar","images/stimuli/spore_stims/complex_05_A_b.gif","left",""
"","null","html-keyboard-response","290","1473108","0.0-53.0-0.6","SS1613013473119","","","null","","","","","<p><img src= images/blank.png width =""200"" height = ""200"" style = ""float:right""></p><p><img src=images/blank.png width =""800"" height = ""200""></p>","","","","","","","",""
"","492.0000000020955","sequential-stimulus-presentation","291","1474420","0.0-53.0-1.6","SS1613013473119","trial","","40","800","1292.0000000020955","images/stimuli/spore_stims/complex_03_B_b.gif","images/stimuli/spore_stims/complex_05_A_b.gif","","","","","15","complex_dissimilar","images/stimuli/spore_stims/complex_05_A_b.gif","left",""
"","null","html-keyboard-response","292","1475489","0.0-53.0-0.7","SS1613013473119","","","null","","","","","<p><img src= images/blank.png width =""200"" height = ""200"" style = ""float:right""></p><p><img src=images/blank.png width =""800"" height = ""200""></p>","","","","","","","",""
"","1067.9999999993015","sequential-stimulus-presentation","293","1477376","0.0-53.0-1.7","SS1613013473119","trial","","40","800","1867.9999999993015","images/stimuli/spore_stims/complex_03_B_b.gif","images/stimuli/spore_stims/complex_05_A_b.gif","","","","","15","complex_dissimilar","images/stimuli/spore_stims/complex_03_B_b.gif","right",""
"","5390.999999999534","html-keyboard-response","294","1482783","0.0-54.0","SS1613013473119","pref_question","","51","","","","","<video width ='960' height = '540' style='padding-top:8%' autoplay muted><source src='images/stimuli/wall_pref.mp4' type='video/mp4'></video>","3","right","66%","15","","","",""
"","1991.9999999983702","sequential-stimulus-presentation","295","1485593","0.0-55.0","SS1613013473119","pref_reveal","","40","800","2791.99999999837","null","null","","","","","15","","","","deviant"
"","null","html-keyboard-response","296","1486846","0.0-56.0-0.0","SS1613013473119","","","null","","","","","<p><img src= images/blank.png width =""200"" height = ""200"" style = ""float:right""></p><p><img src=images/blank.png width =""800"" height = ""200""></p>","","","","","","","",""
"","852.0000000025611","sequential-stimulus-presentation","297","1488603","0.0-56.0-1.0","SS1613013473119","trial","","40","800","1652.0000000025611","images/stimuli/spore_stims/simple_05_B_d.gif","images/stimuli/spore_stims/simple_12_B_a.gif","","","","","16","simple_dissimilar","images/stimuli/spore_stims/simple_12_B_a.gif","middle",""
"","null","html-keyboard-response","298","1489689","0.0-56.0-0.1","SS1613013473119","","","null","","","","","<p><img src= images/blank.png width =""200"" height = ""200"" style = ""float:right""></p><p><img src=images/blank.png width =""800"" height = ""200""></p>","","","","","","","",""
"","509.9999999983702","sequential-stimulus-presentation","299","1491018","0.0-56.0-1.1","SS1613013473119","trial","","40","800","1309.9999999983702","images/stimuli/spore_stims/simple_05_B_d.gif","images/stimuli/spore_stims/simple_12_B_a.gif","","","","","16","simple_dissimilar","images/stimuli/spore_stims/simple_12_B_a.gif","middle",""
"","null","html-keyboard-response","300","1491998","0.0-56.0-0.2","SS1613013473119","","","null","","","","","<p><img src= images/blank.png width =""200"" height = ""200"" style = ""float:right""></p><p><img src=images/blank.png width =""800"" height = ""200""></p>","","","","","","","",""
"","459.9999999990687","sequential-stimulus-presentation","301","1493277","0.0-56.0-1.2","SS1613013473119","trial","","40","800","1259.9999999990687","images/stimuli/spore_stims/simple_05_B_d.gif","images/stimuli/spore_stims/simple_12_B_a.gif","","","","","16","simple_dissimilar","images/stimuli/spore_stims/simple_12_B_a.gif","middle",""
"","null","html-keyboard-response","302","1494480","0.0-56.0-0.3","SS1613013473119","","","null","","","","","<p><img src= images/blank.png width =""200"" height = ""200"" style = ""float:right""></p><p><img src=images/blank.png width =""800"" height = ""200""></p>","","","","","","","",""
"","438.999999998603","sequential-stimulus-presentation","303","1495737","0.0-56.0-1.3","SS1613013473119","trial","","40","800","1238.999999998603","images/stimuli/spore_stims/simple_05_B_d.gif","images/stimuli/spore_stims/simple_12_B_a.gif","","","","","16","simple_dissimilar","images/stimuli/spore_stims/simple_12_B_a.gif","middle",""
"","null","html-keyboard-response","304","1496905","0.0-56.0-0.4","SS1613013473119","","","null","","","","","<p><img src= images/blank.png width =""200"" height = ""200"" style = ""float:right""></p><p><img src=images/blank.png width =""800"" height = ""200""></p>","","","","","","","",""
"","437.0000000016298","sequential-stimulus-presentation","305","1498174","0.0-56.0-1.4","SS1613013473119","trial","","40","800","1237.0000000016298","images/stimuli/spore_stims/simple_05_B_d.gif","images/stimuli/spore_stims/simple_12_B_a.gif","","","","","16","simple_dissimilar","images/stimuli/spore_stims/simple_12_B_a.gif","middle",""
"","null","html-keyboard-response","306","1499114","0.0-56.0-0.5","SS1613013473119","","","null","","","","","<p><img src= images/blank.png width =""200"" height = ""200"" style = ""float:right""></p><p><img src=images/blank.png width =""800"" height = ""200""></p>","","","","","","","",""
"","1112.0000000009313","sequential-stimulus-presentation","307","1501043","0.0-56.0-1.5","SS1613013473119","trial","","40","800","1912.0000000009313","images/stimuli/spore_stims/simple_05_B_d.gif","images/stimuli/spore_stims/simple_12_B_a.gif","","","","","16","simple_dissimilar","images/stimuli/spore_stims/simple_05_B_d.gif","left",""
"","null","html-keyboard-response","308","1502032","0.0-56.0-0.6","SS1613013473119","","","null","","","","","<p><img src= images/blank.png width =""200"" height = ""200"" style = ""float:right""></p><p><img src=images/blank.png width =""800"" height = ""200""></p>","","","","","","","",""
