"view_history","rt","trial_type","trial_index","time_elapsed","internal_node_id","subject","stimulus_type","trial_stimulus","key_press","minimum_viewing_duration","trial_looking_time","block_deviant","block_background","stimulus","wall_pref","location","location_percent","block_number","block_type","stimulus_displayed","position_displayed","stim_type_selected","responses","question_order","stimulus_left","stimulus_right"
"[{""page_index"":0,""viewing_time"":5274.999999906868}]","5276.0000000707805","instructions","0","5281","0.0-0.0","SS1613106647839","","","","","","","","","","","","","","","","","","","",""
"[{""page_index"":0,""viewing_time"":13652.999999932945},{""page_index"":1,""viewing_time"":9515.000000130385}]","23168.999999994412","instructions","1","30460","0.0-1.0","SS1613106647839","instructions","","","","","","","","","","","","","","","","","","",""
"","13042.000000132248","sequential-stimulus-presentation","2","44325","0.0-2.0","SS1613106647839","","","40","800","13842.000000132248","null","null","","","","","","","","","","","","",""
"","1721.9999998342246","sequential-stimulus-presentation","3","46905","0.0-3.0","SS1613106647839","","","40","800","2521.9999998342246","null","null","","","","","","","","","","","","",""
"[{""page_index"":0,""viewing_time"":8681.00000009872}]","8682.000000029802","instructions","4","55592","0.0-4.0","SS1613106647839","instructions","","","","","","","","","","","","","","","","","","",""
"","21360.000000102445","html-keyboard-response","5","76961","0.0-5.0","SS1613106647839","instructions","","50","","","","","<video width ='960' height = '540' autoplay muted><source src='images/stimuli/wall_pref.mp4' type='video/mp4'></video>","2","middle","45%","","","","","","","","",""
"","2209.000000031665","sequential-stimulus-presentation","6","80432","0.0-6.0","SS1613106647839","pref_reveal","","40","800","3009.000000031665","null","null","","","","","","","","","","","","",""
"[{""page_index"":0,""viewing_time"":13041.000000201166},{""page_index"":1,""viewing_time"":8437.999999849126},{""page_index"":2,""viewing_time"":2435.9999999869615},{""page_index"":3,""viewing_time"":1344.0000000409782}]","25260.000000009313","instructions","7","105696","0.0-7.0","SS1613106647839","instructions","","","","","","","","","","","","","","","","","","",""
"","null","html-keyboard-response","8","106759","0.0-8.0-0.0","SS1613106647839","","","null","","","","","<p><img src= images/blank.png width =""200"" height = ""200"" style = ""float:right""></p><p><img src=images/blank.png width =""800"" height = ""200""></p>","","","","","","","","","","","",""
"","2303.000000072643","sequential-stimulus-presentation","9","109896","0.0-8.0-1.0","SS1613106647839","trial","","40","800","3103.000000072643","images/stimuli/spore_stims/simple_18_B_a.gif","images/stimuli/spore_stims/simple_18_A_a.gif","","","","","0","simple_similar","images/stimuli/spore_stims/simple_18_A_a.gif","left","","","","",""
"","null","html-keyboard-response","10","110905","0.0-8.0-0.1","SS1613106647839","","","null","","","","","<p><img src= images/blank.png width =""200"" height = ""200"" style = ""float:right""></p><p><img src=images/blank.png width =""800"" height = ""200""></p>","","","","","","","","","","","",""
"","731.9999998435378","sequential-stimulus-presentation","11","112733","0.0-8.0-1.1","SS1613106647839","trial","","40","800","1531.9999998435378","images/stimuli/spore_stims/simple_18_B_a.gif","images/stimuli/spore_stims/simple_18_A_a.gif","","","","","0","simple_similar","images/stimuli/spore_stims/simple_18_A_a.gif","left","","","","",""
"","null","html-keyboard-response","12","113649","0.0-8.0-0.2","SS1613106647839","","","null","","","","","<p><img src= images/blank.png width =""200"" height = ""200"" style = ""float:right""></p><p><img src=images/blank.png width =""800"" height = ""200""></p>","","","","","","","","","","","",""
"","1013.0000000353903","sequential-stimulus-presentation","13","115511","0.0-8.0-1.2","SS1613106647839","trial","","40","800","1813.0000000353903","images/stimuli/spore_stims/simple_18_B_a.gif","images/stimuli/spore_stims/simple_18_A_a.gif","","","","","0","simple_similar","images/stimuli/spore_stims/simple_18_A_a.gif","left","","","","",""
"","null","html-keyboard-response","14","116685","0.0-8.0-0.3","SS1613106647839","","","null","","","","","<p><img src= images/blank.png width =""200"" height = ""200"" style = ""float:right""></p><p><img src=images/blank.png width =""800"" height = ""200""></p>","","","","","","","","","","","",""
"","4445.999999996275","sequential-stimulus-presentation","15","122019","0.0-8.0-1.3","SS1613106647839","trial","","40","800","5245.999999996275","images/stimuli/spore_stims/simple_18_B_a.gif","images/stimuli/spore_stims/simple_18_A_a.gif","","","","","0","simple_similar","images/stimuli/spore_stims/simple_18_B_a.gif","middle","","","","",""
"","null","html-keyboard-response","16","123210","0.0-8.0-0.4","SS1613106647839","","","null","","","","","<p><img src= images/blank.png width =""200"" height = ""200"" style = ""float:right""></p><p><img src=images/blank.png width =""800"" height = ""200""></p>","","","","","","","","","","","",""
"","128.99999995715916","sequential-stimulus-presentation","17","124220","0.0-8.0-1.4","SS1613106647839","trial","","40","800","928.9999999571592","images/stimuli/spore_stims/simple_18_B_a.gif","images/stimuli/spore_stims/simple_18_A_a.gif","","","","","0","simple_similar","images/stimuli/spore_stims/simple_18_A_a.gif","left","","","","",""
"","null","html-keyboard-response","18","125333","0.0-8.0-0.5","SS1613106647839","","","null","","","","","<p><img src= images/blank.png width =""200"" height = ""200"" style = ""float:right""></p><p><img src=images/blank.png width =""800"" height = ""200""></p>","","","","","","","","","","","",""
"","1314.9999999441206","sequential-stimulus-presentation","19","127527","0.0-8.0-1.5","SS1613106647839","trial","","40","800","2114.9999999441206","images/stimuli/spore_stims/simple_18_B_a.gif","images/stimuli/spore_stims/simple_18_A_a.gif","","","","","0","simple_similar","images/stimuli/spore_stims/simple_18_A_a.gif","left","","","","",""
"","null","html-keyboard-response","20","128631","0.0-8.0-0.6","SS1613106647839","","","null","","","","","<p><img src= images/blank.png width =""200"" height = ""200"" style = ""float:right""></p><p><img src=images/blank.png width =""800"" height = ""200""></p>","","","","","","","","","","","",""
"","577.0000000484288","sequential-stimulus-presentation","21","130194","0.0-8.0-1.6","SS1613106647839","trial","","40","800","1377.0000000484288","images/stimuli/spore_stims/simple_18_B_a.gif","images/stimuli/spore_stims/simple_18_A_a.gif","","","","","0","simple_similar","images/stimuli/spore_stims/simple_18_A_a.gif","left","","","","",""
"","null","html-keyboard-response","22","131471","0.0-8.0-0.7","SS1613106647839","","","null","","","","","<p><img src= images/blank.png width =""200"" height = ""200"" style = ""float:right""></p><p><img src=images/blank.png width =""800"" height = ""200""></p>","","","","","","","","","","","",""
"","366.00000015459955","sequential-stimulus-presentation","23","132731","0.0-8.0-1.7","SS1613106647839","trial","","40","800","1166.0000001545995","images/stimuli/spore_stims/simple_18_B_a.gif","images/stimuli/spore_stims/simple_18_A_a.gif","","","","","0","simple_similar","images/stimuli/spore_stims/simple_18_A_a.gif","left","","","","",""
"","3443.99999990128","html-keyboard-response","24","136186","0.0-9.0","SS1613106647839","pref_question","","50","","","","","<video width ='960' height = '540' style='padding-top:8%' autoplay muted><source src='images/stimuli/wall_pref.mp4' type='video/mp4'></video>","2","middle","45%","0","","","","","","","",""
"","1987.9999998956919","sequential-stimulus-presentation","25","138999","0.0-10.0","SS1613106647839","pref_reveal","","40","800","2787.999999895692","null","null","","","","","0","","","","deviant","","","",""
"","null","html-keyboard-response","26","139890","0.0-11.0-0.0","SS1613106647839","","","null","","","","","<p><img src= images/blank.png width =""200"" height = ""200"" style = ""float:right""></p><p><img src=images/blank.png width =""800"" height = ""200""></p>","","","","","","","","","","","",""
"","529.0000000968575","sequential-stimulus-presentation","27","141247","0.0-11.0-1.0","SS1613106647839","trial","","40","800","1329.0000000968575","images/stimuli/spore_stims/simple_20_B_c.gif","images/stimuli/spore_stims/simple_14_B_a.gif","","","","","1","simple_dissimilar","images/stimuli/spore_stims/simple_14_B_a.gif","middle","","","","",""
"","null","html-keyboard-response","28","142475","0.0-11.0-0.1","SS1613106647839","","","null","","","","","<p><img src= images/blank.png width =""200"" height = ""200"" style = ""float:right""></p><p><img src=images/blank.png width =""800"" height = ""200""></p>","","","","","","","","","","","",""
"","287.00000001117587","sequential-stimulus-presentation","29","143595","0.0-11.0-1.1","SS1613106647839","trial","","40","800","1087.0000000111759","images/stimuli/spore_stims/simple_20_B_c.gif","images/stimuli/spore_stims/simple_14_B_a.gif","","","","","1","simple_dissimilar","images/stimuli/spore_stims/simple_14_B_a.gif","middle","","","","",""
"","null","html-keyboard-response","30","144565","0.0-11.0-0.2","SS1613106647839","","","null","","","","","<p><img src= images/blank.png width =""200"" height = ""200"" style = ""float:right""></p><p><img src=images/blank.png width =""800"" height = ""200""></p>","","","","","","","","","","","",""
"","719.0000000409782","sequential-stimulus-presentation","31","146221","0.0-11.0-1.2","SS1613106647839","trial","","40","800","1519.0000000409782","images/stimuli/spore_stims/simple_20_B_c.gif","images/stimuli/spore_stims/simple_14_B_a.gif","","","","","1","simple_dissimilar","images/stimuli/spore_stims/simple_14_B_a.gif","middle","","","","",""
"","null","html-keyboard-response","32","147294","0.0-11.0-0.3","SS1613106647839","","","null","","","","","<p><img src= images/blank.png width =""200"" height = ""200"" style = ""float:right""></p><p><img src=images/blank.png width =""800"" height = ""200""></p>","","","","","","","","","","","",""
"","311.9999999180436","sequential-stimulus-presentation","33","148436","0.0-11.0-1.3","SS1613106647839","trial","","40","800","1111.9999999180436","images/stimuli/spore_stims/simple_20_B_c.gif","images/stimuli/spore_stims/simple_14_B_a.gif","","","","","1","simple_dissimilar","images/stimuli/spore_stims/simple_14_B_a.gif","middle","","","","",""
"","null","html-keyboard-response","34","149453","0.0-11.0-0.4","SS1613106647839","","","null","","","","","<p><img src= images/blank.png width =""200"" height = ""200"" style = ""float:right""></p><p><img src=images/blank.png width =""800"" height = ""200""></p>","","","","","","","","","","","",""
"","314.99999994412065","sequential-stimulus-presentation","35","150597","0.0-11.0-1.4","SS1613106647839","trial","","40","800","1114.9999999441206","images/stimuli/spore_stims/simple_20_B_c.gif","images/stimuli/spore_stims/simple_14_B_a.gif","","","","","1","simple_dissimilar","images/stimuli/spore_stims/simple_14_B_a.gif","middle","","","","",""
"","null","html-keyboard-response","36","151881","0.0-11.0-0.5","SS1613106647839","","","null","","","","","<p><img src= images/blank.png width =""200"" height = ""200"" style = ""float:right""></p><p><img src=images/blank.png width =""800"" height = ""200""></p>","","","","","","","","","","","",""
"","309.0000001247972","sequential-stimulus-presentation","37","153092","0.0-11.0-1.5","SS1613106647839","trial","","40","800","1109.0000001247972","images/stimuli/spore_stims/simple_20_B_c.gif","images/stimuli/spore_stims/simple_14_B_a.gif","","","","","1","simple_dissimilar","images/stimuli/spore_stims/simple_14_B_a.gif","middle","","","","",""
"","null","html-keyboard-response","38","154015","0.0-11.0-0.6","SS1613106647839","","","null","","","","","<p><img src= images/blank.png width =""200"" height = ""200"" style = ""float:right""></p><p><img src=images/blank.png width =""800"" height = ""200""></p>","","","","","","","","","","","",""
"","876.9999998621643","sequential-stimulus-presentation","39","155749","0.0-11.0-1.6","SS1613106647839","trial","","40","800","1676.9999998621643","images/stimuli/spore_stims/simple_20_B_c.gif","images/stimuli/spore_stims/simple_14_B_a.gif","","","","","1","simple_dissimilar","images/stimuli/spore_stims/simple_20_B_c.gif","right","","","","",""
"","null","html-keyboard-response","40","156610","0.0-11.0-0.7","SS1613106647839","","","null","","","","","<p><img src= images/blank.png width =""200"" height = ""200"" style = ""float:right""></p><p><img src=images/blank.png width =""800"" height = ""200""></p>","","","","","","","","","","","",""
"","758.9999998454005","sequential-stimulus-presentation","41","158192","0.0-11.0-1.7","SS1613106647839","trial","","40","800","1558.9999998454005","images/stimuli/spore_stims/simple_20_B_c.gif","images/stimuli/spore_stims/simple_14_B_a.gif","","","","","1","simple_dissimilar","images/stimuli/spore_stims/simple_14_B_a.gif","middle","","","","",""
"","3706.000000005588","html-keyboard-response","42","161908","0.0-12.0","SS1613106647839","pref_question","","49","","","","","<video width ='960' height = '540' style='padding-top:8%' autoplay muted><source src='images/stimuli/wall_pref.mp4' type='video/mp4'></video>","1","left","25%","1","","","","","","","",""
"","70.99999999627471","sequential-stimulus-presentation","43","162816","0.0-13.0","SS1613106647839","pref_reveal","","40","800","870.9999999962747","null","null","","","","","1","","","","novel","","","",""
"","null","html-keyboard-response","44","163696","0.0-14.0-0.0","SS1613106647839","","","null","","","","","<p><img src= images/blank.png width =""200"" height = ""200"" style = ""float:right""></p><p><img src=images/blank.png width =""800"" height = ""200""></p>","","","","","","","","","","","",""
"","847.9999999981374","sequential-stimulus-presentation","45","165396","0.0-14.0-1.0","SS1613106647839","trial","","40","800","1647.9999999981374","images/stimuli/spore_stims/simple_05_B_a.gif","images/stimuli/spore_stims/simple_05_A_a.gif","","","","","2","simple_similar","images/stimuli/spore_stims/simple_05_A_a.gif","middle","","","","",""
"","null","html-keyboard-response","46","166665","0.0-14.0-0.1","SS1613106647839","","","null","","","","","<p><img src= images/blank.png width =""200"" height = ""200"" style = ""float:right""></p><p><img src=images/blank.png width =""800"" height = ""200""></p>","","","","","","","","","","","",""
"","880.0000001210719","sequential-stimulus-presentation","47","168406","0.0-14.0-1.1","SS1613106647839","trial","","40","800","1680.000000121072","images/stimuli/spore_stims/simple_05_B_a.gif","images/stimuli/spore_stims/simple_05_A_a.gif","","","","","2","simple_similar","images/stimuli/spore_stims/simple_05_A_a.gif","middle","","","","",""
"","null","html-keyboard-response","48","169644","0.0-14.0-0.2","SS1613106647839","","","null","","","","","<p><img src= images/blank.png width =""200"" height = ""200"" style = ""float:right""></p><p><img src=images/blank.png width =""800"" height = ""200""></p>","","","","","","","","","","","",""
"","557.0000000298023","sequential-stimulus-presentation","49","171063","0.0-14.0-1.2","SS1613106647839","trial","","40","800","1357.0000000298023","images/stimuli/spore_stims/simple_05_B_a.gif","images/stimuli/spore_stims/simple_05_A_a.gif","","","","","2","simple_similar","images/stimuli/spore_stims/simple_05_B_a.gif","left","","","","",""
"","null","html-keyboard-response","50","172009","0.0-14.0-0.3","SS1613106647839","","","null","","","","","<p><img src= images/blank.png width =""200"" height = ""200"" style = ""float:right""></p><p><img src=images/blank.png width =""800"" height = ""200""></p>","","","","","","","","","","","",""
"","788.9999998733401","sequential-stimulus-presentation","51","173629","0.0-14.0-1.3","SS1613106647839","trial","","40","800","1588.9999998733401","images/stimuli/spore_stims/simple_05_B_a.gif","images/stimuli/spore_stims/simple_05_A_a.gif","","","","","2","simple_similar","images/stimuli/spore_stims/simple_05_A_a.gif","middle","","","","",""
"","null","html-keyboard-response","52","174811","0.0-14.0-0.4","SS1613106647839","","","null","","","","","<p><img src= images/blank.png width =""200"" height = ""200"" style = ""float:right""></p><p><img src=images/blank.png width =""800"" height = ""200""></p>","","","","","","","","","","","",""
"","885.0000000093132","sequential-stimulus-presentation","53","176689","0.0-14.0-1.4","SS1613106647839","trial","","40","800","1685.0000000093132","images/stimuli/spore_stims/simple_05_B_a.gif","images/stimuli/spore_stims/simple_05_A_a.gif","","","","","2","simple_similar","images/stimuli/spore_stims/simple_05_A_a.gif","middle","","","","",""
"","null","html-keyboard-response","54","177507","0.0-14.0-0.5","SS1613106647839","","","null","","","","","<p><img src= images/blank.png width =""200"" height = ""200"" style = ""float:right""></p><p><img src=images/blank.png width =""800"" height = ""200""></p>","","","","","","","","","","","",""
"","961.9999998249114","sequential-stimulus-presentation","55","179285","0.0-14.0-1.5","SS1613106647839","trial","","40","800","1761.9999998249114","images/stimuli/spore_stims/simple_05_B_a.gif","images/stimuli/spore_stims/simple_05_A_a.gif","","","","","2","simple_similar","images/stimuli/spore_stims/simple_05_A_a.gif","middle","","","","",""
"","null","html-keyboard-response","56","180464","0.0-14.0-0.6","SS1613106647839","","","null","","","","","<p><img src= images/blank.png width =""200"" height = ""200"" style = ""float:right""></p><p><img src=images/blank.png width =""800"" height = ""200""></p>","","","","","","","","","","","",""
"","494.99999987892807","sequential-stimulus-presentation","57","181780","0.0-14.0-1.6","SS1613106647839","trial","","40","800","1294.999999878928","images/stimuli/spore_stims/simple_05_B_a.gif","images/stimuli/spore_stims/simple_05_A_a.gif","","","","","2","simple_similar","images/stimuli/spore_stims/simple_05_A_a.gif","middle","","","","",""
"","null","html-keyboard-response","58","182830","0.0-14.0-0.7","SS1613106647839","","","null","","","","","<p><img src= images/blank.png width =""200"" height = ""200"" style = ""float:right""></p><p><img src=images/blank.png width =""800"" height = ""200""></p>","","","","","","","","","","","",""
"","903.9999998640269","sequential-stimulus-presentation","59","184621","0.0-14.0-1.7","SS1613106647839","trial","","40","800","1703.999999864027","images/stimuli/spore_stims/simple_05_B_a.gif","images/stimuli/spore_stims/simple_05_A_a.gif","","","","","2","simple_similar","images/stimuli/spore_stims/simple_05_A_a.gif","middle","","","","",""
"","1456.000000005588","html-keyboard-response","60","186084","0.0-15.0","SS1613106647839","pref_question","","51","","","","","<video width ='960' height = '540' style='padding-top:8%' autoplay muted><source src='images/stimuli/wall_pref.mp4' type='video/mp4'></video>","3","right","66%","2","","","","","","","",""
"","84.9999999627471","sequential-stimulus-presentation","61","187098","0.0-16.0","SS1613106647839","pref_reveal","","40","800","884.9999999627471","null","null","","","","","2","","","","novel","","","",""
"","null","html-keyboard-response","62","188301","0.0-17.0-0.0","SS1613106647839","","","null","","","","","<p><img src= images/blank.png width =""200"" height = ""200"" style = ""float:right""></p><p><img src=images/blank.png width =""800"" height = ""200""></p>","","","","","","","","","","","",""
"","371.99999997392297","sequential-stimulus-presentation","63","189501","0.0-17.0-1.0","SS1613106647839","trial","","40","800","1171.999999973923","images/stimuli/spore_stims/simple_01_A_d.gif","images/stimuli/spore_stims/simple_10_B_a.gif","","","","","3","simple_dissimilar","images/stimuli/spore_stims/simple_10_B_a.gif","right","","","","",""
"","null","html-keyboard-response","64","190663","0.0-17.0-0.1","SS1613106647839","","","null","","","","","<p><img src= images/blank.png width =""200"" height = ""200"" style = ""float:right""></p><p><img src=images/blank.png width =""800"" height = ""200""></p>","","","","","","","","","","","",""
"","608.9999999385327","sequential-stimulus-presentation","65","192107","0.0-17.0-1.1","SS1613106647839","trial","","40","800","1408.9999999385327","images/stimuli/spore_stims/simple_01_A_d.gif","images/stimuli/spore_stims/simple_10_B_a.gif","","","","","3","simple_dissimilar","images/stimuli/spore_stims/simple_10_B_a.gif","right","","","","",""
"","null","html-keyboard-response","66","193382","0.0-17.0-0.2","SS1613106647839","","","null","","","","","<p><img src= images/blank.png width =""200"" height = ""200"" style = ""float:right""></p><p><img src=images/blank.png width =""800"" height = ""200""></p>","","","","","","","","","","","",""
"","152.00000000186265","sequential-stimulus-presentation","67","194372","0.0-17.0-1.2","SS1613106647839","trial","","40","800","952.0000000018626","images/stimuli/spore_stims/simple_01_A_d.gif","images/stimuli/spore_stims/simple_10_B_a.gif","","","","","3","simple_dissimilar","images/stimuli/spore_stims/simple_10_B_a.gif","right","","","","",""
"","null","html-keyboard-response","68","195597","0.0-17.0-0.3","SS1613106647839","","","null","","","","","<p><img src= images/blank.png width =""200"" height = ""200"" style = ""float:right""></p><p><img src=images/blank.png width =""800"" height = ""200""></p>","","","","","","","","","","","",""
"","982.0000000763685","sequential-stimulus-presentation","69","197421","0.0-17.0-1.3","SS1613106647839","trial","","40","800","1782.0000000763685","images/stimuli/spore_stims/simple_01_A_d.gif","images/stimuli/spore_stims/simple_10_B_a.gif","","","","","3","simple_dissimilar","images/stimuli/spore_stims/simple_10_B_a.gif","right","","","","",""
"","null","html-keyboard-response","70","198598","0.0-17.0-0.4","SS1613106647839","","","null","","","","","<p><img src= images/blank.png width =""200"" height = ""200"" style = ""float:right""></p><p><img src=images/blank.png width =""800"" height = ""200""></p>","","","","","","","","","","","",""
"","371.99999997392297","sequential-stimulus-presentation","71","199808","0.0-17.0-1.4","SS1613106647839","trial","","40","800","1171.999999973923","images/stimuli/spore_stims/simple_01_A_d.gif","images/stimuli/spore_stims/simple_10_B_a.gif","","","","","3","simple_dissimilar","images/stimuli/spore_stims/simple_10_B_a.gif","right","","","","",""
"","null","html-keyboard-response","72","200700","0.0-17.0-0.5","SS1613106647839","","","null","","","","","<p><img src= images/blank.png width =""200"" height = ""200"" style = ""float:right""></p><p><img src=images/blank.png width =""800"" height = ""200""></p>","","","","","","","","","","","",""
"","304.9999999348074","sequential-stimulus-presentation","73","201905","0.0-17.0-1.5","SS1613106647839","trial","","40","800","1104.9999999348074","images/stimuli/spore_stims/simple_01_A_d.gif","images/stimuli/spore_stims/simple_10_B_a.gif","","","","","3","simple_dissimilar","images/stimuli/spore_stims/simple_01_A_d.gif","middle","","","","",""
"","null","html-keyboard-response","74","203143","0.0-17.0-0.6","SS1613106647839","","","null","","","","","<p><img src= images/blank.png width =""200"" height = ""200"" style = ""float:right""></p><p><img src=images/blank.png width =""800"" height = ""200""></p>","","","","","","","","","","","",""
"","220.00000020489097","sequential-stimulus-presentation","75","204209","0.0-17.0-1.6","SS1613106647839","trial","","40","800","1020.000000204891","images/stimuli/spore_stims/simple_01_A_d.gif","images/stimuli/spore_stims/simple_10_B_a.gif","","","","","3","simple_dissimilar","images/stimuli/spore_stims/simple_10_B_a.gif","right","","","","",""
"","null","html-keyboard-response","76","205137","0.0-17.0-0.7","SS1613106647839","","","null","","","","","<p><img src= images/blank.png width =""200"" height = ""200"" style = ""float:right""></p><p><img src=images/blank.png width =""800"" height = ""200""></p>","","","","","","","","","","","",""
"","470.00000020489097","sequential-stimulus-presentation","77","206470","0.0-17.0-1.7","SS1613106647839","trial","","40","800","1270.000000204891","images/stimuli/spore_stims/simple_01_A_d.gif","images/stimuli/spore_stims/simple_10_B_a.gif","","","","","3","simple_dissimilar","images/stimuli/spore_stims/simple_10_B_a.gif","right","","","","",""
"","1584.000000031665","html-keyboard-response","78","208063","0.0-18.0","SS1613106647839","pref_question","","49","","","","","<video width ='960' height = '540' style='padding-top:8%' autoplay muted><source src='images/stimuli/wall_pref.mp4' type='video/mp4'></video>","1","left","25%","3","","","","","","","",""
"","716.9999999459833","sequential-stimulus-presentation","79","209624","0.0-19.0","SS1613106647839","pref_reveal","","40","800","1516.9999999459833","null","null","","","","","3","","","","novel","","","",""
"","null","html-keyboard-response","80","210473","0.0-20.0-0.0","SS1613106647839","","","null","","","","","<p><img src= images/blank.png width =""200"" height = ""200"" style = ""float:right""></p><p><img src=images/blank.png width =""800"" height = ""200""></p>","","","","","","","","","","","",""
"","702.9999999795109","sequential-stimulus-presentation","81","212114","0.0-20.0-1.0","SS1613106647839","trial","","40","800","1502.999999979511","images/stimuli/spore_stims/complex_11_B_c.gif","images/stimuli/spore_stims/complex_11_A_c.gif","","","","","4","complex_similar","images/stimuli/spore_stims/complex_11_A_c.gif","middle","","","","",""
"","null","html-keyboard-response","82","213088","0.0-20.0-0.1","SS1613106647839","","","null","","","","","<p><img src= images/blank.png width =""200"" height = ""200"" style = ""float:right""></p><p><img src=images/blank.png width =""800"" height = ""200""></p>","","","","","","","","","","","",""
"","773.0000000447035","sequential-stimulus-presentation","83","214685","0.0-20.0-1.1","SS1613106647839","trial","","40","800","1573.0000000447035","images/stimuli/spore_stims/complex_11_B_c.gif","images/stimuli/spore_stims/complex_11_A_c.gif","","","","","4","complex_similar","images/stimuli/spore_stims/complex_11_A_c.gif","middle","","","","",""
"","null","html-keyboard-response","84","215920","0.0-20.0-0.2","SS1613106647839","","","null","","","","","<p><img src= images/blank.png width =""200"" height = ""200"" style = ""float:right""></p><p><img src=images/blank.png width =""800"" height = ""200""></p>","","","","","","","","","","","",""
"","711.9999998249114","sequential-stimulus-presentation","85","217566","0.0-20.0-1.2","SS1613106647839","trial","","40","800","1511.9999998249114","images/stimuli/spore_stims/complex_11_B_c.gif","images/stimuli/spore_stims/complex_11_A_c.gif","","","","","4","complex_similar","images/stimuli/spore_stims/complex_11_A_c.gif","middle","","","","",""
"","null","html-keyboard-response","86","218783","0.0-20.0-0.3","SS1613106647839","","","null","","","","","<p><img src= images/blank.png width =""200"" height = ""200"" style = ""float:right""></p><p><img src=images/blank.png width =""800"" height = ""200""></p>","","","","","","","","","","","",""
"","628.000000026077","sequential-stimulus-presentation","87","220303","0.0-20.0-1.3","SS1613106647839","trial","","40","800","1428.000000026077","images/stimuli/spore_stims/complex_11_B_c.gif","images/stimuli/spore_stims/complex_11_A_c.gif","","","","","4","complex_similar","images/stimuli/spore_stims/complex_11_A_c.gif","middle","","","","",""
"","null","html-keyboard-response","88","221224","0.0-20.0-0.4","SS1613106647839","","","null","","","","","<p><img src= images/blank.png width =""200"" height = ""200"" style = ""float:right""></p><p><img src=images/blank.png width =""800"" height = ""200""></p>","","","","","","","","","","","",""
"","640.9999998286366","sequential-stimulus-presentation","89","222709","0.0-20.0-1.4","SS1613106647839","trial","","40","800","1440.9999998286366","images/stimuli/spore_stims/complex_11_B_c.gif","images/stimuli/spore_stims/complex_11_A_c.gif","","","","","4","complex_similar","images/stimuli/spore_stims/complex_11_B_c.gif","left","","","","",""
"","null","html-keyboard-response","90","223958","0.0-20.0-0.5","SS1613106647839","","","null","","","","","<p><img src= images/blank.png width =""200"" height = ""200"" style = ""float:right""></p><p><img src=images/blank.png width =""800"" height = ""200""></p>","","","","","","","","","","","",""
"","318.9999999012798","sequential-stimulus-presentation","91","225104","0.0-20.0-1.5","SS1613106647839","trial","","40","800","1118.9999999012798","images/stimuli/spore_stims/complex_11_B_c.gif","images/stimuli/spore_stims/complex_11_A_c.gif","","","","","4","complex_similar","images/stimuli/spore_stims/complex_11_A_c.gif","middle","","","","",""
"","null","html-keyboard-response","92","225998","0.0-20.0-0.6","SS1613106647839","","","null","","","","","<p><img src= images/blank.png width =""200"" height = ""200"" style = ""float:right""></p><p><img src=images/blank.png width =""800"" height = ""200""></p>","","","","","","","","","","","",""
"","618.9999999478459","sequential-stimulus-presentation","93","227431","0.0-20.0-1.6","SS1613106647839","trial","","40","800","1418.999999947846","images/stimuli/spore_stims/complex_11_B_c.gif","images/stimuli/spore_stims/complex_11_A_c.gif","","","","","4","complex_similar","images/stimuli/spore_stims/complex_11_A_c.gif","middle","","","","",""
"","null","html-keyboard-response","94","228415","0.0-20.0-0.7","SS1613106647839","","","null","","","","","<p><img src= images/blank.png width =""200"" height = ""200"" style = ""float:right""></p><p><img src=images/blank.png width =""800"" height = ""200""></p>","","","","","","","","","","","",""
"","639.000000199303","sequential-stimulus-presentation","95","230060","0.0-20.0-1.7","SS1613106647839","trial","","40","800","1439.000000199303","images/stimuli/spore_stims/complex_11_B_c.gif","images/stimuli/spore_stims/complex_11_A_c.gif","","","","","4","complex_similar","images/stimuli/spore_stims/complex_11_A_c.gif","middle","","","","",""
"","1447.999999858439","html-keyboard-response","96","231516","0.0-21.0","SS1613106647839","pref_question","","51","","","","","<video width ='960' height = '540' style='padding-top:8%' autoplay muted><source src='images/stimuli/wall_pref.mp4' type='video/mp4'></video>","3","right","66%","4","","","","","","","",""
"","454.0000001434237","sequential-stimulus-presentation","97","232954","0.0-22.0","SS1613106647839","pref_reveal","","40","800","1254.0000001434237","null","null","","","","","4","","","","novel","","","",""
"","null","html-keyboard-response","98","234124","0.0-23.0-0.0","SS1613106647839","","","null","","","","","<p><img src= images/blank.png width =""200"" height = ""200"" style = ""float:right""></p><p><img src=images/blank.png width =""800"" height = ""200""></p>","","","","","","","","","","","",""
"","291.0000002011657","sequential-stimulus-presentation","99","235306","0.0-23.0-1.0","SS1613106647839","trial","","40","800","1091.0000002011657","images/stimuli/spore_stims/complex_20_A_b.gif","images/stimuli/spore_stims/complex_20_B_b.gif","","","","","5","complex_similar","images/stimuli/spore_stims/complex_20_B_b.gif","middle","","","","",""
"","null","html-keyboard-response","100","236289","0.0-23.0-0.1","SS1613106647839","","","null","","","","","<p><img src= images/blank.png width =""200"" height = ""200"" style = ""float:right""></p><p><img src=images/blank.png width =""800"" height = ""200""></p>","","","","","","","","","","","",""
"","793.9999999944121","sequential-stimulus-presentation","101","238001","0.0-23.0-1.1","SS1613106647839","trial","","40","800","1593.999999994412","images/stimuli/spore_stims/complex_20_A_b.gif","images/stimuli/spore_stims/complex_20_B_b.gif","","","","","5","complex_similar","images/stimuli/spore_stims/complex_20_B_b.gif","middle","","","","",""
"","null","html-keyboard-response","102","238996","0.0-23.0-0.2","SS1613106647839","","","null","","","","","<p><img src= images/blank.png width =""200"" height = ""200"" style = ""float:right""></p><p><img src=images/blank.png width =""800"" height = ""200""></p>","","","","","","","","","","","",""
"","492.0000000856817","sequential-stimulus-presentation","103","240622","0.0-23.0-1.2","SS1613106647839","trial","","40","800","1292.0000000856817","images/stimuli/spore_stims/complex_20_A_b.gif","images/stimuli/spore_stims/complex_20_B_b.gif","","","","","5","complex_similar","images/stimuli/spore_stims/complex_20_B_b.gif","middle","","","","",""
"","null","html-keyboard-response","104","241795","0.0-23.0-0.3","SS1613106647839","","","null","","","","","<p><img src= images/blank.png width =""200"" height = ""200"" style = ""float:right""></p><p><img src=images/blank.png width =""800"" height = ""200""></p>","","","","","","","","","","","",""
"","373.9999998360872","sequential-stimulus-presentation","105","242985","0.0-23.0-1.3","SS1613106647839","trial","","40","800","1173.9999998360872","images/stimuli/spore_stims/complex_20_A_b.gif","images/stimuli/spore_stims/complex_20_B_b.gif","","","","","5","complex_similar","images/stimuli/spore_stims/complex_20_B_b.gif","middle","","","","",""
"","null","html-keyboard-response","106","244268","0.0-23.0-0.4","SS1613106647839","","","null","","","","","<p><img src= images/blank.png width =""200"" height = ""200"" style = ""float:right""></p><p><img src=images/blank.png width =""800"" height = ""200""></p>","","","","","","","","","","","",""
"","479.99999998137355","sequential-stimulus-presentation","107","245572","0.0-23.0-1.4","SS1613106647839","trial","","40","800","1279.9999999813735","images/stimuli/spore_stims/complex_20_A_b.gif","images/stimuli/spore_stims/complex_20_B_b.gif","","","","","5","complex_similar","images/stimuli/spore_stims/complex_20_A_b.gif","right","","","","",""
"","null","html-keyboard-response","108","246729","0.0-23.0-0.5","SS1613106647839","","","null","","","","","<p><img src= images/blank.png width =""200"" height = ""200"" style = ""float:right""></p><p><img src=images/blank.png width =""800"" height = ""200""></p>","","","","","","","","","","","",""
"","575.999999884516","sequential-stimulus-presentation","109","248130","0.0-23.0-1.5","SS1613106647839","trial","","40","800","1375.999999884516","images/stimuli/spore_stims/complex_20_A_b.gif","images/stimuli/spore_stims/complex_20_B_b.gif","","","","","5","complex_similar","images/stimuli/spore_stims/complex_20_B_b.gif","middle","","","","",""
"","null","html-keyboard-response","110","249053","0.0-23.0-0.6","SS1613106647839","","","null","","","","","<p><img src= images/blank.png width =""200"" height = ""200"" style = ""float:right""></p><p><img src=images/blank.png width =""800"" height = ""200""></p>","","","","","","","","","","","",""
"","600.0000000931323","sequential-stimulus-presentation","111","250494","0.0-23.0-1.6","SS1613106647839","trial","","40","800","1400.0000000931323","images/stimuli/spore_stims/complex_20_A_b.gif","images/stimuli/spore_stims/complex_20_B_b.gif","","","","","5","complex_similar","images/stimuli/spore_stims/complex_20_B_b.gif","middle","","","","",""
"","null","html-keyboard-response","112","251488","0.0-23.0-0.7","SS1613106647839","","","null","","","","","<p><img src= images/blank.png width =""200"" height = ""200"" style = ""float:right""></p><p><img src=images/blank.png width =""800"" height = ""200""></p>","","","","","","","","","","","",""
"","806.0000000987202","sequential-stimulus-presentation","113","253119","0.0-23.0-1.7","SS1613106647839","trial","","40","800","1606.0000000987202","images/stimuli/spore_stims/complex_20_A_b.gif","images/stimuli/spore_stims/complex_20_B_b.gif","","","","","5","complex_similar","images/stimuli/spore_stims/complex_20_B_b.gif","middle","","","","",""
"","1720.000000204891","html-keyboard-response","114","254879","0.0-24.0","SS1613106647839","pref_question","","51","","","","","<video width ='960' height = '540' style='padding-top:8%' autoplay muted><source src='images/stimuli/wall_pref.mp4' type='video/mp4'></video>","3","right","66%","5","","","","","","","",""
"","884.0000000782311","sequential-stimulus-presentation","115","256601","0.0-25.0","SS1613106647839","pref_reveal","","40","800","1684.000000078231","null","null","","","","","5","","","","deviant","","","",""
"","null","html-keyboard-response","116","257520","0.0-26.0-0.0","SS1613106647839","","","null","","","","","<p><img src= images/blank.png width =""200"" height = ""200"" style = ""float:right""></p><p><img src=images/blank.png width =""800"" height = ""200""></p>","","","","","","","","","","","",""
"","844.9999999720603","sequential-stimulus-presentation","117","259184","0.0-26.0-1.0","SS1613106647839","trial","","40","800","1644.9999999720603","images/stimuli/spore_stims/complex_09_B_d.gif","images/stimuli/spore_stims/complex_06_A_d.gif","","","","","6","complex_dissimilar","images/stimuli/spore_stims/complex_06_A_d.gif","middle","","","","",""
"","null","html-keyboard-response","118","260295","0.0-26.0-0.1","SS1613106647839","","","null","","","","","<p><img src= images/blank.png width =""200"" height = ""200"" style = ""float:right""></p><p><img src=images/blank.png width =""800"" height = ""200""></p>","","","","","","","","","","","",""
"","755.9999998193234","sequential-stimulus-presentation","119","261874","0.0-26.0-1.1","SS1613106647839","trial","","40","800","1555.9999998193234","images/stimuli/spore_stims/complex_09_B_d.gif","images/stimuli/spore_stims/complex_06_A_d.gif","","","","","6","complex_dissimilar","images/stimuli/spore_stims/complex_06_A_d.gif","middle","","","","",""
"","null","html-keyboard-response","120","262994","0.0-26.0-0.2","SS1613106647839","","","null","","","","","<p><img src= images/blank.png width =""200"" height = ""200"" style = ""float:right""></p><p><img src=images/blank.png width =""800"" height = ""200""></p>","","","","","","","","","","","",""
"","729.0000000502914","sequential-stimulus-presentation","121","264608","0.0-26.0-1.2","SS1613106647839","trial","","40","800","1529.0000000502914","images/stimuli/spore_stims/complex_09_B_d.gif","images/stimuli/spore_stims/complex_06_A_d.gif","","","","","6","complex_dissimilar","images/stimuli/spore_stims/complex_09_B_d.gif","right","","","","",""
"","null","html-keyboard-response","122","265903","0.0-26.0-0.3","SS1613106647839","","","null","","","","","<p><img src= images/blank.png width =""200"" height = ""200"" style = ""float:right""></p><p><img src=images/blank.png width =""800"" height = ""200""></p>","","","","","","","","","","","",""
"","1078.0000002123415","sequential-stimulus-presentation","123","267800","0.0-26.0-1.3","SS1613106647839","trial","","40","800","1878.0000002123415","images/stimuli/spore_stims/complex_09_B_d.gif","images/stimuli/spore_stims/complex_06_A_d.gif","","","","","6","complex_dissimilar","images/stimuli/spore_stims/complex_06_A_d.gif","middle","","","","",""
"","null","html-keyboard-response","124","268768","0.0-26.0-0.4","SS1613106647839","","","null","","","","","<p><img src= images/blank.png width =""200"" height = ""200"" style = ""float:right""></p><p><img src=images/blank.png width =""800"" height = ""200""></p>","","","","","","","","","","","",""
"","692.0000000391155","sequential-stimulus-presentation","125","270304","0.0-26.0-1.4","SS1613106647839","trial","","40","800","1492.0000000391155","images/stimuli/spore_stims/complex_09_B_d.gif","images/stimuli/spore_stims/complex_06_A_d.gif","","","","","6","complex_dissimilar","images/stimuli/spore_stims/complex_06_A_d.gif","middle","","","","",""
"","null","html-keyboard-response","126","271467","0.0-26.0-0.5","SS1613106647839","","","null","","","","","<p><img src= images/blank.png width =""200"" height = ""200"" style = ""float:right""></p><p><img src=images/blank.png width =""800"" height = ""200""></p>","","","","","","","","","","","",""
"","689.9999999441206","sequential-stimulus-presentation","127","272972","0.0-26.0-1.5","SS1613106647839","trial","","40","800","1489.9999999441206","images/stimuli/spore_stims/complex_09_B_d.gif","images/stimuli/spore_stims/complex_06_A_d.gif","","","","","6","complex_dissimilar","images/stimuli/spore_stims/complex_06_A_d.gif","middle","","","","",""
"","null","html-keyboard-response","128","274178","0.0-26.0-0.6","SS1613106647839","","","null","","","","","<p><img src= images/blank.png width =""200"" height = ""200"" style = ""float:right""></p><p><img src=images/blank.png width =""800"" height = ""200""></p>","","","","","","","","","","","",""
"","793.0000000633299","sequential-stimulus-presentation","129","275909","0.0-26.0-1.6","SS1613106647839","trial","","40","800","1593.00000006333","images/stimuli/spore_stims/complex_09_B_d.gif","images/stimuli/spore_stims/complex_06_A_d.gif","","","","","6","complex_dissimilar","images/stimuli/spore_stims/complex_06_A_d.gif","middle","","","","",""
"","null","html-keyboard-response","130","277003","0.0-26.0-0.7","SS1613106647839","","","null","","","","","<p><img src= images/blank.png width =""200"" height = ""200"" style = ""float:right""></p><p><img src=images/blank.png width =""800"" height = ""200""></p>","","","","","","","","","","","",""
"","371.00000004284084","sequential-stimulus-presentation","131","278213","0.0-26.0-1.7","SS1613106647839","trial","","40","800","1171.0000000428408","images/stimuli/spore_stims/complex_09_B_d.gif","images/stimuli/spore_stims/complex_06_A_d.gif","","","","","6","complex_dissimilar","images/stimuli/spore_stims/complex_06_A_d.gif","middle","","","","",""
"","1750","html-keyboard-response","132","279979","0.0-27.0","SS1613106647839","pref_question","","49","","","","","<video width ='960' height = '540' style='padding-top:8%' autoplay muted><source src='images/stimuli/wall_pref.mp4' type='video/mp4'></video>","1","left","25%","6","","","","","","","",""
"","722.0000000670552","sequential-stimulus-presentation","133","281531","0.0-28.0","SS1613106647839","pref_reveal","","40","800","1522.0000000670552","null","null","","","","","6","","","","novel","","","",""
"","null","html-keyboard-response","134","282575","0.0-29.0-0.0","SS1613106647839","","","null","","","","","<p><img src= images/blank.png width =""200"" height = ""200"" style = ""float:right""></p><p><img src=images/blank.png width =""800"" height = ""200""></p>","","","","","","","","","","","",""
"","611.9999999646097","sequential-stimulus-presentation","135","284012","0.0-29.0-1.0","SS1613106647839","trial","","40","800","1411.9999999646097","images/stimuli/spore_stims/complex_18_B_b.gif","images/stimuli/spore_stims/complex_08_B_b.gif","","","","","7","complex_dissimilar","images/stimuli/spore_stims/complex_08_B_b.gif","left","","","","",""
"","null","html-keyboard-response","136","285266","0.0-29.0-0.1","SS1613106647839","","","null","","","","","<p><img src= images/blank.png width =""200"" height = ""200"" style = ""float:right""></p><p><img src=images/blank.png width =""800"" height = ""200""></p>","","","","","","","","","","","",""
"","144.00000008754432","sequential-stimulus-presentation","137","286271","0.0-29.0-1.1","SS1613106647839","trial","","40","800","944.0000000875443","images/stimuli/spore_stims/complex_18_B_b.gif","images/stimuli/spore_stims/complex_08_B_b.gif","","","","","7","complex_dissimilar","images/stimuli/spore_stims/complex_08_B_b.gif","left","","","","",""
"","null","html-keyboard-response","138","287540","0.0-29.0-0.2","SS1613106647839","","","null","","","","","<p><img src= images/blank.png width =""200"" height = ""200"" style = ""float:right""></p><p><img src=images/blank.png width =""800"" height = ""200""></p>","","","","","","","","","","","",""
"","520.0000000186265","sequential-stimulus-presentation","139","289309","0.0-29.0-1.2","SS1613106647839","trial","","40","800","1320.0000000186265","images/stimuli/spore_stims/complex_18_B_b.gif","images/stimuli/spore_stims/complex_08_B_b.gif","","","","","7","complex_dissimilar","images/stimuli/spore_stims/complex_18_B_b.gif","middle","","","","",""
"","null","html-keyboard-response","140","290420","0.0-29.0-0.3","SS1613106647839","","","null","","","","","<p><img src= images/blank.png width =""200"" height = ""200"" style = ""float:right""></p><p><img src=images/blank.png width =""800"" height = ""200""></p>","","","","","","","","","","","",""
"","303.00000007264316","sequential-stimulus-presentation","141","291693","0.0-29.0-1.3","SS1613106647839","trial","","40","800","1103.0000000726432","images/stimuli/spore_stims/complex_18_B_b.gif","images/stimuli/spore_stims/complex_08_B_b.gif","","","","","7","complex_dissimilar","images/stimuli/spore_stims/complex_08_B_b.gif","left","","","","",""
"","null","html-keyboard-response","142","292959","0.0-29.0-0.4","SS1613106647839","","","null","","","","","<p><img src= images/blank.png width =""200"" height = ""200"" style = ""float:right""></p><p><img src=images/blank.png width =""800"" height = ""200""></p>","","","","","","","","","","","",""
"","1092.9999998770654","sequential-stimulus-presentation","143","294877","0.0-29.0-1.4","SS1613106647839","trial","","40","800","1892.9999998770654","images/stimuli/spore_stims/complex_18_B_b.gif","images/stimuli/spore_stims/complex_08_B_b.gif","","","","","7","complex_dissimilar","images/stimuli/spore_stims/complex_08_B_b.gif","left","","","","",""
"","null","html-keyboard-response","144","296247","0.0-29.0-0.5","SS1613106647839","","","null","","","","","<p><img src= images/blank.png width =""200"" height = ""200"" style = ""float:right""></p><p><img src=images/blank.png width =""800"" height = ""200""></p>","","","","","","","","","","","",""
"","166.99999989941716","sequential-stimulus-presentation","145","297282","0.0-29.0-1.5","SS1613106647839","trial","","40","800","966.9999998994172","images/stimuli/spore_stims/complex_18_B_b.gif","images/stimuli/spore_stims/complex_08_B_b.gif","","","","","7","complex_dissimilar","images/stimuli/spore_stims/complex_08_B_b.gif","left","","","","",""
"","null","html-keyboard-response","146","298331","0.0-29.0-0.6","SS1613106647839","","","null","","","","","<p><img src= images/blank.png width =""200"" height = ""200"" style = ""float:right""></p><p><img src=images/blank.png width =""800"" height = ""200""></p>","","","","","","","","","","","",""
"","490.9999999217689","sequential-stimulus-presentation","147","299678","0.0-29.0-1.6","SS1613106647839","trial","","40","800","1290.999999921769","images/stimuli/spore_stims/complex_18_B_b.gif","images/stimuli/spore_stims/complex_08_B_b.gif","","","","","7","complex_dissimilar","images/stimuli/spore_stims/complex_08_B_b.gif","left","","","","",""
"","null","html-keyboard-response","148","300888","0.0-29.0-0.7","SS1613106647839","","","null","","","","","<p><img src= images/blank.png width =""200"" height = ""200"" style = ""float:right""></p><p><img src=images/blank.png width =""800"" height = ""200""></p>","","","","","","","","","","","",""
"","145.00000001862645","sequential-stimulus-presentation","149","301866","0.0-29.0-1.7","SS1613106647839","trial","","40","800","945.0000000186265","images/stimuli/spore_stims/complex_18_B_b.gif","images/stimuli/spore_stims/complex_08_B_b.gif","","","","","7","complex_dissimilar","images/stimuli/spore_stims/complex_08_B_b.gif","left","","","","",""
"","1785.999999847263","html-keyboard-response","150","303664","0.0-30.0","SS1613106647839","pref_question","","51","","","","","<video width ='960' height = '540' style='padding-top:8%' autoplay muted><source src='images/stimuli/wall_pref.mp4' type='video/mp4'></video>","3","right","66%","7","","","","","","","",""
"","763.0000000353903","sequential-stimulus-presentation","151","305263","0.0-31.0","SS1613106647839","pref_reveal","","40","800","1563.0000000353903","null","null","","","","","7","","","","novel","","","",""
"","null","html-keyboard-response","152","306245","0.0-32.0-0.0","SS1613106647839","","","null","","","","","<p><img src= images/blank.png width =""200"" height = ""200"" style = ""float:right""></p><p><img src=images/blank.png width =""800"" height = ""200""></p>","","","","","","","","","","","",""
"","766.9999999925494","sequential-stimulus-presentation","153","307897","0.0-32.0-1.0","SS1613106647839","trial","","40","800","1566.9999999925494","images/stimuli/spore_stims/simple_04_A_a.gif","images/stimuli/spore_stims/simple_04_B_a.gif","","","","","8","simple_similar","images/stimuli/spore_stims/simple_04_B_a.gif","right","","","","",""
"","null","html-keyboard-response","154","308749","0.0-32.0-0.1","SS1613106647839","","","null","","","","","<p><img src= images/blank.png width =""200"" height = ""200"" style = ""float:right""></p><p><img src=images/blank.png width =""800"" height = ""200""></p>","","","","","","","","","","","",""
"","586.0000001266599","sequential-stimulus-presentation","155","310270","0.0-32.0-1.1","SS1613106647839","trial","","40","800","1386.0000001266599","images/stimuli/spore_stims/simple_04_A_a.gif","images/stimuli/spore_stims/simple_04_B_a.gif","","","","","8","simple_similar","images/stimuli/spore_stims/simple_04_B_a.gif","right","","","","",""
"","null","html-keyboard-response","156","311165","0.0-32.0-0.2","SS1613106647839","","","null","","","","","<p><img src= images/blank.png width =""200"" height = ""200"" style = ""float:right""></p><p><img src=images/blank.png width =""800"" height = ""200""></p>","","","","","","","","","","","",""
"","976.0000000242144","sequential-stimulus-presentation","157","313001","0.0-32.0-1.2","SS1613106647839","trial","","40","800","1776.0000000242144","images/stimuli/spore_stims/simple_04_A_a.gif","images/stimuli/spore_stims/simple_04_B_a.gif","","","","","8","simple_similar","images/stimuli/spore_stims/simple_04_A_a.gif","left","","","","",""
"","null","html-keyboard-response","158","314240","0.0-32.0-0.3","SS1613106647839","","","null","","","","","<p><img src= images/blank.png width =""200"" height = ""200"" style = ""float:right""></p><p><img src=images/blank.png width =""800"" height = ""200""></p>","","","","","","","","","","","",""
"","495.0000001117587","sequential-stimulus-presentation","159","315906","0.0-32.0-1.3","SS1613106647839","trial","","40","800","1295.0000001117587","images/stimuli/spore_stims/simple_04_A_a.gif","images/stimuli/spore_stims/simple_04_B_a.gif","","","","","8","simple_similar","images/stimuli/spore_stims/simple_04_B_a.gif","right","","","","",""
"","null","html-keyboard-response","160","316872","0.0-32.0-0.4","SS1613106647839","","","null","","","","","<p><img src= images/blank.png width =""200"" height = ""200"" style = ""float:right""></p><p><img src=images/blank.png width =""800"" height = ""200""></p>","","","","","","","","","","","",""
"","986.0000000335276","sequential-stimulus-presentation","161","318677","0.0-32.0-1.4","SS1613106647839","trial","","40","800","1786.0000000335276","images/stimuli/spore_stims/simple_04_A_a.gif","images/stimuli/spore_stims/simple_04_B_a.gif","","","","","8","simple_similar","images/stimuli/spore_stims/simple_04_B_a.gif","right","","","","",""
"","null","html-keyboard-response","162","319741","0.0-32.0-0.5","SS1613106647839","","","null","","","","","<p><img src= images/blank.png width =""200"" height = ""200"" style = ""float:right""></p><p><img src=images/blank.png width =""800"" height = ""200""></p>","","","","","","","","","","","",""
"","1804.0000000037253","sequential-stimulus-presentation","163","322389","0.0-32.0-1.5","SS1613106647839","trial","","40","800","2604.0000000037253","images/stimuli/spore_stims/simple_04_A_a.gif","images/stimuli/spore_stims/simple_04_B_a.gif","","","","","8","simple_similar","images/stimuli/spore_stims/simple_04_B_a.gif","right","","","","",""
"","null","html-keyboard-response","164","323326","0.0-32.0-0.6","SS1613106647839","","","null","","","","","<p><img src= images/blank.png width =""200"" height = ""200"" style = ""float:right""></p><p><img src=images/blank.png width =""800"" height = ""200""></p>","","","","","","","","","","","",""
"","821.9999999273568","sequential-stimulus-presentation","165","325036","0.0-32.0-1.6","SS1613106647839","trial","","40","800","1621.9999999273568","images/stimuli/spore_stims/simple_04_A_a.gif","images/stimuli/spore_stims/simple_04_B_a.gif","","","","","8","simple_similar","images/stimuli/spore_stims/simple_04_B_a.gif","right","","","","",""
"","null","html-keyboard-response","166","326177","0.0-32.0-0.7","SS1613106647839","","","null","","","","","<p><img src= images/blank.png width =""200"" height = ""200"" style = ""float:right""></p><p><img src=images/blank.png width =""800"" height = ""200""></p>","","","","","","","","","","","",""
"","1411.0000000800937","sequential-stimulus-presentation","167","328419","0.0-32.0-1.7","SS1613106647839","trial","","40","800","2211.0000000800937","images/stimuli/spore_stims/simple_04_A_a.gif","images/stimuli/spore_stims/simple_04_B_a.gif","","","","","8","simple_similar","images/stimuli/spore_stims/simple_04_B_a.gif","right","","","","",""
"","3212.999999988824","html-keyboard-response","168","331646","0.0-33.0","SS1613106647839","pref_question","","49","","","","","<video width ='960' height = '540' style='padding-top:8%' autoplay muted><source src='images/stimuli/wall_pref.mp4' type='video/mp4'></video>","1","left","25%","8","","","","","","","",""
"","462.99999998882413","sequential-stimulus-presentation","169","332972","0.0-34.0","SS1613106647839","pref_reveal","","40","800","1262.9999999888241","null","null","","","","","8","","","","deviant","","","",""
"","null","html-keyboard-response","170","333957","0.0-35.0-0.0","SS1613106647839","","","null","","","","","<p><img src= images/blank.png width =""200"" height = ""200"" style = ""float:right""></p><p><img src=images/blank.png width =""800"" height = ""200""></p>","","","","","","","","","","","",""
"","217.99999987706542","sequential-stimulus-presentation","171","335008","0.0-35.0-1.0","SS1613106647839","trial","","40","800","1017.9999998770654","images/stimuli/spore_stims/complex_14_B_c.gif","images/stimuli/spore_stims/complex_14_A_c.gif","","","","","9","complex_similar","images/stimuli/spore_stims/complex_14_A_c.gif","right","","","","",""
"","null","html-keyboard-response","172","336214","0.0-35.0-0.1","SS1613106647839","","","null","","","","","<p><img src= images/blank.png width =""200"" height = ""200"" style = ""float:right""></p><p><img src=images/blank.png width =""800"" height = ""200""></p>","","","","","","","","","","","",""
"","584.000000031665","sequential-stimulus-presentation","173","337644","0.0-35.0-1.1","SS1613106647839","trial","","40","800","1384.000000031665","images/stimuli/spore_stims/complex_14_B_c.gif","images/stimuli/spore_stims/complex_14_A_c.gif","","","","","9","complex_similar","images/stimuli/spore_stims/complex_14_A_c.gif","right","","","","",""
"","null","html-keyboard-response","174","338618","0.0-35.0-0.2","SS1613106647839","","","null","","","","","<p><img src= images/blank.png width =""200"" height = ""200"" style = ""float:right""></p><p><img src=images/blank.png width =""800"" height = ""200""></p>","","","","","","","","","","","",""
"","658.9999999850988","sequential-stimulus-presentation","175","340096","0.0-35.0-1.2","SS1613106647839","trial","","40","800","1458.9999999850988","images/stimuli/spore_stims/complex_14_B_c.gif","images/stimuli/spore_stims/complex_14_A_c.gif","","","","","9","complex_similar","images/stimuli/spore_stims/complex_14_A_c.gif","right","","","","",""
"","null","html-keyboard-response","176","341185","0.0-35.0-0.3","SS1613106647839","","","null","","","","","<p><img src= images/blank.png width =""200"" height = ""200"" style = ""float:right""></p><p><img src=images/blank.png width =""800"" height = ""200""></p>","","","","","","","","","","","",""
"","631.0000000521541","sequential-stimulus-presentation","177","342632","0.0-35.0-1.3","SS1613106647839","trial","","40","800","1431.000000052154","images/stimuli/spore_stims/complex_14_B_c.gif","images/stimuli/spore_stims/complex_14_A_c.gif","","","","","9","complex_similar","images/stimuli/spore_stims/complex_14_A_c.gif","right","","","","",""
"","null","html-keyboard-response","178","343768","0.0-35.0-0.4","SS1613106647839","","","null","","","","","<p><img src= images/blank.png width =""200"" height = ""200"" style = ""float:right""></p><p><img src=images/blank.png width =""800"" height = ""200""></p>","","","","","","","","","","","",""
"","97.99999999813735","sequential-stimulus-presentation","179","344690","0.0-35.0-1.4","SS1613106647839","trial","","40","800","897.9999999981374","images/stimuli/spore_stims/complex_14_B_c.gif","images/stimuli/spore_stims/complex_14_A_c.gif","","","","","9","complex_similar","images/stimuli/spore_stims/complex_14_A_c.gif","right","","","","",""
"","null","html-keyboard-response","180","345974","0.0-35.0-0.5","SS1613106647839","","","null","","","","","<p><img src= images/blank.png width =""200"" height = ""200"" style = ""float:right""></p><p><img src=images/blank.png width =""800"" height = ""200""></p>","","","","","","","","","","","",""
"","483.0000000074506","sequential-stimulus-presentation","181","347365","0.0-35.0-1.5","SS1613106647839","trial","","40","800","1283.0000000074506","images/stimuli/spore_stims/complex_14_B_c.gif","images/stimuli/spore_stims/complex_14_A_c.gif","","","","","9","complex_similar","images/stimuli/spore_stims/complex_14_B_c.gif","left","","","","",""
"","null","html-keyboard-response","182","348638","0.0-35.0-0.6","SS1613106647839","","","null","","","","","<p><img src= images/blank.png width =""200"" height = ""200"" style = ""float:right""></p><p><img src=images/blank.png width =""800"" height = ""200""></p>","","","","","","","","","","","",""
"","97.00000006705523","sequential-stimulus-presentation","183","349596","0.0-35.0-1.6","SS1613106647839","trial","","40","800","897.0000000670552","images/stimuli/spore_stims/complex_14_B_c.gif","images/stimuli/spore_stims/complex_14_A_c.gif","","","","","9","complex_similar","images/stimuli/spore_stims/complex_14_A_c.gif","right","","","","",""
"","null","html-keyboard-response","184","350738","0.0-35.0-0.7","SS1613106647839","","","null","","","","","<p><img src= images/blank.png width =""200"" height = ""200"" style = ""float:right""></p><p><img src=images/blank.png width =""800"" height = ""200""></p>","","","","","","","","","","","",""
"","581.0000000055879","sequential-stimulus-presentation","185","352168","0.0-35.0-1.7","SS1613106647839","trial","","40","800","1381.000000005588","images/stimuli/spore_stims/complex_14_B_c.gif","images/stimuli/spore_stims/complex_14_A_c.gif","","","","","9","complex_similar","images/stimuli/spore_stims/complex_14_A_c.gif","right","","","","",""
"","2701.0000001173466","html-keyboard-response","186","354885","0.0-36.0","SS1613106647839","pref_question","","50","","","","","<video width ='960' height = '540' style='padding-top:8%' autoplay muted><source src='images/stimuli/wall_pref.mp4' type='video/mp4'></video>","2","middle","45%","9","","","","","","","",""
"","1797.9999999515712","sequential-stimulus-presentation","187","357508","0.0-37.0","SS1613106647839","pref_reveal","","40","800","2597.999999951571","null","null","","","","","9","","","","novel","","","",""
"","null","html-keyboard-response","188","358338","0.0-38.0-0.0","SS1613106647839","","","null","","","","","<p><img src= images/blank.png width =""200"" height = ""200"" style = ""float:right""></p><p><img src=images/blank.png width =""800"" height = ""200""></p>","","","","","","","","","","","",""
"","1718.9999998081475","sequential-stimulus-presentation","189","360908","0.0-38.0-1.0","SS1613106647839","trial","","40","800","2518.9999998081475","images/stimuli/spore_stims/simple_20_A_b.gif","images/stimuli/spore_stims/simple_15_A_c.gif","","","","","10","simple_dissimilar","images/stimuli/spore_stims/simple_15_A_c.gif","middle","","","","",""
"","null","html-keyboard-response","190","361954","0.0-38.0-0.1","SS1613106647839","","","null","","","","","<p><img src= images/blank.png width =""200"" height = ""200"" style = ""float:right""></p><p><img src=images/blank.png width =""800"" height = ""200""></p>","","","","","","","","","","","",""
"","1342.000000178814","sequential-stimulus-presentation","191","364119","0.0-38.0-1.1","SS1613106647839","trial","","40","800","2142.000000178814","images/stimuli/spore_stims/simple_20_A_b.gif","images/stimuli/spore_stims/simple_15_A_c.gif","","","","","10","simple_dissimilar","images/stimuli/spore_stims/simple_15_A_c.gif","middle","","","","",""
"","null","html-keyboard-response","192","365057","0.0-38.0-0.2","SS1613106647839","","","null","","","","","<p><img src= images/blank.png width =""200"" height = ""200"" style = ""float:right""></p><p><img src=images/blank.png width =""800"" height = ""200""></p>","","","","","","","","","","","",""
"","1104.9999999813735","sequential-stimulus-presentation","193","367020","0.0-38.0-1.2","SS1613106647839","trial","","40","800","1904.9999999813735","images/stimuli/spore_stims/simple_20_A_b.gif","images/stimuli/spore_stims/simple_15_A_c.gif","","","","","10","simple_dissimilar","images/stimuli/spore_stims/simple_20_A_b.gif","left","","","","",""
"","null","html-keyboard-response","194","367937","0.0-38.0-0.3","SS1613106647839","","","null","","","","","<p><img src= images/blank.png width =""200"" height = ""200"" style = ""float:right""></p><p><img src=images/blank.png width =""800"" height = ""200""></p>","","","","","","","","","","","",""
"","1388.9999999664724","sequential-stimulus-presentation","195","370156","0.0-38.0-1.3","SS1613106647839","trial","","40","800","2188.9999999664724","images/stimuli/spore_stims/simple_20_A_b.gif","images/stimuli/spore_stims/simple_15_A_c.gif","","","","","10","simple_dissimilar","images/stimuli/spore_stims/simple_15_A_c.gif","middle","","","","",""
"","null","html-keyboard-response","196","371117","0.0-38.0-0.4","SS1613106647839","","","null","","","","","<p><img src= images/blank.png width =""200"" height = ""200"" style = ""float:right""></p><p><img src=images/blank.png width =""800"" height = ""200""></p>","","","","","","","","","","","",""
"","1591.0000000149012","sequential-stimulus-presentation","197","373590","0.0-38.0-1.4","SS1613106647839","trial","","40","800","2391.000000014901","images/stimuli/spore_stims/simple_20_A_b.gif","images/stimuli/spore_stims/simple_15_A_c.gif","","","","","10","simple_dissimilar","images/stimuli/spore_stims/simple_15_A_c.gif","middle","","","","",""
"","null","html-keyboard-response","198","374876","0.0-38.0-0.5","SS1613106647839","","","null","","","","","<p><img src= images/blank.png width =""200"" height = ""200"" style = ""float:right""></p><p><img src=images/blank.png width =""800"" height = ""200""></p>","","","","","","","","","","","",""
"","818.0000002030283","sequential-stimulus-presentation","199","376524","0.0-38.0-1.5","SS1613106647839","trial","","40","800","1618.0000002030283","images/stimuli/spore_stims/simple_20_A_b.gif","images/stimuli/spore_stims/simple_15_A_c.gif","","","","","10","simple_dissimilar","images/stimuli/spore_stims/simple_15_A_c.gif","middle","","","","",""
"","null","html-keyboard-response","200","377720","0.0-38.0-0.6","SS1613106647839","","","null","","","","","<p><img src= images/blank.png width =""200"" height = ""200"" style = ""float:right""></p><p><img src=images/blank.png width =""800"" height = ""200""></p>","","","","","","","","","","","",""
"","771.0000001825392","sequential-stimulus-presentation","201","379359","0.0-38.0-1.6","SS1613106647839","trial","","40","800","1571.0000001825392","images/stimuli/spore_stims/simple_20_A_b.gif","images/stimuli/spore_stims/simple_15_A_c.gif","","","","","10","simple_dissimilar","images/stimuli/spore_stims/simple_15_A_c.gif","middle","","","","",""
"","null","html-keyboard-response","202","380348","0.0-38.0-0.7","SS1613106647839","","","null","","","","","<p><img src= images/blank.png width =""200"" height = ""200"" style = ""float:right""></p><p><img src=images/blank.png width =""800"" height = ""200""></p>","","","","","","","","","","","",""
"","985.0000001024455","sequential-stimulus-presentation","203","382210","0.0-38.0-1.7","SS1613106647839","trial","","40","800","1785.0000001024455","images/stimuli/spore_stims/simple_20_A_b.gif","images/stimuli/spore_stims/simple_15_A_c.gif","","","","","10","simple_dissimilar","images/stimuli/spore_stims/simple_15_A_c.gif","middle","","","","",""
"","2973.9999999292195","html-keyboard-response","204","385208","0.0-39.0","SS1613106647839","pref_question","","50","","","","","<video width ='960' height = '540' style='padding-top:8%' autoplay muted><source src='images/stimuli/wall_pref.mp4' type='video/mp4'></video>","2","middle","45%","10","","","","","","","",""
"","7610.999999800697","sequential-stimulus-presentation","205","393636","0.0-40.0","SS1613106647839","pref_reveal","","40","800","8410.999999800697","null","null","","","","","10","","","","background","","","",""
"","null","html-keyboard-response","206","394553","0.0-41.0-0.0","SS1613106647839","","","null","","","","","<p><img src= images/blank.png width =""200"" height = ""200"" style = ""float:right""></p><p><img src=images/blank.png width =""800"" height = ""200""></p>","","","","","","","","","","","",""
"","3074.999999953434","sequential-stimulus-presentation","207","398474","0.0-41.0-1.0","SS1613106647839","trial","","40","800","3874.999999953434","images/stimuli/spore_stims/simple_07_B_b.gif","images/stimuli/spore_stims/simple_06_B_d.gif","","","","","11","simple_dissimilar","images/stimuli/spore_stims/simple_06_B_d.gif","right","","","","",""
"","null","html-keyboard-response","208","399405","0.0-41.0-0.1","SS1613106647839","","","null","","","","","<p><img src= images/blank.png width =""200"" height = ""200"" style = ""float:right""></p><p><img src=images/blank.png width =""800"" height = ""200""></p>","","","","","","","","","","","",""
"","4320.000000065193","sequential-stimulus-presentation","209","404565","0.0-41.0-1.1","SS1613106647839","trial","","40","800","5120.000000065193","images/stimuli/spore_stims/simple_07_B_b.gif","images/stimuli/spore_stims/simple_06_B_d.gif","","","","","11","simple_dissimilar","images/stimuli/spore_stims/simple_06_B_d.gif","right","","","","",""
"","null","html-keyboard-response","210","405792","0.0-41.0-0.2","SS1613106647839","","","null","","","","","<p><img src= images/blank.png width =""200"" height = ""200"" style = ""float:right""></p><p><img src=images/blank.png width =""800"" height = ""200""></p>","","","","","","","","","","","",""
"","3387.000000104308","sequential-stimulus-presentation","211","410011","0.0-41.0-1.2","SS1613106647839","trial","","40","800","4187.000000104308","images/stimuli/spore_stims/simple_07_B_b.gif","images/stimuli/spore_stims/simple_06_B_d.gif","","","","","11","simple_dissimilar","images/stimuli/spore_stims/simple_06_B_d.gif","right","","","","",""
"","null","html-keyboard-response","212","410882","0.0-41.0-0.3","SS1613106647839","","","null","","","","","<p><img src= images/blank.png width =""200"" height = ""200"" style = ""float:right""></p><p><img src=images/blank.png width =""800"" height = ""200""></p>","","","","","","","","","","","",""
"","638.0000000353903","sequential-stimulus-presentation","213","412347","0.0-41.0-1.3","SS1613106647839","trial","","40","800","1438.0000000353903","images/stimuli/spore_stims/simple_07_B_b.gif","images/stimuli/spore_stims/simple_06_B_d.gif","","","","","11","simple_dissimilar","images/stimuli/spore_stims/simple_06_B_d.gif","right","","","","",""
"","null","html-keyboard-response","214","413225","0.0-41.0-0.4","SS1613106647839","","","null","","","","","<p><img src= images/blank.png width =""200"" height = ""200"" style = ""float:right""></p><p><img src=images/blank.png width =""800"" height = ""200""></p>","","","","","","","","","","","",""
"","570.0000000651926","sequential-stimulus-presentation","215","414782","0.0-41.0-1.4","SS1613106647839","trial","","40","800","1370.0000000651926","images/stimuli/spore_stims/simple_07_B_b.gif","images/stimuli/spore_stims/simple_06_B_d.gif","","","","","11","simple_dissimilar","images/stimuli/spore_stims/simple_06_B_d.gif","right","","","","",""
"","null","html-keyboard-response","216","415807","0.0-41.0-0.5","SS1613106647839","","","null","","","","","<p><img src= images/blank.png width =""200"" height = ""200"" style = ""float:right""></p><p><img src=images/blank.png width =""800"" height = ""200""></p>","","","","","","","","","","","",""
"","306.9999997969717","sequential-stimulus-presentation","217","416939","0.0-41.0-1.5","SS1613106647839","trial","","40","800","1106.9999997969717","images/stimuli/spore_stims/simple_07_B_b.gif","images/stimuli/spore_stims/simple_06_B_d.gif","","","","","11","simple_dissimilar","images/stimuli/spore_stims/simple_06_B_d.gif","right","","","","",""
"","null","html-keyboard-response","218","418182","0.0-41.0-0.6","SS1613106647839","","","null","","","","","<p><img src= images/blank.png width =""200"" height = ""200"" style = ""float:right""></p><p><img src=images/blank.png width =""800"" height = ""200""></p>","","","","","","","","","","","",""
"","278.9999998640269","sequential-stimulus-presentation","219","419285","0.0-41.0-1.6","SS1613106647839","trial","","40","800","1078.999999864027","images/stimuli/spore_stims/simple_07_B_b.gif","images/stimuli/spore_stims/simple_06_B_d.gif","","","","","11","simple_dissimilar","images/stimuli/spore_stims/simple_07_B_b.gif","left","","","","",""
"","null","html-keyboard-response","220","420274","0.0-41.0-0.7","SS1613106647839","","","null","","","","","<p><img src= images/blank.png width =""200"" height = ""200"" style = ""float:right""></p><p><img src=images/blank.png width =""800"" height = ""200""></p>","","","","","","","","","","","",""
"","631.0000000521541","sequential-stimulus-presentation","221","421813","0.0-41.0-1.7","SS1613106647839","trial","","40","800","1431.000000052154","images/stimuli/spore_stims/simple_07_B_b.gif","images/stimuli/spore_stims/simple_06_B_d.gif","","","","","11","simple_dissimilar","images/stimuli/spore_stims/simple_06_B_d.gif","right","","","","",""
"","1920.9999998565763","html-keyboard-response","222","423751","0.0-42.0","SS1613106647839","pref_question","","51","","","","","<video width ='960' height = '540' style='padding-top:8%' autoplay muted><source src='images/stimuli/wall_pref.mp4' type='video/mp4'></video>","3","right","66%","11","","","","","","","",""
"","743.9999999478459","sequential-stimulus-presentation","223","425312","0.0-43.0","SS1613106647839","pref_reveal","","40","800","1543.999999947846","null","null","","","","","11","","","","background","","","",""
"","null","html-keyboard-response","224","426456","0.0-44.0-0.0","SS1613106647839","","","null","","","","","<p><img src= images/blank.png width =""200"" height = ""200"" style = ""float:right""></p><p><img src=images/blank.png width =""800"" height = ""200""></p>","","","","","","","","","","","",""
"","652.9999999329448","sequential-stimulus-presentation","225","427968","0.0-44.0-1.0","SS1613106647839","trial","","40","800","1452.9999999329448","images/stimuli/spore_stims/complex_05_A_d.gif","images/stimuli/spore_stims/complex_03_A_b.gif","","","","","12","complex_dissimilar","images/stimuli/spore_stims/complex_03_A_b.gif","right","","","","",""
"","null","html-keyboard-response","226","429213","0.0-44.0-0.1","SS1613106647839","","","null","","","","","<p><img src= images/blank.png width =""200"" height = ""200"" style = ""float:right""></p><p><img src=images/blank.png width =""800"" height = ""200""></p>","","","","","","","","","","","",""
"","1006.0000000521541","sequential-stimulus-presentation","227","431120","0.0-44.0-1.1","SS1613106647839","trial","","40","800","1806.000000052154","images/stimuli/spore_stims/complex_05_A_d.gif","images/stimuli/spore_stims/complex_03_A_b.gif","","","","","12","complex_dissimilar","images/stimuli/spore_stims/complex_03_A_b.gif","right","","","","",""
"","null","html-keyboard-response","228","431941","0.0-44.0-0.2","SS1613106647839","","","null","","","","","<p><img src= images/blank.png width =""200"" height = ""200"" style = ""float:right""></p><p><img src=images/blank.png width =""800"" height = ""200""></p>","","","","","","","","","","","",""
"","793.0000000633299","sequential-stimulus-presentation","229","433563","0.0-44.0-1.2","SS1613106647839","trial","","40","800","1593.00000006333","images/stimuli/spore_stims/complex_05_A_d.gif","images/stimuli/spore_stims/complex_03_A_b.gif","","","","","12","complex_dissimilar","images/stimuli/spore_stims/complex_03_A_b.gif","right","","","","",""
"","null","html-keyboard-response","230","434733","0.0-44.0-0.3","SS1613106647839","","","null","","","","","<p><img src= images/blank.png width =""200"" height = ""200"" style = ""float:right""></p><p><img src=images/blank.png width =""800"" height = ""200""></p>","","","","","","","","","","","",""
"","1196.9999999273568","sequential-stimulus-presentation","231","436762","0.0-44.0-1.3","SS1613106647839","trial","","40","800","1996.9999999273568","images/stimuli/spore_stims/complex_05_A_d.gif","images/stimuli/spore_stims/complex_03_A_b.gif","","","","","12","complex_dissimilar","images/stimuli/spore_stims/complex_03_A_b.gif","right","","","","",""
"","null","html-keyboard-response","232","437724","0.0-44.0-0.4","SS1613106647839","","","null","","","","","<p><img src= images/blank.png width =""200"" height = ""200"" style = ""float:right""></p><p><img src=images/blank.png width =""800"" height = ""200""></p>","","","","","","","","","","","",""
"","6.000000052154064","sequential-stimulus-presentation","233","438696","0.0-44.0-1.4","SS1613106647839","trial","","40","800","806.0000000521541","images/stimuli/spore_stims/complex_05_A_d.gif","images/stimuli/spore_stims/complex_03_A_b.gif","","","","","12","complex_dissimilar","images/stimuli/spore_stims/complex_03_A_b.gif","right","","","","",""
"","null","html-keyboard-response","234","439942","0.0-44.0-0.5","SS1613106647839","","","null","","","","","<p><img src= images/blank.png width =""200"" height = ""200"" style = ""float:right""></p><p><img src=images/blank.png width =""800"" height = ""200""></p>","","","","","","","","","","","",""
"","597.0000000670552","sequential-stimulus-presentation","235","441369","0.0-44.0-1.5","SS1613106647839","trial","","40","800","1397.0000000670552","images/stimuli/spore_stims/complex_05_A_d.gif","images/stimuli/spore_stims/complex_03_A_b.gif","","","","","12","complex_dissimilar","images/stimuli/spore_stims/complex_03_A_b.gif","right","","","","",""
"","null","html-keyboard-response","236","442259","0.0-44.0-0.6","SS1613106647839","","","null","","","","","<p><img src= images/blank.png width =""200"" height = ""200"" style = ""float:right""></p><p><img src=images/blank.png width =""800"" height = ""200""></p>","","","","","","","","","","","",""
"","787.0000000111759","sequential-stimulus-presentation","237","444091","0.0-44.0-1.6","SS1613106647839","trial","","40","800","1587.0000000111759","images/stimuli/spore_stims/complex_05_A_d.gif","images/stimuli/spore_stims/complex_03_A_b.gif","","","","","12","complex_dissimilar","images/stimuli/spore_stims/complex_05_A_d.gif","left","","","","",""
"","null","html-keyboard-response","238","445188","0.0-44.0-0.7","SS1613106647839","","","null","","","","","<p><img src= images/blank.png width =""200"" height = ""200"" style = ""float:right""></p><p><img src=images/blank.png width =""800"" height = ""200""></p>","","","","","","","","","","","",""
"","94.0000000409782","sequential-stimulus-presentation","239","446380","0.0-44.0-1.7","SS1613106647839","trial","","40","800","894.0000000409782","images/stimuli/spore_stims/complex_05_A_d.gif","images/stimuli/spore_stims/complex_03_A_b.gif","","","","","12","complex_dissimilar","images/stimuli/spore_stims/complex_03_A_b.gif","right","","","","",""
"","1900.0000001396984","html-keyboard-response","240","448292","0.0-45.0","SS1613106647839","pref_question","","49","","","","","<video width ='960' height = '540' style='padding-top:8%' autoplay muted><source src='images/stimuli/wall_pref.mp4' type='video/mp4'></video>","1","left","25%","12","","","","","","","",""
"","1264.9999998975545","sequential-stimulus-presentation","241","450388","0.0-46.0","SS1613106647839","pref_reveal","","40","800","2064.9999998975545","null","null","","","","","12","","","","deviant","","","",""
"","null","html-keyboard-response","242","451474","0.0-47.0-0.0","SS1613106647839","","","null","","","","","<p><img src= images/blank.png width =""200"" height = ""200"" style = ""float:right""></p><p><img src=images/blank.png width =""800"" height = ""200""></p>","","","","","","","","","","","",""
"","650.0000001396984","sequential-stimulus-presentation","243","452964","0.0-47.0-1.0","SS1613106647839","trial","","40","800","1450.0000001396984","images/stimuli/spore_stims/complex_09_A_b.gif","images/stimuli/spore_stims/complex_02_A_c.gif","","","","","13","complex_dissimilar","images/stimuli/spore_stims/complex_02_A_c.gif","left","","","","",""
"","null","html-keyboard-response","244","454033","0.0-47.0-0.1","SS1613106647839","","","null","","","","","<p><img src= images/blank.png width =""200"" height = ""200"" style = ""float:right""></p><p><img src=images/blank.png width =""800"" height = ""200""></p>","","","","","","","","","","","",""
"","506.00000005215406","sequential-stimulus-presentation","245","455372","0.0-47.0-1.1","SS1613106647839","trial","","40","800","1306.000000052154","images/stimuli/spore_stims/complex_09_A_b.gif","images/stimuli/spore_stims/complex_02_A_c.gif","","","","","13","complex_dissimilar","images/stimuli/spore_stims/complex_02_A_c.gif","left","","","","",""
"","null","html-keyboard-response","246","456404","0.0-47.0-0.2","SS1613106647839","","","null","","","","","<p><img src= images/blank.png width =""200"" height = ""200"" style = ""float:right""></p><p><img src=images/blank.png width =""800"" height = ""200""></p>","","","","","","","","","","","",""
"","747.9999999050051","sequential-stimulus-presentation","247","458060","0.0-47.0-1.2","SS1613106647839","trial","","40","800","1547.999999905005","images/stimuli/spore_stims/complex_09_A_b.gif","images/stimuli/spore_stims/complex_02_A_c.gif","","","","","13","complex_dissimilar","images/stimuli/spore_stims/complex_02_A_c.gif","left","","","","",""
"","null","html-keyboard-response","248","458962","0.0-47.0-0.3","SS1613106647839","","","null","","","","","<p><img src= images/blank.png width =""200"" height = ""200"" style = ""float:right""></p><p><img src=images/blank.png width =""800"" height = ""200""></p>","","","","","","","","","","","",""
"","685.0000000558794","sequential-stimulus-presentation","249","460469","0.0-47.0-1.3","SS1613106647839","trial","","40","800","1485.0000000558794","images/stimuli/spore_stims/complex_09_A_b.gif","images/stimuli/spore_stims/complex_02_A_c.gif","","","","","13","complex_dissimilar","images/stimuli/spore_stims/complex_02_A_c.gif","left","","","","",""
"","null","html-keyboard-response","250","461601","0.0-47.0-0.4","SS1613106647839","","","null","","","","","<p><img src= images/blank.png width =""200"" height = ""200"" style = ""float:right""></p><p><img src=images/blank.png width =""800"" height = ""200""></p>","","","","","","","","","","","",""
"","408.0000000540167","sequential-stimulus-presentation","251","462869","0.0-47.0-1.4","SS1613106647839","trial","","40","800","1208.0000000540167","images/stimuli/spore_stims/complex_09_A_b.gif","images/stimuli/spore_stims/complex_02_A_c.gif","","","","","13","complex_dissimilar","images/stimuli/spore_stims/complex_02_A_c.gif","left","","","","",""
"","null","html-keyboard-response","252","463820","0.0-47.0-0.5","SS1613106647839","","","null","","","","","<p><img src= images/blank.png width =""200"" height = ""200"" style = ""float:right""></p><p><img src=images/blank.png width =""800"" height = ""200""></p>","","","","","","","","","","","",""
"","468.00000010989606","sequential-stimulus-presentation","253","465123","0.0-47.0-1.5","SS1613106647839","trial","","40","800","1268.000000109896","images/stimuli/spore_stims/complex_09_A_b.gif","images/stimuli/spore_stims/complex_02_A_c.gif","","","","","13","complex_dissimilar","images/stimuli/spore_stims/complex_09_A_b.gif","middle","","","","",""
"","null","html-keyboard-response","254","466423","0.0-47.0-0.6","SS1613106647839","","","null","","","","","<p><img src= images/blank.png width =""200"" height = ""200"" style = ""float:right""></p><p><img src=images/blank.png width =""800"" height = ""200""></p>","","","","","","","","","","","",""
"","807.9999999608845","sequential-stimulus-presentation","255","468216","0.0-47.0-1.6","SS1613106647839","trial","","40","800","1607.9999999608845","images/stimuli/spore_stims/complex_09_A_b.gif","images/stimuli/spore_stims/complex_02_A_c.gif","","","","","13","complex_dissimilar","images/stimuli/spore_stims/complex_02_A_c.gif","left","","","","",""
"","null","html-keyboard-response","256","469048","0.0-47.0-0.7","SS1613106647839","","","null","","","","","<p><img src= images/blank.png width =""200"" height = ""200"" style = ""float:right""></p><p><img src=images/blank.png width =""800"" height = ""200""></p>","","","","","","","","","","","",""
"","491.99999985285103","sequential-stimulus-presentation","257","470390","0.0-47.0-1.7","SS1613106647839","trial","","40","800","1291.999999852851","images/stimuli/spore_stims/complex_09_A_b.gif","images/stimuli/spore_stims/complex_02_A_c.gif","","","","","13","complex_dissimilar","images/stimuli/spore_stims/complex_02_A_c.gif","left","","","","",""
"","3356.999999843538","html-keyboard-response","258","473760","0.0-48.0","SS1613106647839","pref_question","","49","","","","","<video width ='960' height = '540' style='padding-top:8%' autoplay muted><source src='images/stimuli/wall_pref.mp4' type='video/mp4'></video>","1","left","25%","13","","","","","","","",""
"","1097.0000000670552","sequential-stimulus-presentation","259","475687","0.0-49.0","SS1613106647839","pref_reveal","","40","800","1897.0000000670552","null","null","","","","","13","","","","background","","","",""
"","null","html-keyboard-response","260","476666","0.0-50.0-0.0","SS1613106647839","","","null","","","","","<p><img src= images/blank.png width =""200"" height = ""200"" style = ""float:right""></p><p><img src=images/blank.png width =""800"" height = ""200""></p>","","","","","","","","","","","",""
"","409.99999991618097","sequential-stimulus-presentation","261","477918","0.0-50.0-1.0","SS1613106647839","trial","","40","800","1209.999999916181","images/stimuli/spore_stims/simple_16_A_a.gif","images/stimuli/spore_stims/simple_16_B_a.gif","","","","","14","simple_similar","images/stimuli/spore_stims/simple_16_B_a.gif","left","","","","",""
"","null","html-keyboard-response","262","478820","0.0-50.0-0.1","SS1613106647839","","","null","","","","","<p><img src= images/blank.png width =""200"" height = ""200"" style = ""float:right""></p><p><img src=images/blank.png width =""800"" height = ""200""></p>","","","","","","","","","","","",""
"","179.99999993480742","sequential-stimulus-presentation","263","479834","0.0-50.0-1.1","SS1613106647839","trial","","40","800","979.9999999348074","images/stimuli/spore_stims/simple_16_A_a.gif","images/stimuli/spore_stims/simple_16_B_a.gif","","","","","14","simple_similar","images/stimuli/spore_stims/simple_16_B_a.gif","left","","","","",""
"","null","html-keyboard-response","264","480723","0.0-50.0-0.2","SS1613106647839","","","null","","","","","<p><img src= images/blank.png width =""200"" height = ""200"" style = ""float:right""></p><p><img src=images/blank.png width =""800"" height = ""200""></p>","","","","","","","","","","","",""
"","363.0000001285225","sequential-stimulus-presentation","265","481928","0.0-50.0-1.2","SS1613106647839","trial","","40","800","1163.0000001285225","images/stimuli/spore_stims/simple_16_A_a.gif","images/stimuli/spore_stims/simple_16_B_a.gif","","","","","14","simple_similar","images/stimuli/spore_stims/simple_16_B_a.gif","left","","","","",""
"","null","html-keyboard-response","266","482749","0.0-50.0-0.3","SS1613106647839","","","null","","","","","<p><img src= images/blank.png width =""200"" height = ""200"" style = ""float:right""></p><p><img src=images/blank.png width =""800"" height = ""200""></p>","","","","","","","","","","","",""
"","15.00000013038516","sequential-stimulus-presentation","267","483630","0.0-50.0-1.3","SS1613106647839","trial","","40","800","815.0000001303852","images/stimuli/spore_stims/simple_16_A_a.gif","images/stimuli/spore_stims/simple_16_B_a.gif","","","","","14","simple_similar","images/stimuli/spore_stims/simple_16_B_a.gif","left","","","","",""
"","null","html-keyboard-response","268","484751","0.0-50.0-0.4","SS1613106647839","","","null","","","","","<p><img src= images/blank.png width =""200"" height = ""200"" style = ""float:right""></p><p><img src=images/blank.png width =""800"" height = ""200""></p>","","","","","","","","","","","",""
"","1800.0000000465661","sequential-stimulus-presentation","269","487585","0.0-50.0-1.4","SS1613106647839","trial","","40","800","2600.000000046566","images/stimuli/spore_stims/simple_16_A_a.gif","images/stimuli/spore_stims/simple_16_B_a.gif","","","","","14","simple_similar","images/stimuli/spore_stims/simple_16_B_a.gif","left","","","","",""
"","null","html-keyboard-response","270","488877","0.0-50.0-0.5","SS1613106647839","","","null","","","","","<p><img src= images/blank.png width =""200"" height = ""200"" style = ""float:right""></p><p><img src=images/blank.png width =""800"" height = ""200""></p>","","","","","","","","","","","",""
"","962.000000057742","sequential-stimulus-presentation","271","490684","0.0-50.0-1.5","SS1613106647839","trial","","40","800","1762.000000057742","images/stimuli/spore_stims/simple_16_A_a.gif","images/stimuli/spore_stims/simple_16_B_a.gif","","","","","14","simple_similar","images/stimuli/spore_stims/simple_16_A_a.gif","middle","","","","",""
"","null","html-keyboard-response","272","491550","0.0-50.0-0.6","SS1613106647839","","","null","","","","","<p><img src= images/blank.png width =""200"" height = ""200"" style = ""float:right""></p><p><img src=images/blank.png width =""800"" height = ""200""></p>","","","","","","","","","","","",""
"","797.0000000204891","sequential-stimulus-presentation","273","493175","0.0-50.0-1.6","SS1613106647839","trial","","40","800","1597.000000020489","images/stimuli/spore_stims/simple_16_A_a.gif","images/stimuli/spore_stims/simple_16_B_a.gif","","","","","14","simple_similar","images/stimuli/spore_stims/simple_16_B_a.gif","left","","","","",""
"","null","html-keyboard-response","274","494219","0.0-50.0-0.7","SS1613106647839","","","null","","","","","<p><img src= images/blank.png width =""200"" height = ""200"" style = ""float:right""></p><p><img src=images/blank.png width =""800"" height = ""200""></p>","","","","","","","","","","","",""
"","1497.999999905005","sequential-stimulus-presentation","275","496590","0.0-50.0-1.7","SS1613106647839","trial","","40","800","2297.999999905005","images/stimuli/spore_stims/simple_16_A_a.gif","images/stimuli/spore_stims/simple_16_B_a.gif","","","","","14","simple_similar","images/stimuli/spore_stims/simple_16_B_a.gif","left","","","","",""
"","2073.0000000912696","html-keyboard-response","276","498678","0.0-51.0","SS1613106647839","pref_question","","51","","","","","<video width ='960' height = '540' style='padding-top:8%' autoplay muted><source src='images/stimuli/wall_pref.mp4' type='video/mp4'></video>","3","right","66%","14","","","","","","","",""
"","841.9999999459833","sequential-stimulus-presentation","277","500364","0.0-52.0","SS1613106647839","pref_reveal","","40","800","1641.9999999459833","null","null","","","","","14","","","","novel","","","",""
"","null","html-keyboard-response","278","501443","0.0-53.0-0.0","SS1613106647839","","","null","","","","","<p><img src= images/blank.png width =""200"" height = ""200"" style = ""float:right""></p><p><img src=images/blank.png width =""800"" height = ""200""></p>","","","","","","","","","","","",""
"","645.0000000186265","sequential-stimulus-presentation","279","502923","0.0-53.0-1.0","SS1613106647839","trial","","40","800","1445.0000000186265","images/stimuli/spore_stims/complex_10_A_a.gif","images/stimuli/spore_stims/complex_10_B_a.gif","","","","","15","complex_similar","images/stimuli/spore_stims/complex_10_B_a.gif","left","","","","",""
"","null","html-keyboard-response","280","504086","0.0-53.0-0.1","SS1613106647839","","","null","","","","","<p><img src= images/blank.png width =""200"" height = ""200"" style = ""float:right""></p><p><img src=images/blank.png width =""800"" height = ""200""></p>","","","","","","","","","","","",""
"","210.99999989382923","sequential-stimulus-presentation","281","505212","0.0-53.0-1.1","SS1613106647839","trial","","40","800","1010.9999998938292","images/stimuli/spore_stims/complex_10_A_a.gif","images/stimuli/spore_stims/complex_10_B_a.gif","","","","","15","complex_similar","images/stimuli/spore_stims/complex_10_B_a.gif","left","","","","",""
"","null","html-keyboard-response","282","506331","0.0-53.0-0.2","SS1613106647839","","","null","","","","","<p><img src= images/blank.png width =""200"" height = ""200"" style = ""float:right""></p><p><img src=images/blank.png width =""800"" height = ""200""></p>","","","","","","","","","","","",""
"","755.0000001210719","sequential-stimulus-presentation","283","508038","0.0-53.0-1.2","SS1613106647839","trial","","40","800","1555.000000121072","images/stimuli/spore_stims/complex_10_A_a.gif","images/stimuli/spore_stims/complex_10_B_a.gif","","","","","15","complex_similar","images/stimuli/spore_stims/complex_10_B_a.gif","left","","","","",""
"","null","html-keyboard-response","284","508968","0.0-53.0-0.3","SS1613106647839","","","null","","","","","<p><img src= images/blank.png width =""200"" height = ""200"" style = ""float:right""></p><p><img src=images/blank.png width =""800"" height = ""200""></p>","","","","","","","","","","","",""
"","283.99999998509884","sequential-stimulus-presentation","285","510091","0.0-53.0-1.3","SS1613106647839","trial","","40","800","1083.9999999850988","images/stimuli/spore_stims/complex_10_A_a.gif","images/stimuli/spore_stims/complex_10_B_a.gif","","","","","15","complex_similar","images/stimuli/spore_stims/complex_10_A_a.gif","middle","","","","",""
"","null","html-keyboard-response","286","511177","0.0-53.0-0.4","SS1613106647839","","","null","","","","","<p><img src= images/blank.png width =""200"" height = ""200"" style = ""float:right""></p><p><img src=images/blank.png width =""800"" height = ""200""></p>","","","","","","","","","","","",""
"","656.9999998901039","sequential-stimulus-presentation","287","512681","0.0-53.0-1.4","SS1613106647839","trial","","40","800","1456.999999890104","images/stimuli/spore_stims/complex_10_A_a.gif","images/stimuli/spore_stims/complex_10_B_a.gif","","","","","15","complex_similar","images/stimuli/spore_stims/complex_10_B_a.gif","left","","","","",""
"","null","html-keyboard-response","288","513994","0.0-53.0-0.5","SS1613106647839","","","null","","","","","<p><img src= images/blank.png width =""200"" height = ""200"" style = ""float:right""></p><p><img src=images/blank.png width =""800"" height = ""200""></p>","","","","","","","","","","","",""
"","618.0000000167638","sequential-stimulus-presentation","289","515431","0.0-53.0-1.5","SS1613106647839","trial","","40","800","1418.0000000167638","images/stimuli/spore_stims/complex_10_A_a.gif","images/stimuli/spore_stims/complex_10_B_a.gif","","","","","15","complex_similar","images/stimuli/spore_stims/complex_10_B_a.gif","left","","","","",""
"","null","html-keyboard-response","290","516610","0.0-53.0-0.6","SS1613106647839","","","null","","","","","<p><img src= images/blank.png width =""200"" height = ""200"" style = ""float:right""></p><p><img src=images/blank.png width =""800"" height = ""200""></p>","","","","","","","","","","","",""
"","371.99999997392297","sequential-stimulus-presentation","291","517894","0.0-53.0-1.6","SS1613106647839","trial","","40","800","1171.999999973923","images/stimuli/spore_stims/complex_10_A_a.gif","images/stimuli/spore_stims/complex_10_B_a.gif","","","","","15","complex_similar","images/stimuli/spore_stims/complex_10_B_a.gif","left","","","","",""
"","null","html-keyboard-response","292","518995","0.0-53.0-0.7","SS1613106647839","","","null","","","","","<p><img src= images/blank.png width =""200"" height = ""200"" style = ""float:right""></p><p><img src=images/blank.png width =""800"" height = ""200""></p>","","","","","","","","","","","",""
"","172.99999995157123","sequential-stimulus-presentation","293","519995","0.0-53.0-1.7","SS1613106647839","trial","","40","800","972.9999999515712","images/stimuli/spore_stims/complex_10_A_a.gif","images/stimuli/spore_stims/complex_10_B_a.gif","","","","","15","complex_similar","images/stimuli/spore_stims/complex_10_B_a.gif","left","","","","",""
"","2006.9999999832362","html-keyboard-response","294","522017","0.0-54.0","SS1613106647839","pref_question","","50","","","","","<video width ='960' height = '540' style='padding-top:8%' autoplay muted><source src='images/stimuli/wall_pref.mp4' type='video/mp4'></video>","2","middle","45%","15","","","","","","","",""
"","783.0000000540167","sequential-stimulus-presentation","295","523678","0.0-55.0","SS1613106647839","pref_reveal","","40","800","1583.0000000540167","null","null","","","","","15","","","","deviant","","","",""
"","null","html-keyboard-response","296","524978","0.0-56.0-0.0","SS1613106647839","","","null","","","","","<p><img src= images/blank.png width =""200"" height = ""200"" style = ""float:right""></p><p><img src=images/blank.png width =""800"" height = ""200""></p>","","","","","","","","","","","",""
"","706.0000000055879","sequential-stimulus-presentation","297","526517","0.0-56.0-1.0","SS1613106647839","trial","","40","800","1506.000000005588","images/stimuli/spore_stims/complex_04_A_c.gif","images/stimuli/spore_stims/complex_07_A_b.gif","","","","","16","complex_dissimilar","images/stimuli/spore_stims/complex_07_A_b.gif","left","","","","",""
"","null","html-keyboard-response","298","527720","0.0-56.0-0.1","SS1613106647839","","","null","","","","","<p><img src= images/blank.png width =""200"" height = ""200"" style = ""float:right""></p><p><img src=images/blank.png width =""800"" height = ""200""></p>","","","","","","","","","","","",""
"","457.9999998677522","sequential-stimulus-presentation","299","529081","0.0-56.0-1.1","SS1613106647839","trial","","40","800","1257.9999998677522","images/stimuli/spore_stims/complex_04_A_c.gif","images/stimuli/spore_stims/complex_07_A_b.gif","","","","","16","complex_dissimilar","images/stimuli/spore_stims/complex_07_A_b.gif","left","","","","",""
"","null","html-keyboard-response","300","530376","0.0-56.0-0.2","SS1613106647839","","","null","","","","","<p><img src= images/blank.png width =""200"" height = ""200"" style = ""float:right""></p><p><img src=images/blank.png width =""800"" height = ""200""></p>","","","","","","","","","","","",""
"","680.9999998658895","sequential-stimulus-presentation","301","531890","0.0-56.0-1.2","SS1613106647839","trial","","40","800","1480.9999998658895","images/stimuli/spore_stims/complex_04_A_c.gif","images/stimuli/spore_stims/complex_07_A_b.gif","","","","","16","complex_dissimilar","images/stimuli/spore_stims/complex_07_A_b.gif","left","","","","",""
"","null","html-keyboard-response","302","532728","0.0-56.0-0.3","SS1613106647839","","","null","","","","","<p><img src= images/blank.png width =""200"" height = ""200"" style = ""float:right""></p><p><img src=images/blank.png width =""800"" height = ""200""></p>","","","","","","","","","","","",""
"","590.000000083819","sequential-stimulus-presentation","303","534171","0.0-56.0-1.3","SS1613106647839","trial","","40","800","1390.000000083819","images/stimuli/spore_stims/complex_04_A_c.gif","images/stimuli/spore_stims/complex_07_A_b.gif","","","","","16","complex_dissimilar","images/stimuli/spore_stims/complex_07_A_b.gif","left","","","","",""
"","null","html-keyboard-response","304","535457","0.0-56.0-0.4","SS1613106647839","","","null","","","","","<p><img src= images/blank.png width =""200"" height = ""200"" style = ""float:right""></p><p><img src=images/blank.png width =""800"" height = ""200""></p>","","","","","","","","","","","",""
"","536.0000000800937","sequential-stimulus-presentation","305","536818","0.0-56.0-1.4","SS1613106647839","trial","","40","800","1336.0000000800937","images/stimuli/spore_stims/complex_04_A_c.gif","images/stimuli/spore_stims/complex_07_A_b.gif","","","","","16","complex_dissimilar","images/stimuli/spore_stims/complex_07_A_b.gif","left","","","","",""
"","null","html-keyboard-response","306","537769","0.0-56.0-0.5","SS1613106647839","","","null","","","","","<p><img src= images/blank.png width =""200"" height = ""200"" style = ""float:right""></p><p><img src=images/blank.png width =""800"" height = ""200""></p>","","","","","","","","","","","",""
"","473.9999999292195","sequential-stimulus-presentation","307","539064","0.0-56.0-1.5","SS1613106647839","trial","","40","800","1273.9999999292195","images/stimuli/spore_stims/complex_04_A_c.gif","images/stimuli/spore_stims/complex_07_A_b.gif","","","","","16","complex_dissimilar","images/stimuli/spore_stims/complex_07_A_b.gif","left","","","","",""
"","null","html-keyboard-response","308","539917","0.0-56.0-0.6","SS1613106647839","","","null","","","","","<p><img src= images/blank.png width =""200"" height = ""200"" style = ""float:right""></p><p><img src=images/blank.png width =""800"" height = ""200""></p>","","","","","","","","","","","",""
"","244.99999987892807","sequential-stimulus-presentation","309","540993","0.0-56.0-1.6","SS1613106647839","trial","","40","800","1044.999999878928","images/stimuli/spore_stims/complex_04_A_c.gif","images/stimuli/spore_stims/complex_07_A_b.gif","","","","","16","complex_dissimilar","images/stimuli/spore_stims/complex_04_A_c.gif","right","","","","",""
"","null","html-keyboard-response","310","542201","0.0-56.0-0.7","SS1613106647839","","","null","","","","","<p><img src= images/blank.png width =""200"" height = ""200"" style = ""float:right""></p><p><img src=images/blank.png width =""800"" height = ""200""></p>","","","","","","","","","","","",""
"","626.9999998621643","sequential-stimulus-presentation","311","543644","0.0-56.0-1.7","SS1613106647839","trial","","40","800","1426.9999998621643","images/stimuli/spore_stims/complex_04_A_c.gif","images/stimuli/spore_stims/complex_07_A_b.gif","","","","","16","complex_dissimilar","images/stimuli/spore_stims/complex_07_A_b.gif","left","","","","",""
"","3290.000000037253","html-keyboard-response","312","546960","0.0-57.0","SS1613106647839","pref_question","","51","","","","","<video width ='960' height = '540' style='padding-top:8%' autoplay muted><source src='images/stimuli/wall_pref.mp4' type='video/mp4'></video>","3","right","66%","16","","","","","","","",""
