"view_history","rt","trial_type","trial_index","time_elapsed","internal_node_id","subject","stimulus_type","trial_stimulus","key_press","minimum_viewing_duration","trial_looking_time","block_deviant","block_background","stimulus","wall_pref","location","location_percent","block_number","block_type","stimulus_displayed","position_displayed","stim_type_selected","responses","question_order","stimulus_left","stimulus_right"
"[{""page_index"":0,""viewing_time"":3115.2899998705834}]","3116.2250000052154","instructions","0","3121","0.0-0.0","SS1613101648211","","","","","","","","","","","","","","","","","","","",""
"[{""page_index"":0,""viewing_time"":7261.150000151247},{""page_index"":1,""viewing_time"":4782.205000054091}]","12043.710000114515","instructions","1","17186","0.0-1.0","SS1613101648211","instructions","","","","","","","","","","","","","","","","","","",""
"","3335.779999848455","sequential-stimulus-presentation","2","21347","0.0-2.0","SS1613101648211","","","40","800","4135.779999848455","null","null","","","","","","","","","","","","",""
"","451.4399999752641","sequential-stimulus-presentation","3","22858","0.0-3.0","SS1613101648211","","","40","800","1251.439999975264","null","null","","","","","","","","","","","","",""
"[{""page_index"":0,""viewing_time"":4171.3100001215935}]","4171.855000080541","instructions","4","27031","0.0-4.0","SS1613101648211","instructions","","","","","","","","","","","","","","","","","","",""
"","3382.3450000490993","html-keyboard-response","5","30424","0.0-5.0","SS1613101648211","instructions","","50","","","","","<video width ='960' height = '540' autoplay muted><source src='images/stimuli/wall_pref.mp4' type='video/mp4'></video>","2","middle","45%","","","","","","","","",""
"","4006.24500005506","sequential-stimulus-presentation","6","35249","0.0-6.0","SS1613101648211","pref_reveal","","40","800","4806.24500005506","null","null","","","","","","","","","","","","",""
"[{""page_index"":0,""viewing_time"":3166.28500004299},{""page_index"":1,""viewing_time"":4248.365000123158},{""page_index"":2,""viewing_time"":1528.5499999299645},{""page_index"":3,""viewing_time"":1463.3450000546873}]","10407.015000004321","instructions","7","45675","0.0-7.0","SS1613101648211","instructions","","","","","","","","","","","","","","","","","","",""
"","null","html-keyboard-response","8","46874","0.0-8.0-0.0","SS1613101648211","","","null","","","","","<p><img src= images/blank.png width =""200"" height = ""200"" style = ""float:right""></p><p><img src=images/blank.png width =""800"" height = ""200""></p>","","","","","","","","","","","",""
"","1081.609999993816","sequential-stimulus-presentation","9","48801","0.0-8.0-1.0","SS1613101648211","trial","","40","800","1881.609999993816","images/stimuli/spore_stims/complex_02_B_b.gif","images/stimuli/spore_stims/complex_02_A_b.gif","","","","","0","complex_similar","images/stimuli/spore_stims/complex_02_A_b.gif","right","","","","",""
"","null","html-keyboard-response","10","49926","0.0-8.0-0.1","SS1613101648211","","","null","","","","","<p><img src= images/blank.png width =""200"" height = ""200"" style = ""float:right""></p><p><img src=images/blank.png width =""800"" height = ""200""></p>","","","","","","","","","","","",""
"","90.7750001642853","sequential-stimulus-presentation","11","50832","0.0-8.0-1.1","SS1613101648211","trial","","40","800","890.7750001642853","images/stimuli/spore_stims/complex_02_B_b.gif","images/stimuli/spore_stims/complex_02_A_b.gif","","","","","0","complex_similar","images/stimuli/spore_stims/complex_02_A_b.gif","right","","","","",""
"","null","html-keyboard-response","12","51850","0.0-8.0-0.2","SS1613101648211","","","null","","","","","<p><img src= images/blank.png width =""200"" height = ""200"" style = ""float:right""></p><p><img src=images/blank.png width =""800"" height = ""200""></p>","","","","","","","","","","","",""
"","928.190000122413","sequential-stimulus-presentation","13","53608","0.0-8.0-1.2","SS1613101648211","trial","","40","800","1728.190000122413","images/stimuli/spore_stims/complex_02_B_b.gif","images/stimuli/spore_stims/complex_02_A_b.gif","","","","","0","complex_similar","images/stimuli/spore_stims/complex_02_A_b.gif","right","","","","",""
"","null","html-keyboard-response","14","54575","0.0-8.0-0.3","SS1613101648211","","","null","","","","","<p><img src= images/blank.png width =""200"" height = ""200"" style = ""float:right""></p><p><img src=images/blank.png width =""800"" height = ""200""></p>","","","","","","","","","","","",""
"","362.87999991327524","sequential-stimulus-presentation","15","55846","0.0-8.0-1.3","SS1613101648211","trial","","40","800","1162.8799999132752","images/stimuli/spore_stims/complex_02_B_b.gif","images/stimuli/spore_stims/complex_02_A_b.gif","","","","","0","complex_similar","images/stimuli/spore_stims/complex_02_A_b.gif","right","","","","",""
"","null","html-keyboard-response","16","57068","0.0-8.0-0.4","SS1613101648211","","","null","","","","","<p><img src= images/blank.png width =""200"" height = ""200"" style = ""float:right""></p><p><img src=images/blank.png width =""800"" height = ""200""></p>","","","","","","","","","","","",""
"","287.58500004187226","sequential-stimulus-presentation","17","58326","0.0-8.0-1.4","SS1613101648211","trial","","40","800","1087.5850000418723","images/stimuli/spore_stims/complex_02_B_b.gif","images/stimuli/spore_stims/complex_02_A_b.gif","","","","","0","complex_similar","images/stimuli/spore_stims/complex_02_B_b.gif","middle","","","","",""
"","null","html-keyboard-response","18","59212","0.0-8.0-0.5","SS1613101648211","","","null","","","","","<p><img src= images/blank.png width =""200"" height = ""200"" style = ""float:right""></p><p><img src=images/blank.png width =""800"" height = ""200""></p>","","","","","","","","","","","",""
"","257.67500000074506","sequential-stimulus-presentation","19","60530","0.0-8.0-1.5","SS1613101648211","trial","","40","800","1057.675000000745","images/stimuli/spore_stims/complex_02_B_b.gif","images/stimuli/spore_stims/complex_02_A_b.gif","","","","","0","complex_similar","images/stimuli/spore_stims/complex_02_A_b.gif","right","","","","",""
"","null","html-keyboard-response","20","61696","0.0-8.0-0.6","SS1613101648211","","","null","","","","","<p><img src= images/blank.png width =""200"" height = ""200"" style = ""float:right""></p><p><img src=images/blank.png width =""800"" height = ""200""></p>","","","","","","","","","","","",""
"","958.5500000976026","sequential-stimulus-presentation","21","63473","0.0-8.0-1.6","SS1613101648211","trial","","40","800","1758.5500000976026","images/stimuli/spore_stims/complex_02_B_b.gif","images/stimuli/spore_stims/complex_02_A_b.gif","","","","","0","complex_similar","images/stimuli/spore_stims/complex_02_A_b.gif","right","","","","",""
"","null","html-keyboard-response","22","64636","0.0-8.0-0.7","SS1613101648211","","","null","","","","","<p><img src= images/blank.png width =""200"" height = ""200"" style = ""float:right""></p><p><img src=images/blank.png width =""800"" height = ""200""></p>","","","","","","","","","","","",""
"","41.24499997124076","sequential-stimulus-presentation","23","65490","0.0-8.0-1.7","SS1613101648211","trial","","40","800","841.2449999712408","images/stimuli/spore_stims/complex_02_B_b.gif","images/stimuli/spore_stims/complex_02_A_b.gif","","","","","0","complex_similar","images/stimuli/spore_stims/complex_02_A_b.gif","right","","","","",""
"","1740.9749999642372","html-keyboard-response","24","67264","0.0-9.0","SS1613101648211","pref_question","","50","","","","","<video width ='960' height = '540' style='padding-top:8%' autoplay muted><source src='images/stimuli/wall_pref.mp4' type='video/mp4'></video>","2","middle","45%","0","","","","","","","",""
"","865.6849998515099","sequential-stimulus-presentation","25","68985","0.0-10.0","SS1613101648211","pref_reveal","","40","800","1665.68499985151","null","null","","","","","0","","","","deviant","","","",""
"","null","html-keyboard-response","26","69947","0.0-11.0-0.0","SS1613101648211","","","null","","","","","<p><img src= images/blank.png width =""200"" height = ""200"" style = ""float:right""></p><p><img src=images/blank.png width =""800"" height = ""200""></p>","","","","","","","","","","","",""
"","796.8949999194592","sequential-stimulus-presentation","27","71604","0.0-11.0-1.0","SS1613101648211","trial","","40","800","1596.8949999194592","images/stimuli/spore_stims/simple_06_B_b.gif","images/stimuli/spore_stims/simple_06_A_b.gif","","","","","1","simple_similar","images/stimuli/spore_stims/simple_06_A_b.gif","middle","","","","",""
"","null","html-keyboard-response","28","72700","0.0-11.0-0.1","SS1613101648211","","","null","","","","","<p><img src= images/blank.png width =""200"" height = ""200"" style = ""float:right""></p><p><img src=images/blank.png width =""800"" height = ""200""></p>","","","","","","","","","","","",""
"","621.7949998099357","sequential-stimulus-presentation","29","74137","0.0-11.0-1.1","SS1613101648211","trial","","40","800","1421.7949998099357","images/stimuli/spore_stims/simple_06_B_b.gif","images/stimuli/spore_stims/simple_06_A_b.gif","","","","","1","simple_similar","images/stimuli/spore_stims/simple_06_A_b.gif","middle","","","","",""
"","null","html-keyboard-response","30","74977","0.0-11.0-0.2","SS1613101648211","","","null","","","","","<p><img src= images/blank.png width =""200"" height = ""200"" style = ""float:right""></p><p><img src=images/blank.png width =""800"" height = ""200""></p>","","","","","","","","","","","",""
"","166.9000000692904","sequential-stimulus-presentation","31","76206","0.0-11.0-1.2","SS1613101648211","trial","","40","800","966.9000000692904","images/stimuli/spore_stims/simple_06_B_b.gif","images/stimuli/spore_stims/simple_06_A_b.gif","","","","","1","simple_similar","images/stimuli/spore_stims/simple_06_A_b.gif","middle","","","","",""
"","null","html-keyboard-response","32","77406","0.0-11.0-0.3","SS1613101648211","","","null","","","","","<p><img src= images/blank.png width =""200"" height = ""200"" style = ""float:right""></p><p><img src=images/blank.png width =""800"" height = ""200""></p>","","","","","","","","","","","",""
"","0.969999935477972","sequential-stimulus-presentation","33","78229","0.0-11.0-1.3","SS1613101648211","trial","","40","800","800.969999935478","images/stimuli/spore_stims/simple_06_B_b.gif","images/stimuli/spore_stims/simple_06_A_b.gif","","","","","1","simple_similar","images/stimuli/spore_stims/simple_06_A_b.gif","middle","","","","",""
"","null","html-keyboard-response","34","79527","0.0-11.0-0.4","SS1613101648211","","","null","","","","","<p><img src= images/blank.png width =""200"" height = ""200"" style = ""float:right""></p><p><img src=images/blank.png width =""800"" height = ""200""></p>","","","","","","","","","","","",""
"","4.895000020042062","sequential-stimulus-presentation","35","80615","0.0-11.0-1.4","SS1613101648211","trial","","40","800","804.8950000200421","images/stimuli/spore_stims/simple_06_B_b.gif","images/stimuli/spore_stims/simple_06_A_b.gif","","","","","1","simple_similar","images/stimuli/spore_stims/simple_06_A_b.gif","middle","","","","",""
"","null","html-keyboard-response","36","81780","0.0-11.0-0.5","SS1613101648211","","","null","","","","","<p><img src= images/blank.png width =""200"" height = ""200"" style = ""float:right""></p><p><img src=images/blank.png width =""800"" height = ""200""></p>","","","","","","","","","","","",""
"","56.18999991565943","sequential-stimulus-presentation","37","82658","0.0-11.0-1.5","SS1613101648211","trial","","40","800","856.1899999156594","images/stimuli/spore_stims/simple_06_B_b.gif","images/stimuli/spore_stims/simple_06_A_b.gif","","","","","1","simple_similar","images/stimuli/spore_stims/simple_06_A_b.gif","middle","","","","",""
"","null","html-keyboard-response","38","83801","0.0-11.0-0.6","SS1613101648211","","","null","","","","","<p><img src= images/blank.png width =""200"" height = ""200"" style = ""float:right""></p><p><img src=images/blank.png width =""800"" height = ""200""></p>","","","","","","","","","","","",""
"","237.1950000524521","sequential-stimulus-presentation","39","84871","0.0-11.0-1.6","SS1613101648211","trial","","40","800","1037.195000052452","images/stimuli/spore_stims/simple_06_B_b.gif","images/stimuli/spore_stims/simple_06_A_b.gif","","","","","1","simple_similar","images/stimuli/spore_stims/simple_06_B_b.gif","left","","","","",""
"","null","html-keyboard-response","40","85746","0.0-11.0-0.7","SS1613101648211","","","null","","","","","<p><img src= images/blank.png width =""200"" height = ""200"" style = ""float:right""></p><p><img src=images/blank.png width =""800"" height = ""200""></p>","","","","","","","","","","","",""
"","4.1600000113248825","sequential-stimulus-presentation","41","86584","0.0-11.0-1.7","SS1613101648211","trial","","40","800","804.1600000113249","images/stimuli/spore_stims/simple_06_B_b.gif","images/stimuli/spore_stims/simple_06_A_b.gif","","","","","1","simple_similar","images/stimuli/spore_stims/simple_06_A_b.gif","middle","","","","",""
"","1194.9899999890476","html-keyboard-response","42","87784","0.0-12.0","SS1613101648211","pref_question","","50","","","","","<video width ='960' height = '540' style='padding-top:8%' autoplay muted><source src='images/stimuli/wall_pref.mp4' type='video/mp4'></video>","2","middle","45%","1","","","","","","","",""
"","208.5449998266995","sequential-stimulus-presentation","43","88800","0.0-13.0","SS1613101648211","pref_reveal","","40","800","1008.5449998266995","null","null","","","","","1","","","","background","","","",""
"","null","html-keyboard-response","44","89743","0.0-14.0-0.0","SS1613101648211","","","null","","","","","<p><img src= images/blank.png width =""200"" height = ""200"" style = ""float:right""></p><p><img src=images/blank.png width =""800"" height = ""200""></p>","","","","","","","","","","","",""
"","297.4049998447299","sequential-stimulus-presentation","45","90881","0.0-14.0-1.0","SS1613101648211","trial","","40","800","1097.40499984473","images/stimuli/spore_stims/simple_17_B_a.gif","images/stimuli/spore_stims/simple_17_A_a.gif","","","","","2","simple_similar","images/stimuli/spore_stims/simple_17_A_a.gif","left","","","","",""
"","null","html-keyboard-response","46","91798","0.0-14.0-0.1","SS1613101648211","","","null","","","","","<p><img src= images/blank.png width =""200"" height = ""200"" style = ""float:right""></p><p><img src=images/blank.png width =""800"" height = ""200""></p>","","","","","","","","","","","",""
"","668.0000000633299","sequential-stimulus-presentation","47","93280","0.0-14.0-1.1","SS1613101648211","trial","","40","800","1468.00000006333","images/stimuli/spore_stims/simple_17_B_a.gif","images/stimuli/spore_stims/simple_17_A_a.gif","","","","","2","simple_similar","images/stimuli/spore_stims/simple_17_A_a.gif","left","","","","",""
"","null","html-keyboard-response","48","94284","0.0-14.0-0.2","SS1613101648211","","","null","","","","","<p><img src= images/blank.png width =""200"" height = ""200"" style = ""float:right""></p><p><img src=images/blank.png width =""800"" height = ""200""></p>","","","","","","","","","","","",""
"","249.97000000439584","sequential-stimulus-presentation","49","95350","0.0-14.0-1.2","SS1613101648211","trial","","40","800","1049.9700000043958","images/stimuli/spore_stims/simple_17_B_a.gif","images/stimuli/spore_stims/simple_17_A_a.gif","","","","","2","simple_similar","images/stimuli/spore_stims/simple_17_A_a.gif","left","","","","",""
"","null","html-keyboard-response","50","96319","0.0-14.0-0.3","SS1613101648211","","","null","","","","","<p><img src= images/blank.png width =""200"" height = ""200"" style = ""float:right""></p><p><img src=images/blank.png width =""800"" height = ""200""></p>","","","","","","","","","","","",""
"","226.20499995537102","sequential-stimulus-presentation","51","97392","0.0-14.0-1.3","SS1613101648211","trial","","40","800","1026.204999955371","images/stimuli/spore_stims/simple_17_B_a.gif","images/stimuli/spore_stims/simple_17_A_a.gif","","","","","2","simple_similar","images/stimuli/spore_stims/simple_17_A_a.gif","left","","","","",""
"","null","html-keyboard-response","52","98655","0.0-14.0-0.4","SS1613101648211","","","null","","","","","<p><img src= images/blank.png width =""200"" height = ""200"" style = ""float:right""></p><p><img src=images/blank.png width =""800"" height = ""200""></p>","","","","","","","","","","","",""
"","270.6749998033047","sequential-stimulus-presentation","53","99754","0.0-14.0-1.4","SS1613101648211","trial","","40","800","1070.6749998033047","images/stimuli/spore_stims/simple_17_B_a.gif","images/stimuli/spore_stims/simple_17_A_a.gif","","","","","2","simple_similar","images/stimuli/spore_stims/simple_17_B_a.gif","right","","","","",""
"","null","html-keyboard-response","54","100643","0.0-14.0-0.5","SS1613101648211","","","null","","","","","<p><img src= images/blank.png width =""200"" height = ""200"" style = ""float:right""></p><p><img src=images/blank.png width =""800"" height = ""200""></p>","","","","","","","","","","","",""
"","33.64000003784895","sequential-stimulus-presentation","55","101505","0.0-14.0-1.5","SS1613101648211","trial","","40","800","833.640000037849","images/stimuli/spore_stims/simple_17_B_a.gif","images/stimuli/spore_stims/simple_17_A_a.gif","","","","","2","simple_similar","images/stimuli/spore_stims/simple_17_A_a.gif","left","","","","",""
"","null","html-keyboard-response","56","102805","0.0-14.0-0.6","SS1613101648211","","","null","","","","","<p><img src= images/blank.png width =""200"" height = ""200"" style = ""float:right""></p><p><img src=images/blank.png width =""800"" height = ""200""></p>","","","","","","","","","","","",""
"","285.57500010356307","sequential-stimulus-presentation","57","103917","0.0-14.0-1.6","SS1613101648211","trial","","40","800","1085.575000103563","images/stimuli/spore_stims/simple_17_B_a.gif","images/stimuli/spore_stims/simple_17_A_a.gif","","","","","2","simple_similar","images/stimuli/spore_stims/simple_17_A_a.gif","left","","","","",""
"","null","html-keyboard-response","58","105229","0.0-14.0-0.7","SS1613101648211","","","null","","","","","<p><img src= images/blank.png width =""200"" height = ""200"" style = ""float:right""></p><p><img src=images/blank.png width =""800"" height = ""200""></p>","","","","","","","","","","","",""
"","18.86499999091029","sequential-stimulus-presentation","59","106171","0.0-14.0-1.7","SS1613101648211","trial","","40","800","818.8649999909103","images/stimuli/spore_stims/simple_17_B_a.gif","images/stimuli/spore_stims/simple_17_A_a.gif","","","","","2","simple_similar","images/stimuli/spore_stims/simple_17_A_a.gif","left","","","","",""
"","1246.9500000588596","html-keyboard-response","60","107434","0.0-15.0","SS1613101648211","pref_question","","49","","","","","<video width ='960' height = '540' style='padding-top:8%' autoplay muted><source src='images/stimuli/wall_pref.mp4' type='video/mp4'></video>","1","left","25%","2","","","","","","","",""
"","118.80500009283423","sequential-stimulus-presentation","61","108403","0.0-16.0","SS1613101648211","pref_reveal","","40","800","918.8050000928342","null","null","","","","","2","","","","background","","","",""
"","null","html-keyboard-response","62","109527","0.0-17.0-0.0","SS1613101648211","","","null","","","","","<p><img src= images/blank.png width =""200"" height = ""200"" style = ""float:right""></p><p><img src=images/blank.png width =""800"" height = ""200""></p>","","","","","","","","","","","",""
"","774.0700000431389","sequential-stimulus-presentation","63","111282","0.0-17.0-1.0","SS1613101648211","trial","","40","800","1574.0700000431389","images/stimuli/spore_stims/simple_09_B_c.gif","images/stimuli/spore_stims/simple_14_A_d.gif","","","","","3","simple_dissimilar","images/stimuli/spore_stims/simple_14_A_d.gif","middle","","","","",""
"","null","html-keyboard-response","64","112552","0.0-17.0-0.1","SS1613101648211","","","null","","","","","<p><img src= images/blank.png width =""200"" height = ""200"" style = ""float:right""></p><p><img src=images/blank.png width =""800"" height = ""200""></p>","","","","","","","","","","","",""
"","32.07499999552965","sequential-stimulus-presentation","65","113417","0.0-17.0-1.1","SS1613101648211","trial","","40","800","832.0749999955297","images/stimuli/spore_stims/simple_09_B_c.gif","images/stimuli/spore_stims/simple_14_A_d.gif","","","","","3","simple_dissimilar","images/stimuli/spore_stims/simple_14_A_d.gif","middle","","","","",""
"","null","html-keyboard-response","66","114264","0.0-17.0-0.2","SS1613101648211","","","null","","","","","<p><img src= images/blank.png width =""200"" height = ""200"" style = ""float:right""></p><p><img src=images/blank.png width =""800"" height = ""200""></p>","","","","","","","","","","","",""
"","575.3249998670071","sequential-stimulus-presentation","67","115654","0.0-17.0-1.2","SS1613101648211","trial","","40","800","1375.3249998670071","images/stimuli/spore_stims/simple_09_B_c.gif","images/stimuli/spore_stims/simple_14_A_d.gif","","","","","3","simple_dissimilar","images/stimuli/spore_stims/simple_14_A_d.gif","middle","","","","",""
"","null","html-keyboard-response","68","116910","0.0-17.0-0.3","SS1613101648211","","","null","","","","","<p><img src= images/blank.png width =""200"" height = ""200"" style = ""float:right""></p><p><img src=images/blank.png width =""800"" height = ""200""></p>","","","","","","","","","","","",""
"","327.1399999503046","sequential-stimulus-presentation","69","118057","0.0-17.0-1.3","SS1613101648211","trial","","40","800","1127.1399999503046","images/stimuli/spore_stims/simple_09_B_c.gif","images/stimuli/spore_stims/simple_14_A_d.gif","","","","","3","simple_dissimilar","images/stimuli/spore_stims/simple_09_B_c.gif","left","","","","",""
"","null","html-keyboard-response","70","119295","0.0-17.0-0.4","SS1613101648211","","","null","","","","","<p><img src= images/blank.png width =""200"" height = ""200"" style = ""float:right""></p><p><img src=images/blank.png width =""800"" height = ""200""></p>","","","","","","","","","","","",""
"","106.4799998421222","sequential-stimulus-presentation","71","120229","0.0-17.0-1.4","SS1613101648211","trial","","40","800","906.4799998421222","images/stimuli/spore_stims/simple_09_B_c.gif","images/stimuli/spore_stims/simple_14_A_d.gif","","","","","3","simple_dissimilar","images/stimuli/spore_stims/simple_14_A_d.gif","middle","","","","",""
"","null","html-keyboard-response","72","121394","0.0-17.0-0.5","SS1613101648211","","","null","","","","","<p><img src= images/blank.png width =""200"" height = ""200"" style = ""float:right""></p><p><img src=images/blank.png width =""800"" height = ""200""></p>","","","","","","","","","","","",""
"","641.950000077486","sequential-stimulus-presentation","73","122847","0.0-17.0-1.5","SS1613101648211","trial","","40","800","1441.950000077486","images/stimuli/spore_stims/simple_09_B_c.gif","images/stimuli/spore_stims/simple_14_A_d.gif","","","","","3","simple_dissimilar","images/stimuli/spore_stims/simple_14_A_d.gif","middle","","","","",""
"","null","html-keyboard-response","74","123923","0.0-17.0-0.6","SS1613101648211","","","null","","","","","<p><img src= images/blank.png width =""200"" height = ""200"" style = ""float:right""></p><p><img src=images/blank.png width =""800"" height = ""200""></p>","","","","","","","","","","","",""
"","213.47000007517636","sequential-stimulus-presentation","75","124963","0.0-17.0-1.6","SS1613101648211","trial","","40","800","1013.4700000751764","images/stimuli/spore_stims/simple_09_B_c.gif","images/stimuli/spore_stims/simple_14_A_d.gif","","","","","3","simple_dissimilar","images/stimuli/spore_stims/simple_14_A_d.gif","middle","","","","",""
"","null","html-keyboard-response","76","126136","0.0-17.0-0.7","SS1613101648211","","","null","","","","","<p><img src= images/blank.png width =""200"" height = ""200"" style = ""float:right""></p><p><img src=images/blank.png width =""800"" height = ""200""></p>","","","","","","","","","","","",""
"","196.1499999742955","sequential-stimulus-presentation","77","127144","0.0-17.0-1.7","SS1613101648211","trial","","40","800","996.1499999742955","images/stimuli/spore_stims/simple_09_B_c.gif","images/stimuli/spore_stims/simple_14_A_d.gif","","","","","3","simple_dissimilar","images/stimuli/spore_stims/simple_14_A_d.gif","middle","","","","",""
"","1068.5300000477582","html-keyboard-response","78","128218","0.0-18.0","SS1613101648211","pref_question","","49","","","","","<video width ='960' height = '540' style='padding-top:8%' autoplay muted><source src='images/stimuli/wall_pref.mp4' type='video/mp4'></video>","1","left","25%","3","","","","","","","",""
"","77.49000005424023","sequential-stimulus-presentation","79","129112","0.0-19.0","SS1613101648211","pref_reveal","","40","800","877.4900000542402","null","null","","","","","3","","","","deviant","","","",""
"","null","html-keyboard-response","80","130369","0.0-20.0-0.0","SS1613101648211","","","null","","","","","<p><img src= images/blank.png width =""200"" height = ""200"" style = ""float:right""></p><p><img src=images/blank.png width =""800"" height = ""200""></p>","","","","","","","","","","","",""
"","666.7349999770522","sequential-stimulus-presentation","81","131861","0.0-20.0-1.0","SS1613101648211","trial","","40","800","1466.7349999770522","images/stimuli/spore_stims/complex_07_A_b.gif","images/stimuli/spore_stims/complex_07_B_b.gif","","","","","4","complex_similar","images/stimuli/spore_stims/complex_07_B_b.gif","left","","","","",""
"","null","html-keyboard-response","82","132881","0.0-20.0-0.1","SS1613101648211","","","null","","","","","<p><img src= images/blank.png width =""200"" height = ""200"" style = ""float:right""></p><p><img src=images/blank.png width =""800"" height = ""200""></p>","","","","","","","","","","","",""
"","728.6600000225008","sequential-stimulus-presentation","83","134449","0.0-20.0-1.1","SS1613101648211","trial","","40","800","1528.6600000225008","images/stimuli/spore_stims/complex_07_A_b.gif","images/stimuli/spore_stims/complex_07_B_b.gif","","","","","4","complex_similar","images/stimuli/spore_stims/complex_07_B_b.gif","left","","","","",""
"","null","html-keyboard-response","84","135680","0.0-20.0-0.2","SS1613101648211","","","null","","","","","<p><img src= images/blank.png width =""200"" height = ""200"" style = ""float:right""></p><p><img src=images/blank.png width =""800"" height = ""200""></p>","","","","","","","","","","","",""
"","378.7000000011176","sequential-stimulus-presentation","85","136881","0.0-20.0-1.2","SS1613101648211","trial","","40","800","1178.7000000011176","images/stimuli/spore_stims/complex_07_A_b.gif","images/stimuli/spore_stims/complex_07_B_b.gif","","","","","4","complex_similar","images/stimuli/spore_stims/complex_07_B_b.gif","left","","","","",""
"","null","html-keyboard-response","86","137788","0.0-20.0-0.3","SS1613101648211","","","null","","","","","<p><img src= images/blank.png width =""200"" height = ""200"" style = ""float:right""></p><p><img src=images/blank.png width =""800"" height = ""200""></p>","","","","","","","","","","","",""
"","786.8049999233335","sequential-stimulus-presentation","87","139418","0.0-20.0-1.3","SS1613101648211","trial","","40","800","1586.8049999233335","images/stimuli/spore_stims/complex_07_A_b.gif","images/stimuli/spore_stims/complex_07_B_b.gif","","","","","4","complex_similar","images/stimuli/spore_stims/complex_07_A_b.gif","middle","","","","",""
"","null","html-keyboard-response","88","140558","0.0-20.0-0.4","SS1613101648211","","","null","","","","","<p><img src= images/blank.png width =""200"" height = ""200"" style = ""float:right""></p><p><img src=images/blank.png width =""800"" height = ""200""></p>","","","","","","","","","","","",""
"","51.37500003911555","sequential-stimulus-presentation","89","141517","0.0-20.0-1.4","SS1613101648211","trial","","40","800","851.3750000391155","images/stimuli/spore_stims/complex_07_A_b.gif","images/stimuli/spore_stims/complex_07_B_b.gif","","","","","4","complex_similar","images/stimuli/spore_stims/complex_07_B_b.gif","left","","","","",""
"","null","html-keyboard-response","90","142771","0.0-20.0-0.5","SS1613101648211","","","null","","","","","<p><img src= images/blank.png width =""200"" height = ""200"" style = ""float:right""></p><p><img src=images/blank.png width =""800"" height = ""200""></p>","","","","","","","","","","","",""
"","52.549999905750155","sequential-stimulus-presentation","91","143660","0.0-20.0-1.5","SS1613101648211","trial","","40","800","852.5499999057502","images/stimuli/spore_stims/complex_07_A_b.gif","images/stimuli/spore_stims/complex_07_B_b.gif","","","","","4","complex_similar","images/stimuli/spore_stims/complex_07_B_b.gif","left","","","","",""
"","null","html-keyboard-response","92","144567","0.0-20.0-0.6","SS1613101648211","","","null","","","","","<p><img src= images/blank.png width =""200"" height = ""200"" style = ""float:right""></p><p><img src=images/blank.png width =""800"" height = ""200""></p>","","","","","","","","","","","",""
"","92.84000005573034","sequential-stimulus-presentation","93","145484","0.0-20.0-1.6","SS1613101648211","trial","","40","800","892.8400000557303","images/stimuli/spore_stims/complex_07_A_b.gif","images/stimuli/spore_stims/complex_07_B_b.gif","","","","","4","complex_similar","images/stimuli/spore_stims/complex_07_B_b.gif","left","","","","",""
"","null","html-keyboard-response","94","146638","0.0-20.0-0.7","SS1613101648211","","","null","","","","","<p><img src= images/blank.png width =""200"" height = ""200"" style = ""float:right""></p><p><img src=images/blank.png width =""800"" height = ""200""></p>","","","","","","","","","","","",""
"","185.09999988600612","sequential-stimulus-presentation","95","147636","0.0-20.0-1.7","SS1613101648211","trial","","40","800","985.0999998860061","images/stimuli/spore_stims/complex_07_A_b.gif","images/stimuli/spore_stims/complex_07_B_b.gif","","","","","4","complex_similar","images/stimuli/spore_stims/complex_07_B_b.gif","left","","","","",""
"","1111.0349998343736","html-keyboard-response","96","148758","0.0-21.0","SS1613101648211","pref_question","","49","","","","","<video width ='960' height = '540' style='padding-top:8%' autoplay muted><source src='images/stimuli/wall_pref.mp4' type='video/mp4'></video>","1","left","25%","4","","","","","","","",""
"","658.0000000540167","sequential-stimulus-presentation","97","150243","0.0-22.0","SS1613101648211","pref_reveal","","40","800","1458.0000000540167","null","null","","","","","4","","","","background","","","",""
"","null","html-keyboard-response","98","151210","0.0-23.0-0.0","SS1613101648211","","","null","","","","","<p><img src= images/blank.png width =""200"" height = ""200"" style = ""float:right""></p><p><img src=images/blank.png width =""800"" height = ""200""></p>","","","","","","","","","","","",""
"","54.52500004321337","sequential-stimulus-presentation","99","152113","0.0-23.0-1.0","SS1613101648211","trial","","40","800","854.5250000432134","images/stimuli/spore_stims/complex_14_B_d.gif","images/stimuli/spore_stims/complex_14_A_d.gif","","","","","5","complex_similar","images/stimuli/spore_stims/complex_14_A_d.gif","middle","","","","",""
"","null","html-keyboard-response","100","153357","0.0-23.0-0.1","SS1613101648211","","","null","","","","","<p><img src= images/blank.png width =""200"" height = ""200"" style = ""float:right""></p><p><img src=images/blank.png width =""800"" height = ""200""></p>","","","","","","","","","","","",""
"","202.4300000630319","sequential-stimulus-presentation","101","154378","0.0-23.0-1.1","SS1613101648211","trial","","40","800","1002.4300000630319","images/stimuli/spore_stims/complex_14_B_d.gif","images/stimuli/spore_stims/complex_14_A_d.gif","","","","","5","complex_similar","images/stimuli/spore_stims/complex_14_A_d.gif","middle","","","","",""
"","null","html-keyboard-response","102","155654","0.0-23.0-0.2","SS1613101648211","","","null","","","","","<p><img src= images/blank.png width =""200"" height = ""200"" style = ""float:right""></p><p><img src=images/blank.png width =""800"" height = ""200""></p>","","","","","","","","","","","",""
"","669.4300000090152","sequential-stimulus-presentation","103","157136","0.0-23.0-1.2","SS1613101648211","trial","","40","800","1469.4300000090152","images/stimuli/spore_stims/complex_14_B_d.gif","images/stimuli/spore_stims/complex_14_A_d.gif","","","","","5","complex_similar","images/stimuli/spore_stims/complex_14_A_d.gif","middle","","","","",""
"","null","html-keyboard-response","104","158407","0.0-23.0-0.3","SS1613101648211","","","null","","","","","<p><img src= images/blank.png width =""200"" height = ""200"" style = ""float:right""></p><p><img src=images/blank.png width =""800"" height = ""200""></p>","","","","","","","","","","","",""
"","561.225000070408","sequential-stimulus-presentation","105","159811","0.0-23.0-1.3","SS1613101648211","trial","","40","800","1361.225000070408","images/stimuli/spore_stims/complex_14_B_d.gif","images/stimuli/spore_stims/complex_14_A_d.gif","","","","","5","complex_similar","images/stimuli/spore_stims/complex_14_B_d.gif","right","","","","",""
"","null","html-keyboard-response","106","160884","0.0-23.0-0.4","SS1613101648211","","","null","","","","","<p><img src= images/blank.png width =""200"" height = ""200"" style = ""float:right""></p><p><img src=images/blank.png width =""800"" height = ""200""></p>","","","","","","","","","","","",""
"","365.74499984271824","sequential-stimulus-presentation","107","162079","0.0-23.0-1.4","SS1613101648211","trial","","40","800","1165.7449998427182","images/stimuli/spore_stims/complex_14_B_d.gif","images/stimuli/spore_stims/complex_14_A_d.gif","","","","","5","complex_similar","images/stimuli/spore_stims/complex_14_A_d.gif","middle","","","","",""
"","null","html-keyboard-response","108","163328","0.0-23.0-0.5","SS1613101648211","","","null","","","","","<p><img src= images/blank.png width =""200"" height = ""200"" style = ""float:right""></p><p><img src=images/blank.png width =""800"" height = ""200""></p>","","","","","","","","","","","",""
"","40.61500006355345","sequential-stimulus-presentation","109","164195","0.0-23.0-1.5","SS1613101648211","trial","","40","800","840.6150000635535","images/stimuli/spore_stims/complex_14_B_d.gif","images/stimuli/spore_stims/complex_14_A_d.gif","","","","","5","complex_similar","images/stimuli/spore_stims/complex_14_A_d.gif","middle","","","","",""
"","null","html-keyboard-response","110","165152","0.0-23.0-0.6","SS1613101648211","","","null","","","","","<p><img src= images/blank.png width =""200"" height = ""200"" style = ""float:right""></p><p><img src=images/blank.png width =""800"" height = ""200""></p>","","","","","","","","","","","",""
"","1.7049999441951513","sequential-stimulus-presentation","111","166014","0.0-23.0-1.6","SS1613101648211","trial","","40","800","801.7049999441952","images/stimuli/spore_stims/complex_14_B_d.gif","images/stimuli/spore_stims/complex_14_A_d.gif","","","","","5","complex_similar","images/stimuli/spore_stims/complex_14_A_d.gif","middle","","","","",""
"","null","html-keyboard-response","112","166954","0.0-23.0-0.7","SS1613101648211","","","null","","","","","<p><img src= images/blank.png width =""200"" height = ""200"" style = ""float:right""></p><p><img src=images/blank.png width =""800"" height = ""200""></p>","","","","","","","","","","","",""
"","312.0599999092519","sequential-stimulus-presentation","113","168088","0.0-23.0-1.7","SS1613101648211","trial","","40","800","1112.059999909252","images/stimuli/spore_stims/complex_14_B_d.gif","images/stimuli/spore_stims/complex_14_A_d.gif","","","","","5","complex_similar","images/stimuli/spore_stims/complex_14_A_d.gif","middle","","","","",""
"","1070.964999962598","html-keyboard-response","114","169167","0.0-24.0","SS1613101648211","pref_question","","51","","","","","<video width ='960' height = '540' style='padding-top:8%' autoplay muted><source src='images/stimuli/wall_pref.mp4' type='video/mp4'></video>","3","right","66%","5","","","","","","","",""
"","12.115000048652291","sequential-stimulus-presentation","115","170333","0.0-25.0","SS1613101648211","pref_reveal","","40","800","812.1150000486523","null","null","","","","","5","","","","deviant","","","",""
"","null","html-keyboard-response","116","171211","0.0-26.0-0.0","SS1613101648211","","","null","","","","","<p><img src= images/blank.png width =""200"" height = ""200"" style = ""float:right""></p><p><img src=images/blank.png width =""800"" height = ""200""></p>","","","","","","","","","","","",""
"","63.2549999281764","sequential-stimulus-presentation","117","172090","0.0-26.0-1.0","SS1613101648211","trial","","40","800","863.2549999281764","images/stimuli/spore_stims/complex_18_A_a.gif","images/stimuli/spore_stims/complex_04_B_a.gif","","","","","6","complex_dissimilar","images/stimuli/spore_stims/complex_04_B_a.gif","middle","","","","",""
"","null","html-keyboard-response","118","172921","0.0-26.0-0.1","SS1613101648211","","","null","","","","","<p><img src= images/blank.png width =""200"" height = ""200"" style = ""float:right""></p><p><img src=images/blank.png width =""800"" height = ""200""></p>","","","","","","","","","","","",""
"","113.12999995425344","sequential-stimulus-presentation","119","173851","0.0-26.0-1.1","SS1613101648211","trial","","40","800","913.1299999542534","images/stimuli/spore_stims/complex_18_A_a.gif","images/stimuli/spore_stims/complex_04_B_a.gif","","","","","6","complex_dissimilar","images/stimuli/spore_stims/complex_04_B_a.gif","middle","","","","",""
"","null","html-keyboard-response","120","174989","0.0-26.0-0.2","SS1613101648211","","","null","","","","","<p><img src= images/blank.png width =""200"" height = ""200"" style = ""float:right""></p><p><img src=images/blank.png width =""800"" height = ""200""></p>","","","","","","","","","","","",""
"","146.11499989405274","sequential-stimulus-presentation","121","176051","0.0-26.0-1.2","SS1613101648211","trial","","40","800","946.1149998940527","images/stimuli/spore_stims/complex_18_A_a.gif","images/stimuli/spore_stims/complex_04_B_a.gif","","","","","6","complex_dissimilar","images/stimuli/spore_stims/complex_04_B_a.gif","middle","","","","",""
"","null","html-keyboard-response","122","177367","0.0-26.0-0.3","SS1613101648211","","","null","","","","","<p><img src= images/blank.png width =""200"" height = ""200"" style = ""float:right""></p><p><img src=images/blank.png width =""800"" height = ""200""></p>","","","","","","","","","","","",""
"","2.9299999587237835","sequential-stimulus-presentation","123","178191","0.0-26.0-1.3","SS1613101648211","trial","","40","800","802.9299999587238","images/stimuli/spore_stims/complex_18_A_a.gif","images/stimuli/spore_stims/complex_04_B_a.gif","","","","","6","complex_dissimilar","images/stimuli/spore_stims/complex_04_B_a.gif","middle","","","","",""
"","null","html-keyboard-response","124","179131","0.0-26.0-0.4","SS1613101648211","","","null","","","","","<p><img src= images/blank.png width =""200"" height = ""200"" style = ""float:right""></p><p><img src=images/blank.png width =""800"" height = ""200""></p>","","","","","","","","","","","",""
"","27.925000060349703","sequential-stimulus-presentation","125","180368","0.0-26.0-1.4","SS1613101648211","trial","","40","800","827.9250000603497","images/stimuli/spore_stims/complex_18_A_a.gif","images/stimuli/spore_stims/complex_04_B_a.gif","","","","","6","complex_dissimilar","images/stimuli/spore_stims/complex_04_B_a.gif","middle","","","","",""
"","null","html-keyboard-response","126","181511","0.0-26.0-0.5","SS1613101648211","","","null","","","","","<p><img src= images/blank.png width =""200"" height = ""200"" style = ""float:right""></p><p><img src=images/blank.png width =""800"" height = ""200""></p>","","","","","","","","","","","",""
"","17.60500017553568","sequential-stimulus-presentation","127","182389","0.0-26.0-1.5","SS1613101648211","trial","","40","800","817.6050001755357","images/stimuli/spore_stims/complex_18_A_a.gif","images/stimuli/spore_stims/complex_04_B_a.gif","","","","","6","complex_dissimilar","images/stimuli/spore_stims/complex_04_B_a.gif","middle","","","","",""
"","null","html-keyboard-response","128","183497","0.0-26.0-0.6","SS1613101648211","","","null","","","","","<p><img src= images/blank.png width =""200"" height = ""200"" style = ""float:right""></p><p><img src=images/blank.png width =""800"" height = ""200""></p>","","","","","","","","","","","",""
"","81.26999996602535","sequential-stimulus-presentation","129","184463","0.0-26.0-1.6","SS1613101648211","trial","","40","800","881.2699999660254","images/stimuli/spore_stims/complex_18_A_a.gif","images/stimuli/spore_stims/complex_04_B_a.gif","","","","","6","complex_dissimilar","images/stimuli/spore_stims/complex_18_A_a.gif","left","","","","",""
"","null","html-keyboard-response","130","185293","0.0-26.0-0.7","SS1613101648211","","","null","","","","","<p><img src= images/blank.png width =""200"" height = ""200"" style = ""float:right""></p><p><img src=images/blank.png width =""800"" height = ""200""></p>","","","","","","","","","","","",""
"","37.97000017948449","sequential-stimulus-presentation","131","186195","0.0-26.0-1.7","SS1613101648211","trial","","40","800","837.9700001794845","images/stimuli/spore_stims/complex_18_A_a.gif","images/stimuli/spore_stims/complex_04_B_a.gif","","","","","6","complex_dissimilar","images/stimuli/spore_stims/complex_04_B_a.gif","middle","","","","",""
"","1157.439999980852","html-keyboard-response","132","187380","0.0-27.0","SS1613101648211","pref_question","","51","","","","","<video width ='960' height = '540' style='padding-top:8%' autoplay muted><source src='images/stimuli/wall_pref.mp4' type='video/mp4'></video>","3","right","66%","6","","","","","","","",""
"","171.58999992534518","sequential-stimulus-presentation","133","188372","0.0-28.0","SS1613101648211","pref_reveal","","40","800","971.5899999253452","null","null","","","","","6","","","","novel","","","",""
"","null","html-keyboard-response","134","189232","0.0-29.0-0.0","SS1613101648211","","","null","","","","","<p><img src= images/blank.png width =""200"" height = ""200"" style = ""float:right""></p><p><img src=images/blank.png width =""800"" height = ""200""></p>","","","","","","","","","","","",""
"","162.4799999408424","sequential-stimulus-presentation","135","190229","0.0-29.0-1.0","SS1613101648211","trial","","40","800","962.4799999408424","images/stimuli/spore_stims/simple_16_B_d.gif","images/stimuli/spore_stims/simple_20_B_b.gif","","","","","7","simple_dissimilar","images/stimuli/spore_stims/simple_20_B_b.gif","middle","","","","",""
"","null","html-keyboard-response","136","191132","0.0-29.0-0.1","SS1613101648211","","","null","","","","","<p><img src= images/blank.png width =""200"" height = ""200"" style = ""float:right""></p><p><img src=images/blank.png width =""800"" height = ""200""></p>","","","","","","","","","","","",""
"","144.79499985463917","sequential-stimulus-presentation","137","192092","0.0-29.0-1.1","SS1613101648211","trial","","40","800","944.7949998546392","images/stimuli/spore_stims/simple_16_B_d.gif","images/stimuli/spore_stims/simple_20_B_b.gif","","","","","7","simple_dissimilar","images/stimuli/spore_stims/simple_20_B_b.gif","middle","","","","",""
"","null","html-keyboard-response","138","193274","0.0-29.0-0.2","SS1613101648211","","","null","","","","","<p><img src= images/blank.png width =""200"" height = ""200"" style = ""float:right""></p><p><img src=images/blank.png width =""800"" height = ""200""></p>","","","","","","","","","","","",""
"","430.1200001500547","sequential-stimulus-presentation","139","194595","0.0-29.0-1.2","SS1613101648211","trial","","40","800","1230.1200001500547","images/stimuli/spore_stims/simple_16_B_d.gif","images/stimuli/spore_stims/simple_20_B_b.gif","","","","","7","simple_dissimilar","images/stimuli/spore_stims/simple_20_B_b.gif","middle","","","","",""
"","null","html-keyboard-response","140","195800","0.0-29.0-0.3","SS1613101648211","","","null","","","","","<p><img src= images/blank.png width =""200"" height = ""200"" style = ""float:right""></p><p><img src=images/blank.png width =""800"" height = ""200""></p>","","","","","","","","","","","",""
"","205.39999986067414","sequential-stimulus-presentation","141","196830","0.0-29.0-1.3","SS1613101648211","trial","","40","800","1005.3999998606741","images/stimuli/spore_stims/simple_16_B_d.gif","images/stimuli/spore_stims/simple_20_B_b.gif","","","","","7","simple_dissimilar","images/stimuli/spore_stims/simple_20_B_b.gif","middle","","","","",""
"","null","html-keyboard-response","142","197653","0.0-29.0-0.4","SS1613101648211","","","null","","","","","<p><img src= images/blank.png width =""200"" height = ""200"" style = ""float:right""></p><p><img src=images/blank.png width =""800"" height = ""200""></p>","","","","","","","","","","","",""
"","384.11500002257526","sequential-stimulus-presentation","143","198851","0.0-29.0-1.4","SS1613101648211","trial","","40","800","1184.1150000225753","images/stimuli/spore_stims/simple_16_B_d.gif","images/stimuli/spore_stims/simple_20_B_b.gif","","","","","7","simple_dissimilar","images/stimuli/spore_stims/simple_20_B_b.gif","middle","","","","",""
"","null","html-keyboard-response","144","199734","0.0-29.0-0.5","SS1613101648211","","","null","","","","","<p><img src= images/blank.png width =""200"" height = ""200"" style = ""float:right""></p><p><img src=images/blank.png width =""800"" height = ""200""></p>","","","","","","","","","","","",""
"","26.749999960884452","sequential-stimulus-presentation","145","200593","0.0-29.0-1.5","SS1613101648211","trial","","40","800","826.7499999608845","images/stimuli/spore_stims/simple_16_B_d.gif","images/stimuli/spore_stims/simple_20_B_b.gif","","","","","7","simple_dissimilar","images/stimuli/spore_stims/simple_16_B_d.gif","left","","","","",""
"","null","html-keyboard-response","146","201615","0.0-29.0-0.6","SS1613101648211","","","null","","","","","<p><img src= images/blank.png width =""200"" height = ""200"" style = ""float:right""></p><p><img src=images/blank.png width =""800"" height = ""200""></p>","","","","","","","","","","","",""
"","5.769999930635095","sequential-stimulus-presentation","147","202444","0.0-29.0-1.6","SS1613101648211","trial","","40","800","805.7699999306351","images/stimuli/spore_stims/simple_16_B_d.gif","images/stimuli/spore_stims/simple_20_B_b.gif","","","","","7","simple_dissimilar","images/stimuli/spore_stims/simple_20_B_b.gif","middle","","","","",""
"","null","html-keyboard-response","148","203332","0.0-29.0-0.7","SS1613101648211","","","null","","","","","<p><img src= images/blank.png width =""200"" height = ""200"" style = ""float:right""></p><p><img src=images/blank.png width =""800"" height = ""200""></p>","","","","","","","","","","","",""
"","325.3299999050796","sequential-stimulus-presentation","149","204481","0.0-29.0-1.7","SS1613101648211","trial","","40","800","1125.3299999050796","images/stimuli/spore_stims/simple_16_B_d.gif","images/stimuli/spore_stims/simple_20_B_b.gif","","","","","7","simple_dissimilar","images/stimuli/spore_stims/simple_20_B_b.gif","middle","","","","",""
"","1289.5349999889731","html-keyboard-response","150","205778","0.0-30.0","SS1613101648211","pref_question","","50","","","","","<video width ='960' height = '540' style='padding-top:8%' autoplay muted><source src='images/stimuli/wall_pref.mp4' type='video/mp4'></video>","2","middle","45%","7","","","","","","","",""
"","221.28499997779727","sequential-stimulus-presentation","151","206817","0.0-31.0","SS1613101648211","pref_reveal","","40","800","1021.2849999777973","null","null","","","","","7","","","","background","","","",""
"","null","html-keyboard-response","152","207857","0.0-32.0-0.0","SS1613101648211","","","null","","","","","<p><img src= images/blank.png width =""200"" height = ""200"" style = ""float:right""></p><p><img src=images/blank.png width =""800"" height = ""200""></p>","","","","","","","","","","","",""
"","504.21499996446073","sequential-stimulus-presentation","153","209195","0.0-32.0-1.0","SS1613101648211","trial","","40","800","1304.2149999644607","images/stimuli/spore_stims/simple_19_B_c.gif","images/stimuli/spore_stims/simple_19_A_c.gif","","","","","8","simple_similar","images/stimuli/spore_stims/simple_19_A_c.gif","middle","","","","",""
"","null","html-keyboard-response","154","210488","0.0-32.0-0.1","SS1613101648211","","","null","","","","","<p><img src= images/blank.png width =""200"" height = ""200"" style = ""float:right""></p><p><img src=images/blank.png width =""800"" height = ""200""></p>","","","","","","","","","","","",""
"","93.93499977886677","sequential-stimulus-presentation","155","211395","0.0-32.0-1.1","SS1613101648211","trial","","40","800","893.9349997788668","images/stimuli/spore_stims/simple_19_B_c.gif","images/stimuli/spore_stims/simple_19_A_c.gif","","","","","8","simple_similar","images/stimuli/spore_stims/simple_19_A_c.gif","middle","","","","",""
"","null","html-keyboard-response","156","212298","0.0-32.0-0.2","SS1613101648211","","","null","","","","","<p><img src= images/blank.png width =""200"" height = ""200"" style = ""float:right""></p><p><img src=images/blank.png width =""800"" height = ""200""></p>","","","","","","","","","","","",""
"","452.71500013768673","sequential-stimulus-presentation","157","213579","0.0-32.0-1.2","SS1613101648211","trial","","40","800","1252.7150001376867","images/stimuli/spore_stims/simple_19_B_c.gif","images/stimuli/spore_stims/simple_19_A_c.gif","","","","","8","simple_similar","images/stimuli/spore_stims/simple_19_A_c.gif","middle","","","","",""
"","null","html-keyboard-response","158","214779","0.0-32.0-0.3","SS1613101648211","","","null","","","","","<p><img src= images/blank.png width =""200"" height = ""200"" style = ""float:right""></p><p><img src=images/blank.png width =""800"" height = ""200""></p>","","","","","","","","","","","",""
"","499.13499993272126","sequential-stimulus-presentation","159","216118","0.0-32.0-1.3","SS1613101648211","trial","","40","800","1299.1349999327213","images/stimuli/spore_stims/simple_19_B_c.gif","images/stimuli/spore_stims/simple_19_A_c.gif","","","","","8","simple_similar","images/stimuli/spore_stims/simple_19_A_c.gif","middle","","","","",""
"","null","html-keyboard-response","160","217337","0.0-32.0-0.4","SS1613101648211","","","null","","","","","<p><img src= images/blank.png width =""200"" height = ""200"" style = ""float:right""></p><p><img src=images/blank.png width =""800"" height = ""200""></p>","","","","","","","","","","","",""
"","639.5600000396371","sequential-stimulus-presentation","161","218819","0.0-32.0-1.4","SS1613101648211","trial","","40","800","1439.560000039637","images/stimuli/spore_stims/simple_19_B_c.gif","images/stimuli/spore_stims/simple_19_A_c.gif","","","","","8","simple_similar","images/stimuli/spore_stims/simple_19_A_c.gif","middle","","","","",""
"","null","html-keyboard-response","162","219661","0.0-32.0-0.5","SS1613101648211","","","null","","","","","<p><img src= images/blank.png width =""200"" height = ""200"" style = ""float:right""></p><p><img src=images/blank.png width =""800"" height = ""200""></p>","","","","","","","","","","","",""
"","779.660000000149","sequential-stimulus-presentation","163","221259","0.0-32.0-1.5","SS1613101648211","trial","","40","800","1579.660000000149","images/stimuli/spore_stims/simple_19_B_c.gif","images/stimuli/spore_stims/simple_19_A_c.gif","","","","","8","simple_similar","images/stimuli/spore_stims/simple_19_A_c.gif","middle","","","","",""
"","null","html-keyboard-response","164","222302","0.0-32.0-0.6","SS1613101648211","","","null","","","","","<p><img src= images/blank.png width =""200"" height = ""200"" style = ""float:right""></p><p><img src=images/blank.png width =""800"" height = ""200""></p>","","","","","","","","","","","",""
"","424.7049998957664","sequential-stimulus-presentation","165","223563","0.0-32.0-1.6","SS1613101648211","trial","","40","800","1224.7049998957664","images/stimuli/spore_stims/simple_19_B_c.gif","images/stimuli/spore_stims/simple_19_A_c.gif","","","","","8","simple_similar","images/stimuli/spore_stims/simple_19_B_c.gif","left","","","","",""
"","null","html-keyboard-response","166","224391","0.0-32.0-0.7","SS1613101648211","","","null","","","","","<p><img src= images/blank.png width =""200"" height = ""200"" style = ""float:right""></p><p><img src=images/blank.png width =""800"" height = ""200""></p>","","","","","","","","","","","",""
"","169.3149998318404","sequential-stimulus-presentation","167","225381","0.0-32.0-1.7","SS1613101648211","trial","","40","800","969.3149998318404","images/stimuli/spore_stims/simple_19_B_c.gif","images/stimuli/spore_stims/simple_19_A_c.gif","","","","","8","simple_similar","images/stimuli/spore_stims/simple_19_A_c.gif","middle","","","","",""
"","1125.9500000160187","html-keyboard-response","168","226529","0.0-33.0","SS1613101648211","pref_question","","49","","","","","<video width ='960' height = '540' style='padding-top:8%' autoplay muted><source src='images/stimuli/wall_pref.mp4' type='video/mp4'></video>","1","left","25%","8","","","","","","","",""
"","808.2050001248717","sequential-stimulus-presentation","169","228155","0.0-34.0","SS1613101648211","pref_reveal","","40","800","1608.2050001248717","null","null","","","","","8","","","","deviant","","","",""
"","null","html-keyboard-response","170","229430","0.0-35.0-0.0","SS1613101648211","","","null","","","","","<p><img src= images/blank.png width =""200"" height = ""200"" style = ""float:right""></p><p><img src=images/blank.png width =""800"" height = ""200""></p>","","","","","","","","","","","",""
"","122.72499990649521","sequential-stimulus-presentation","171","230386","0.0-35.0-1.0","SS1613101648211","trial","","40","800","922.7249999064952","images/stimuli/spore_stims/simple_15_B_a.gif","images/stimuli/spore_stims/simple_08_B_a.gif","","","","","9","simple_dissimilar","images/stimuli/spore_stims/simple_08_B_a.gif","middle","","","","",""
"","null","html-keyboard-response","172","231529","0.0-35.0-0.1","SS1613101648211","","","null","","","","","<p><img src= images/blank.png width =""200"" height = ""200"" style = ""float:right""></p><p><img src=images/blank.png width =""800"" height = ""200""></p>","","","","","","","","","","","",""
"","12.28999998420477","sequential-stimulus-presentation","173","232523","0.0-35.0-1.1","SS1613101648211","trial","","40","800","812.2899999842048","images/stimuli/spore_stims/simple_15_B_a.gif","images/stimuli/spore_stims/simple_08_B_a.gif","","","","","9","simple_dissimilar","images/stimuli/spore_stims/simple_08_B_a.gif","middle","","","","",""
"","null","html-keyboard-response","174","233405","0.0-35.0-0.2","SS1613101648211","","","null","","","","","<p><img src= images/blank.png width =""200"" height = ""200"" style = ""float:right""></p><p><img src=images/blank.png width =""800"" height = ""200""></p>","","","","","","","","","","","",""
"","2.004999900236726","sequential-stimulus-presentation","175","234261","0.0-35.0-1.2","SS1613101648211","trial","","40","800","802.0049999002367","images/stimuli/spore_stims/simple_15_B_a.gif","images/stimuli/spore_stims/simple_08_B_a.gif","","","","","9","simple_dissimilar","images/stimuli/spore_stims/simple_08_B_a.gif","middle","","","","",""
"","null","html-keyboard-response","176","235114","0.0-35.0-0.3","SS1613101648211","","","null","","","","","<p><img src= images/blank.png width =""200"" height = ""200"" style = ""float:right""></p><p><img src=images/blank.png width =""800"" height = ""200""></p>","","","","","","","","","","","",""
"","13.414999935775995","sequential-stimulus-presentation","177","235961","0.0-35.0-1.3","SS1613101648211","trial","","40","800","813.414999935776","images/stimuli/spore_stims/simple_15_B_a.gif","images/stimuli/spore_stims/simple_08_B_a.gif","","","","","9","simple_dissimilar","images/stimuli/spore_stims/simple_15_B_a.gif","right","","","","",""
"","null","html-keyboard-response","178","237116","0.0-35.0-0.4","SS1613101648211","","","null","","","","","<p><img src= images/blank.png width =""200"" height = ""200"" style = ""float:right""></p><p><img src=images/blank.png width =""800"" height = ""200""></p>","","","","","","","","","","","",""
"","162.90499991737306","sequential-stimulus-presentation","179","238106","0.0-35.0-1.4","SS1613101648211","trial","","40","800","962.9049999173731","images/stimuli/spore_stims/simple_15_B_a.gif","images/stimuli/spore_stims/simple_08_B_a.gif","","","","","9","simple_dissimilar","images/stimuli/spore_stims/simple_08_B_a.gif","middle","","","","",""
"","null","html-keyboard-response","180","239300","0.0-35.0-0.5","SS1613101648211","","","null","","","","","<p><img src= images/blank.png width =""200"" height = ""200"" style = ""float:right""></p><p><img src=images/blank.png width =""800"" height = ""200""></p>","","","","","","","","","","","",""
"","145.46999987214804","sequential-stimulus-presentation","181","240410","0.0-35.0-1.5","SS1613101648211","trial","","40","800","945.469999872148","images/stimuli/spore_stims/simple_15_B_a.gif","images/stimuli/spore_stims/simple_08_B_a.gif","","","","","9","simple_dissimilar","images/stimuli/spore_stims/simple_08_B_a.gif","middle","","","","",""
"","null","html-keyboard-response","182","241596","0.0-35.0-0.6","SS1613101648211","","","null","","","","","<p><img src= images/blank.png width =""200"" height = ""200"" style = ""float:right""></p><p><img src=images/blank.png width =""800"" height = ""200""></p>","","","","","","","","","","","",""
"","146.2299998383969","sequential-stimulus-presentation","183","242574","0.0-35.0-1.6","SS1613101648211","trial","","40","800","946.2299998383969","images/stimuli/spore_stims/simple_15_B_a.gif","images/stimuli/spore_stims/simple_08_B_a.gif","","","","","9","simple_dissimilar","images/stimuli/spore_stims/simple_08_B_a.gif","middle","","","","",""
"","null","html-keyboard-response","184","243782","0.0-35.0-0.7","SS1613101648211","","","null","","","","","<p><img src= images/blank.png width =""200"" height = ""200"" style = ""float:right""></p><p><img src=images/blank.png width =""800"" height = ""200""></p>","","","","","","","","","","","",""
"","646.5399998705834","sequential-stimulus-presentation","185","245244","0.0-35.0-1.7","SS1613101648211","trial","","40","800","1446.5399998705834","images/stimuli/spore_stims/simple_15_B_a.gif","images/stimuli/spore_stims/simple_08_B_a.gif","","","","","9","simple_dissimilar","images/stimuli/spore_stims/simple_08_B_a.gif","middle","","","","",""
"","1298.454999923706","html-keyboard-response","186","246563","0.0-36.0","SS1613101648211","pref_question","","49","","","","","<video width ='960' height = '540' style='padding-top:8%' autoplay muted><source src='images/stimuli/wall_pref.mp4' type='video/mp4'></video>","1","left","25%","9","","","","","","","",""
"","5.2900000009685755","sequential-stimulus-presentation","187","247402","0.0-37.0","SS1613101648211","pref_reveal","","40","800","805.2900000009686","null","null","","","","","9","","","","novel","","","",""
"","null","html-keyboard-response","188","248685","0.0-38.0-0.0","SS1613101648211","","","null","","","","","<p><img src= images/blank.png width =""200"" height = ""200"" style = ""float:right""></p><p><img src=images/blank.png width =""800"" height = ""200""></p>","","","","","","","","","","","",""
"","321.0899999830872","sequential-stimulus-presentation","189","249844","0.0-38.0-1.0","SS1613101648211","trial","","40","800","1121.0899999830872","images/stimuli/spore_stims/complex_08_B_d.gif","images/stimuli/spore_stims/complex_18_B_b.gif","","","","","10","complex_dissimilar","images/stimuli/spore_stims/complex_18_B_b.gif","left","","","","",""
"","null","html-keyboard-response","190","250926","0.0-38.0-0.1","SS1613101648211","","","null","","","","","<p><img src= images/blank.png width =""200"" height = ""200"" style = ""float:right""></p><p><img src=images/blank.png width =""800"" height = ""200""></p>","","","","","","","","","","","",""
"","212.5450000166893","sequential-stimulus-presentation","191","252109","0.0-38.0-1.1","SS1613101648211","trial","","40","800","1012.5450000166893","images/stimuli/spore_stims/complex_08_B_d.gif","images/stimuli/spore_stims/complex_18_B_b.gif","","","","","10","complex_dissimilar","images/stimuli/spore_stims/complex_18_B_b.gif","left","","","","",""
"","null","html-keyboard-response","192","252982","0.0-38.0-0.2","SS1613101648211","","","null","","","","","<p><img src= images/blank.png width =""200"" height = ""200"" style = ""float:right""></p><p><img src=images/blank.png width =""800"" height = ""200""></p>","","","","","","","","","","","",""
"","520.5000001005828","sequential-stimulus-presentation","193","254323","0.0-38.0-1.2","SS1613101648211","trial","","40","800","1320.5000001005828","images/stimuli/spore_stims/complex_08_B_d.gif","images/stimuli/spore_stims/complex_18_B_b.gif","","","","","10","complex_dissimilar","images/stimuli/spore_stims/complex_18_B_b.gif","left","","","","",""
"","null","html-keyboard-response","194","255425","0.0-38.0-0.3","SS1613101648211","","","null","","","","","<p><img src= images/blank.png width =""200"" height = ""200"" style = ""float:right""></p><p><img src=images/blank.png width =""800"" height = ""200""></p>","","","","","","","","","","","",""
"","41.93999990820885","sequential-stimulus-presentation","195","256301","0.0-38.0-1.3","SS1613101648211","trial","","40","800","841.9399999082088","images/stimuli/spore_stims/complex_08_B_d.gif","images/stimuli/spore_stims/complex_18_B_b.gif","","","","","10","complex_dissimilar","images/stimuli/spore_stims/complex_18_B_b.gif","left","","","","",""
"","null","html-keyboard-response","196","257347","0.0-38.0-0.4","SS1613101648211","","","null","","","","","<p><img src= images/blank.png width =""200"" height = ""200"" style = ""float:right""></p><p><img src=images/blank.png width =""800"" height = ""200""></p>","","","","","","","","","","","",""
"","71.07999990694225","sequential-stimulus-presentation","197","258243","0.0-38.0-1.4","SS1613101648211","trial","","40","800","871.0799999069422","images/stimuli/spore_stims/complex_08_B_d.gif","images/stimuli/spore_stims/complex_18_B_b.gif","","","","","10","complex_dissimilar","images/stimuli/spore_stims/complex_18_B_b.gif","left","","","","",""
"","null","html-keyboard-response","198","259358","0.0-38.0-0.5","SS1613101648211","","","null","","","","","<p><img src= images/blank.png width =""200"" height = ""200"" style = ""float:right""></p><p><img src=images/blank.png width =""800"" height = ""200""></p>","","","","","","","","","","","",""
"","85.33999999053776","sequential-stimulus-presentation","199","260406","0.0-38.0-1.5","SS1613101648211","trial","","40","800","885.3399999905378","images/stimuli/spore_stims/complex_08_B_d.gif","images/stimuli/spore_stims/complex_18_B_b.gif","","","","","10","complex_dissimilar","images/stimuli/spore_stims/complex_18_B_b.gif","left","","","","",""
"","null","html-keyboard-response","200","261563","0.0-38.0-0.6","SS1613101648211","","","null","","","","","<p><img src= images/blank.png width =""200"" height = ""200"" style = ""float:right""></p><p><img src=images/blank.png width =""800"" height = ""200""></p>","","","","","","","","","","","",""
"","229.35499995946884","sequential-stimulus-presentation","201","262608","0.0-38.0-1.6","SS1613101648211","trial","","40","800","1029.3549999594688","images/stimuli/spore_stims/complex_08_B_d.gif","images/stimuli/spore_stims/complex_18_B_b.gif","","","","","10","complex_dissimilar","images/stimuli/spore_stims/complex_18_B_b.gif","left","","","","",""
"","null","html-keyboard-response","202","263557","0.0-38.0-0.7","SS1613101648211","","","null","","","","","<p><img src= images/blank.png width =""200"" height = ""200"" style = ""float:right""></p><p><img src=images/blank.png width =""800"" height = ""200""></p>","","","","","","","","","","","",""
"","316.02000002749264","sequential-stimulus-presentation","203","264708","0.0-38.0-1.7","SS1613101648211","trial","","40","800","1116.0200000274926","images/stimuli/spore_stims/complex_08_B_d.gif","images/stimuli/spore_stims/complex_18_B_b.gif","","","","","10","complex_dissimilar","images/stimuli/spore_stims/complex_08_B_d.gif","middle","","","","",""
"","1146.394999930635","html-keyboard-response","204","265863","0.0-39.0","SS1613101648211","pref_question","","49","","","","","<video width ='960' height = '540' style='padding-top:8%' autoplay muted><source src='images/stimuli/wall_pref.mp4' type='video/mp4'></video>","1","left","25%","10","","","","","","","",""
"","762.1700000017881","sequential-stimulus-presentation","205","267445","0.0-40.0","SS1613101648211","pref_reveal","","40","800","1562.1700000017881","null","null","","","","","10","","","","background","","","",""
"","null","html-keyboard-response","206","268428","0.0-41.0-0.0","SS1613101648211","","","null","","","","","<p><img src= images/blank.png width =""200"" height = ""200"" style = ""float:right""></p><p><img src=images/blank.png width =""800"" height = ""200""></p>","","","","","","","","","","","",""
"","556.1750000342727","sequential-stimulus-presentation","207","269834","0.0-41.0-1.0","SS1613101648211","trial","","40","800","1356.1750000342727","images/stimuli/spore_stims/complex_07_A_d.gif","images/stimuli/spore_stims/complex_09_A_b.gif","","","","","11","complex_dissimilar","images/stimuli/spore_stims/complex_09_A_b.gif","right","","","","",""
"","null","html-keyboard-response","208","270724","0.0-41.0-0.1","SS1613101648211","","","null","","","","","<p><img src= images/blank.png width =""200"" height = ""200"" style = ""float:right""></p><p><img src=images/blank.png width =""800"" height = ""200""></p>","","","","","","","","","","","",""
"","0.9949998930096626","sequential-stimulus-presentation","209","271556","0.0-41.0-1.1","SS1613101648211","trial","","40","800","800.9949998930097","images/stimuli/spore_stims/complex_07_A_d.gif","images/stimuli/spore_stims/complex_09_A_b.gif","","","","","11","complex_dissimilar","images/stimuli/spore_stims/complex_09_A_b.gif","right","","","","",""
"","null","html-keyboard-response","210","272617","0.0-41.0-0.2","SS1613101648211","","","null","","","","","<p><img src= images/blank.png width =""200"" height = ""200"" style = ""float:right""></p><p><img src=images/blank.png width =""800"" height = ""200""></p>","","","","","","","","","","","",""
"","682.3450000956655","sequential-stimulus-presentation","211","274146","0.0-41.0-1.2","SS1613101648211","trial","","40","800","1482.3450000956655","images/stimuli/spore_stims/complex_07_A_d.gif","images/stimuli/spore_stims/complex_09_A_b.gif","","","","","11","complex_dissimilar","images/stimuli/spore_stims/complex_07_A_d.gif","middle","","","","",""
"","null","html-keyboard-response","212","275205","0.0-41.0-0.3","SS1613101648211","","","null","","","","","<p><img src= images/blank.png width =""200"" height = ""200"" style = ""float:right""></p><p><img src=images/blank.png width =""800"" height = ""200""></p>","","","","","","","","","","","",""
"","703.5700001288205","sequential-stimulus-presentation","213","276722","0.0-41.0-1.3","SS1613101648211","trial","","40","800","1503.5700001288205","images/stimuli/spore_stims/complex_07_A_d.gif","images/stimuli/spore_stims/complex_09_A_b.gif","","","","","11","complex_dissimilar","images/stimuli/spore_stims/complex_09_A_b.gif","right","","","","",""
"","null","html-keyboard-response","214","277884","0.0-41.0-0.4","SS1613101648211","","","null","","","","","<p><img src= images/blank.png width =""200"" height = ""200"" style = ""float:right""></p><p><img src=images/blank.png width =""800"" height = ""200""></p>","","","","","","","","","","","",""
"","472.68000012263656","sequential-stimulus-presentation","215","279171","0.0-41.0-1.4","SS1613101648211","trial","","40","800","1272.6800001226366","images/stimuli/spore_stims/complex_07_A_d.gif","images/stimuli/spore_stims/complex_09_A_b.gif","","","","","11","complex_dissimilar","images/stimuli/spore_stims/complex_09_A_b.gif","right","","","","",""
"","null","html-keyboard-response","216","280393","0.0-41.0-0.5","SS1613101648211","","","null","","","","","<p><img src= images/blank.png width =""200"" height = ""200"" style = ""float:right""></p><p><img src=images/blank.png width =""800"" height = ""200""></p>","","","","","","","","","","","",""
"","644.1899999044836","sequential-stimulus-presentation","217","281876","0.0-41.0-1.5","SS1613101648211","trial","","40","800","1444.1899999044836","images/stimuli/spore_stims/complex_07_A_d.gif","images/stimuli/spore_stims/complex_09_A_b.gif","","","","","11","complex_dissimilar","images/stimuli/spore_stims/complex_09_A_b.gif","right","","","","",""
"","null","html-keyboard-response","218","282864","0.0-41.0-0.6","SS1613101648211","","","null","","","","","<p><img src= images/blank.png width =""200"" height = ""200"" style = ""float:right""></p><p><img src=images/blank.png width =""800"" height = ""200""></p>","","","","","","","","","","","",""
"","232.26000019349158","sequential-stimulus-presentation","219","283927","0.0-41.0-1.6","SS1613101648211","trial","","40","800","1032.2600001934916","images/stimuli/spore_stims/complex_07_A_d.gif","images/stimuli/spore_stims/complex_09_A_b.gif","","","","","11","complex_dissimilar","images/stimuli/spore_stims/complex_09_A_b.gif","right","","","","",""
"","null","html-keyboard-response","220","285113","0.0-41.0-0.7","SS1613101648211","","","null","","","","","<p><img src= images/blank.png width =""200"" height = ""200"" style = ""float:right""></p><p><img src=images/blank.png width =""800"" height = ""200""></p>","","","","","","","","","","","",""
"","489.03500009328127","sequential-stimulus-presentation","221","286419","0.0-41.0-1.7","SS1613101648211","trial","","40","800","1289.0350000932813","images/stimuli/spore_stims/complex_07_A_d.gif","images/stimuli/spore_stims/complex_09_A_b.gif","","","","","11","complex_dissimilar","images/stimuli/spore_stims/complex_09_A_b.gif","right","","","","",""
"","1291.9899998232722","html-keyboard-response","222","287721","0.0-42.0","SS1613101648211","pref_question","","49","","","","","<video width ='960' height = '540' style='padding-top:8%' autoplay muted><source src='images/stimuli/wall_pref.mp4' type='video/mp4'></video>","1","left","25%","11","","","","","","","",""
"","115.81500014290214","sequential-stimulus-presentation","223","288666","0.0-43.0","SS1613101648211","pref_reveal","","40","800","915.8150001429021","null","null","","","","","11","","","","novel","","","",""
"","null","html-keyboard-response","224","289574","0.0-44.0-0.0","SS1613101648211","","","null","","","","","<p><img src= images/blank.png width =""200"" height = ""200"" style = ""float:right""></p><p><img src=images/blank.png width =""800"" height = ""200""></p>","","","","","","","","","","","",""
"","779.8349999357015","sequential-stimulus-presentation","225","291218","0.0-44.0-1.0","SS1613101648211","trial","","40","800","1579.8349999357015","images/stimuli/spore_stims/simple_02_A_b.gif","images/stimuli/spore_stims/simple_08_A_d.gif","","","","","12","simple_dissimilar","images/stimuli/spore_stims/simple_08_A_d.gif","right","","","","",""
"","null","html-keyboard-response","226","292409","0.0-44.0-0.1","SS1613101648211","","","null","","","","","<p><img src= images/blank.png width =""200"" height = ""200"" style = ""float:right""></p><p><img src=images/blank.png width =""800"" height = ""200""></p>","","","","","","","","","","","",""
"","578.7349999882281","sequential-stimulus-presentation","227","293826","0.0-44.0-1.1","SS1613101648211","trial","","40","800","1378.734999988228","images/stimuli/spore_stims/simple_02_A_b.gif","images/stimuli/spore_stims/simple_08_A_d.gif","","","","","12","simple_dissimilar","images/stimuli/spore_stims/simple_08_A_d.gif","right","","","","",""
"","null","html-keyboard-response","228","294689","0.0-44.0-0.2","SS1613101648211","","","null","","","","","<p><img src= images/blank.png width =""200"" height = ""200"" style = ""float:right""></p><p><img src=images/blank.png width =""800"" height = ""200""></p>","","","","","","","","","","","",""
"","2.3750001564621925","sequential-stimulus-presentation","229","295572","0.0-44.0-1.2","SS1613101648211","trial","","40","800","802.3750001564622","images/stimuli/spore_stims/simple_02_A_b.gif","images/stimuli/spore_stims/simple_08_A_d.gif","","","","","12","simple_dissimilar","images/stimuli/spore_stims/simple_02_A_b.gif","middle","","","","",""
"","null","html-keyboard-response","230","296847","0.0-44.0-0.3","SS1613101648211","","","null","","","","","<p><img src= images/blank.png width =""200"" height = ""200"" style = ""float:right""></p><p><img src=images/blank.png width =""800"" height = ""200""></p>","","","","","","","","","","","",""
"","38.20500010624528","sequential-stimulus-presentation","231","297821","0.0-44.0-1.3","SS1613101648211","trial","","40","800","838.2050001062453","images/stimuli/spore_stims/simple_02_A_b.gif","images/stimuli/spore_stims/simple_08_A_d.gif","","","","","12","simple_dissimilar","images/stimuli/spore_stims/simple_08_A_d.gif","right","","","","",""
"","null","html-keyboard-response","232","298841","0.0-44.0-0.4","SS1613101648211","","","null","","","","","<p><img src= images/blank.png width =""200"" height = ""200"" style = ""float:right""></p><p><img src=images/blank.png width =""800"" height = ""200""></p>","","","","","","","","","","","",""
"","668.5849998611957","sequential-stimulus-presentation","233","300323","0.0-44.0-1.4","SS1613101648211","trial","","40","800","1468.5849998611957","images/stimuli/spore_stims/simple_02_A_b.gif","images/stimuli/spore_stims/simple_08_A_d.gif","","","","","12","simple_dissimilar","images/stimuli/spore_stims/simple_08_A_d.gif","right","","","","",""
"","null","html-keyboard-response","234","301503","0.0-44.0-0.5","SS1613101648211","","","null","","","","","<p><img src= images/blank.png width =""200"" height = ""200"" style = ""float:right""></p><p><img src=images/blank.png width =""800"" height = ""200""></p>","","","","","","","","","","","",""
"","334.27500003017485","sequential-stimulus-presentation","235","302663","0.0-44.0-1.5","SS1613101648211","trial","","40","800","1134.2750000301749","images/stimuli/spore_stims/simple_02_A_b.gif","images/stimuli/spore_stims/simple_08_A_d.gif","","","","","12","simple_dissimilar","images/stimuli/spore_stims/simple_08_A_d.gif","right","","","","",""
"","null","html-keyboard-response","236","303709","0.0-44.0-0.6","SS1613101648211","","","null","","","","","<p><img src= images/blank.png width =""200"" height = ""200"" style = ""float:right""></p><p><img src=images/blank.png width =""800"" height = ""200""></p>","","","","","","","","","","","",""
"","188.11500002630055","sequential-stimulus-presentation","237","304714","0.0-44.0-1.6","SS1613101648211","trial","","40","800","988.1150000263005","images/stimuli/spore_stims/simple_02_A_b.gif","images/stimuli/spore_stims/simple_08_A_d.gif","","","","","12","simple_dissimilar","images/stimuli/spore_stims/simple_08_A_d.gif","right","","","","",""
"","null","html-keyboard-response","238","305718","0.0-44.0-0.7","SS1613101648211","","","null","","","","","<p><img src= images/blank.png width =""200"" height = ""200"" style = ""float:right""></p><p><img src=images/blank.png width =""800"" height = ""200""></p>","","","","","","","","","","","",""
"","699.6550001204014","sequential-stimulus-presentation","239","307231","0.0-44.0-1.7","SS1613101648211","trial","","40","800","1499.6550001204014","images/stimuli/spore_stims/simple_02_A_b.gif","images/stimuli/spore_stims/simple_08_A_d.gif","","","","","12","simple_dissimilar","images/stimuli/spore_stims/simple_08_A_d.gif","right","","","","",""
"","1150.7550000678748","html-keyboard-response","240","308395","0.0-45.0","SS1613101648211","pref_question","","49","","","","","<video width ='960' height = '540' style='padding-top:8%' autoplay muted><source src='images/stimuli/wall_pref.mp4' type='video/mp4'></video>","1","left","25%","12","","","","","","","",""
"","498.8700000103563","sequential-stimulus-presentation","241","309731","0.0-46.0","SS1613101648211","pref_reveal","","40","800","1298.8700000103563","null","null","","","","","12","","","","novel","","","",""
"","null","html-keyboard-response","242","310693","0.0-47.0-0.0","SS1613101648211","","","null","","","","","<p><img src= images/blank.png width =""200"" height = ""200"" style = ""float:right""></p><p><img src=images/blank.png width =""800"" height = ""200""></p>","","","","","","","","","","","",""
"","693.0350000038743","sequential-stimulus-presentation","243","312220","0.0-47.0-1.0","SS1613101648211","trial","","40","800","1493.0350000038743","images/stimuli/spore_stims/simple_07_A_d.gif","images/stimuli/spore_stims/simple_07_B_d.gif","","","","","13","simple_similar","images/stimuli/spore_stims/simple_07_B_d.gif","right","","","","",""
"","null","html-keyboard-response","244","313371","0.0-47.0-0.1","SS1613101648211","","","null","","","","","<p><img src= images/blank.png width =""200"" height = ""200"" style = ""float:right""></p><p><img src=images/blank.png width =""800"" height = ""200""></p>","","","","","","","","","","","",""
"","117.38499999046326","sequential-stimulus-presentation","245","314320","0.0-47.0-1.1","SS1613101648211","trial","","40","800","917.3849999904633","images/stimuli/spore_stims/simple_07_A_d.gif","images/stimuli/spore_stims/simple_07_B_d.gif","","","","","13","simple_similar","images/stimuli/spore_stims/simple_07_B_d.gif","right","","","","",""
"","null","html-keyboard-response","246","315595","0.0-47.0-0.2","SS1613101648211","","","null","","","","","<p><img src= images/blank.png width =""200"" height = ""200"" style = ""float:right""></p><p><img src=images/blank.png width =""800"" height = ""200""></p>","","","","","","","","","","","",""
"","210.1000000257045","sequential-stimulus-presentation","247","316643","0.0-47.0-1.2","SS1613101648211","trial","","40","800","1010.1000000257045","images/stimuli/spore_stims/simple_07_A_d.gif","images/stimuli/spore_stims/simple_07_B_d.gif","","","","","13","simple_similar","images/stimuli/spore_stims/simple_07_B_d.gif","right","","","","",""
"","null","html-keyboard-response","248","317517","0.0-47.0-0.3","SS1613101648211","","","null","","","","","<p><img src= images/blank.png width =""200"" height = ""200"" style = ""float:right""></p><p><img src=images/blank.png width =""800"" height = ""200""></p>","","","","","","","","","","","",""
"","149.80000001378357","sequential-stimulus-presentation","249","318483","0.0-47.0-1.3","SS1613101648211","trial","","40","800","949.8000000137836","images/stimuli/spore_stims/simple_07_A_d.gif","images/stimuli/spore_stims/simple_07_B_d.gif","","","","","13","simple_similar","images/stimuli/spore_stims/simple_07_B_d.gif","right","","","","",""
"","null","html-keyboard-response","250","319679","0.0-47.0-0.4","SS1613101648211","","","null","","","","","<p><img src= images/blank.png width =""200"" height = ""200"" style = ""float:right""></p><p><img src=images/blank.png width =""800"" height = ""200""></p>","","","","","","","","","","","",""
"","27.55500003695488","sequential-stimulus-presentation","251","320617","0.0-47.0-1.4","SS1613101648211","trial","","40","800","827.5550000369549","images/stimuli/spore_stims/simple_07_A_d.gif","images/stimuli/spore_stims/simple_07_B_d.gif","","","","","13","simple_similar","images/stimuli/spore_stims/simple_07_B_d.gif","right","","","","",""
"","null","html-keyboard-response","252","321915","0.0-47.0-0.5","SS1613101648211","","","null","","","","","<p><img src= images/blank.png width =""200"" height = ""200"" style = ""float:right""></p><p><img src=images/blank.png width =""800"" height = ""200""></p>","","","","","","","","","","","",""
"","330.53999999538064","sequential-stimulus-presentation","253","323067","0.0-47.0-1.5","SS1613101648211","trial","","40","800","1130.5399999953806","images/stimuli/spore_stims/simple_07_A_d.gif","images/stimuli/spore_stims/simple_07_B_d.gif","","","","","13","simple_similar","images/stimuli/spore_stims/simple_07_B_d.gif","right","","","","",""
"","null","html-keyboard-response","254","324276","0.0-47.0-0.6","SS1613101648211","","","null","","","","","<p><img src= images/blank.png width =""200"" height = ""200"" style = ""float:right""></p><p><img src=images/blank.png width =""800"" height = ""200""></p>","","","","","","","","","","","",""
"","376.49499997496605","sequential-stimulus-presentation","255","325466","0.0-47.0-1.6","SS1613101648211","trial","","40","800","1176.494999974966","images/stimuli/spore_stims/simple_07_A_d.gif","images/stimuli/spore_stims/simple_07_B_d.gif","","","","","13","simple_similar","images/stimuli/spore_stims/simple_07_B_d.gif","right","","","","",""
"","null","html-keyboard-response","256","326374","0.0-47.0-0.7","SS1613101648211","","","null","","","","","<p><img src= images/blank.png width =""200"" height = ""200"" style = ""float:right""></p><p><img src=images/blank.png width =""800"" height = ""200""></p>","","","","","","","","","","","",""
"","260.950000025332","sequential-stimulus-presentation","257","327457","0.0-47.0-1.7","SS1613101648211","trial","","40","800","1060.950000025332","images/stimuli/spore_stims/simple_07_A_d.gif","images/stimuli/spore_stims/simple_07_B_d.gif","","","","","13","simple_similar","images/stimuli/spore_stims/simple_07_A_d.gif","left","","","","",""
"","1146.4949999935925","html-keyboard-response","258","328612","0.0-48.0","SS1613101648211","pref_question","","49","","","","","<video width ='960' height = '540' style='padding-top:8%' autoplay muted><source src='images/stimuli/wall_pref.mp4' type='video/mp4'></video>","1","left","25%","13","","","","","","","",""
"","241.55499995686114","sequential-stimulus-presentation","259","329667","0.0-49.0","SS1613101648211","pref_reveal","","40","800","1041.5549999568611","null","null","","","","","13","","","","deviant","","","",""
"","null","html-keyboard-response","260","330801","0.0-50.0-0.0","SS1613101648211","","","null","","","","","<p><img src= images/blank.png width =""200"" height = ""200"" style = ""float:right""></p><p><img src=images/blank.png width =""800"" height = ""200""></p>","","","","","","","","","","","",""
"","241.36999994516373","sequential-stimulus-presentation","261","331875","0.0-50.0-1.0","SS1613101648211","trial","","40","800","1041.3699999451637","images/stimuli/spore_stims/simple_18_A_a.gif","images/stimuli/spore_stims/simple_18_B_a.gif","","","","","14","simple_similar","images/stimuli/spore_stims/simple_18_B_a.gif","right","","","","",""
"","null","html-keyboard-response","262","333000","0.0-50.0-0.1","SS1613101648211","","","null","","","","","<p><img src= images/blank.png width =""200"" height = ""200"" style = ""float:right""></p><p><img src=images/blank.png width =""800"" height = ""200""></p>","","","","","","","","","","","",""
"","23.470000131055713","sequential-stimulus-presentation","263","333916","0.0-50.0-1.1","SS1613101648211","trial","","40","800","823.4700001310557","images/stimuli/spore_stims/simple_18_A_a.gif","images/stimuli/spore_stims/simple_18_B_a.gif","","","","","14","simple_similar","images/stimuli/spore_stims/simple_18_B_a.gif","right","","","","",""
"","null","html-keyboard-response","264","334805","0.0-50.0-0.2","SS1613101648211","","","null","","","","","<p><img src= images/blank.png width =""200"" height = ""200"" style = ""float:right""></p><p><img src=images/blank.png width =""800"" height = ""200""></p>","","","","","","","","","","","",""
"","217.02000009827316","sequential-stimulus-presentation","265","335837","0.0-50.0-1.2","SS1613101648211","trial","","40","800","1017.0200000982732","images/stimuli/spore_stims/simple_18_A_a.gif","images/stimuli/spore_stims/simple_18_B_a.gif","","","","","14","simple_similar","images/stimuli/spore_stims/simple_18_B_a.gif","right","","","","",""
"","null","html-keyboard-response","266","336944","0.0-50.0-0.3","SS1613101648211","","","null","","","","","<p><img src= images/blank.png width =""200"" height = ""200"" style = ""float:right""></p><p><img src=images/blank.png width =""800"" height = ""200""></p>","","","","","","","","","","","",""
"","47.0000000204891","sequential-stimulus-presentation","267","338013","0.0-50.0-1.3","SS1613101648211","trial","","40","800","847.0000000204891","images/stimuli/spore_stims/simple_18_A_a.gif","images/stimuli/spore_stims/simple_18_B_a.gif","","","","","14","simple_similar","images/stimuli/spore_stims/simple_18_B_a.gif","right","","","","",""
"","null","html-keyboard-response","268","338901","0.0-50.0-0.4","SS1613101648211","","","null","","","","","<p><img src= images/blank.png width =""200"" height = ""200"" style = ""float:right""></p><p><img src=images/blank.png width =""800"" height = ""200""></p>","","","","","","","","","","","",""
"","60.425000032410026","sequential-stimulus-presentation","269","339785","0.0-50.0-1.4","SS1613101648211","trial","","40","800","860.42500003241","images/stimuli/spore_stims/simple_18_A_a.gif","images/stimuli/spore_stims/simple_18_B_a.gif","","","","","14","simple_similar","images/stimuli/spore_stims/simple_18_B_a.gif","right","","","","",""
"","null","html-keyboard-response","270","340744","0.0-50.0-0.5","SS1613101648211","","","null","","","","","<p><img src= images/blank.png width =""200"" height = ""200"" style = ""float:right""></p><p><img src=images/blank.png width =""800"" height = ""200""></p>","","","","","","","","","","","",""
"","665.5699999537319","sequential-stimulus-presentation","271","342224","0.0-50.0-1.5","SS1613101648211","trial","","40","800","1465.569999953732","images/stimuli/spore_stims/simple_18_A_a.gif","images/stimuli/spore_stims/simple_18_B_a.gif","","","","","14","simple_similar","images/stimuli/spore_stims/simple_18_B_a.gif","right","","","","",""
"","null","html-keyboard-response","272","343085","0.0-50.0-0.6","SS1613101648211","","","null","","","","","<p><img src= images/blank.png width =""200"" height = ""200"" style = ""float:right""></p><p><img src=images/blank.png width =""800"" height = ""200""></p>","","","","","","","","","","","",""
"","272.40499993786216","sequential-stimulus-presentation","273","344171","0.0-50.0-1.6","SS1613101648211","trial","","40","800","1072.4049999378622","images/stimuli/spore_stims/simple_18_A_a.gif","images/stimuli/spore_stims/simple_18_B_a.gif","","","","","14","simple_similar","images/stimuli/spore_stims/simple_18_B_a.gif","right","","","","",""
"","null","html-keyboard-response","274","345260","0.0-50.0-0.7","SS1613101648211","","","null","","","","","<p><img src= images/blank.png width =""200"" height = ""200"" style = ""float:right""></p><p><img src=images/blank.png width =""800"" height = ""200""></p>","","","","","","","","","","","",""
"","34.014999866485596","sequential-stimulus-presentation","275","346115","0.0-50.0-1.7","SS1613101648211","trial","","40","800","834.0149998664856","images/stimuli/spore_stims/simple_18_A_a.gif","images/stimuli/spore_stims/simple_18_B_a.gif","","","","","14","simple_similar","images/stimuli/spore_stims/simple_18_A_a.gif","left","","","","",""
"","1240.5699999071658","html-keyboard-response","276","347364","0.0-51.0","SS1613101648211","pref_question","","51","","","","","<video width ='960' height = '540' style='padding-top:8%' autoplay muted><source src='images/stimuli/wall_pref.mp4' type='video/mp4'></video>","3","right","66%","14","","","","","","","",""
"","13.06500006467104","sequential-stimulus-presentation","277","348196","0.0-52.0","SS1613101648211","pref_reveal","","40","800","813.065000064671","null","null","","","","","14","","","","background","","","",""
"","null","html-keyboard-response","278","349345","0.0-53.0-0.0","SS1613101648211","","","null","","","","","<p><img src= images/blank.png width =""200"" height = ""200"" style = ""float:right""></p><p><img src=images/blank.png width =""800"" height = ""200""></p>","","","","","","","","","","","",""
"","13.389999978244305","sequential-stimulus-presentation","279","350180","0.0-53.0-1.0","SS1613101648211","trial","","40","800","813.3899999782443","images/stimuli/spore_stims/simple_10_A_b.gif","images/stimuli/spore_stims/simple_09_A_b.gif","","","","","15","simple_dissimilar","images/stimuli/spore_stims/simple_09_A_b.gif","middle","","","","",""
"","null","html-keyboard-response","280","351077","0.0-53.0-0.1","SS1613101648211","","","null","","","","","<p><img src= images/blank.png width =""200"" height = ""200"" style = ""float:right""></p><p><img src=images/blank.png width =""800"" height = ""200""></p>","","","","","","","","","","","",""
"","191.36500009335577","sequential-stimulus-presentation","281","352182","0.0-53.0-1.1","SS1613101648211","trial","","40","800","991.3650000933558","images/stimuli/spore_stims/simple_10_A_b.gif","images/stimuli/spore_stims/simple_09_A_b.gif","","","","","15","simple_dissimilar","images/stimuli/spore_stims/simple_09_A_b.gif","middle","","","","",""
"","null","html-keyboard-response","282","353020","0.0-53.0-0.2","SS1613101648211","","","null","","","","","<p><img src= images/blank.png width =""200"" height = ""200"" style = ""float:right""></p><p><img src=images/blank.png width =""800"" height = ""200""></p>","","","","","","","","","","","",""
"","44.400000013411045","sequential-stimulus-presentation","283","353879","0.0-53.0-1.2","SS1613101648211","trial","","40","800","844.400000013411","images/stimuli/spore_stims/simple_10_A_b.gif","images/stimuli/spore_stims/simple_09_A_b.gif","","","","","15","simple_dissimilar","images/stimuli/spore_stims/simple_09_A_b.gif","middle","","","","",""
"","null","html-keyboard-response","284","354778","0.0-53.0-0.3","SS1613101648211","","","null","","","","","<p><img src= images/blank.png width =""200"" height = ""200"" style = ""float:right""></p><p><img src=images/blank.png width =""800"" height = ""200""></p>","","","","","","","","","","","",""
"","13.44999996945262","sequential-stimulus-presentation","285","355620","0.0-53.0-1.3","SS1613101648211","trial","","40","800","813.4499999694526","images/stimuli/spore_stims/simple_10_A_b.gif","images/stimuli/spore_stims/simple_09_A_b.gif","","","","","15","simple_dissimilar","images/stimuli/spore_stims/simple_09_A_b.gif","middle","","","","",""
"","null","html-keyboard-response","286","356898","0.0-53.0-0.4","SS1613101648211","","","null","","","","","<p><img src= images/blank.png width =""200"" height = ""200"" style = ""float:right""></p><p><img src=images/blank.png width =""800"" height = ""200""></p>","","","","","","","","","","","",""
"","23.625000147148967","sequential-stimulus-presentation","287","357920","0.0-53.0-1.4","SS1613101648211","trial","","40","800","823.625000147149","images/stimuli/spore_stims/simple_10_A_b.gif","images/stimuli/spore_stims/simple_09_A_b.gif","","","","","15","simple_dissimilar","images/stimuli/spore_stims/simple_09_A_b.gif","middle","","","","",""
"","null","html-keyboard-response","288","358891","0.0-53.0-0.5","SS1613101648211","","","null","","","","","<p><img src= images/blank.png width =""200"" height = ""200"" style = ""float:right""></p><p><img src=images/blank.png width =""800"" height = ""200""></p>","","","","","","","","","","","",""
"","147.98500016331673","sequential-stimulus-presentation","289","359865","0.0-53.0-1.5","SS1613101648211","trial","","40","800","947.9850001633167","images/stimuli/spore_stims/simple_10_A_b.gif","images/stimuli/spore_stims/simple_09_A_b.gif","","","","","15","simple_dissimilar","images/stimuli/spore_stims/simple_09_A_b.gif","middle","","","","",""
"","null","html-keyboard-response","290","360862","0.0-53.0-0.6","SS1613101648211","","","null","","","","","<p><img src= images/blank.png width =""200"" height = ""200"" style = ""float:right""></p><p><img src=images/blank.png width =""800"" height = ""200""></p>","","","","","","","","","","","",""
"","244.78999990969896","sequential-stimulus-presentation","291","361931","0.0-53.0-1.6","SS1613101648211","trial","","40","800","1044.789999909699","images/stimuli/spore_stims/simple_10_A_b.gif","images/stimuli/spore_stims/simple_09_A_b.gif","","","","","15","simple_dissimilar","images/stimuli/spore_stims/simple_10_A_b.gif","left","","","","",""
"","null","html-keyboard-response","292","363027","0.0-53.0-0.7","SS1613101648211","","","null","","","","","<p><img src= images/blank.png width =""200"" height = ""200"" style = ""float:right""></p><p><img src=images/blank.png width =""800"" height = ""200""></p>","","","","","","","","","","","",""
"","289.6050000563264","sequential-stimulus-presentation","293","364171","0.0-53.0-1.7","SS1613101648211","trial","","40","800","1089.6050000563264","images/stimuli/spore_stims/simple_10_A_b.gif","images/stimuli/spore_stims/simple_09_A_b.gif","","","","","15","simple_dissimilar","images/stimuli/spore_stims/simple_09_A_b.gif","middle","","","","",""
"","1064.2200000584126","html-keyboard-response","294","365244","0.0-54.0","SS1613101648211","pref_question","","51","","","","","<video width ='960' height = '540' style='padding-top:8%' autoplay muted><source src='images/stimuli/wall_pref.mp4' type='video/mp4'></video>","3","right","66%","15","","","","","","","",""
"","124.25500014796853","sequential-stimulus-presentation","295","366204","0.0-55.0","SS1613101648211","pref_reveal","","40","800","924.2550001479685","null","null","","","","","15","","","","novel","","","",""
"","null","html-keyboard-response","296","367408","0.0-56.0-0.0","SS1613101648211","","","null","","","","","<p><img src= images/blank.png width =""200"" height = ""200"" style = ""float:right""></p><p><img src=images/blank.png width =""800"" height = ""200""></p>","","","","","","","","","","","",""
"","33.78499997779727","sequential-stimulus-presentation","297","368272","0.0-56.0-1.0","SS1613101648211","trial","","40","800","833.7849999777973","images/stimuli/spore_stims/complex_08_A_c.gif","images/stimuli/spore_stims/complex_14_B_d.gif","","","","","16","complex_dissimilar","images/stimuli/spore_stims/complex_14_B_d.gif","right","","","","",""
"","null","html-keyboard-response","298","369428","0.0-56.0-0.1","SS1613101648211","","","null","","","","","<p><img src= images/blank.png width =""200"" height = ""200"" style = ""float:right""></p><p><img src=images/blank.png width =""800"" height = ""200""></p>","","","","","","","","","","","",""
"","27.824999997392297","sequential-stimulus-presentation","299","370334","0.0-56.0-1.1","SS1613101648211","trial","","40","800","827.8249999973923","images/stimuli/spore_stims/complex_08_A_c.gif","images/stimuli/spore_stims/complex_14_B_d.gif","","","","","16","complex_dissimilar","images/stimuli/spore_stims/complex_14_B_d.gif","right","","","","",""
"","null","html-keyboard-response","300","371623","0.0-56.0-0.2","SS1613101648211","","","null","","","","","<p><img src= images/blank.png width =""200"" height = ""200"" style = ""float:right""></p><p><img src=images/blank.png width =""800"" height = ""200""></p>","","","","","","","","","","","",""
"","344.38000014051795","sequential-stimulus-presentation","301","372795","0.0-56.0-1.2","SS1613101648211","trial","","40","800","1144.380000140518","images/stimuli/spore_stims/complex_08_A_c.gif","images/stimuli/spore_stims/complex_14_B_d.gif","","","","","16","complex_dissimilar","images/stimuli/spore_stims/complex_14_B_d.gif","right","","","","",""
"","null","html-keyboard-response","302","373873","0.0-56.0-0.3","SS1613101648211","","","null","","","","","<p><img src= images/blank.png width =""200"" height = ""200"" style = ""float:right""></p><p><img src=images/blank.png width =""800"" height = ""200""></p>","","","","","","","","","","","",""
"","1.459999941289425","sequential-stimulus-presentation","303","374720","0.0-56.0-1.3","SS1613101648211","trial","","40","800","801.4599999412894","images/stimuli/spore_stims/complex_08_A_c.gif","images/stimuli/spore_stims/complex_14_B_d.gif","","","","","16","complex_dissimilar","images/stimuli/spore_stims/complex_14_B_d.gif","right","","","","",""
"","null","html-keyboard-response","304","376032","0.0-56.0-0.4","SS1613101648211","","","null","","","","","<p><img src= images/blank.png width =""200"" height = ""200"" style = ""float:right""></p><p><img src=images/blank.png width =""800"" height = ""200""></p>","","","","","","","","","","","",""
"","34.755000146105886","sequential-stimulus-presentation","305","376890","0.0-56.0-1.4","SS1613101648211","trial","","40","800","834.7550001461059","images/stimuli/spore_stims/complex_08_A_c.gif","images/stimuli/spore_stims/complex_14_B_d.gif","","","","","16","complex_dissimilar","images/stimuli/spore_stims/complex_14_B_d.gif","right","","","","",""
"","null","html-keyboard-response","306","377732","0.0-56.0-0.5","SS1613101648211","","","null","","","","","<p><img src= images/blank.png width =""200"" height = ""200"" style = ""float:right""></p><p><img src=images/blank.png width =""800"" height = ""200""></p>","","","","","","","","","","","",""
"","228.09500014409423","sequential-stimulus-presentation","307","378845","0.0-56.0-1.5","SS1613101648211","trial","","40","800","1028.0950001440942","images/stimuli/spore_stims/complex_08_A_c.gif","images/stimuli/spore_stims/complex_14_B_d.gif","","","","","16","complex_dissimilar","images/stimuli/spore_stims/complex_14_B_d.gif","right","","","","",""
"","null","html-keyboard-response","308","379760","0.0-56.0-0.6","SS1613101648211","","","null","","","","","<p><img src= images/blank.png width =""200"" height = ""200"" style = ""float:right""></p><p><img src=images/blank.png width =""800"" height = ""200""></p>","","","","","","","","","","","",""
"","167.90000000037253","sequential-stimulus-presentation","309","380756","0.0-56.0-1.6","SS1613101648211","trial","","40","800","967.9000000003725","images/stimuli/spore_stims/complex_08_A_c.gif","images/stimuli/spore_stims/complex_14_B_d.gif","","","","","16","complex_dissimilar","images/stimuli/spore_stims/complex_14_B_d.gif","right","","","","",""
"","null","html-keyboard-response","310","381642","0.0-56.0-0.7","SS1613101648211","","","null","","","","","<p><img src= images/blank.png width =""200"" height = ""200"" style = ""float:right""></p><p><img src=images/blank.png width =""800"" height = ""200""></p>","","","","","","","","","","","",""
"","45.24999996647239","sequential-stimulus-presentation","311","382528","0.0-56.0-1.7","SS1613101648211","trial","","40","800","845.2499999664724","images/stimuli/spore_stims/complex_08_A_c.gif","images/stimuli/spore_stims/complex_14_B_d.gif","","","","","16","complex_dissimilar","images/stimuli/spore_stims/complex_08_A_c.gif","middle","","","","",""
"","1122.5550000090152","html-keyboard-response","312","383676","0.0-57.0","SS1613101648211","pref_question","","50","","","","","<video width ='960' height = '540' style='padding-top:8%' autoplay muted><source src='images/stimuli/wall_pref.mp4' type='video/mp4'></video>","2","middle","45%","16","","","","","","","",""
