"view_history","rt","trial_type","trial_index","time_elapsed","internal_node_id","subject","stimulus_type","trial_stimulus","key_press","minimum_viewing_duration","trial_looking_time","block_deviant","block_background","stimulus","wall_pref","location","location_percent","block_number","block_type","stimulus_displayed","position_displayed","stim_type_selected","responses","question_order","stimulus_left","stimulus_right"
"[{""page_index"":0,""viewing_time"":15226.394999990589}]","15228.73499999696","instructions","0","15235","0.0-0.0","SS1613138381166","","","","","","","","","","","","","","","","","","","",""
"[{""page_index"":0,""viewing_time"":90106.1250000057},{""page_index"":1,""viewing_time"":10799.864999993588}]","100906.83500000159","instructions","1","118150","0.0-1.0","SS1613138381166","instructions","","","","","","","","","","","","","","","","","","",""
"","13337.854999990668","sequential-stimulus-presentation","2","132375","0.0-2.0","SS1613138381166","","","40","800","14137.854999990668","null","null","","","","","","","","","","","","",""
"","8124.1549999977","sequential-stimulus-presentation","3","141309","0.0-3.0","SS1613138381166","","","40","800","8924.1549999977","null","null","","","","","","","","","","","","",""
"[{""page_index"":0,""viewing_time"":5531.554999994114}]","5533.645000003162","instructions","4","146846","0.0-4.0","SS1613138381166","instructions","","","","","","","","","","","","","","","","","","",""
"","10776.834999996936","html-keyboard-response","5","157629","0.0-5.0","SS1613138381166","instructions","","49","","","","","<video width ='960' height = '540' autoplay muted><source src='images/stimuli/wall_pref.mp4' type='video/mp4'></video>","1","left","25%","","","","","","","","",""
"","5943.740000002435","sequential-stimulus-presentation","6","164396","0.0-6.0","SS1613138381166","pref_reveal","","40","800","6743.740000002435","null","null","","","","","","","","","","","","",""
"[{""page_index"":0,""viewing_time"":12747.189999994589},{""page_index"":1,""viewing_time"":5298.414999997476},{""page_index"":2,""viewing_time"":1855.3899999969872},{""page_index"":3,""viewing_time"":1048.9500000112457}]","20950.669999991078","instructions","7","185349","0.0-7.0","SS1613138381166","instructions","","","","","","","","","","","","","","","","","","",""
"","null","html-keyboard-response","8","186236","0.0-8.0-0.0","SS1613138381166","","","null","","","","","<p><img src= images/blank.png width =""200"" height = ""200"" style = ""float:right""></p><p><img src=images/blank.png width =""800"" height = ""200""></p>","","","","","","","","","","","",""
"","5867.209999996703","sequential-stimulus-presentation","9","192965","0.0-8.0-1.0","SS1613138381166","trial","","40","800","6667.209999996703","images/stimuli/spore_stims/complex_14_A_b.gif","images/stimuli/spore_stims/complex_09_B_d.gif","","","","","0","complex_dissimilar","images/stimuli/spore_stims/complex_09_B_d.gif","right","","","","",""
"","null","html-keyboard-response","10","193905","0.0-8.0-0.1","SS1613138381166","","","null","","","","","<p><img src= images/blank.png width =""200"" height = ""200"" style = ""float:right""></p><p><img src=images/blank.png width =""800"" height = ""200""></p>","","","","","","","","","","","",""
"","6063.810000006924","sequential-stimulus-presentation","11","200781","0.0-8.0-1.1","SS1613138381166","trial","","40","800","6863.810000006924","images/stimuli/spore_stims/complex_14_A_b.gif","images/stimuli/spore_stims/complex_09_B_d.gif","","","","","0","complex_dissimilar","images/stimuli/spore_stims/complex_09_B_d.gif","right","","","","",""
"","null","html-keyboard-response","12","201827","0.0-8.0-0.2","SS1613138381166","","","null","","","","","<p><img src= images/blank.png width =""200"" height = ""200"" style = ""float:right""></p><p><img src=images/blank.png width =""800"" height = ""200""></p>","","","","","","","","","","","",""
"","6479.284999993979","sequential-stimulus-presentation","13","209189","0.0-8.0-1.2","SS1613138381166","trial","","40","800","7279.284999993979","images/stimuli/spore_stims/complex_14_A_b.gif","images/stimuli/spore_stims/complex_09_B_d.gif","","","","","0","complex_dissimilar","images/stimuli/spore_stims/complex_14_A_b.gif","middle","","","","",""
"","null","html-keyboard-response","14","210082","0.0-8.0-0.3","SS1613138381166","","","null","","","","","<p><img src= images/blank.png width =""200"" height = ""200"" style = ""float:right""></p><p><img src=images/blank.png width =""800"" height = ""200""></p>","","","","","","","","","","","",""
"","5628.555000002962","sequential-stimulus-presentation","15","216526","0.0-8.0-1.3","SS1613138381166","trial","","40","800","6428.555000002962","images/stimuli/spore_stims/complex_14_A_b.gif","images/stimuli/spore_stims/complex_09_B_d.gif","","","","","0","complex_dissimilar","images/stimuli/spore_stims/complex_09_B_d.gif","right","","","","",""
"","null","html-keyboard-response","16","217776","0.0-8.0-0.4","SS1613138381166","","","null","","","","","<p><img src= images/blank.png width =""200"" height = ""200"" style = ""float:right""></p><p><img src=images/blank.png width =""800"" height = ""200""></p>","","","","","","","","","","","",""
"","6346.355000001495","sequential-stimulus-presentation","17","224949","0.0-8.0-1.4","SS1613138381166","trial","","40","800","7146.355000001495","images/stimuli/spore_stims/complex_14_A_b.gif","images/stimuli/spore_stims/complex_09_B_d.gif","","","","","0","complex_dissimilar","images/stimuli/spore_stims/complex_09_B_d.gif","right","","","","",""
"","null","html-keyboard-response","18","225894","0.0-8.0-0.5","SS1613138381166","","","null","","","","","<p><img src= images/blank.png width =""200"" height = ""200"" style = ""float:right""></p><p><img src=images/blank.png width =""800"" height = ""200""></p>","","","","","","","","","","","",""
"","3910.7050000020536","sequential-stimulus-presentation","19","230613","0.0-8.0-1.5","SS1613138381166","trial","","40","800","4710.705000002054","images/stimuli/spore_stims/complex_14_A_b.gif","images/stimuli/spore_stims/complex_09_B_d.gif","","","","","0","complex_dissimilar","images/stimuli/spore_stims/complex_09_B_d.gif","right","","","","",""
"","null","html-keyboard-response","20","231744","0.0-8.0-0.6","SS1613138381166","","","null","","","","","<p><img src= images/blank.png width =""200"" height = ""200"" style = ""float:right""></p><p><img src=images/blank.png width =""800"" height = ""200""></p>","","","","","","","","","","","",""
"","6295.105000011972","sequential-stimulus-presentation","21","238935","0.0-8.0-1.6","SS1613138381166","trial","","40","800","7095.105000011972","images/stimuli/spore_stims/complex_14_A_b.gif","images/stimuli/spore_stims/complex_09_B_d.gif","","","","","0","complex_dissimilar","images/stimuli/spore_stims/complex_09_B_d.gif","right","","","","",""
"","null","html-keyboard-response","22","239790","0.0-8.0-0.7","SS1613138381166","","","null","","","","","<p><img src= images/blank.png width =""200"" height = ""200"" style = ""float:right""></p><p><img src=images/blank.png width =""800"" height = ""200""></p>","","","","","","","","","","","",""
"","6637.589999998454","sequential-stimulus-presentation","23","247250","0.0-8.0-1.7","SS1613138381166","trial","","40","800","7437.589999998454","images/stimuli/spore_stims/complex_14_A_b.gif","images/stimuli/spore_stims/complex_09_B_d.gif","","","","","0","complex_dissimilar","images/stimuli/spore_stims/complex_09_B_d.gif","right","","","","",""
"","2734.2050000006566","html-keyboard-response","24","249991","0.0-9.0","SS1613138381166","pref_question","","49","","","","","<video width ='960' height = '540' style='padding-top:8%' autoplay muted><source src='images/stimuli/wall_pref.mp4' type='video/mp4'></video>","1","left","25%","0","","","","","","","",""
"","7252.739999996265","sequential-stimulus-presentation","25","258063","0.0-10.0","SS1613138381166","pref_reveal","","40","800","8052.739999996265","null","null","","","","","0","","","","novel","","","",""
"","null","html-keyboard-response","26","259247","0.0-11.0-0.0","SS1613138381166","","","null","","","","","<p><img src= images/blank.png width =""200"" height = ""200"" style = ""float:right""></p><p><img src=images/blank.png width =""800"" height = ""200""></p>","","","","","","","","","","","",""
"","7905.475000006845","sequential-stimulus-presentation","27","267981","0.0-11.0-1.0","SS1613138381166","trial","","40","800","8705.475000006845","images/stimuli/spore_stims/simple_13_B_a.gif","images/stimuli/spore_stims/simple_13_A_a.gif","","","","","1","simple_similar","images/stimuli/spore_stims/simple_13_A_a.gif","left","","","","",""
"","null","html-keyboard-response","28","269127","0.0-11.0-0.1","SS1613138381166","","","null","","","","","<p><img src= images/blank.png width =""200"" height = ""200"" style = ""float:right""></p><p><img src=images/blank.png width =""800"" height = ""200""></p>","","","","","","","","","","","",""
"","2427.5550000020303","sequential-stimulus-presentation","29","272375","0.0-11.0-1.1","SS1613138381166","trial","","40","800","3227.5550000020303","images/stimuli/spore_stims/simple_13_B_a.gif","images/stimuli/spore_stims/simple_13_A_a.gif","","","","","1","simple_similar","images/stimuli/spore_stims/simple_13_A_a.gif","left","","","","",""
"","null","html-keyboard-response","30","273565","0.0-11.0-0.2","SS1613138381166","","","null","","","","","<p><img src= images/blank.png width =""200"" height = ""200"" style = ""float:right""></p><p><img src=images/blank.png width =""800"" height = ""200""></p>","","","","","","","","","","","",""
"","4363.72000000847","sequential-stimulus-presentation","31","278780","0.0-11.0-1.2","SS1613138381166","trial","","40","800","5163.72000000847","images/stimuli/spore_stims/simple_13_B_a.gif","images/stimuli/spore_stims/simple_13_A_a.gif","","","","","1","simple_similar","images/stimuli/spore_stims/simple_13_A_a.gif","left","","","","",""
"","null","html-keyboard-response","32","279953","0.0-11.0-0.3","SS1613138381166","","","null","","","","","<p><img src= images/blank.png width =""200"" height = ""200"" style = ""float:right""></p><p><img src=images/blank.png width =""800"" height = ""200""></p>","","","","","","","","","","","",""
"","3235.084999992978","sequential-stimulus-presentation","33","284006","0.0-11.0-1.3","SS1613138381166","trial","","40","800","4035.084999992978","images/stimuli/spore_stims/simple_13_B_a.gif","images/stimuli/spore_stims/simple_13_A_a.gif","","","","","1","simple_similar","images/stimuli/spore_stims/simple_13_A_a.gif","left","","","","",""
"","null","html-keyboard-response","34","285069","0.0-11.0-0.4","SS1613138381166","","","null","","","","","<p><img src= images/blank.png width =""200"" height = ""200"" style = ""float:right""></p><p><img src=images/blank.png width =""800"" height = ""200""></p>","","","","","","","","","","","",""
"","4874.004999990575","sequential-stimulus-presentation","35","290806","0.0-11.0-1.4","SS1613138381166","trial","","40","800","5674.004999990575","images/stimuli/spore_stims/simple_13_B_a.gif","images/stimuli/spore_stims/simple_13_A_a.gif","","","","","1","simple_similar","images/stimuli/spore_stims/simple_13_A_a.gif","left","","","","",""
"","null","html-keyboard-response","36","291948","0.0-11.0-0.5","SS1613138381166","","","null","","","","","<p><img src= images/blank.png width =""200"" height = ""200"" style = ""float:right""></p><p><img src=images/blank.png width =""800"" height = ""200""></p>","","","","","","","","","","","",""
"","1527.3500000039348","sequential-stimulus-presentation","37","294285","0.0-11.0-1.5","SS1613138381166","trial","","40","800","2327.350000003935","images/stimuli/spore_stims/simple_13_B_a.gif","images/stimuli/spore_stims/simple_13_A_a.gif","","","","","1","simple_similar","images/stimuli/spore_stims/simple_13_A_a.gif","left","","","","",""
"","null","html-keyboard-response","38","295297","0.0-11.0-0.6","SS1613138381166","","","null","","","","","<p><img src= images/blank.png width =""200"" height = ""200"" style = ""float:right""></p><p><img src=images/blank.png width =""800"" height = ""200""></p>","","","","","","","","","","","",""
"","677.8300000005402","sequential-stimulus-presentation","39","296796","0.0-11.0-1.6","SS1613138381166","trial","","40","800","1477.8300000005402","images/stimuli/spore_stims/simple_13_B_a.gif","images/stimuli/spore_stims/simple_13_A_a.gif","","","","","1","simple_similar","images/stimuli/spore_stims/simple_13_A_a.gif","left","","","","",""
"","null","html-keyboard-response","40","298018","0.0-11.0-0.7","SS1613138381166","","","null","","","","","<p><img src= images/blank.png width =""200"" height = ""200"" style = ""float:right""></p><p><img src=images/blank.png width =""800"" height = ""200""></p>","","","","","","","","","","","",""
"","21011.039999997593","sequential-stimulus-presentation","41","319837","0.0-11.0-1.7","SS1613138381166","trial","","40","800","21811.039999997593","images/stimuli/spore_stims/simple_13_B_a.gif","images/stimuli/spore_stims/simple_13_A_a.gif","","","","","1","simple_similar","images/stimuli/spore_stims/simple_13_B_a.gif","middle","","","","",""
"","5177.83000000054","html-keyboard-response","42","325020","0.0-12.0","SS1613138381166","pref_question","","51","","","","","<video width ='960' height = '540' style='padding-top:8%' autoplay muted><source src='images/stimuli/wall_pref.mp4' type='video/mp4'></video>","3","right","66%","1","","","","","","","",""
"","10088.205000007292","sequential-stimulus-presentation","43","335917","0.0-13.0","SS1613138381166","pref_reveal","","40","800","10888.205000007292","null","null","","","","","1","","","","novel","","","",""
"","null","html-keyboard-response","44","336995","0.0-14.0-0.0","SS1613138381166","","","null","","","","","<p><img src= images/blank.png width =""200"" height = ""200"" style = ""float:right""></p><p><img src=images/blank.png width =""800"" height = ""200""></p>","","","","","","","","","","","",""
"","6549.855000004754","sequential-stimulus-presentation","45","344379","0.0-14.0-1.0","SS1613138381166","trial","","40","800","7349.855000004754","images/stimuli/spore_stims/complex_08_A_a.gif","images/stimuli/spore_stims/complex_15_A_b.gif","","","","","2","complex_dissimilar","images/stimuli/spore_stims/complex_15_A_b.gif","middle","","","","",""
"","null","html-keyboard-response","46","345486","0.0-14.0-0.1","SS1613138381166","","","null","","","","","<p><img src= images/blank.png width =""200"" height = ""200"" style = ""float:right""></p><p><img src=images/blank.png width =""800"" height = ""200""></p>","","","","","","","","","","","",""
"","2534.265000009327","sequential-stimulus-presentation","47","348837","0.0-14.0-1.1","SS1613138381166","trial","","40","800","3334.265000009327","images/stimuli/spore_stims/complex_08_A_a.gif","images/stimuli/spore_stims/complex_15_A_b.gif","","","","","2","complex_dissimilar","images/stimuli/spore_stims/complex_15_A_b.gif","middle","","","","",""
"","null","html-keyboard-response","48","350085","0.0-14.0-0.2","SS1613138381166","","","null","","","","","<p><img src= images/blank.png width =""200"" height = ""200"" style = ""float:right""></p><p><img src=images/blank.png width =""800"" height = ""200""></p>","","","","","","","","","","","",""
"","2374.55000000773","sequential-stimulus-presentation","49","353285","0.0-14.0-1.2","SS1613138381166","trial","","40","800","3174.55000000773","images/stimuli/spore_stims/complex_08_A_a.gif","images/stimuli/spore_stims/complex_15_A_b.gif","","","","","2","complex_dissimilar","images/stimuli/spore_stims/complex_15_A_b.gif","middle","","","","",""
"","null","html-keyboard-response","50","354268","0.0-14.0-0.3","SS1613138381166","","","null","","","","","<p><img src= images/blank.png width =""200"" height = ""200"" style = ""float:right""></p><p><img src=images/blank.png width =""800"" height = ""200""></p>","","","","","","","","","","","",""
"","9823.795000003884","sequential-stimulus-presentation","51","364988","0.0-14.0-1.3","SS1613138381166","trial","","40","800","10623.795000003884","images/stimuli/spore_stims/complex_08_A_a.gif","images/stimuli/spore_stims/complex_15_A_b.gif","","","","","2","complex_dissimilar","images/stimuli/spore_stims/complex_08_A_a.gif","right","","","","",""
"","null","html-keyboard-response","52","365974","0.0-14.0-0.4","SS1613138381166","","","null","","","","","<p><img src= images/blank.png width =""200"" height = ""200"" style = ""float:right""></p><p><img src=images/blank.png width =""800"" height = ""200""></p>","","","","","","","","","","","",""
"","9751.779999991413","sequential-stimulus-presentation","53","376541","0.0-14.0-1.4","SS1613138381166","trial","","40","800","10551.779999991413","images/stimuli/spore_stims/complex_08_A_a.gif","images/stimuli/spore_stims/complex_15_A_b.gif","","","","","2","complex_dissimilar","images/stimuli/spore_stims/complex_15_A_b.gif","middle","","","","",""
"","null","html-keyboard-response","54","377777","0.0-14.0-0.5","SS1613138381166","","","null","","","","","<p><img src= images/blank.png width =""200"" height = ""200"" style = ""float:right""></p><p><img src=images/blank.png width =""800"" height = ""200""></p>","","","","","","","","","","","",""
"","5544.025000010151","sequential-stimulus-presentation","55","384131","0.0-14.0-1.5","SS1613138381166","trial","","40","800","6344.025000010151","images/stimuli/spore_stims/complex_08_A_a.gif","images/stimuli/spore_stims/complex_15_A_b.gif","","","","","2","complex_dissimilar","images/stimuli/spore_stims/complex_15_A_b.gif","middle","","","","",""
"","null","html-keyboard-response","56","385290","0.0-14.0-0.6","SS1613138381166","","","null","","","","","<p><img src= images/blank.png width =""200"" height = ""200"" style = ""float:right""></p><p><img src=images/blank.png width =""800"" height = ""200""></p>","","","","","","","","","","","",""
"","575.6750000000466","sequential-stimulus-presentation","57","386741","0.0-14.0-1.6","SS1613138381166","trial","","40","800","1375.6750000000466","images/stimuli/spore_stims/complex_08_A_a.gif","images/stimuli/spore_stims/complex_15_A_b.gif","","","","","2","complex_dissimilar","images/stimuli/spore_stims/complex_15_A_b.gif","middle","","","","",""
"","null","html-keyboard-response","58","387984","0.0-14.0-0.7","SS1613138381166","","","null","","","","","<p><img src= images/blank.png width =""200"" height = ""200"" style = ""float:right""></p><p><img src=images/blank.png width =""800"" height = ""200""></p>","","","","","","","","","","","",""
"","594.4849999941653","sequential-stimulus-presentation","59","389396","0.0-14.0-1.7","SS1613138381166","trial","","40","800","1394.4849999941653","images/stimuli/spore_stims/complex_08_A_a.gif","images/stimuli/spore_stims/complex_15_A_b.gif","","","","","2","complex_dissimilar","images/stimuli/spore_stims/complex_15_A_b.gif","middle","","","","",""
"","2675.0100000062957","html-keyboard-response","60","392077","0.0-15.0","SS1613138381166","pref_question","","49","","","","","<video width ='960' height = '540' style='padding-top:8%' autoplay muted><source src='images/stimuli/wall_pref.mp4' type='video/mp4'></video>","1","left","25%","2","","","","","","","",""
"","9097.730000008596","sequential-stimulus-presentation","61","402012","0.0-16.0","SS1613138381166","pref_reveal","","40","800","9897.730000008596","null","null","","","","","2","","","","novel","","","",""
"","null","html-keyboard-response","62","402969","0.0-17.0-0.0","SS1613138381166","","","null","","","","","<p><img src= images/blank.png width =""200"" height = ""200"" style = ""float:right""></p><p><img src=images/blank.png width =""800"" height = ""200""></p>","","","","","","","","","","","",""
"","10127.08500000008","sequential-stimulus-presentation","63","413934","0.0-17.0-1.0","SS1613138381166","trial","","40","800","10927.08500000008","images/stimuli/spore_stims/complex_12_A_b.gif","images/stimuli/spore_stims/complex_12_B_b.gif","","","","","3","complex_similar","images/stimuli/spore_stims/complex_12_B_b.gif","left","","","","",""
"","null","html-keyboard-response","64","415095","0.0-17.0-0.1","SS1613138381166","","","null","","","","","<p><img src= images/blank.png width =""200"" height = ""200"" style = ""float:right""></p><p><img src=images/blank.png width =""800"" height = ""200""></p>","","","","","","","","","","","",""
"","2657.279999999446","sequential-stimulus-presentation","65","418564","0.0-17.0-1.1","SS1613138381166","trial","","40","800","3457.279999999446","images/stimuli/spore_stims/complex_12_A_b.gif","images/stimuli/spore_stims/complex_12_B_b.gif","","","","","3","complex_similar","images/stimuli/spore_stims/complex_12_B_b.gif","left","","","","",""
"","null","html-keyboard-response","66","419587","0.0-17.0-0.2","SS1613138381166","","","null","","","","","<p><img src= images/blank.png width =""200"" height = ""200"" style = ""float:right""></p><p><img src=images/blank.png width =""800"" height = ""200""></p>","","","","","","","","","","","",""
"","657.5749999901745","sequential-stimulus-presentation","67","421083","0.0-17.0-1.2","SS1613138381166","trial","","40","800","1457.5749999901745","images/stimuli/spore_stims/complex_12_A_b.gif","images/stimuli/spore_stims/complex_12_B_b.gif","","","","","3","complex_similar","images/stimuli/spore_stims/complex_12_B_b.gif","left","","","","",""
"","null","html-keyboard-response","68","422122","0.0-17.0-0.3","SS1613138381166","","","null","","","","","<p><img src= images/blank.png width =""200"" height = ""200"" style = ""float:right""></p><p><img src=images/blank.png width =""800"" height = ""200""></p>","","","","","","","","","","","",""
"","7007.214999990538","sequential-stimulus-presentation","69","429940","0.0-17.0-1.3","SS1613138381166","trial","","40","800","7807.214999990538","images/stimuli/spore_stims/complex_12_A_b.gif","images/stimuli/spore_stims/complex_12_B_b.gif","","","","","3","complex_similar","images/stimuli/spore_stims/complex_12_A_b.gif","right","","","","",""
"","null","html-keyboard-response","70","431236","0.0-17.0-0.4","SS1613138381166","","","null","","","","","<p><img src= images/blank.png width =""200"" height = ""200"" style = ""float:right""></p><p><img src=images/blank.png width =""800"" height = ""200""></p>","","","","","","","","","","","",""
"","2009.810000003199","sequential-stimulus-presentation","71","434059","0.0-17.0-1.4","SS1613138381166","trial","","40","800","2809.810000003199","images/stimuli/spore_stims/complex_12_A_b.gif","images/stimuli/spore_stims/complex_12_B_b.gif","","","","","3","complex_similar","images/stimuli/spore_stims/complex_12_B_b.gif","left","","","","",""
"","null","html-keyboard-response","72","435072","0.0-17.0-0.5","SS1613138381166","","","null","","","","","<p><img src= images/blank.png width =""200"" height = ""200"" style = ""float:right""></p><p><img src=images/blank.png width =""800"" height = ""200""></p>","","","","","","","","","","","",""
"","2841.0599999915576","sequential-stimulus-presentation","73","438724","0.0-17.0-1.5","SS1613138381166","trial","","40","800","3641.0599999915576","images/stimuli/spore_stims/complex_12_A_b.gif","images/stimuli/spore_stims/complex_12_B_b.gif","","","","","3","complex_similar","images/stimuli/spore_stims/complex_12_B_b.gif","left","","","","",""
"","null","html-keyboard-response","74","439826","0.0-17.0-0.6","SS1613138381166","","","null","","","","","<p><img src= images/blank.png width =""200"" height = ""200"" style = ""float:right""></p><p><img src=images/blank.png width =""800"" height = ""200""></p>","","","","","","","","","","","",""
"","1735.3449999936856","sequential-stimulus-presentation","75","442382","0.0-17.0-1.6","SS1613138381166","trial","","40","800","2535.3449999936856","images/stimuli/spore_stims/complex_12_A_b.gif","images/stimuli/spore_stims/complex_12_B_b.gif","","","","","3","complex_similar","images/stimuli/spore_stims/complex_12_B_b.gif","left","","","","",""
"","null","html-keyboard-response","76","443405","0.0-17.0-0.7","SS1613138381166","","","null","","","","","<p><img src= images/blank.png width =""200"" height = ""200"" style = ""float:right""></p><p><img src=images/blank.png width =""800"" height = ""200""></p>","","","","","","","","","","","",""
"","1961.8100000079721","sequential-stimulus-presentation","77","446181","0.0-17.0-1.7","SS1613138381166","trial","","40","800","2761.810000007972","images/stimuli/spore_stims/complex_12_A_b.gif","images/stimuli/spore_stims/complex_12_B_b.gif","","","","","3","complex_similar","images/stimuli/spore_stims/complex_12_B_b.gif","left","","","","",""
"","3158.239999989746","html-keyboard-response","78","449348","0.0-18.0","SS1613138381166","pref_question","","50","","","","","<video width ='960' height = '540' style='padding-top:8%' autoplay muted><source src='images/stimuli/wall_pref.mp4' type='video/mp4'></video>","2","middle","45%","3","","","","","","","",""
"","7584.539999996196","sequential-stimulus-presentation","79","457750","0.0-19.0","SS1613138381166","pref_reveal","","40","800","8384.539999996196","null","null","","","","","3","","","","novel","","","",""
"","null","html-keyboard-response","80","458797","0.0-20.0-0.0","SS1613138381166","","","null","","","","","<p><img src= images/blank.png width =""200"" height = ""200"" style = ""float:right""></p><p><img src=images/blank.png width =""800"" height = ""200""></p>","","","","","","","","","","","",""
"","5852.4299999990035","sequential-stimulus-presentation","81","465468","0.0-20.0-1.0","SS1613138381166","trial","","40","800","6652.4299999990035","images/stimuli/spore_stims/simple_06_B_b.gif","images/stimuli/spore_stims/simple_10_A_c.gif","","","","","4","simple_dissimilar","images/stimuli/spore_stims/simple_10_A_c.gif","right","","","","",""
"","null","html-keyboard-response","82","466287","0.0-20.0-0.1","SS1613138381166","","","null","","","","","<p><img src= images/blank.png width =""200"" height = ""200"" style = ""float:right""></p><p><img src=images/blank.png width =""800"" height = ""200""></p>","","","","","","","","","","","",""
"","2263.7499999982538","sequential-stimulus-presentation","83","469376","0.0-20.0-1.1","SS1613138381166","trial","","40","800","3063.7499999982538","images/stimuli/spore_stims/simple_06_B_b.gif","images/stimuli/spore_stims/simple_10_A_c.gif","","","","","4","simple_dissimilar","images/stimuli/spore_stims/simple_10_A_c.gif","right","","","","",""
"","null","html-keyboard-response","84","470677","0.0-20.0-0.2","SS1613138381166","","","null","","","","","<p><img src= images/blank.png width =""200"" height = ""200"" style = ""float:right""></p><p><img src=images/blank.png width =""800"" height = ""200""></p>","","","","","","","","","","","",""
"","815.9750000049826","sequential-stimulus-presentation","85","472357","0.0-20.0-1.2","SS1613138381166","trial","","40","800","1615.9750000049826","images/stimuli/spore_stims/simple_06_B_b.gif","images/stimuli/spore_stims/simple_10_A_c.gif","","","","","4","simple_dissimilar","images/stimuli/spore_stims/simple_10_A_c.gif","right","","","","",""
"","null","html-keyboard-response","86","473490","0.0-20.0-0.3","SS1613138381166","","","null","","","","","<p><img src= images/blank.png width =""200"" height = ""200"" style = ""float:right""></p><p><img src=images/blank.png width =""800"" height = ""200""></p>","","","","","","","","","","","",""
"","573.9549999998417","sequential-stimulus-presentation","87","474926","0.0-20.0-1.3","SS1613138381166","trial","","40","800","1373.9549999998417","images/stimuli/spore_stims/simple_06_B_b.gif","images/stimuli/spore_stims/simple_10_A_c.gif","","","","","4","simple_dissimilar","images/stimuli/spore_stims/simple_10_A_c.gif","right","","","","",""
"","null","html-keyboard-response","88","475995","0.0-20.0-0.4","SS1613138381166","","","null","","","","","<p><img src= images/blank.png width =""200"" height = ""200"" style = ""float:right""></p><p><img src=images/blank.png width =""800"" height = ""200""></p>","","","","","","","","","","","",""
"","740.0199999974575","sequential-stimulus-presentation","89","477557","0.0-20.0-1.4","SS1613138381166","trial","","40","800","1540.0199999974575","images/stimuli/spore_stims/simple_06_B_b.gif","images/stimuli/spore_stims/simple_10_A_c.gif","","","","","4","simple_dissimilar","images/stimuli/spore_stims/simple_10_A_c.gif","right","","","","",""
"","null","html-keyboard-response","90","478781","0.0-20.0-0.5","SS1613138381166","","","null","","","","","<p><img src= images/blank.png width =""200"" height = ""200"" style = ""float:right""></p><p><img src=images/blank.png width =""800"" height = ""200""></p>","","","","","","","","","","","",""
"","1313.2749999931548","sequential-stimulus-presentation","91","480905","0.0-20.0-1.5","SS1613138381166","trial","","40","800","2113.274999993155","images/stimuli/spore_stims/simple_06_B_b.gif","images/stimuli/spore_stims/simple_10_A_c.gif","","","","","4","simple_dissimilar","images/stimuli/spore_stims/simple_10_A_c.gif","right","","","","",""
"","null","html-keyboard-response","92","482174","0.0-20.0-0.6","SS1613138381166","","","null","","","","","<p><img src= images/blank.png width =""200"" height = ""200"" style = ""float:right""></p><p><img src=images/blank.png width =""800"" height = ""200""></p>","","","","","","","","","","","",""
"","2673.1199999921955","sequential-stimulus-presentation","93","485724","0.0-20.0-1.6","SS1613138381166","trial","","40","800","3473.1199999921955","images/stimuli/spore_stims/simple_06_B_b.gif","images/stimuli/spore_stims/simple_10_A_c.gif","","","","","4","simple_dissimilar","images/stimuli/spore_stims/simple_10_A_c.gif","right","","","","",""
"","null","html-keyboard-response","94","486920","0.0-20.0-0.7","SS1613138381166","","","null","","","","","<p><img src= images/blank.png width =""200"" height = ""200"" style = ""float:right""></p><p><img src=images/blank.png width =""800"" height = ""200""></p>","","","","","","","","","","","",""
"","7926.454999993439","sequential-stimulus-presentation","95","495685","0.0-20.0-1.7","SS1613138381166","trial","","40","800","8726.454999993439","images/stimuli/spore_stims/simple_06_B_b.gif","images/stimuli/spore_stims/simple_10_A_c.gif","","","","","4","simple_dissimilar","images/stimuli/spore_stims/simple_06_B_b.gif","left","","","","",""
"","9257.769999996526","html-keyboard-response","96","504950","0.0-21.0","SS1613138381166","pref_question","","49","","","","","<video width ='960' height = '540' style='padding-top:8%' autoplay muted><source src='images/stimuli/wall_pref.mp4' type='video/mp4'></video>","1","left","25%","4","","","","","","","",""
"","2315.8800000092015","sequential-stimulus-presentation","97","508088","0.0-22.0","SS1613138381166","pref_reveal","","40","800","3115.8800000092015","null","null","","","","","4","","","","deviant","","","",""
"","null","html-keyboard-response","98","508969","0.0-23.0-0.0","SS1613138381166","","","null","","","","","<p><img src= images/blank.png width =""200"" height = ""200"" style = ""float:right""></p><p><img src=images/blank.png width =""800"" height = ""200""></p>","","","","","","","","","","","",""
"","4611.909999992349","sequential-stimulus-presentation","99","514412","0.0-23.0-1.0","SS1613138381166","trial","","40","800","5411.909999992349","images/stimuli/spore_stims/complex_10_B_a.gif","images/stimuli/spore_stims/complex_10_A_a.gif","","","","","5","complex_similar","images/stimuli/spore_stims/complex_10_A_a.gif","right","","","","",""
"","null","html-keyboard-response","100","515650","0.0-23.0-0.1","SS1613138381166","","","null","","","","","<p><img src= images/blank.png width =""200"" height = ""200"" style = ""float:right""></p><p><img src=images/blank.png width =""800"" height = ""200""></p>","","","","","","","","","","","",""
"","1173.225000005914","sequential-stimulus-presentation","101","517660","0.0-23.0-1.1","SS1613138381166","trial","","40","800","1973.225000005914","images/stimuli/spore_stims/complex_10_B_a.gif","images/stimuli/spore_stims/complex_10_A_a.gif","","","","","5","complex_similar","images/stimuli/spore_stims/complex_10_A_a.gif","right","","","","",""
"","null","html-keyboard-response","102","518868","0.0-23.0-0.2","SS1613138381166","","","null","","","","","<p><img src= images/blank.png width =""200"" height = ""200"" style = ""float:right""></p><p><img src=images/blank.png width =""800"" height = ""200""></p>","","","","","","","","","","","",""
"","1339.6599999978207","sequential-stimulus-presentation","103","521046","0.0-23.0-1.2","SS1613138381166","trial","","40","800","2139.6599999978207","images/stimuli/spore_stims/complex_10_B_a.gif","images/stimuli/spore_stims/complex_10_A_a.gif","","","","","5","complex_similar","images/stimuli/spore_stims/complex_10_A_a.gif","right","","","","",""
"","null","html-keyboard-response","104","522156","0.0-23.0-0.3","SS1613138381166","","","null","","","","","<p><img src= images/blank.png width =""200"" height = ""200"" style = ""float:right""></p><p><img src=images/blank.png width =""800"" height = ""200""></p>","","","","","","","","","","","",""
"","569.2149999958929","sequential-stimulus-presentation","105","523549","0.0-23.0-1.3","SS1613138381166","trial","","40","800","1369.2149999958929","images/stimuli/spore_stims/complex_10_B_a.gif","images/stimuli/spore_stims/complex_10_A_a.gif","","","","","5","complex_similar","images/stimuli/spore_stims/complex_10_A_a.gif","right","","","","",""
"","null","html-keyboard-response","106","524674","0.0-23.0-0.4","SS1613138381166","","","null","","","","","<p><img src= images/blank.png width =""200"" height = ""200"" style = ""float:right""></p><p><img src=images/blank.png width =""800"" height = ""200""></p>","","","","","","","","","","","",""
"","465.5499999935273","sequential-stimulus-presentation","107","526003","0.0-23.0-1.4","SS1613138381166","trial","","40","800","1265.5499999935273","images/stimuli/spore_stims/complex_10_B_a.gif","images/stimuli/spore_stims/complex_10_A_a.gif","","","","","5","complex_similar","images/stimuli/spore_stims/complex_10_A_a.gif","right","","","","",""
"","null","html-keyboard-response","108","527144","0.0-23.0-0.5","SS1613138381166","","","null","","","","","<p><img src= images/blank.png width =""200"" height = ""200"" style = ""float:right""></p><p><img src=images/blank.png width =""800"" height = ""200""></p>","","","","","","","","","","","",""
"","4403.0849999981","sequential-stimulus-presentation","109","532358","0.0-23.0-1.5","SS1613138381166","trial","","40","800","5203.0849999981","images/stimuli/spore_stims/complex_10_B_a.gif","images/stimuli/spore_stims/complex_10_A_a.gif","","","","","5","complex_similar","images/stimuli/spore_stims/complex_10_B_a.gif","middle","","","","",""
"","null","html-keyboard-response","110","533185","0.0-23.0-0.6","SS1613138381166","","","null","","","","","<p><img src= images/blank.png width =""200"" height = ""200"" style = ""float:right""></p><p><img src=images/blank.png width =""800"" height = ""200""></p>","","","","","","","","","","","",""
"","2789.2400000127964","sequential-stimulus-presentation","111","536789","0.0-23.0-1.6","SS1613138381166","trial","","40","800","3589.2400000127964","images/stimuli/spore_stims/complex_10_B_a.gif","images/stimuli/spore_stims/complex_10_A_a.gif","","","","","5","complex_similar","images/stimuli/spore_stims/complex_10_A_a.gif","right","","","","",""
"","null","html-keyboard-response","112","537653","0.0-23.0-0.7","SS1613138381166","","","null","","","","","<p><img src= images/blank.png width =""200"" height = ""200"" style = ""float:right""></p><p><img src=images/blank.png width =""800"" height = ""200""></p>","","","","","","","","","","","",""
"","539.4699999887962","sequential-stimulus-presentation","113","539003","0.0-23.0-1.7","SS1613138381166","trial","","40","800","1339.4699999887962","images/stimuli/spore_stims/complex_10_B_a.gif","images/stimuli/spore_stims/complex_10_A_a.gif","","","","","5","complex_similar","images/stimuli/spore_stims/complex_10_A_a.gif","right","","","","",""
"","2134.4150000077207","html-keyboard-response","114","541148","0.0-24.0","SS1613138381166","pref_question","","49","","","","","<video width ='960' height = '540' style='padding-top:8%' autoplay muted><source src='images/stimuli/wall_pref.mp4' type='video/mp4'></video>","1","left","25%","5","","","","","","","",""
"","6264.215000002878","sequential-stimulus-presentation","115","548220","0.0-25.0","SS1613138381166","pref_reveal","","40","800","7064.215000002878","null","null","","","","","5","","","","novel","","","",""
"","null","html-keyboard-response","116","549417","0.0-26.0-0.0","SS1613138381166","","","null","","","","","<p><img src= images/blank.png width =""200"" height = ""200"" style = ""float:right""></p><p><img src=images/blank.png width =""800"" height = ""200""></p>","","","","","","","","","","","",""
"","4821.174999990035","sequential-stimulus-presentation","117","555083","0.0-26.0-1.0","SS1613138381166","trial","","40","800","5621.174999990035","images/stimuli/spore_stims/complex_19_A_c.gif","images/stimuli/spore_stims/complex_19_B_c.gif","","","","","6","complex_similar","images/stimuli/spore_stims/complex_19_B_c.gif","right","","","","",""
"","null","html-keyboard-response","118","555933","0.0-26.0-0.1","SS1613138381166","","","null","","","","","<p><img src= images/blank.png width =""200"" height = ""200"" style = ""float:right""></p><p><img src=images/blank.png width =""800"" height = ""200""></p>","","","","","","","","","","","",""
"","1442.7749999886146","sequential-stimulus-presentation","119","558212","0.0-26.0-1.1","SS1613138381166","trial","","40","800","2242.7749999886146","images/stimuli/spore_stims/complex_19_A_c.gif","images/stimuli/spore_stims/complex_19_B_c.gif","","","","","6","complex_similar","images/stimuli/spore_stims/complex_19_B_c.gif","right","","","","",""
"","null","html-keyboard-response","120","559082","0.0-26.0-0.2","SS1613138381166","","","null","","","","","<p><img src= images/blank.png width =""200"" height = ""200"" style = ""float:right""></p><p><img src=images/blank.png width =""800"" height = ""200""></p>","","","","","","","","","","","",""
"","414.44000000774395","sequential-stimulus-presentation","121","560316","0.0-26.0-1.2","SS1613138381166","trial","","40","800","1214.440000007744","images/stimuli/spore_stims/complex_19_A_c.gif","images/stimuli/spore_stims/complex_19_B_c.gif","","","","","6","complex_similar","images/stimuli/spore_stims/complex_19_B_c.gif","right","","","","",""
"","null","html-keyboard-response","122","561226","0.0-26.0-0.3","SS1613138381166","","","null","","","","","<p><img src= images/blank.png width =""200"" height = ""200"" style = ""float:right""></p><p><img src=images/blank.png width =""800"" height = ""200""></p>","","","","","","","","","","","",""
"","4266.889999998966","sequential-stimulus-presentation","123","566317","0.0-26.0-1.3","SS1613138381166","trial","","40","800","5066.889999998966","images/stimuli/spore_stims/complex_19_A_c.gif","images/stimuli/spore_stims/complex_19_B_c.gif","","","","","6","complex_similar","images/stimuli/spore_stims/complex_19_A_c.gif","left","","","","",""
"","null","html-keyboard-response","124","567586","0.0-26.0-0.4","SS1613138381166","","","null","","","","","<p><img src= images/blank.png width =""200"" height = ""200"" style = ""float:right""></p><p><img src=images/blank.png width =""800"" height = ""200""></p>","","","","","","","","","","","",""
"","3050.245000005816","sequential-stimulus-presentation","125","571453","0.0-26.0-1.4","SS1613138381166","trial","","40","800","3850.245000005816","images/stimuli/spore_stims/complex_19_A_c.gif","images/stimuli/spore_stims/complex_19_B_c.gif","","","","","6","complex_similar","images/stimuli/spore_stims/complex_19_B_c.gif","right","","","","",""
"","null","html-keyboard-response","126","572353","0.0-26.0-0.5","SS1613138381166","","","null","","","","","<p><img src= images/blank.png width =""200"" height = ""200"" style = ""float:right""></p><p><img src=images/blank.png width =""800"" height = ""200""></p>","","","","","","","","","","","",""
"","864.4999999960419","sequential-stimulus-presentation","127","574036","0.0-26.0-1.5","SS1613138381166","trial","","40","800","1664.4999999960419","images/stimuli/spore_stims/complex_19_A_c.gif","images/stimuli/spore_stims/complex_19_B_c.gif","","","","","6","complex_similar","images/stimuli/spore_stims/complex_19_B_c.gif","right","","","","",""
"","null","html-keyboard-response","128","575262","0.0-26.0-0.6","SS1613138381166","","","null","","","","","<p><img src= images/blank.png width =""200"" height = ""200"" style = ""float:right""></p><p><img src=images/blank.png width =""800"" height = ""200""></p>","","","","","","","","","","","",""
"","581.5849999926286","sequential-stimulus-presentation","129","576652","0.0-26.0-1.6","SS1613138381166","trial","","40","800","1381.5849999926286","images/stimuli/spore_stims/complex_19_A_c.gif","images/stimuli/spore_stims/complex_19_B_c.gif","","","","","6","complex_similar","images/stimuli/spore_stims/complex_19_B_c.gif","right","","","","",""
"","null","html-keyboard-response","130","577958","0.0-26.0-0.7","SS1613138381166","","","null","","","","","<p><img src= images/blank.png width =""200"" height = ""200"" style = ""float:right""></p><p><img src=images/blank.png width =""800"" height = ""200""></p>","","","","","","","","","","","",""
"","621.915000010631","sequential-stimulus-presentation","131","579460","0.0-26.0-1.7","SS1613138381166","trial","","40","800","1421.915000010631","images/stimuli/spore_stims/complex_19_A_c.gif","images/stimuli/spore_stims/complex_19_B_c.gif","","","","","6","complex_similar","images/stimuli/spore_stims/complex_19_B_c.gif","right","","","","",""
"","2322.2899999964284","html-keyboard-response","132","581789","0.0-27.0","SS1613138381166","pref_question","","50","","","","","<video width ='960' height = '540' style='padding-top:8%' autoplay muted><source src='images/stimuli/wall_pref.mp4' type='video/mp4'></video>","2","middle","45%","6","","","","","","","",""
"","6462.644999992335","sequential-stimulus-presentation","133","589065","0.0-28.0","SS1613138381166","pref_reveal","","40","800","7262.644999992335","null","null","","","","","6","","","","novel","","","",""
"","null","html-keyboard-response","134","590069","0.0-29.0-0.0","SS1613138381166","","","null","","","","","<p><img src= images/blank.png width =""200"" height = ""200"" style = ""float:right""></p><p><img src=images/blank.png width =""800"" height = ""200""></p>","","","","","","","","","","","",""
"","6261.969999992289","sequential-stimulus-presentation","135","597141","0.0-29.0-1.0","SS1613138381166","trial","","40","800","7061.969999992289","images/stimuli/spore_stims/simple_20_B_d.gif","images/stimuli/spore_stims/simple_19_B_b.gif","","","","","7","simple_dissimilar","images/stimuli/spore_stims/simple_19_B_b.gif","left","","","","",""
"","null","html-keyboard-response","136","598341","0.0-29.0-0.1","SS1613138381166","","","null","","","","","<p><img src= images/blank.png width =""200"" height = ""200"" style = ""float:right""></p><p><img src=images/blank.png width =""800"" height = ""200""></p>","","","","","","","","","","","",""
"","516.749999995227","sequential-stimulus-presentation","137","599668","0.0-29.0-1.1","SS1613138381166","trial","","40","800","1316.749999995227","images/stimuli/spore_stims/simple_20_B_d.gif","images/stimuli/spore_stims/simple_19_B_b.gif","","","","","7","simple_dissimilar","images/stimuli/spore_stims/simple_19_B_b.gif","left","","","","",""
"","null","html-keyboard-response","138","600532","0.0-29.0-0.2","SS1613138381166","","","null","","","","","<p><img src= images/blank.png width =""200"" height = ""200"" style = ""float:right""></p><p><img src=images/blank.png width =""800"" height = ""200""></p>","","","","","","","","","","","",""
"","388.34499999939","sequential-stimulus-presentation","139","601745","0.0-29.0-1.2","SS1613138381166","trial","","40","800","1188.34499999939","images/stimuli/spore_stims/simple_20_B_d.gif","images/stimuli/spore_stims/simple_19_B_b.gif","","","","","7","simple_dissimilar","images/stimuli/spore_stims/simple_19_B_b.gif","left","","","","",""
"","null","html-keyboard-response","140","602687","0.0-29.0-0.3","SS1613138381166","","","null","","","","","<p><img src= images/blank.png width =""200"" height = ""200"" style = ""float:right""></p><p><img src=images/blank.png width =""800"" height = ""200""></p>","","","","","","","","","","","",""
"","666.9499999989057","sequential-stimulus-presentation","141","604181","0.0-29.0-1.3","SS1613138381166","trial","","40","800","1466.9499999989057","images/stimuli/spore_stims/simple_20_B_d.gif","images/stimuli/spore_stims/simple_19_B_b.gif","","","","","7","simple_dissimilar","images/stimuli/spore_stims/simple_19_B_b.gif","left","","","","",""
"","null","html-keyboard-response","142","605203","0.0-29.0-0.4","SS1613138381166","","","null","","","","","<p><img src= images/blank.png width =""200"" height = ""200"" style = ""float:right""></p><p><img src=images/blank.png width =""800"" height = ""200""></p>","","","","","","","","","","","",""
"","4697.430000000168","sequential-stimulus-presentation","143","610742","0.0-29.0-1.4","SS1613138381166","trial","","40","800","5497.430000000168","images/stimuli/spore_stims/simple_20_B_d.gif","images/stimuli/spore_stims/simple_19_B_b.gif","","","","","7","simple_dissimilar","images/stimuli/spore_stims/simple_20_B_d.gif","middle","","","","",""
"","null","html-keyboard-response","144","611626","0.0-29.0-0.5","SS1613138381166","","","null","","","","","<p><img src= images/blank.png width =""200"" height = ""200"" style = ""float:right""></p><p><img src=images/blank.png width =""800"" height = ""200""></p>","","","","","","","","","","","",""
"","1386.4400000020396","sequential-stimulus-presentation","145","613846","0.0-29.0-1.5","SS1613138381166","trial","","40","800","2186.4400000020396","images/stimuli/spore_stims/simple_20_B_d.gif","images/stimuli/spore_stims/simple_19_B_b.gif","","","","","7","simple_dissimilar","images/stimuli/spore_stims/simple_19_B_b.gif","left","","","","",""
"","null","html-keyboard-response","146","614673","0.0-29.0-0.6","SS1613138381166","","","null","","","","","<p><img src= images/blank.png width =""200"" height = ""200"" style = ""float:right""></p><p><img src=images/blank.png width =""800"" height = ""200""></p>","","","","","","","","","","","",""
"","200.25000000896398","sequential-stimulus-presentation","147","615782","0.0-29.0-1.6","SS1613138381166","trial","","40","800","1000.250000008964","images/stimuli/spore_stims/simple_20_B_d.gif","images/stimuli/spore_stims/simple_19_B_b.gif","","","","","7","simple_dissimilar","images/stimuli/spore_stims/simple_19_B_b.gif","left","","","","",""
"","null","html-keyboard-response","148","616630","0.0-29.0-0.7","SS1613138381166","","","null","","","","","<p><img src= images/blank.png width =""200"" height = ""200"" style = ""float:right""></p><p><img src=images/blank.png width =""800"" height = ""200""></p>","","","","","","","","","","","",""
"","355.6899999966845","sequential-stimulus-presentation","149","617804","0.0-29.0-1.7","SS1613138381166","trial","","40","800","1155.6899999966845","images/stimuli/spore_stims/simple_20_B_d.gif","images/stimuli/spore_stims/simple_19_B_b.gif","","","","","7","simple_dissimilar","images/stimuli/spore_stims/simple_19_B_b.gif","left","","","","",""
"","2640.814999991562","html-keyboard-response","150","620454","0.0-30.0","SS1613138381166","pref_question","","51","","","","","<video width ='960' height = '540' style='padding-top:8%' autoplay muted><source src='images/stimuli/wall_pref.mp4' type='video/mp4'></video>","3","right","66%","7","","","","","","","",""
"","4979.699999996228","sequential-stimulus-presentation","151","626253","0.0-31.0","SS1613138381166","pref_reveal","","40","800","5779.699999996228","null","null","","","","","7","","","","novel","","","",""
"","null","html-keyboard-response","152","627181","0.0-32.0-0.0","SS1613138381166","","","null","","","","","<p><img src= images/blank.png width =""200"" height = ""200"" style = ""float:right""></p><p><img src=images/blank.png width =""800"" height = ""200""></p>","","","","","","","","","","","",""
"","4651.174999991781","sequential-stimulus-presentation","153","632677","0.0-32.0-1.0","SS1613138381166","trial","","40","800","5451.174999991781","images/stimuli/spore_stims/complex_06_A_d.gif","images/stimuli/spore_stims/complex_01_B_b.gif","","","","","8","complex_dissimilar","images/stimuli/spore_stims/complex_01_B_b.gif","left","","","","",""
"","null","html-keyboard-response","154","633991","0.0-32.0-0.1","SS1613138381166","","","null","","","","","<p><img src= images/blank.png width =""200"" height = ""200"" style = ""float:right""></p><p><img src=images/blank.png width =""800"" height = ""200""></p>","","","","","","","","","","","",""
"","5581.420000002254","sequential-stimulus-presentation","155","640381","0.0-32.0-1.1","SS1613138381166","trial","","40","800","6381.420000002254","images/stimuli/spore_stims/complex_06_A_d.gif","images/stimuli/spore_stims/complex_01_B_b.gif","","","","","8","complex_dissimilar","images/stimuli/spore_stims/complex_01_B_b.gif","left","","","","",""
"","null","html-keyboard-response","156","641464","0.0-32.0-0.2","SS1613138381166","","","null","","","","","<p><img src= images/blank.png width =""200"" height = ""200"" style = ""float:right""></p><p><img src=images/blank.png width =""800"" height = ""200""></p>","","","","","","","","","","","",""
"","8816.860000006272","sequential-stimulus-presentation","157","651093","0.0-32.0-1.2","SS1613138381166","trial","","40","800","9616.860000006272","images/stimuli/spore_stims/complex_06_A_d.gif","images/stimuli/spore_stims/complex_01_B_b.gif","","","","","8","complex_dissimilar","images/stimuli/spore_stims/complex_06_A_d.gif","middle","","","","",""
"","null","html-keyboard-response","158","651979","0.0-32.0-0.3","SS1613138381166","","","null","","","","","<p><img src= images/blank.png width =""200"" height = ""200"" style = ""float:right""></p><p><img src=images/blank.png width =""800"" height = ""200""></p>","","","","","","","","","","","",""
"","17445.525000002817","sequential-stimulus-presentation","159","670254","0.0-32.0-1.3","SS1613138381166","trial","","40","800","18245.525000002817","images/stimuli/spore_stims/complex_06_A_d.gif","images/stimuli/spore_stims/complex_01_B_b.gif","","","","","8","complex_dissimilar","images/stimuli/spore_stims/complex_01_B_b.gif","left","","","","",""
"","null","html-keyboard-response","160","671339","0.0-32.0-0.4","SS1613138381166","","","null","","","","","<p><img src= images/blank.png width =""200"" height = ""200"" style = ""float:right""></p><p><img src=images/blank.png width =""800"" height = ""200""></p>","","","","","","","","","","","",""
"","7778.894999995828","sequential-stimulus-presentation","161","679943","0.0-32.0-1.4","SS1613138381166","trial","","40","800","8578.894999995828","images/stimuli/spore_stims/complex_06_A_d.gif","images/stimuli/spore_stims/complex_01_B_b.gif","","","","","8","complex_dissimilar","images/stimuli/spore_stims/complex_01_B_b.gif","left","","","","",""
"","null","html-keyboard-response","162","681100","0.0-32.0-0.5","SS1613138381166","","","null","","","","","<p><img src= images/blank.png width =""200"" height = ""200"" style = ""float:right""></p><p><img src=images/blank.png width =""800"" height = ""200""></p>","","","","","","","","","","","",""
"","13477.754999999888","sequential-stimulus-presentation","163","695454","0.0-32.0-1.5","SS1613138381166","trial","","40","800","14277.754999999888","images/stimuli/spore_stims/complex_06_A_d.gif","images/stimuli/spore_stims/complex_01_B_b.gif","","","","","8","complex_dissimilar","images/stimuli/spore_stims/complex_01_B_b.gif","left","","","","",""
"","null","html-keyboard-response","164","696427","0.0-32.0-0.6","SS1613138381166","","","null","","","","","<p><img src= images/blank.png width =""200"" height = ""200"" style = ""float:right""></p><p><img src=images/blank.png width =""800"" height = ""200""></p>","","","","","","","","","","","",""
"","8415.345000001253","sequential-stimulus-presentation","165","705748","0.0-32.0-1.6","SS1613138381166","trial","","40","800","9215.345000001253","images/stimuli/spore_stims/complex_06_A_d.gif","images/stimuli/spore_stims/complex_01_B_b.gif","","","","","8","complex_dissimilar","images/stimuli/spore_stims/complex_01_B_b.gif","left","","","","",""
"","null","html-keyboard-response","166","706673","0.0-32.0-0.7","SS1613138381166","","","null","","","","","<p><img src= images/blank.png width =""200"" height = ""200"" style = ""float:right""></p><p><img src=images/blank.png width =""800"" height = ""200""></p>","","","","","","","","","","","",""
"","927.3450000036974","sequential-stimulus-presentation","167","708421","0.0-32.0-1.7","SS1613138381166","trial","","40","800","1727.3450000036974","images/stimuli/spore_stims/complex_06_A_d.gif","images/stimuli/spore_stims/complex_01_B_b.gif","","","","","8","complex_dissimilar","images/stimuli/spore_stims/complex_01_B_b.gif","left","","","","",""
"","2256.970000002184","html-keyboard-response","168","710685","0.0-33.0","SS1613138381166","pref_question","","51","","","","","<video width ='960' height = '540' style='padding-top:8%' autoplay muted><source src='images/stimuli/wall_pref.mp4' type='video/mp4'></video>","3","right","66%","8","","","","","","","",""
"","4179.97500000638","sequential-stimulus-presentation","169","715685","0.0-34.0","SS1613138381166","pref_reveal","","40","800","4979.97500000638","null","null","","","","","8","","","","novel","","","",""
"","null","html-keyboard-response","170","716895","0.0-35.0-0.0","SS1613138381166","","","null","","","","","<p><img src= images/blank.png width =""200"" height = ""200"" style = ""float:right""></p><p><img src=images/blank.png width =""800"" height = ""200""></p>","","","","","","","","","","","",""
"","4503.205000000889","sequential-stimulus-presentation","171","722212","0.0-35.0-1.0","SS1613138381166","trial","","40","800","5303.205000000889","images/stimuli/spore_stims/complex_04_B_d.gif","images/stimuli/spore_stims/complex_20_A_d.gif","","","","","9","complex_dissimilar","images/stimuli/spore_stims/complex_20_A_d.gif","middle","","","","",""
"","null","html-keyboard-response","172","723462","0.0-35.0-0.1","SS1613138381166","","","null","","","","","<p><img src= images/blank.png width =""200"" height = ""200"" style = ""float:right""></p><p><img src=images/blank.png width =""800"" height = ""200""></p>","","","","","","","","","","","",""
"","790.8050000114599","sequential-stimulus-presentation","173","725147","0.0-35.0-1.1","SS1613138381166","trial","","40","800","1590.80500001146","images/stimuli/spore_stims/complex_04_B_d.gif","images/stimuli/spore_stims/complex_20_A_d.gif","","","","","9","complex_dissimilar","images/stimuli/spore_stims/complex_20_A_d.gif","middle","","","","",""
"","null","html-keyboard-response","174","726124","0.0-35.0-0.2","SS1613138381166","","","null","","","","","<p><img src= images/blank.png width =""200"" height = ""200"" style = ""float:right""></p><p><img src=images/blank.png width =""800"" height = ""200""></p>","","","","","","","","","","","",""
"","601.4249999861931","sequential-stimulus-presentation","175","727548","0.0-35.0-1.2","SS1613138381166","trial","","40","800","1401.4249999861931","images/stimuli/spore_stims/complex_04_B_d.gif","images/stimuli/spore_stims/complex_20_A_d.gif","","","","","9","complex_dissimilar","images/stimuli/spore_stims/complex_20_A_d.gif","middle","","","","",""
"","null","html-keyboard-response","176","728532","0.0-35.0-0.3","SS1613138381166","","","null","","","","","<p><img src= images/blank.png width =""200"" height = ""200"" style = ""float:right""></p><p><img src=images/blank.png width =""800"" height = ""200""></p>","","","","","","","","","","","",""
"","382.0149999955902","sequential-stimulus-presentation","177","729748","0.0-35.0-1.3","SS1613138381166","trial","","40","800","1182.0149999955902","images/stimuli/spore_stims/complex_04_B_d.gif","images/stimuli/spore_stims/complex_20_A_d.gif","","","","","9","complex_dissimilar","images/stimuli/spore_stims/complex_20_A_d.gif","middle","","","","",""
"","null","html-keyboard-response","178","731121","0.0-35.0-0.4","SS1613138381166","","","null","","","","","<p><img src= images/blank.png width =""200"" height = ""200"" style = ""float:right""></p><p><img src=images/blank.png width =""800"" height = ""200""></p>","","","","","","","","","","","",""
"","462.59499998996034","sequential-stimulus-presentation","179","732405","0.0-35.0-1.4","SS1613138381166","trial","","40","800","1262.5949999899603","images/stimuli/spore_stims/complex_04_B_d.gif","images/stimuli/spore_stims/complex_20_A_d.gif","","","","","9","complex_dissimilar","images/stimuli/spore_stims/complex_20_A_d.gif","middle","","","","",""
"","null","html-keyboard-response","180","733306","0.0-35.0-0.5","SS1613138381166","","","null","","","","","<p><img src= images/blank.png width =""200"" height = ""200"" style = ""float:right""></p><p><img src=images/blank.png width =""800"" height = ""200""></p>","","","","","","","","","","","",""
"","353.11000001092907","sequential-stimulus-presentation","181","734532","0.0-35.0-1.5","SS1613138381166","trial","","40","800","1153.110000010929","images/stimuli/spore_stims/complex_04_B_d.gif","images/stimuli/spore_stims/complex_20_A_d.gif","","","","","9","complex_dissimilar","images/stimuli/spore_stims/complex_20_A_d.gif","middle","","","","",""
"","null","html-keyboard-response","182","735610","0.0-35.0-0.6","SS1613138381166","","","null","","","","","<p><img src= images/blank.png width =""200"" height = ""200"" style = ""float:right""></p><p><img src=images/blank.png width =""800"" height = ""200""></p>","","","","","","","","","","","",""
"","3107.8750000015134","sequential-stimulus-presentation","183","739548","0.0-35.0-1.6","SS1613138381166","trial","","40","800","3907.8750000015134","images/stimuli/spore_stims/complex_04_B_d.gif","images/stimuli/spore_stims/complex_20_A_d.gif","","","","","9","complex_dissimilar","images/stimuli/spore_stims/complex_04_B_d.gif","left","","","","",""
"","null","html-keyboard-response","184","740509","0.0-35.0-0.7","SS1613138381166","","","null","","","","","<p><img src= images/blank.png width =""200"" height = ""200"" style = ""float:right""></p><p><img src=images/blank.png width =""800"" height = ""200""></p>","","","","","","","","","","","",""
"","996.8499999959022","sequential-stimulus-presentation","185","742396","0.0-35.0-1.7","SS1613138381166","trial","","40","800","1796.8499999959022","images/stimuli/spore_stims/complex_04_B_d.gif","images/stimuli/spore_stims/complex_20_A_d.gif","","","","","9","complex_dissimilar","images/stimuli/spore_stims/complex_20_A_d.gif","middle","","","","",""
"","1738.6100000003353","html-keyboard-response","186","744144","0.0-36.0","SS1613138381166","pref_question","","51","","","","","<video width ='960' height = '540' style='padding-top:8%' autoplay muted><source src='images/stimuli/wall_pref.mp4' type='video/mp4'></video>","3","right","66%","9","","","","","","","",""
"","5007.744999995339","sequential-stimulus-presentation","187","749989","0.0-37.0","SS1613138381166","pref_reveal","","40","800","5807.744999995339","null","null","","","","","9","","","","novel","","","",""
"","null","html-keyboard-response","188","751141","0.0-38.0-0.0","SS1613138381166","","","null","","","","","<p><img src= images/blank.png width =""200"" height = ""200"" style = ""float:right""></p><p><img src=images/blank.png width =""800"" height = ""200""></p>","","","","","","","","","","","",""
"","4649.23500000441","sequential-stimulus-presentation","189","756630","0.0-38.0-1.0","SS1613138381166","trial","","40","800","5449.23500000441","images/stimuli/spore_stims/simple_18_B_c.gif","images/stimuli/spore_stims/simple_18_A_c.gif","","","","","10","simple_similar","images/stimuli/spore_stims/simple_18_A_c.gif","left","","","","",""
"","null","html-keyboard-response","190","757727","0.0-38.0-0.1","SS1613138381166","","","null","","","","","<p><img src= images/blank.png width =""200"" height = ""200"" style = ""float:right""></p><p><img src=images/blank.png width =""800"" height = ""200""></p>","","","","","","","","","","","",""
"","689.7999999928288","sequential-stimulus-presentation","191","759229","0.0-38.0-1.1","SS1613138381166","trial","","40","800","1489.7999999928288","images/stimuli/spore_stims/simple_18_B_c.gif","images/stimuli/spore_stims/simple_18_A_c.gif","","","","","10","simple_similar","images/stimuli/spore_stims/simple_18_A_c.gif","left","","","","",""
"","null","html-keyboard-response","192","760052","0.0-38.0-0.2","SS1613138381166","","","null","","","","","<p><img src= images/blank.png width =""200"" height = ""200"" style = ""float:right""></p><p><img src=images/blank.png width =""800"" height = ""200""></p>","","","","","","","","","","","",""
"","535.505000007106","sequential-stimulus-presentation","193","761422","0.0-38.0-1.2","SS1613138381166","trial","","40","800","1335.505000007106","images/stimuli/spore_stims/simple_18_B_c.gif","images/stimuli/spore_stims/simple_18_A_c.gif","","","","","10","simple_similar","images/stimuli/spore_stims/simple_18_A_c.gif","left","","","","",""
"","null","html-keyboard-response","194","762359","0.0-38.0-0.3","SS1613138381166","","","null","","","","","<p><img src= images/blank.png width =""200"" height = ""200"" style = ""float:right""></p><p><img src=images/blank.png width =""800"" height = ""200""></p>","","","","","","","","","","","",""
"","508.21499999437947","sequential-stimulus-presentation","195","763684","0.0-38.0-1.3","SS1613138381166","trial","","40","800","1308.2149999943795","images/stimuli/spore_stims/simple_18_B_c.gif","images/stimuli/spore_stims/simple_18_A_c.gif","","","","","10","simple_similar","images/stimuli/spore_stims/simple_18_A_c.gif","left","","","","",""
"","null","html-keyboard-response","196","764676","0.0-38.0-0.4","SS1613138381166","","","null","","","","","<p><img src= images/blank.png width =""200"" height = ""200"" style = ""float:right""></p><p><img src=images/blank.png width =""800"" height = ""200""></p>","","","","","","","","","","","",""
"","426.5200000081677","sequential-stimulus-presentation","197","765920","0.0-38.0-1.4","SS1613138381166","trial","","40","800","1226.5200000081677","images/stimuli/spore_stims/simple_18_B_c.gif","images/stimuli/spore_stims/simple_18_A_c.gif","","","","","10","simple_similar","images/stimuli/spore_stims/simple_18_A_c.gif","left","","","","",""
"","null","html-keyboard-response","198","767156","0.0-38.0-0.5","SS1613138381166","","","null","","","","","<p><img src= images/blank.png width =""200"" height = ""200"" style = ""float:right""></p><p><img src=images/blank.png width =""800"" height = ""200""></p>","","","","","","","","","","","",""
"","470.6199999927776","sequential-stimulus-presentation","199","768445","0.0-38.0-1.5","SS1613138381166","trial","","40","800","1270.6199999927776","images/stimuli/spore_stims/simple_18_B_c.gif","images/stimuli/spore_stims/simple_18_A_c.gif","","","","","10","simple_similar","images/stimuli/spore_stims/simple_18_A_c.gif","left","","","","",""
"","null","html-keyboard-response","200","769596","0.0-38.0-0.6","SS1613138381166","","","null","","","","","<p><img src= images/blank.png width =""200"" height = ""200"" style = ""float:right""></p><p><img src=images/blank.png width =""800"" height = ""200""></p>","","","","","","","","","","","",""
"","304.18000000645407","sequential-stimulus-presentation","201","770742","0.0-38.0-1.6","SS1613138381166","trial","","40","800","1104.180000006454","images/stimuli/spore_stims/simple_18_B_c.gif","images/stimuli/spore_stims/simple_18_A_c.gif","","","","","10","simple_similar","images/stimuli/spore_stims/simple_18_A_c.gif","left","","","","",""
"","null","html-keyboard-response","202","771926","0.0-38.0-0.7","SS1613138381166","","","null","","","","","<p><img src= images/blank.png width =""200"" height = ""200"" style = ""float:right""></p><p><img src=images/blank.png width =""800"" height = ""200""></p>","","","","","","","","","","","",""
"","2566.774999999325","sequential-stimulus-presentation","203","775341","0.0-38.0-1.7","SS1613138381166","trial","","40","800","3366.774999999325","images/stimuli/spore_stims/simple_18_B_c.gif","images/stimuli/spore_stims/simple_18_A_c.gif","","","","","10","simple_similar","images/stimuli/spore_stims/simple_18_B_c.gif","middle","","","","",""
"","2390.434999993886","html-keyboard-response","204","777741","0.0-39.0","SS1613138381166","pref_question","","50","","","","","<video width ='960' height = '540' style='padding-top:8%' autoplay muted><source src='images/stimuli/wall_pref.mp4' type='video/mp4'></video>","2","middle","45%","10","","","","","","","",""
"","726.7700000084005","sequential-stimulus-presentation","205","779325","0.0-40.0","SS1613138381166","pref_reveal","","40","800","1526.7700000084005","null","null","","","","","10","","","","deviant","","","",""
"","null","html-keyboard-response","206","780148","0.0-41.0-0.0","SS1613138381166","","","null","","","","","<p><img src= images/blank.png width =""200"" height = ""200"" style = ""float:right""></p><p><img src=images/blank.png width =""800"" height = ""200""></p>","","","","","","","","","","","",""
"","3942.544999998063","sequential-stimulus-presentation","207","784924","0.0-41.0-1.0","SS1613138381166","trial","","40","800","4742.544999998063","images/stimuli/spore_stims/simple_05_A_b.gif","images/stimuli/spore_stims/simple_15_B_b.gif","","","","","11","simple_dissimilar","images/stimuli/spore_stims/simple_15_B_b.gif","left","","","","",""
"","null","html-keyboard-response","208","785939","0.0-41.0-0.1","SS1613138381166","","","null","","","","","<p><img src= images/blank.png width =""200"" height = ""200"" style = ""float:right""></p><p><img src=images/blank.png width =""800"" height = ""200""></p>","","","","","","","","","","","",""
"","533.4900000016205","sequential-stimulus-presentation","209","787327","0.0-41.0-1.1","SS1613138381166","trial","","40","800","1333.4900000016205","images/stimuli/spore_stims/simple_05_A_b.gif","images/stimuli/spore_stims/simple_15_B_b.gif","","","","","11","simple_dissimilar","images/stimuli/spore_stims/simple_15_B_b.gif","left","","","","",""
"","null","html-keyboard-response","210","788405","0.0-41.0-0.2","SS1613138381166","","","null","","","","","<p><img src= images/blank.png width =""200"" height = ""200"" style = ""float:right""></p><p><img src=images/blank.png width =""800"" height = ""200""></p>","","","","","","","","","","","",""
"","2169.885000010254","sequential-stimulus-presentation","211","791389","0.0-41.0-1.2","SS1613138381166","trial","","40","800","2969.885000010254","images/stimuli/spore_stims/simple_05_A_b.gif","images/stimuli/spore_stims/simple_15_B_b.gif","","","","","11","simple_dissimilar","images/stimuli/spore_stims/simple_15_B_b.gif","left","","","","",""
"","null","html-keyboard-response","212","792390","0.0-41.0-0.3","SS1613138381166","","","null","","","","","<p><img src= images/blank.png width =""200"" height = ""200"" style = ""float:right""></p><p><img src=images/blank.png width =""800"" height = ""200""></p>","","","","","","","","","","","",""
"","8421.275000000605","sequential-stimulus-presentation","213","801630","0.0-41.0-1.3","SS1613138381166","trial","","40","800","9221.275000000605","images/stimuli/spore_stims/simple_05_A_b.gif","images/stimuli/spore_stims/simple_15_B_b.gif","","","","","11","simple_dissimilar","images/stimuli/spore_stims/simple_15_B_b.gif","left","","","","",""
"","null","html-keyboard-response","214","802776","0.0-41.0-0.4","SS1613138381166","","","null","","","","","<p><img src= images/blank.png width =""200"" height = ""200"" style = ""float:right""></p><p><img src=images/blank.png width =""800"" height = ""200""></p>","","","","","","","","","","","",""
"","746.2950000044657","sequential-stimulus-presentation","215","804356","0.0-41.0-1.4","SS1613138381166","trial","","40","800","1546.2950000044657","images/stimuli/spore_stims/simple_05_A_b.gif","images/stimuli/spore_stims/simple_15_B_b.gif","","","","","11","simple_dissimilar","images/stimuli/spore_stims/simple_15_B_b.gif","left","","","","",""
"","null","html-keyboard-response","216","805578","0.0-41.0-0.5","SS1613138381166","","","null","","","","","<p><img src= images/blank.png width =""200"" height = ""200"" style = ""float:right""></p><p><img src=images/blank.png width =""800"" height = ""200""></p>","","","","","","","","","","","",""
"","2423.674999998184","sequential-stimulus-presentation","217","808821","0.0-41.0-1.5","SS1613138381166","trial","","40","800","3223.674999998184","images/stimuli/spore_stims/simple_05_A_b.gif","images/stimuli/spore_stims/simple_15_B_b.gif","","","","","11","simple_dissimilar","images/stimuli/spore_stims/simple_15_B_b.gif","left","","","","",""
"","null","html-keyboard-response","218","810058","0.0-41.0-0.6","SS1613138381166","","","null","","","","","<p><img src= images/blank.png width =""200"" height = ""200"" style = ""float:right""></p><p><img src=images/blank.png width =""800"" height = ""200""></p>","","","","","","","","","","","",""
"","545.7250000035856","sequential-stimulus-presentation","219","811420","0.0-41.0-1.6","SS1613138381166","trial","","40","800","1345.7250000035856","images/stimuli/spore_stims/simple_05_A_b.gif","images/stimuli/spore_stims/simple_15_B_b.gif","","","","","11","simple_dissimilar","images/stimuli/spore_stims/simple_15_B_b.gif","left","","","","",""
"","null","html-keyboard-response","220","812603","0.0-41.0-0.7","SS1613138381166","","","null","","","","","<p><img src= images/blank.png width =""200"" height = ""200"" style = ""float:right""></p><p><img src=images/blank.png width =""800"" height = ""200""></p>","","","","","","","","","","","",""
"","56731.82000000088","sequential-stimulus-presentation","221","870149","0.0-41.0-1.7","SS1613138381166","trial","","40","800","57531.82000000088","images/stimuli/spore_stims/simple_05_A_b.gif","images/stimuli/spore_stims/simple_15_B_b.gif","","","","","11","simple_dissimilar","images/stimuli/spore_stims/simple_05_A_b.gif","middle","","","","",""
"","2565.8049999910872","html-keyboard-response","222","872742","0.0-42.0","SS1613138381166","pref_question","","51","","","","","<video width ='960' height = '540' style='padding-top:8%' autoplay muted><source src='images/stimuli/wall_pref.mp4' type='video/mp4'></video>","3","right","66%","11","","","","","","","",""
"","2253.2700000010664","sequential-stimulus-presentation","223","875813","0.0-43.0","SS1613138381166","pref_reveal","","40","800","3053.2700000010664","null","null","","","","","11","","","","novel","","","",""
"","null","html-keyboard-response","224","876962","0.0-44.0-0.0","SS1613138381166","","","null","","","","","<p><img src= images/blank.png width =""200"" height = ""200"" style = ""float:right""></p><p><img src=images/blank.png width =""800"" height = ""200""></p>","","","","","","","","","","","",""
"","5688.99500000407","sequential-stimulus-presentation","225","883471","0.0-44.0-1.0","SS1613138381166","trial","","40","800","6488.99500000407","images/stimuli/spore_stims/complex_17_B_d.gif","images/stimuli/spore_stims/complex_17_A_d.gif","","","","","12","complex_similar","images/stimuli/spore_stims/complex_17_A_d.gif","right","","","","",""
"","null","html-keyboard-response","226","884634","0.0-44.0-0.1","SS1613138381166","","","null","","","","","<p><img src= images/blank.png width =""200"" height = ""200"" style = ""float:right""></p><p><img src=images/blank.png width =""800"" height = ""200""></p>","","","","","","","","","","","",""
"","1240.510000003269","sequential-stimulus-presentation","227","886701","0.0-44.0-1.1","SS1613138381166","trial","","40","800","2040.510000003269","images/stimuli/spore_stims/complex_17_B_d.gif","images/stimuli/spore_stims/complex_17_A_d.gif","","","","","12","complex_similar","images/stimuli/spore_stims/complex_17_A_d.gif","right","","","","",""
"","null","html-keyboard-response","228","887765","0.0-44.0-0.2","SS1613138381166","","","null","","","","","<p><img src= images/blank.png width =""200"" height = ""200"" style = ""float:right""></p><p><img src=images/blank.png width =""800"" height = ""200""></p>","","","","","","","","","","","",""
"","1948.4700000029989","sequential-stimulus-presentation","229","890540","0.0-44.0-1.2","SS1613138381166","trial","","40","800","2748.470000002999","images/stimuli/spore_stims/complex_17_B_d.gif","images/stimuli/spore_stims/complex_17_A_d.gif","","","","","12","complex_similar","images/stimuli/spore_stims/complex_17_A_d.gif","right","","","","",""
"","null","html-keyboard-response","230","891780","0.0-44.0-0.3","SS1613138381166","","","null","","","","","<p><img src= images/blank.png width =""200"" height = ""200"" style = ""float:right""></p><p><img src=images/blank.png width =""800"" height = ""200""></p>","","","","","","","","","","","",""
"","628.9799999940442","sequential-stimulus-presentation","231","893229","0.0-44.0-1.3","SS1613138381166","trial","","40","800","1428.9799999940442","images/stimuli/spore_stims/complex_17_B_d.gif","images/stimuli/spore_stims/complex_17_A_d.gif","","","","","12","complex_similar","images/stimuli/spore_stims/complex_17_A_d.gif","right","","","","",""
"","null","html-keyboard-response","232","894342","0.0-44.0-0.4","SS1613138381166","","","null","","","","","<p><img src= images/blank.png width =""200"" height = ""200"" style = ""float:right""></p><p><img src=images/blank.png width =""800"" height = ""200""></p>","","","","","","","","","","","",""
"","1105.8699999994133","sequential-stimulus-presentation","233","896270","0.0-44.0-1.4","SS1613138381166","trial","","40","800","1905.8699999994133","images/stimuli/spore_stims/complex_17_B_d.gif","images/stimuli/spore_stims/complex_17_A_d.gif","","","","","12","complex_similar","images/stimuli/spore_stims/complex_17_A_d.gif","right","","","","",""
"","null","html-keyboard-response","234","897409","0.0-44.0-0.5","SS1613138381166","","","null","","","","","<p><img src= images/blank.png width =""200"" height = ""200"" style = ""float:right""></p><p><img src=images/blank.png width =""800"" height = ""200""></p>","","","","","","","","","","","",""
"","2734.9099999992177","sequential-stimulus-presentation","235","901000","0.0-44.0-1.5","SS1613138381166","trial","","40","800","3534.9099999992177","images/stimuli/spore_stims/complex_17_B_d.gif","images/stimuli/spore_stims/complex_17_A_d.gif","","","","","12","complex_similar","images/stimuli/spore_stims/complex_17_B_d.gif","left","","","","",""
"","null","html-keyboard-response","236","902215","0.0-44.0-0.6","SS1613138381166","","","null","","","","","<p><img src= images/blank.png width =""200"" height = ""200"" style = ""float:right""></p><p><img src=images/blank.png width =""800"" height = ""200""></p>","","","","","","","","","","","",""
"","505.2050000085728","sequential-stimulus-presentation","237","903551","0.0-44.0-1.6","SS1613138381166","trial","","40","800","1305.2050000085728","images/stimuli/spore_stims/complex_17_B_d.gif","images/stimuli/spore_stims/complex_17_A_d.gif","","","","","12","complex_similar","images/stimuli/spore_stims/complex_17_A_d.gif","right","","","","",""
"","null","html-keyboard-response","238","904418","0.0-44.0-0.7","SS1613138381166","","","null","","","","","<p><img src= images/blank.png width =""200"" height = ""200"" style = ""float:right""></p><p><img src=images/blank.png width =""800"" height = ""200""></p>","","","","","","","","","","","",""
"","862.3899999947753","sequential-stimulus-presentation","239","906094","0.0-44.0-1.7","SS1613138381166","trial","","40","800","1662.3899999947753","images/stimuli/spore_stims/complex_17_B_d.gif","images/stimuli/spore_stims/complex_17_A_d.gif","","","","","12","complex_similar","images/stimuli/spore_stims/complex_17_A_d.gif","right","","","","",""
"","2038.5100000130478","html-keyboard-response","240","908213","0.0-45.0","SS1613138381166","pref_question","","50","","","","","<video width ='960' height = '540' style='padding-top:8%' autoplay muted><source src='images/stimuli/wall_pref.mp4' type='video/mp4'></video>","2","middle","45%","12","","","","","","","",""
"","3476.390000010724","sequential-stimulus-presentation","241","912501","0.0-46.0","SS1613138381166","pref_reveal","","40","800","4276.390000010724","null","null","","","","","12","","","","novel","","","",""
"","null","html-keyboard-response","242","913556","0.0-47.0-0.0","SS1613138381166","","","null","","","","","<p><img src= images/blank.png width =""200"" height = ""200"" style = ""float:right""></p><p><img src=images/blank.png width =""800"" height = ""200""></p>","","","","","","","","","","","",""
"","3009.9500000069384","sequential-stimulus-presentation","243","917380","0.0-47.0-1.0","SS1613138381166","trial","","40","800","3809.9500000069384","images/stimuli/spore_stims/simple_12_A_b.gif","images/stimuli/spore_stims/simple_12_B_b.gif","","","","","13","simple_similar","images/stimuli/spore_stims/simple_12_B_b.gif","right","","","","",""
"","null","html-keyboard-response","244","918527","0.0-47.0-0.1","SS1613138381166","","","null","","","","","<p><img src= images/blank.png width =""200"" height = ""200"" style = ""float:right""></p><p><img src=images/blank.png width =""800"" height = ""200""></p>","","","","","","","","","","","",""
"","560.9050000057323","sequential-stimulus-presentation","245","919910","0.0-47.0-1.1","SS1613138381166","trial","","40","800","1360.9050000057323","images/stimuli/spore_stims/simple_12_A_b.gif","images/stimuli/spore_stims/simple_12_B_b.gif","","","","","13","simple_similar","images/stimuli/spore_stims/simple_12_B_b.gif","right","","","","",""
"","null","html-keyboard-response","246","920737","0.0-47.0-0.2","SS1613138381166","","","null","","","","","<p><img src= images/blank.png width =""200"" height = ""200"" style = ""float:right""></p><p><img src=images/blank.png width =""800"" height = ""200""></p>","","","","","","","","","","","",""
"","1404.1500000021188","sequential-stimulus-presentation","247","922972","0.0-47.0-1.2","SS1613138381166","trial","","40","800","2204.1500000021188","images/stimuli/spore_stims/simple_12_A_b.gif","images/stimuli/spore_stims/simple_12_B_b.gif","","","","","13","simple_similar","images/stimuli/spore_stims/simple_12_A_b.gif","left","","","","",""
"","null","html-keyboard-response","248","924122","0.0-47.0-0.3","SS1613138381166","","","null","","","","","<p><img src= images/blank.png width =""200"" height = ""200"" style = ""float:right""></p><p><img src=images/blank.png width =""800"" height = ""200""></p>","","","","","","","","","","","",""
"","32934.284999995725","sequential-stimulus-presentation","249","957869","0.0-47.0-1.3","SS1613138381166","trial","","40","800","33734.284999995725","images/stimuli/spore_stims/simple_12_A_b.gif","images/stimuli/spore_stims/simple_12_B_b.gif","","","","","13","simple_similar","images/stimuli/spore_stims/simple_12_B_b.gif","right","","","","",""
"","null","html-keyboard-response","250","959028","0.0-47.0-0.4","SS1613138381166","","","null","","","","","<p><img src= images/blank.png width =""200"" height = ""200"" style = ""float:right""></p><p><img src=images/blank.png width =""800"" height = ""200""></p>","","","","","","","","","","","",""
"","5241.589999990538","sequential-stimulus-presentation","251","965086","0.0-47.0-1.4","SS1613138381166","trial","","40","800","6041.589999990538","images/stimuli/spore_stims/simple_12_A_b.gif","images/stimuli/spore_stims/simple_12_B_b.gif","","","","","13","simple_similar","images/stimuli/spore_stims/simple_12_B_b.gif","right","","","","",""
"","null","html-keyboard-response","252","966103","0.0-47.0-0.5","SS1613138381166","","","null","","","","","<p><img src= images/blank.png width =""200"" height = ""200"" style = ""float:right""></p><p><img src=images/blank.png width =""800"" height = ""200""></p>","","","","","","","","","","","",""
"","3897.9699999908917","sequential-stimulus-presentation","253","970814","0.0-47.0-1.5","SS1613138381166","trial","","40","800","4697.969999990892","images/stimuli/spore_stims/simple_12_A_b.gif","images/stimuli/spore_stims/simple_12_B_b.gif","","","","","13","simple_similar","images/stimuli/spore_stims/simple_12_B_b.gif","right","","","","",""
"","null","html-keyboard-response","254","972000","0.0-47.0-0.6","SS1613138381166","","","null","","","","","<p><img src= images/blank.png width =""200"" height = ""200"" style = ""float:right""></p><p><img src=images/blank.png width =""800"" height = ""200""></p>","","","","","","","","","","","",""
"","395.2949999948032","sequential-stimulus-presentation","255","973217","0.0-47.0-1.6","SS1613138381166","trial","","40","800","1195.2949999948032","images/stimuli/spore_stims/simple_12_A_b.gif","images/stimuli/spore_stims/simple_12_B_b.gif","","","","","13","simple_similar","images/stimuli/spore_stims/simple_12_B_b.gif","right","","","","",""
"","null","html-keyboard-response","256","974337","0.0-47.0-0.7","SS1613138381166","","","null","","","","","<p><img src= images/blank.png width =""200"" height = ""200"" style = ""float:right""></p><p><img src=images/blank.png width =""800"" height = ""200""></p>","","","","","","","","","","","",""
"","3816.7450000037206","sequential-stimulus-presentation","257","978997","0.0-47.0-1.7","SS1613138381166","trial","","40","800","4616.745000003721","images/stimuli/spore_stims/simple_12_A_b.gif","images/stimuli/spore_stims/simple_12_B_b.gif","","","","","13","simple_similar","images/stimuli/spore_stims/simple_12_B_b.gif","right","","","","",""
"","1862.3400000069523","html-keyboard-response","258","980870","0.0-48.0","SS1613138381166","pref_question","","49","","","","","<video width ='960' height = '540' style='padding-top:8%' autoplay muted><source src='images/stimuli/wall_pref.mp4' type='video/mp4'></video>","1","left","25%","13","","","","","","","",""
"","2486.9249999901513","sequential-stimulus-presentation","259","984222","0.0-49.0","SS1613138381166","pref_reveal","","40","800","3286.9249999901513","null","null","","","","","13","","","","deviant","","","",""
"","null","html-keyboard-response","260","985487","0.0-50.0-0.0","SS1613138381166","","","null","","","","","<p><img src= images/blank.png width =""200"" height = ""200"" style = ""float:right""></p><p><img src=images/blank.png width =""800"" height = ""200""></p>","","","","","","","","","","","",""
"","23468.65500000422","sequential-stimulus-presentation","261","1009781","0.0-50.0-1.0","SS1613138381166","trial","","40","800","24268.65500000422","images/stimuli/spore_stims/simple_12_A_d.gif","images/stimuli/spore_stims/simple_01_B_a.gif","","","","","14","simple_dissimilar","images/stimuli/spore_stims/simple_01_B_a.gif","right","","","","",""
"","null","html-keyboard-response","262","1010833","0.0-50.0-0.1","SS1613138381166","","","null","","","","","<p><img src= images/blank.png width =""200"" height = ""200"" style = ""float:right""></p><p><img src=images/blank.png width =""800"" height = ""200""></p>","","","","","","","","","","","",""
"","4240.335000009509","sequential-stimulus-presentation","263","1015908","0.0-50.0-1.1","SS1613138381166","trial","","40","800","5040.335000009509","images/stimuli/spore_stims/simple_12_A_d.gif","images/stimuli/spore_stims/simple_01_B_a.gif","","","","","14","simple_dissimilar","images/stimuli/spore_stims/simple_01_B_a.gif","right","","","","",""
"","null","html-keyboard-response","264","1017080","0.0-50.0-0.2","SS1613138381166","","","null","","","","","<p><img src= images/blank.png width =""200"" height = ""200"" style = ""float:right""></p><p><img src=images/blank.png width =""800"" height = ""200""></p>","","","","","","","","","","","",""
"","10222.225000005215","sequential-stimulus-presentation","265","1028131","0.0-50.0-1.2","SS1613138381166","trial","","40","800","11022.225000005215","images/stimuli/spore_stims/simple_12_A_d.gif","images/stimuli/spore_stims/simple_01_B_a.gif","","","","","14","simple_dissimilar","images/stimuli/spore_stims/simple_01_B_a.gif","right","","","","",""
"","null","html-keyboard-response","266","1029290","0.0-50.0-0.3","SS1613138381166","","","null","","","","","<p><img src= images/blank.png width =""200"" height = ""200"" style = ""float:right""></p><p><img src=images/blank.png width =""800"" height = ""200""></p>","","","","","","","","","","","",""
"","6336.584999997402","sequential-stimulus-presentation","267","1036444","0.0-50.0-1.3","SS1613138381166","trial","","40","800","7136.584999997402","images/stimuli/spore_stims/simple_12_A_d.gif","images/stimuli/spore_stims/simple_01_B_a.gif","","","","","14","simple_dissimilar","images/stimuli/spore_stims/simple_01_B_a.gif","right","","","","",""
"","null","html-keyboard-response","268","1037489","0.0-50.0-0.4","SS1613138381166","","","null","","","","","<p><img src= images/blank.png width =""200"" height = ""200"" style = ""float:right""></p><p><img src=images/blank.png width =""800"" height = ""200""></p>","","","","","","","","","","","",""
"","707.1999999899417","sequential-stimulus-presentation","269","1039037","0.0-50.0-1.4","SS1613138381166","trial","","40","800","1507.1999999899417","images/stimuli/spore_stims/simple_12_A_d.gif","images/stimuli/spore_stims/simple_01_B_a.gif","","","","","14","simple_dissimilar","images/stimuli/spore_stims/simple_01_B_a.gif","right","","","","",""
"","null","html-keyboard-response","270","1040316","0.0-50.0-0.5","SS1613138381166","","","null","","","","","<p><img src= images/blank.png width =""200"" height = ""200"" style = ""float:right""></p><p><img src=images/blank.png width =""800"" height = ""200""></p>","","","","","","","","","","","",""
"","695.6399999908172","sequential-stimulus-presentation","271","1041845","0.0-50.0-1.5","SS1613138381166","trial","","40","800","1495.6399999908172","images/stimuli/spore_stims/simple_12_A_d.gif","images/stimuli/spore_stims/simple_01_B_a.gif","","","","","14","simple_dissimilar","images/stimuli/spore_stims/simple_01_B_a.gif","right","","","","",""
"","null","html-keyboard-response","272","1042797","0.0-50.0-0.6","SS1613138381166","","","null","","","","","<p><img src= images/blank.png width =""200"" height = ""200"" style = ""float:right""></p><p><img src=images/blank.png width =""800"" height = ""200""></p>","","","","","","","","","","","",""
"","400.80000000307336","sequential-stimulus-presentation","273","1044012","0.0-50.0-1.6","SS1613138381166","trial","","40","800","1200.8000000030734","images/stimuli/spore_stims/simple_12_A_d.gif","images/stimuli/spore_stims/simple_01_B_a.gif","","","","","14","simple_dissimilar","images/stimuli/spore_stims/simple_01_B_a.gif","right","","","","",""
"","null","html-keyboard-response","274","1044849","0.0-50.0-0.7","SS1613138381166","","","null","","","","","<p><img src= images/blank.png width =""200"" height = ""200"" style = ""float:right""></p><p><img src=images/blank.png width =""800"" height = ""200""></p>","","","","","","","","","","","",""
"","2233.504999996396","sequential-stimulus-presentation","275","1047917","0.0-50.0-1.7","SS1613138381166","trial","","40","800","3033.504999996396","images/stimuli/spore_stims/simple_12_A_d.gif","images/stimuli/spore_stims/simple_01_B_a.gif","","","","","14","simple_dissimilar","images/stimuli/spore_stims/simple_12_A_d.gif","middle","","","","",""
"","910.2399999974295","html-keyboard-response","276","1048844","0.0-51.0","SS1613138381166","pref_question","","49","","","","","<video width ='960' height = '540' style='padding-top:8%' autoplay muted><source src='images/stimuli/wall_pref.mp4' type='video/mp4'></video>","1","left","25%","14","","","","","","","",""
"","75.8849999983795","sequential-stimulus-presentation","277","1049732","0.0-52.0","SS1613138381166","pref_reveal","","40","800","875.8849999983795","null","null","","","","","14","","","","novel","","","",""
"","null","html-keyboard-response","278","1050711","0.0-53.0-0.0","SS1613138381166","","","null","","","","","<p><img src= images/blank.png width =""200"" height = ""200"" style = ""float:right""></p><p><img src=images/blank.png width =""800"" height = ""200""></p>","","","","","","","","","","","",""
"","295.0400000119116","sequential-stimulus-presentation","279","1051871","0.0-53.0-1.0","SS1613138381166","trial","","40","800","1095.0400000119116","images/stimuli/spore_stims/complex_13_A_a.gif","images/stimuli/spore_stims/complex_13_B_a.gif","","","","","15","complex_similar","images/stimuli/spore_stims/complex_13_B_a.gif","left","","","","",""
"","null","html-keyboard-response","280","1053083","0.0-53.0-0.1","SS1613138381166","","","null","","","","","<p><img src= images/blank.png width =""200"" height = ""200"" style = ""float:right""></p><p><img src=images/blank.png width =""800"" height = ""200""></p>","","","","","","","","","","","",""
"","269.26000000094064","sequential-stimulus-presentation","281","1054180","0.0-53.0-1.1","SS1613138381166","trial","","40","800","1069.2600000009406","images/stimuli/spore_stims/complex_13_A_a.gif","images/stimuli/spore_stims/complex_13_B_a.gif","","","","","15","complex_similar","images/stimuli/spore_stims/complex_13_B_a.gif","left","","","","",""
"","null","html-keyboard-response","282","1055195","0.0-53.0-0.2","SS1613138381166","","","null","","","","","<p><img src= images/blank.png width =""200"" height = ""200"" style = ""float:right""></p><p><img src=images/blank.png width =""800"" height = ""200""></p>","","","","","","","","","","","",""
"","448.8649999985937","sequential-stimulus-presentation","283","1056460","0.0-53.0-1.2","SS1613138381166","trial","","40","800","1248.8649999985937","images/stimuli/spore_stims/complex_13_A_a.gif","images/stimuli/spore_stims/complex_13_B_a.gif","","","","","15","complex_similar","images/stimuli/spore_stims/complex_13_B_a.gif","left","","","","",""
"","null","html-keyboard-response","284","1057337","0.0-53.0-0.3","SS1613138381166","","","null","","","","","<p><img src= images/blank.png width =""200"" height = ""200"" style = ""float:right""></p><p><img src=images/blank.png width =""800"" height = ""200""></p>","","","","","","","","","","","",""
"","735.620000006631","sequential-stimulus-presentation","285","1058908","0.0-53.0-1.3","SS1613138381166","trial","","40","800","1535.620000006631","images/stimuli/spore_stims/complex_13_A_a.gif","images/stimuli/spore_stims/complex_13_B_a.gif","","","","","15","complex_similar","images/stimuli/spore_stims/complex_13_A_a.gif","right","","","","",""
"","null","html-keyboard-response","286","1060205","0.0-53.0-0.4","SS1613138381166","","","null","","","","","<p><img src= images/blank.png width =""200"" height = ""200"" style = ""float:right""></p><p><img src=images/blank.png width =""800"" height = ""200""></p>","","","","","","","","","","","",""
"","653.2799999983981","sequential-stimulus-presentation","287","1061677","0.0-53.0-1.4","SS1613138381166","trial","","40","800","1453.2799999983981","images/stimuli/spore_stims/complex_13_A_a.gif","images/stimuli/spore_stims/complex_13_B_a.gif","","","","","15","complex_similar","images/stimuli/spore_stims/complex_13_B_a.gif","left","","","","",""
"","null","html-keyboard-response","288","1062947","0.0-53.0-0.5","SS1613138381166","","","null","","","","","<p><img src= images/blank.png width =""200"" height = ""200"" style = ""float:right""></p><p><img src=images/blank.png width =""800"" height = ""200""></p>","","","","","","","","","","","",""
"","700.9699999906588","sequential-stimulus-presentation","289","1064470","0.0-53.0-1.5","SS1613138381166","trial","","40","800","1500.9699999906588","images/stimuli/spore_stims/complex_13_A_a.gif","images/stimuli/spore_stims/complex_13_B_a.gif","","","","","15","complex_similar","images/stimuli/spore_stims/complex_13_B_a.gif","left","","","","",""
"","null","html-keyboard-response","290","1065802","0.0-53.0-0.6","SS1613138381166","","","null","","","","","<p><img src= images/blank.png width =""200"" height = ""200"" style = ""float:right""></p><p><img src=images/blank.png width =""800"" height = ""200""></p>","","","","","","","","","","","",""
"","592.329999999376","sequential-stimulus-presentation","291","1067260","0.0-53.0-1.6","SS1613138381166","trial","","40","800","1392.329999999376","images/stimuli/spore_stims/complex_13_A_a.gif","images/stimuli/spore_stims/complex_13_B_a.gif","","","","","15","complex_similar","images/stimuli/spore_stims/complex_13_B_a.gif","left","","","","",""
"","null","html-keyboard-response","292","1068567","0.0-53.0-0.7","SS1613138381166","","","null","","","","","<p><img src= images/blank.png width =""200"" height = ""200"" style = ""float:right""></p><p><img src=images/blank.png width =""800"" height = ""200""></p>","","","","","","","","","","","",""
"","294.1450000072364","sequential-stimulus-presentation","293","1069700","0.0-53.0-1.7","SS1613138381166","trial","","40","800","1094.1450000072364","images/stimuli/spore_stims/complex_13_A_a.gif","images/stimuli/spore_stims/complex_13_B_a.gif","","","","","15","complex_similar","images/stimuli/spore_stims/complex_13_B_a.gif","left","","","","",""
"","1446.9899999964982","html-keyboard-response","294","1071161","0.0-54.0","SS1613138381166","pref_question","","51","","","","","<video width ='960' height = '540' style='padding-top:8%' autoplay muted><source src='images/stimuli/wall_pref.mp4' type='video/mp4'></video>","3","right","66%","15","","","","","","","",""
"","1293.1850000021514","sequential-stimulus-presentation","295","1073270","0.0-55.0","SS1613138381166","pref_reveal","","40","800","2093.1850000021514","null","null","","","","","15","","","","deviant","","","",""
"","null","html-keyboard-response","296","1074373","0.0-56.0-0.0","SS1613138381166","","","null","","","","","<p><img src= images/blank.png width =""200"" height = ""200"" style = ""float:right""></p><p><img src=images/blank.png width =""800"" height = ""200""></p>","","","","","","","","","","","",""
"","2145.489999995334","sequential-stimulus-presentation","297","1077338","0.0-56.0-1.0","SS1613138381166","trial","","40","800","2945.489999995334","images/stimuli/spore_stims/simple_17_B_d.gif","images/stimuli/spore_stims/simple_17_A_c.gif","","","","","16","simple_dissimilar","images/stimuli/spore_stims/simple_17_A_c.gif","left","","","","",""
"","null","html-keyboard-response","298","1078524","0.0-56.0-0.1","SS1613138381166","","","null","","","","","<p><img src= images/blank.png width =""200"" height = ""200"" style = ""float:right""></p><p><img src=images/blank.png width =""800"" height = ""200""></p>","","","","","","","","","","","",""
"","1366.7299999941606","sequential-stimulus-presentation","299","1080725","0.0-56.0-1.1","SS1613138381166","trial","","40","800","2166.7299999941606","images/stimuli/spore_stims/simple_17_B_d.gif","images/stimuli/spore_stims/simple_17_A_c.gif","","","","","16","simple_dissimilar","images/stimuli/spore_stims/simple_17_A_c.gif","left","","","","",""
"","null","html-keyboard-response","300","1081682","0.0-56.0-0.2","SS1613138381166","","","null","","","","","<p><img src= images/blank.png width =""200"" height = ""200"" style = ""float:right""></p><p><img src=images/blank.png width =""800"" height = ""200""></p>","","","","","","","","","","","",""
"","1080.3250000025146","sequential-stimulus-presentation","301","1083590","0.0-56.0-1.2","SS1613138381166","trial","","40","800","1880.3250000025146","images/stimuli/spore_stims/simple_17_B_d.gif","images/stimuli/spore_stims/simple_17_A_c.gif","","","","","16","simple_dissimilar","images/stimuli/spore_stims/simple_17_A_c.gif","left","","","","",""
"","null","html-keyboard-response","302","1084898","0.0-56.0-0.3","SS1613138381166","","","null","","","","","<p><img src= images/blank.png width =""200"" height = ""200"" style = ""float:right""></p><p><img src=images/blank.png width =""800"" height = ""200""></p>","","","","","","","","","","","",""
"","406.12500000861473","sequential-stimulus-presentation","303","1086210","0.0-56.0-1.3","SS1613138381166","trial","","40","800","1206.1250000086147","images/stimuli/spore_stims/simple_17_B_d.gif","images/stimuli/spore_stims/simple_17_A_c.gif","","","","","16","simple_dissimilar","images/stimuli/spore_stims/simple_17_A_c.gif","left","","","","",""
"","null","html-keyboard-response","304","1087575","0.0-56.0-0.4","SS1613138381166","","","null","","","","","<p><img src= images/blank.png width =""200"" height = ""200"" style = ""float:right""></p><p><img src=images/blank.png width =""800"" height = ""200""></p>","","","","","","","","","","","",""
"","1294.4700000081211","sequential-stimulus-presentation","305","1089693","0.0-56.0-1.4","SS1613138381166","trial","","40","800","2094.470000008121","images/stimuli/spore_stims/simple_17_B_d.gif","images/stimuli/spore_stims/simple_17_A_c.gif","","","","","16","simple_dissimilar","images/stimuli/spore_stims/simple_17_B_d.gif","right","","","","",""
"","null","html-keyboard-response","306","1090901","0.0-56.0-0.5","SS1613138381166","","","null","","","","","<p><img src= images/blank.png width =""200"" height = ""200"" style = ""float:right""></p><p><img src=images/blank.png width =""800"" height = ""200""></p>","","","","","","","","","","","",""
"","1369.5800000133459","sequential-stimulus-presentation","307","1093085","0.0-56.0-1.5","SS1613138381166","trial","","40","800","2169.580000013346","images/stimuli/spore_stims/simple_17_B_d.gif","images/stimuli/spore_stims/simple_17_A_c.gif","","","","","16","simple_dissimilar","images/stimuli/spore_stims/simple_17_A_c.gif","left","","","","",""
"","null","html-keyboard-response","308","1093975","0.0-56.0-0.6","SS1613138381166","","","null","","","","","<p><img src= images/blank.png width =""200"" height = ""200"" style = ""float:right""></p><p><img src=images/blank.png width =""800"" height = ""200""></p>","","","","","","","","","","","",""
"","3602.2749999973457","sequential-stimulus-presentation","309","1098399","0.0-56.0-1.6","SS1613138381166","trial","","40","800","4402.274999997346","images/stimuli/spore_stims/simple_17_B_d.gif","images/stimuli/spore_stims/simple_17_A_c.gif","","","","","16","simple_dissimilar","images/stimuli/spore_stims/simple_17_A_c.gif","left","","","","",""
"","null","html-keyboard-response","310","1099558","0.0-56.0-0.7","SS1613138381166","","","null","","","","","<p><img src= images/blank.png width =""200"" height = ""200"" style = ""float:right""></p><p><img src=images/blank.png width =""800"" height = ""200""></p>","","","","","","","","","","","",""
"","1774.6399999889545","sequential-stimulus-presentation","311","1102181","0.0-56.0-1.7","SS1613138381166","trial","","40","800","2574.6399999889545","images/stimuli/spore_stims/simple_17_B_d.gif","images/stimuli/spore_stims/simple_17_A_c.gif","","","","","16","simple_dissimilar","images/stimuli/spore_stims/simple_17_A_c.gif","left","","","","",""
"","1356.3899999863934","html-keyboard-response","312","1103549","0.0-57.0","SS1613138381166","pref_question","","50","","","","","<video width ='960' height = '540' style='padding-top:8%' autoplay muted><source src='images/stimuli/wall_pref.mp4' type='video/mp4'></video>","2","middle","45%","16","","","","","","","",""
