"view_history","rt","trial_type","trial_index","time_elapsed","internal_node_id","subject","stimulus_type","trial_stimulus","key_press","minimum_viewing_duration","trial_looking_time","block_deviant","block_background","stimulus","wall_pref","location","location_percent","block_number","block_type","stimulus_displayed","position_displayed","stim_type_selected"
"[{""page_index"":0,""viewing_time"":63522.629999992205}]","63523.00000000105","instructions","0","63528","0.0-0.0","SS1613138319599","","","","","","","","","","","","","","","",""
"[{""page_index"":0,""viewing_time"":8182.9149999975925},{""page_index"":1,""viewing_time"":4584.409999995842}]","12767.80499999586","instructions","1","78306","0.0-1.0","SS1613138319599","instructions","","","","","","","","","","","","","","",""
"","3508.5499999986496","sequential-stimulus-presentation","2","82626","0.0-2.0","SS1613138319599","","","40","800","4308.54999999865","null","null","","","","","","","","",""
"","909.0699999942444","sequential-stimulus-presentation","3","84356","0.0-3.0","SS1613138319599","","","40","800","1709.0699999942444","null","null","","","","","","","","",""
"[{""page_index"":0,""viewing_time"":5422.495000006165}]","5422.925000006217","instructions","4","89781","0.0-4.0","SS1613138319599","instructions","","","","","","","","","","","","","","",""
"","8990.515000012238","html-keyboard-response","5","98778","0.0-5.0","SS1613138319599","instructions","","50","","","","","<video width ='960' height = '540' autoplay muted><source src='images/stimuli/wall_pref.mp4' type='video/mp4'></video>","2","middle","45%","","","","",""
"","499.43500000517815","sequential-stimulus-presentation","6","100093","0.0-6.0","SS1613138319599","pref_reveal","","40","800","1299.4350000051782","null","null","","","","","","","","",""
"[{""page_index"":0,""viewing_time"":8505.990000005113},{""page_index"":1,""viewing_time"":3768.4900000022026},{""page_index"":2,""viewing_time"":1564.1149999864865},{""page_index"":3,""viewing_time"":1417.5100000138627}]","15256.575000006706","instructions","7","115352","0.0-7.0","SS1613138319599","instructions","","","","","","","","","","","","","","",""
"","null","html-keyboard-response","8","116536","0.0-8.0-0.0","SS1613138319599","","","null","","","","","<p><img src= images/blank.png width =""200"" height = ""200"" style = ""float:right""></p><p><img src=images/blank.png width =""800"" height = ""200""></p>","","","","","","","",""
"","8106.855000005453","sequential-stimulus-presentation","9","125456","0.0-8.0-1.0","SS1613138319599","trial","","40","800","8906.855000005453","images/stimuli/spore_stims/simple_06_B_d.gif","images/stimuli/spore_stims/simple_20_B_c.gif","","","","","0","simple_dissimilar","images/stimuli/spore_stims/simple_20_B_c.gif","middle",""
"","null","html-keyboard-response","10","126636","0.0-8.0-0.1","SS1613138319599","","","null","","","","","<p><img src= images/blank.png width =""200"" height = ""200"" style = ""float:right""></p><p><img src=images/blank.png width =""800"" height = ""200""></p>","","","","","","","",""
"","12700.130000011995","sequential-stimulus-presentation","11","140161","0.0-8.0-1.1","SS1613138319599","trial","","40","800","13500.130000011995","images/stimuli/spore_stims/simple_06_B_d.gif","images/stimuli/spore_stims/simple_20_B_c.gif","","","","","0","simple_dissimilar","images/stimuli/spore_stims/simple_20_B_c.gif","middle",""
"","null","html-keyboard-response","12","141062","0.0-8.0-0.2","SS1613138319599","","","null","","","","","<p><img src= images/blank.png width =""200"" height = ""200"" style = ""float:right""></p><p><img src=images/blank.png width =""800"" height = ""200""></p>","","","","","","","",""
"","4813.450000001467","sequential-stimulus-presentation","13","146695","0.0-8.0-1.2","SS1613138319599","trial","","40","800","5613.450000001467","images/stimuli/spore_stims/simple_06_B_d.gif","images/stimuli/spore_stims/simple_20_B_c.gif","","","","","0","simple_dissimilar","images/stimuli/spore_stims/simple_06_B_d.gif","left",""
"","null","html-keyboard-response","14","147575","0.0-8.0-0.3","SS1613138319599","","","null","","","","","<p><img src= images/blank.png width =""200"" height = ""200"" style = ""float:right""></p><p><img src=images/blank.png width =""800"" height = ""200""></p>","","","","","","","",""
"","3259.825000001001","sequential-stimulus-presentation","15","151664","0.0-8.0-1.3","SS1613138319599","trial","","40","800","4059.825000001001","images/stimuli/spore_stims/simple_06_B_d.gif","images/stimuli/spore_stims/simple_20_B_c.gif","","","","","0","simple_dissimilar","images/stimuli/spore_stims/simple_20_B_c.gif","middle",""
"","null","html-keyboard-response","16","152972","0.0-8.0-0.4","SS1613138319599","","","null","","","","","<p><img src= images/blank.png width =""200"" height = ""200"" style = ""float:right""></p><p><img src=images/blank.png width =""800"" height = ""200""></p>","","","","","","","",""
"","1892.375000010361","sequential-stimulus-presentation","17","155704","0.0-8.0-1.4","SS1613138319599","trial","","40","800","2692.375000010361","images/stimuli/spore_stims/simple_06_B_d.gif","images/stimuli/spore_stims/simple_20_B_c.gif","","","","","0","simple_dissimilar","images/stimuli/spore_stims/simple_20_B_c.gif","middle",""
"","null","html-keyboard-response","18","156890","0.0-8.0-0.5","SS1613138319599","","","null","","","","","<p><img src= images/blank.png width =""200"" height = ""200"" style = ""float:right""></p><p><img src=images/blank.png width =""800"" height = ""200""></p>","","","","","","","",""
"","4808.219999991707","sequential-stimulus-presentation","19","162511","0.0-8.0-1.5","SS1613138319599","trial","","40","800","5608.219999991707","images/stimuli/spore_stims/simple_06_B_d.gif","images/stimuli/spore_stims/simple_20_B_c.gif","","","","","0","simple_dissimilar","images/stimuli/spore_stims/simple_20_B_c.gif","middle",""
"","null","html-keyboard-response","20","163641","0.0-8.0-0.6","SS1613138319599","","","null","","","","","<p><img src= images/blank.png width =""200"" height = ""200"" style = ""float:right""></p><p><img src=images/blank.png width =""800"" height = ""200""></p>","","","","","","","",""
"","3572.104999999283","sequential-stimulus-presentation","21","168043","0.0-8.0-1.6","SS1613138319599","trial","","40","800","4372.104999999283","images/stimuli/spore_stims/simple_06_B_d.gif","images/stimuli/spore_stims/simple_20_B_c.gif","","","","","0","simple_dissimilar","images/stimuli/spore_stims/simple_20_B_c.gif","middle",""
"","null","html-keyboard-response","22","168879","0.0-8.0-0.7","SS1613138319599","","","null","","","","","<p><img src= images/blank.png width =""200"" height = ""200"" style = ""float:right""></p><p><img src=images/blank.png width =""800"" height = ""200""></p>","","","","","","","",""
"","4288.834999999381","sequential-stimulus-presentation","23","173993","0.0-8.0-1.7","SS1613138319599","trial","","40","800","5088.834999999381","images/stimuli/spore_stims/simple_06_B_d.gif","images/stimuli/spore_stims/simple_20_B_c.gif","","","","","0","simple_dissimilar","images/stimuli/spore_stims/simple_20_B_c.gif","middle",""
"","1673.3450000028824","html-keyboard-response","24","175680","0.0-9.0","SS1613138319599","pref_question","","51","","","","","<video width ='960' height = '540' style='padding-top:8%' autoplay muted><source src='images/stimuli/wall_pref.mp4' type='video/mp4'></video>","3","right","66%","0","","","",""
"","119.65000000782311","sequential-stimulus-presentation","25","176612","0.0-10.0","SS1613138319599","pref_reveal","","40","800","919.6500000078231","null","null","","","","","0","","","","novel"
"","null","html-keyboard-response","26","177683","0.0-11.0-0.0","SS1613138319599","","","null","","","","","<p><img src= images/blank.png width =""200"" height = ""200"" style = ""float:right""></p><p><img src=images/blank.png width =""800"" height = ""200""></p>","","","","","","","",""
"","5928.505000003497","sequential-stimulus-presentation","27","184426","0.0-11.0-1.0","SS1613138319599","trial","","40","800","6728.505000003497","images/stimuli/spore_stims/simple_04_B_a.gif","images/stimuli/spore_stims/simple_04_A_a.gif","","","","","1","simple_similar","images/stimuli/spore_stims/simple_04_A_a.gif","left",""
"","null","html-keyboard-response","28","185587","0.0-11.0-0.1","SS1613138319599","","","null","","","","","<p><img src= images/blank.png width =""200"" height = ""200"" style = ""float:right""></p><p><img src=images/blank.png width =""800"" height = ""200""></p>","","","","","","","",""
"","7243.820000003325","sequential-stimulus-presentation","29","193657","0.0-11.0-1.1","SS1613138319599","trial","","40","800","8043.820000003325","images/stimuli/spore_stims/simple_04_B_a.gif","images/stimuli/spore_stims/simple_04_A_a.gif","","","","","1","simple_similar","images/stimuli/spore_stims/simple_04_A_a.gif","left",""
"","null","html-keyboard-response","30","194751","0.0-11.0-0.2","SS1613138319599","","","null","","","","","<p><img src= images/blank.png width =""200"" height = ""200"" style = ""float:right""></p><p><img src=images/blank.png width =""800"" height = ""200""></p>","","","","","","","",""
"","7421.744999999646","sequential-stimulus-presentation","31","203002","0.0-11.0-1.2","SS1613138319599","trial","","40","800","8221.744999999646","images/stimuli/spore_stims/simple_04_B_a.gif","images/stimuli/spore_stims/simple_04_A_a.gif","","","","","1","simple_similar","images/stimuli/spore_stims/simple_04_A_a.gif","left",""
"","null","html-keyboard-response","32","204104","0.0-11.0-0.3","SS1613138319599","","","null","","","","","<p><img src= images/blank.png width =""200"" height = ""200"" style = ""float:right""></p><p><img src=images/blank.png width =""800"" height = ""200""></p>","","","","","","","",""
"","6630.429999990156","sequential-stimulus-presentation","33","211562","0.0-11.0-1.3","SS1613138319599","trial","","40","800","7430.429999990156","images/stimuli/spore_stims/simple_04_B_a.gif","images/stimuli/spore_stims/simple_04_A_a.gif","","","","","1","simple_similar","images/stimuli/spore_stims/simple_04_B_a.gif","right",""
"","null","html-keyboard-response","34","212564","0.0-11.0-0.4","SS1613138319599","","","null","","","","","<p><img src= images/blank.png width =""200"" height = ""200"" style = ""float:right""></p><p><img src=images/blank.png width =""800"" height = ""200""></p>","","","","","","","",""
"","6080.585000003339","sequential-stimulus-presentation","35","219505","0.0-11.0-1.4","SS1613138319599","trial","","40","800","6880.585000003339","images/stimuli/spore_stims/simple_04_B_a.gif","images/stimuli/spore_stims/simple_04_A_a.gif","","","","","1","simple_similar","images/stimuli/spore_stims/simple_04_A_a.gif","left",""
"","null","html-keyboard-response","36","220440","0.0-11.0-0.5","SS1613138319599","","","null","","","","","<p><img src= images/blank.png width =""200"" height = ""200"" style = ""float:right""></p><p><img src=images/blank.png width =""800"" height = ""200""></p>","","","","","","","",""
"","6419.069999989006","sequential-stimulus-presentation","37","227689","0.0-11.0-1.5","SS1613138319599","trial","","40","800","7219.069999989006","images/stimuli/spore_stims/simple_04_B_a.gif","images/stimuli/spore_stims/simple_04_A_a.gif","","","","","1","simple_similar","images/stimuli/spore_stims/simple_04_A_a.gif","left",""
"","null","html-keyboard-response","38","228925","0.0-11.0-0.6","SS1613138319599","","","null","","","","","<p><img src= images/blank.png width =""200"" height = ""200"" style = ""float:right""></p><p><img src=images/blank.png width =""800"" height = ""200""></p>","","","","","","","",""
"","2108.749999999418","sequential-stimulus-presentation","39","231862","0.0-11.0-1.6","SS1613138319599","trial","","40","800","2908.749999999418","images/stimuli/spore_stims/simple_04_B_a.gif","images/stimuli/spore_stims/simple_04_A_a.gif","","","","","1","simple_similar","images/stimuli/spore_stims/simple_04_A_a.gif","left",""
"","null","html-keyboard-response","40","232753","0.0-11.0-0.7","SS1613138319599","","","null","","","","","<p><img src= images/blank.png width =""200"" height = ""200"" style = ""float:right""></p><p><img src=images/blank.png width =""800"" height = ""200""></p>","","","","","","","",""
"","4648.719999997411","sequential-stimulus-presentation","41","238229","0.0-11.0-1.7","SS1613138319599","trial","","40","800","5448.719999997411","images/stimuli/spore_stims/simple_04_B_a.gif","images/stimuli/spore_stims/simple_04_A_a.gif","","","","","1","simple_similar","images/stimuli/spore_stims/simple_04_A_a.gif","left",""
"","1519.5999999996275","html-keyboard-response","42","239755","0.0-12.0","SS1613138319599","pref_question","","50","","","","","<video width ='960' height = '540' style='padding-top:8%' autoplay muted><source src='images/stimuli/wall_pref.mp4' type='video/mp4'></video>","2","middle","45%","1","","","",""
"","36.60999999556225","sequential-stimulus-presentation","43","240623","0.0-13.0","SS1613138319599","pref_reveal","","40","800","836.6099999955622","null","null","","","","","1","","","","novel"
"","null","html-keyboard-response","44","241901","0.0-14.0-0.0","SS1613138319599","","","null","","","","","<p><img src= images/blank.png width =""200"" height = ""200"" style = ""float:right""></p><p><img src=images/blank.png width =""800"" height = ""200""></p>","","","","","","","",""
"","7208.920000004582","sequential-stimulus-presentation","45","249947","0.0-14.0-1.0","SS1613138319599","trial","","40","800","8008.920000004582","images/stimuli/spore_stims/complex_16_A_a.gif","images/stimuli/spore_stims/complex_07_A_c.gif","","","","","2","complex_dissimilar","images/stimuli/spore_stims/complex_07_A_c.gif","left",""
"","null","html-keyboard-response","46","251142","0.0-14.0-0.1","SS1613138319599","","","null","","","","","<p><img src= images/blank.png width =""200"" height = ""200"" style = ""float:right""></p><p><img src=images/blank.png width =""800"" height = ""200""></p>","","","","","","","",""
"","14702.06500000495","sequential-stimulus-presentation","47","266656","0.0-14.0-1.1","SS1613138319599","trial","","40","800","15502.06500000495","images/stimuli/spore_stims/complex_16_A_a.gif","images/stimuli/spore_stims/complex_07_A_c.gif","","","","","2","complex_dissimilar","images/stimuli/spore_stims/complex_07_A_c.gif","left",""
"","null","html-keyboard-response","48","267519","0.0-14.0-0.2","SS1613138319599","","","null","","","","","<p><img src= images/blank.png width =""200"" height = ""200"" style = ""float:right""></p><p><img src=images/blank.png width =""800"" height = ""200""></p>","","","","","","","",""
"","4899.554999996326","sequential-stimulus-presentation","49","273236","0.0-14.0-1.2","SS1613138319599","trial","","40","800","5699.554999996326","images/stimuli/spore_stims/complex_16_A_a.gif","images/stimuli/spore_stims/complex_07_A_c.gif","","","","","2","complex_dissimilar","images/stimuli/spore_stims/complex_07_A_c.gif","left",""
"","null","html-keyboard-response","50","274083","0.0-14.0-0.3","SS1613138319599","","","null","","","","","<p><img src= images/blank.png width =""200"" height = ""200"" style = ""float:right""></p><p><img src=images/blank.png width =""800"" height = ""200""></p>","","","","","","","",""
"","9713.97500000603","sequential-stimulus-presentation","51","284670","0.0-14.0-1.3","SS1613138319599","trial","","40","800","10513.97500000603","images/stimuli/spore_stims/complex_16_A_a.gif","images/stimuli/spore_stims/complex_07_A_c.gif","","","","","2","complex_dissimilar","images/stimuli/spore_stims/complex_07_A_c.gif","left",""
"","null","html-keyboard-response","52","285819","0.0-14.0-0.4","SS1613138319599","","","null","","","","","<p><img src= images/blank.png width =""200"" height = ""200"" style = ""float:right""></p><p><img src=images/blank.png width =""800"" height = ""200""></p>","","","","","","","",""
"","156.0449999960838","sequential-stimulus-presentation","53","286791","0.0-14.0-1.4","SS1613138319599","trial","","40","800","956.0449999960838","images/stimuli/spore_stims/complex_16_A_a.gif","images/stimuli/spore_stims/complex_07_A_c.gif","","","","","2","complex_dissimilar","images/stimuli/spore_stims/complex_07_A_c.gif","left",""
"","null","html-keyboard-response","54","287667","0.0-14.0-0.5","SS1613138319599","","","null","","","","","<p><img src= images/blank.png width =""200"" height = ""200"" style = ""float:right""></p><p><img src=images/blank.png width =""800"" height = ""200""></p>","","","","","","","",""
"","44.67000000295229","sequential-stimulus-presentation","55","288530","0.0-14.0-1.5","SS1613138319599","trial","","40","800","844.6700000029523","images/stimuli/spore_stims/complex_16_A_a.gif","images/stimuli/spore_stims/complex_07_A_c.gif","","","","","2","complex_dissimilar","images/stimuli/spore_stims/complex_07_A_c.gif","left",""
"","null","html-keyboard-response","56","289411","0.0-14.0-0.6","SS1613138319599","","","null","","","","","<p><img src= images/blank.png width =""200"" height = ""200"" style = ""float:right""></p><p><img src=images/blank.png width =""800"" height = ""200""></p>","","","","","","","",""
"","12874.614999993355","sequential-stimulus-presentation","57","303102","0.0-14.0-1.6","SS1613138319599","trial","","40","800","13674.614999993355","images/stimuli/spore_stims/complex_16_A_a.gif","images/stimuli/spore_stims/complex_07_A_c.gif","","","","","2","complex_dissimilar","images/stimuli/spore_stims/complex_07_A_c.gif","left",""
"","null","html-keyboard-response","58","304322","0.0-14.0-0.7","SS1613138319599","","","null","","","","","<p><img src= images/blank.png width =""200"" height = ""200"" style = ""float:right""></p><p><img src=images/blank.png width =""800"" height = ""200""></p>","","","","","","","",""
"","7809.759999989183","sequential-stimulus-presentation","59","312958","0.0-14.0-1.7","SS1613138319599","trial","","40","800","8609.759999989183","images/stimuli/spore_stims/complex_16_A_a.gif","images/stimuli/spore_stims/complex_07_A_c.gif","","","","","2","complex_dissimilar","images/stimuli/spore_stims/complex_16_A_a.gif","right",""
"","1770.1349999988452","html-keyboard-response","60","314754","0.0-15.0","SS1613138319599","pref_question","","50","","","","","<video width ='960' height = '540' style='padding-top:8%' autoplay muted><source src='images/stimuli/wall_pref.mp4' type='video/mp4'></video>","2","middle","45%","2","","","",""
"","8624.96000000101","sequential-stimulus-presentation","61","324196","0.0-16.0","SS1613138319599","pref_reveal","","40","800","9424.96000000101","null","null","","","","","2","","","","novel"
"","null","html-keyboard-response","62","325302","0.0-17.0-0.0","SS1613138319599","","","null","","","","","<p><img src= images/blank.png width =""200"" height = ""200"" style = ""float:right""></p><p><img src=images/blank.png width =""800"" height = ""200""></p>","","","","","","","",""
"","6803.180000002612","sequential-stimulus-presentation","63","332936","0.0-17.0-1.0","SS1613138319599","trial","","40","800","7603.180000002612","images/stimuli/spore_stims/simple_03_A_d.gif","images/stimuli/spore_stims/simple_09_B_d.gif","","","","","3","simple_dissimilar","images/stimuli/spore_stims/simple_09_B_d.gif","left",""
"","null","html-keyboard-response","64","334188","0.0-17.0-0.1","SS1613138319599","","","null","","","","","<p><img src= images/blank.png width =""200"" height = ""200"" style = ""float:right""></p><p><img src=images/blank.png width =""800"" height = ""200""></p>","","","","","","","",""
"","14012.280000009923","sequential-stimulus-presentation","65","349011","0.0-17.0-1.1","SS1613138319599","trial","","40","800","14812.280000009923","images/stimuli/spore_stims/simple_03_A_d.gif","images/stimuli/spore_stims/simple_09_B_d.gif","","","","","3","simple_dissimilar","images/stimuli/spore_stims/simple_09_B_d.gif","left",""
"","null","html-keyboard-response","66","350148","0.0-17.0-0.2","SS1613138319599","","","null","","","","","<p><img src= images/blank.png width =""200"" height = ""200"" style = ""float:right""></p><p><img src=images/blank.png width =""800"" height = ""200""></p>","","","","","","","",""
"","10875.180000002729","sequential-stimulus-presentation","67","361840","0.0-17.0-1.2","SS1613138319599","trial","","40","800","11675.180000002729","images/stimuli/spore_stims/simple_03_A_d.gif","images/stimuli/spore_stims/simple_09_B_d.gif","","","","","3","simple_dissimilar","images/stimuli/spore_stims/simple_09_B_d.gif","left",""
"","null","html-keyboard-response","68","362792","0.0-17.0-0.3","SS1613138319599","","","null","","","","","<p><img src= images/blank.png width =""200"" height = ""200"" style = ""float:right""></p><p><img src=images/blank.png width =""800"" height = ""200""></p>","","","","","","","",""
"","8747.015000000829","sequential-stimulus-presentation","69","372354","0.0-17.0-1.3","SS1613138319599","trial","","40","800","9547.015000000829","images/stimuli/spore_stims/simple_03_A_d.gif","images/stimuli/spore_stims/simple_09_B_d.gif","","","","","3","simple_dissimilar","images/stimuli/spore_stims/simple_09_B_d.gif","left",""
"","null","html-keyboard-response","70","373598","0.0-17.0-0.4","SS1613138319599","","","null","","","","","<p><img src= images/blank.png width =""200"" height = ""200"" style = ""float:right""></p><p><img src=images/blank.png width =""800"" height = ""200""></p>","","","","","","","",""
"","10118.814999994356","sequential-stimulus-presentation","71","384559","0.0-17.0-1.4","SS1613138319599","trial","","40","800","10918.814999994356","images/stimuli/spore_stims/simple_03_A_d.gif","images/stimuli/spore_stims/simple_09_B_d.gif","","","","","3","simple_dissimilar","images/stimuli/spore_stims/simple_09_B_d.gif","left",""
"","null","html-keyboard-response","72","385535","0.0-17.0-0.5","SS1613138319599","","","null","","","","","<p><img src= images/blank.png width =""200"" height = ""200"" style = ""float:right""></p><p><img src=images/blank.png width =""800"" height = ""200""></p>","","","","","","","",""
"","8329.535000011674","sequential-stimulus-presentation","73","394703","0.0-17.0-1.5","SS1613138319599","trial","","40","800","9129.535000011674","images/stimuli/spore_stims/simple_03_A_d.gif","images/stimuli/spore_stims/simple_09_B_d.gif","","","","","3","simple_dissimilar","images/stimuli/spore_stims/simple_09_B_d.gif","left",""
"","null","html-keyboard-response","74","395878","0.0-17.0-0.6","SS1613138319599","","","null","","","","","<p><img src= images/blank.png width =""200"" height = ""200"" style = ""float:right""></p><p><img src=images/blank.png width =""800"" height = ""200""></p>","","","","","","","",""
"","6952.360000010231","sequential-stimulus-presentation","75","403676","0.0-17.0-1.6","SS1613138319599","trial","","40","800","7752.360000010231","images/stimuli/spore_stims/simple_03_A_d.gif","images/stimuli/spore_stims/simple_09_B_d.gif","","","","","3","simple_dissimilar","images/stimuli/spore_stims/simple_03_A_d.gif","middle",""
"","null","html-keyboard-response","76","404797","0.0-17.0-0.7","SS1613138319599","","","null","","","","","<p><img src= images/blank.png width =""200"" height = ""200"" style = ""float:right""></p><p><img src=images/blank.png width =""800"" height = ""200""></p>","","","","","","","",""
"","6631.349999996019","sequential-stimulus-presentation","77","412260","0.0-17.0-1.7","SS1613138319599","trial","","40","800","7431.349999996019","images/stimuli/spore_stims/simple_03_A_d.gif","images/stimuli/spore_stims/simple_09_B_d.gif","","","","","3","simple_dissimilar","images/stimuli/spore_stims/simple_09_B_d.gif","left",""
"","1836.4549999969313","html-keyboard-response","78","414105","0.0-18.0","SS1613138319599","pref_question","","51","","","","","<video width ='960' height = '540' style='padding-top:8%' autoplay muted><source src='images/stimuli/wall_pref.mp4' type='video/mp4'></video>","3","right","66%","3","","","",""
"","15258.324999987963","sequential-stimulus-presentation","79","430186","0.0-19.0","SS1613138319599","pref_reveal","","40","800","16058.324999987963","null","null","","","","","3","","","","novel"
"","null","html-keyboard-response","80","431482","0.0-20.0-0.0","SS1613138319599","","","null","","","","","<p><img src= images/blank.png width =""200"" height = ""200"" style = ""float:right""></p><p><img src=images/blank.png width =""800"" height = ""200""></p>","","","","","","","",""
"","21906.194999988656","sequential-stimulus-presentation","81","454202","0.0-20.0-1.0","SS1613138319599","trial","","40","800","22706.194999988656","images/stimuli/spore_stims/simple_19_B_a.gif","images/stimuli/spore_stims/simple_19_A_a.gif","","","","","4","simple_similar","images/stimuli/spore_stims/simple_19_A_a.gif","right",""
"","null","html-keyboard-response","82","455441","0.0-20.0-0.1","SS1613138319599","","","null","","","","","<p><img src= images/blank.png width =""200"" height = ""200"" style = ""float:right""></p><p><img src=images/blank.png width =""800"" height = ""200""></p>","","","","","","","",""
"","15182.97999999777","sequential-stimulus-presentation","83","471455","0.0-20.0-1.1","SS1613138319599","trial","","40","800","15982.97999999777","images/stimuli/spore_stims/simple_19_B_a.gif","images/stimuli/spore_stims/simple_19_A_a.gif","","","","","4","simple_similar","images/stimuli/spore_stims/simple_19_A_a.gif","right",""
"","null","html-keyboard-response","84","472702","0.0-20.0-0.2","SS1613138319599","","","null","","","","","<p><img src= images/blank.png width =""200"" height = ""200"" style = ""float:right""></p><p><img src=images/blank.png width =""800"" height = ""200""></p>","","","","","","","",""
"","28916.35500000848","sequential-stimulus-presentation","85","502432","0.0-20.0-1.2","SS1613138319599","trial","","40","800","29716.35500000848","images/stimuli/spore_stims/simple_19_B_a.gif","images/stimuli/spore_stims/simple_19_A_a.gif","","","","","4","simple_similar","images/stimuli/spore_stims/simple_19_A_a.gif","right",""
"","null","html-keyboard-response","86","503349","0.0-20.0-0.3","SS1613138319599","","","null","","","","","<p><img src= images/blank.png width =""200"" height = ""200"" style = ""float:right""></p><p><img src=images/blank.png width =""800"" height = ""200""></p>","","","","","","","",""
"","11317.479999997886","sequential-stimulus-presentation","87","515493","0.0-20.0-1.3","SS1613138319599","trial","","40","800","12117.479999997886","images/stimuli/spore_stims/simple_19_B_a.gif","images/stimuli/spore_stims/simple_19_A_a.gif","","","","","4","simple_similar","images/stimuli/spore_stims/simple_19_A_a.gif","right",""
"","null","html-keyboard-response","88","516755","0.0-20.0-0.4","SS1613138319599","","","null","","","","","<p><img src= images/blank.png width =""200"" height = ""200"" style = ""float:right""></p><p><img src=images/blank.png width =""800"" height = ""200""></p>","","","","","","","",""
"","1338.0049999977928","sequential-stimulus-presentation","89","518925","0.0-20.0-1.4","SS1613138319599","trial","","40","800","2138.0049999977928","images/stimuli/spore_stims/simple_19_B_a.gif","images/stimuli/spore_stims/simple_19_A_a.gif","","","","","4","simple_similar","images/stimuli/spore_stims/simple_19_A_a.gif","right",""
"","null","html-keyboard-response","90","520051","0.0-20.0-0.5","SS1613138319599","","","null","","","","","<p><img src= images/blank.png width =""200"" height = ""200"" style = ""float:right""></p><p><img src=images/blank.png width =""800"" height = ""200""></p>","","","","","","","",""
"","3822.0150000124704","sequential-stimulus-presentation","91","524693","0.0-20.0-1.5","SS1613138319599","trial","","40","800","4622.01500001247","images/stimuli/spore_stims/simple_19_B_a.gif","images/stimuli/spore_stims/simple_19_A_a.gif","","","","","4","simple_similar","images/stimuli/spore_stims/simple_19_B_a.gif","middle",""
"","null","html-keyboard-response","92","525994","0.0-20.0-0.6","SS1613138319599","","","null","","","","","<p><img src= images/blank.png width =""200"" height = ""200"" style = ""float:right""></p><p><img src=images/blank.png width =""800"" height = ""200""></p>","","","","","","","",""
"","933.2850000064354","sequential-stimulus-presentation","93","527740","0.0-20.0-1.6","SS1613138319599","trial","","40","800","1733.2850000064354","images/stimuli/spore_stims/simple_19_B_a.gif","images/stimuli/spore_stims/simple_19_A_a.gif","","","","","4","simple_similar","images/stimuli/spore_stims/simple_19_A_a.gif","right",""
"","null","html-keyboard-response","94","528782","0.0-20.0-0.7","SS1613138319599","","","null","","","","","<p><img src= images/blank.png width =""200"" height = ""200"" style = ""float:right""></p><p><img src=images/blank.png width =""800"" height = ""200""></p>","","","","","","","",""
"","713.4599999990314","sequential-stimulus-presentation","95","530354","0.0-20.0-1.7","SS1613138319599","trial","","40","800","1513.4599999990314","images/stimuli/spore_stims/simple_19_B_a.gif","images/stimuli/spore_stims/simple_19_A_a.gif","","","","","4","simple_similar","images/stimuli/spore_stims/simple_19_A_a.gif","right",""
"","1580.0650000019232","html-keyboard-response","96","531942","0.0-21.0","SS1613138319599","pref_question","","49","","","","","<video width ='960' height = '540' style='padding-top:8%' autoplay muted><source src='images/stimuli/wall_pref.mp4' type='video/mp4'></video>","1","left","25%","4","","","",""
"","17604.770000005374","sequential-stimulus-presentation","97","550377","0.0-22.0","SS1613138319599","pref_reveal","","40","800","18404.770000005374","null","null","","","","","4","","","","novel"
"","null","html-keyboard-response","98","551399","0.0-23.0-0.0","SS1613138319599","","","null","","","","","<p><img src= images/blank.png width =""200"" height = ""200"" style = ""float:right""></p><p><img src=images/blank.png width =""800"" height = ""200""></p>","","","","","","","",""
"","12517.809999990277","sequential-stimulus-presentation","99","564749","0.0-23.0-1.0","SS1613138319599","trial","","40","800","13317.809999990277","images/stimuli/spore_stims/complex_20_A_a.gif","images/stimuli/spore_stims/complex_20_B_a.gif","","","","","5","complex_similar","images/stimuli/spore_stims/complex_20_B_a.gif","left",""
"","null","html-keyboard-response","100","565697","0.0-23.0-0.1","SS1613138319599","","","null","","","","","<p><img src= images/blank.png width =""200"" height = ""200"" style = ""float:right""></p><p><img src=images/blank.png width =""800"" height = ""200""></p>","","","","","","","",""
"","8862.955000004149","sequential-stimulus-presentation","101","575392","0.0-23.0-1.1","SS1613138319599","trial","","40","800","9662.955000004149","images/stimuli/spore_stims/complex_20_A_a.gif","images/stimuli/spore_stims/complex_20_B_a.gif","","","","","5","complex_similar","images/stimuli/spore_stims/complex_20_B_a.gif","left",""
"","null","html-keyboard-response","102","576320","0.0-23.0-0.2","SS1613138319599","","","null","","","","","<p><img src= images/blank.png width =""200"" height = ""200"" style = ""float:right""></p><p><img src=images/blank.png width =""800"" height = ""200""></p>","","","","","","","",""
"","7306.859999996959","sequential-stimulus-presentation","103","584455","0.0-23.0-1.2","SS1613138319599","trial","","40","800","8106.859999996959","images/stimuli/spore_stims/complex_20_A_a.gif","images/stimuli/spore_stims/complex_20_B_a.gif","","","","","5","complex_similar","images/stimuli/spore_stims/complex_20_B_a.gif","left",""
"","null","html-keyboard-response","104","585484","0.0-23.0-0.3","SS1613138319599","","","null","","","","","<p><img src= images/blank.png width =""200"" height = ""200"" style = ""float:right""></p><p><img src=images/blank.png width =""800"" height = ""200""></p>","","","","","","","",""
"","11306.450000003679","sequential-stimulus-presentation","105","597602","0.0-23.0-1.3","SS1613138319599","trial","","40","800","12106.450000003679","images/stimuli/spore_stims/complex_20_A_a.gif","images/stimuli/spore_stims/complex_20_B_a.gif","","","","","5","complex_similar","images/stimuli/spore_stims/complex_20_A_a.gif","right",""
"","null","html-keyboard-response","106","598893","0.0-23.0-0.4","SS1613138319599","","","null","","","","","<p><img src= images/blank.png width =""200"" height = ""200"" style = ""float:right""></p><p><img src=images/blank.png width =""800"" height = ""200""></p>","","","","","","","",""
"","1514.9450000026263","sequential-stimulus-presentation","107","601237","0.0-23.0-1.4","SS1613138319599","trial","","40","800","2314.9450000026263","images/stimuli/spore_stims/complex_20_A_a.gif","images/stimuli/spore_stims/complex_20_B_a.gif","","","","","5","complex_similar","images/stimuli/spore_stims/complex_20_B_a.gif","left",""
"","null","html-keyboard-response","108","602362","0.0-23.0-0.5","SS1613138319599","","","null","","","","","<p><img src= images/blank.png width =""200"" height = ""200"" style = ""float:right""></p><p><img src=images/blank.png width =""800"" height = ""200""></p>","","","","","","","",""
"","1030.5499999958556","sequential-stimulus-presentation","109","604236","0.0-23.0-1.5","SS1613138319599","trial","","40","800","1830.5499999958556","images/stimuli/spore_stims/complex_20_A_a.gif","images/stimuli/spore_stims/complex_20_B_a.gif","","","","","5","complex_similar","images/stimuli/spore_stims/complex_20_B_a.gif","left",""
"","null","html-keyboard-response","110","605320","0.0-23.0-0.6","SS1613138319599","","","null","","","","","<p><img src= images/blank.png width =""200"" height = ""200"" style = ""float:right""></p><p><img src=images/blank.png width =""800"" height = ""200""></p>","","","","","","","",""
"","749.4100000039907","sequential-stimulus-presentation","111","606900","0.0-23.0-1.6","SS1613138319599","trial","","40","800","1549.4100000039907","images/stimuli/spore_stims/complex_20_A_a.gif","images/stimuli/spore_stims/complex_20_B_a.gif","","","","","5","complex_similar","images/stimuli/spore_stims/complex_20_B_a.gif","left",""
"","null","html-keyboard-response","112","607909","0.0-23.0-0.7","SS1613138319599","","","null","","","","","<p><img src= images/blank.png width =""200"" height = ""200"" style = ""float:right""></p><p><img src=images/blank.png width =""800"" height = ""200""></p>","","","","","","","",""
"","11783.035000000382","sequential-stimulus-presentation","113","620529","0.0-23.0-1.7","SS1613138319599","trial","","40","800","12583.035000000382","images/stimuli/spore_stims/complex_20_A_a.gif","images/stimuli/spore_stims/complex_20_B_a.gif","","","","","5","complex_similar","images/stimuli/spore_stims/complex_20_B_a.gif","left",""
"","6950.949999998556","html-keyboard-response","114","627506","0.0-24.0","SS1613138319599","pref_question","","50","","","","","<video width ='960' height = '540' style='padding-top:8%' autoplay muted><source src='images/stimuli/wall_pref.mp4' type='video/mp4'></video>","2","middle","45%","5","","","",""
"","10118.290000013076","sequential-stimulus-presentation","115","638452","0.0-25.0","SS1613138319599","pref_reveal","","40","800","10918.290000013076","null","null","","","","","5","","","","novel"
"","null","html-keyboard-response","116","639486","0.0-26.0-0.0","SS1613138319599","","","null","","","","","<p><img src= images/blank.png width =""200"" height = ""200"" style = ""float:right""></p><p><img src=images/blank.png width =""800"" height = ""200""></p>","","","","","","","",""
"","9350.010000009206","sequential-stimulus-presentation","117","649680","0.0-26.0-1.0","SS1613138319599","trial","","40","800","10150.010000009206","images/stimuli/spore_stims/simple_18_A_c.gif","images/stimuli/spore_stims/simple_18_B_c.gif","","","","","6","simple_similar","images/stimuli/spore_stims/simple_18_B_c.gif","left",""
"","null","html-keyboard-response","118","650547","0.0-26.0-0.1","SS1613138319599","","","null","","","","","<p><img src= images/blank.png width =""200"" height = ""200"" style = ""float:right""></p><p><img src=images/blank.png width =""800"" height = ""200""></p>","","","","","","","",""
"","12436.324999987846","sequential-stimulus-presentation","119","663829","0.0-26.0-1.1","SS1613138319599","trial","","40","800","13236.324999987846","images/stimuli/spore_stims/simple_18_A_c.gif","images/stimuli/spore_stims/simple_18_B_c.gif","","","","","6","simple_similar","images/stimuli/spore_stims/simple_18_B_c.gif","left",""
"","null","html-keyboard-response","120","664815","0.0-26.0-0.2","SS1613138319599","","","null","","","","","<p><img src= images/blank.png width =""200"" height = ""200"" style = ""float:right""></p><p><img src=images/blank.png width =""800"" height = ""200""></p>","","","","","","","",""
"","760.4949999949895","sequential-stimulus-presentation","121","666401","0.0-26.0-1.2","SS1613138319599","trial","","40","800","1560.4949999949895","images/stimuli/spore_stims/simple_18_A_c.gif","images/stimuli/spore_stims/simple_18_B_c.gif","","","","","6","simple_similar","images/stimuli/spore_stims/simple_18_B_c.gif","left",""
"","null","html-keyboard-response","122","667704","0.0-26.0-0.3","SS1613138319599","","","null","","","","","<p><img src= images/blank.png width =""200"" height = ""200"" style = ""float:right""></p><p><img src=images/blank.png width =""800"" height = ""200""></p>","","","","","","","",""
"","1174.0450000070268","sequential-stimulus-presentation","123","669724","0.0-26.0-1.3","SS1613138319599","trial","","40","800","1974.0450000070268","images/stimuli/spore_stims/simple_18_A_c.gif","images/stimuli/spore_stims/simple_18_B_c.gif","","","","","6","simple_similar","images/stimuli/spore_stims/simple_18_B_c.gif","left",""
"","null","html-keyboard-response","124","670762","0.0-26.0-0.4","SS1613138319599","","","null","","","","","<p><img src= images/blank.png width =""200"" height = ""200"" style = ""float:right""></p><p><img src=images/blank.png width =""800"" height = ""200""></p>","","","","","","","",""
"","8125.595000004978","sequential-stimulus-presentation","125","679722","0.0-26.0-1.4","SS1613138319599","trial","","40","800","8925.595000004978","images/stimuli/spore_stims/simple_18_A_c.gif","images/stimuli/spore_stims/simple_18_B_c.gif","","","","","6","simple_similar","images/stimuli/spore_stims/simple_18_A_c.gif","right",""
"","null","html-keyboard-response","126","680668","0.0-26.0-0.5","SS1613138319599","","","null","","","","","<p><img src= images/blank.png width =""200"" height = ""200"" style = ""float:right""></p><p><img src=images/blank.png width =""800"" height = ""200""></p>","","","","","","","",""
"","8227.194999999483","sequential-stimulus-presentation","127","689723","0.0-26.0-1.5","SS1613138319599","trial","","40","800","9027.194999999483","images/stimuli/spore_stims/simple_18_A_c.gif","images/stimuli/spore_stims/simple_18_B_c.gif","","","","","6","simple_similar","images/stimuli/spore_stims/simple_18_B_c.gif","left",""
"","null","html-keyboard-response","128","690861","0.0-26.0-0.6","SS1613138319599","","","null","","","","","<p><img src= images/blank.png width =""200"" height = ""200"" style = ""float:right""></p><p><img src=images/blank.png width =""800"" height = ""200""></p>","","","","","","","",""
"","12206.05500000238","sequential-stimulus-presentation","129","703919","0.0-26.0-1.6","SS1613138319599","trial","","40","800","13006.05500000238","images/stimuli/spore_stims/simple_18_A_c.gif","images/stimuli/spore_stims/simple_18_B_c.gif","","","","","6","simple_similar","images/stimuli/spore_stims/simple_18_B_c.gif","left",""
"","null","html-keyboard-response","130","705024","0.0-26.0-0.7","SS1613138319599","","","null","","","","","<p><img src= images/blank.png width =""200"" height = ""200"" style = ""float:right""></p><p><img src=images/blank.png width =""800"" height = ""200""></p>","","","","","","","",""
"","6334.260000003269","sequential-stimulus-presentation","131","712201","0.0-26.0-1.7","SS1613138319599","trial","","40","800","7134.260000003269","images/stimuli/spore_stims/simple_18_A_c.gif","images/stimuli/spore_stims/simple_18_B_c.gif","","","","","6","simple_similar","images/stimuli/spore_stims/simple_18_B_c.gif","left",""
"","1677.2499999933643","html-keyboard-response","132","713897","0.0-27.0","SS1613138319599","pref_question","","51","","","","","<video width ='960' height = '540' style='padding-top:8%' autoplay muted><source src='images/stimuli/wall_pref.mp4' type='video/mp4'></video>","3","right","66%","6","","","",""
"","13114.375000004657","sequential-stimulus-presentation","133","727857","0.0-28.0","SS1613138319599","pref_reveal","","40","800","13914.375000004657","null","null","","","","","6","","","","deviant"
"","null","html-keyboard-response","134","728949","0.0-29.0-0.0","SS1613138319599","","","null","","","","","<p><img src= images/blank.png width =""200"" height = ""200"" style = ""float:right""></p><p><img src=images/blank.png width =""800"" height = ""200""></p>","","","","","","","",""
"","10340.985000002547","sequential-stimulus-presentation","135","740151","0.0-29.0-1.0","SS1613138319599","trial","","40","800","11140.985000002547","images/stimuli/spore_stims/complex_19_A_c.gif","images/stimuli/spore_stims/complex_19_B_c.gif","","","","","7","complex_similar","images/stimuli/spore_stims/complex_19_B_c.gif","right",""
"","null","html-keyboard-response","136","741267","0.0-29.0-0.1","SS1613138319599","","","null","","","","","<p><img src= images/blank.png width =""200"" height = ""200"" style = ""float:right""></p><p><img src=images/blank.png width =""800"" height = ""200""></p>","","","","","","","",""
"","2370.725000000675","sequential-stimulus-presentation","137","744451","0.0-29.0-1.1","SS1613138319599","trial","","40","800","3170.725000000675","images/stimuli/spore_stims/complex_19_A_c.gif","images/stimuli/spore_stims/complex_19_B_c.gif","","","","","7","complex_similar","images/stimuli/spore_stims/complex_19_B_c.gif","right",""
"","null","html-keyboard-response","138","745568","0.0-29.0-0.2","SS1613138319599","","","null","","","","","<p><img src= images/blank.png width =""200"" height = ""200"" style = ""float:right""></p><p><img src=images/blank.png width =""800"" height = ""200""></p>","","","","","","","",""
"","7599.325000002864","sequential-stimulus-presentation","139","754012","0.0-29.0-1.2","SS1613138319599","trial","","40","800","8399.325000002864","images/stimuli/spore_stims/complex_19_A_c.gif","images/stimuli/spore_stims/complex_19_B_c.gif","","","","","7","complex_similar","images/stimuli/spore_stims/complex_19_B_c.gif","right",""
"","null","html-keyboard-response","140","755070","0.0-29.0-0.3","SS1613138319599","","","null","","","","","<p><img src= images/blank.png width =""200"" height = ""200"" style = ""float:right""></p><p><img src=images/blank.png width =""800"" height = ""200""></p>","","","","","","","",""
"","11069.275000001653","sequential-stimulus-presentation","141","766987","0.0-29.0-1.3","SS1613138319599","trial","","40","800","11869.275000001653","images/stimuli/spore_stims/complex_19_A_c.gif","images/stimuli/spore_stims/complex_19_B_c.gif","","","","","7","complex_similar","images/stimuli/spore_stims/complex_19_A_c.gif","middle",""
"","null","html-keyboard-response","142","768256","0.0-29.0-0.4","SS1613138319599","","","null","","","","","<p><img src= images/blank.png width =""200"" height = ""200"" style = ""float:right""></p><p><img src=images/blank.png width =""800"" height = ""200""></p>","","","","","","","",""
"","9057.649999987916","sequential-stimulus-presentation","143","778142","0.0-29.0-1.4","SS1613138319599","trial","","40","800","9857.649999987916","images/stimuli/spore_stims/complex_19_A_c.gif","images/stimuli/spore_stims/complex_19_B_c.gif","","","","","7","complex_similar","images/stimuli/spore_stims/complex_19_B_c.gif","right",""
"","null","html-keyboard-response","144","779440","0.0-29.0-0.5","SS1613138319599","","","null","","","","","<p><img src= images/blank.png width =""200"" height = ""200"" style = ""float:right""></p><p><img src=images/blank.png width =""800"" height = ""200""></p>","","","","","","","",""
"","3717.8399999975227","sequential-stimulus-presentation","145","784002","0.0-29.0-1.5","SS1613138319599","trial","","40","800","4517.839999997523","images/stimuli/spore_stims/complex_19_A_c.gif","images/stimuli/spore_stims/complex_19_B_c.gif","","","","","7","complex_similar","images/stimuli/spore_stims/complex_19_B_c.gif","right",""
"","null","html-keyboard-response","146","785146","0.0-29.0-0.6","SS1613138319599","","","null","","","","","<p><img src= images/blank.png width =""200"" height = ""200"" style = ""float:right""></p><p><img src=images/blank.png width =""800"" height = ""200""></p>","","","","","","","",""
"","4408.219999997527","sequential-stimulus-presentation","147","790385","0.0-29.0-1.6","SS1613138319599","trial","","40","800","5208.219999997527","images/stimuli/spore_stims/complex_19_A_c.gif","images/stimuli/spore_stims/complex_19_B_c.gif","","","","","7","complex_similar","images/stimuli/spore_stims/complex_19_B_c.gif","right",""
"","null","html-keyboard-response","148","791593","0.0-29.0-0.7","SS1613138319599","","","null","","","","","<p><img src= images/blank.png width =""200"" height = ""200"" style = ""float:right""></p><p><img src=images/blank.png width =""800"" height = ""200""></p>","","","","","","","",""
"","473.4850000095321","sequential-stimulus-presentation","149","792899","0.0-29.0-1.7","SS1613138319599","trial","","40","800","1273.485000009532","images/stimuli/spore_stims/complex_19_A_c.gif","images/stimuli/spore_stims/complex_19_B_c.gif","","","","","7","complex_similar","images/stimuli/spore_stims/complex_19_B_c.gif","right",""
"","1517.7100000000792","html-keyboard-response","150","794438","0.0-30.0","SS1613138319599","pref_question","","49","","","","","<video width ='960' height = '540' style='padding-top:8%' autoplay muted><source src='images/stimuli/wall_pref.mp4' type='video/mp4'></video>","1","left","25%","7","","","",""
"","7669.5850000105565","sequential-stimulus-presentation","151","802976","0.0-31.0","SS1613138319599","pref_reveal","","40","800","8469.585000010557","null","null","","","","","7","","","","novel"
"","null","html-keyboard-response","152","803948","0.0-32.0-0.0","SS1613138319599","","","null","","","","","<p><img src= images/blank.png width =""200"" height = ""200"" style = ""float:right""></p><p><img src=images/blank.png width =""800"" height = ""200""></p>","","","","","","","",""
"","3928.4800000023097","sequential-stimulus-presentation","153","808707","0.0-32.0-1.0","SS1613138319599","trial","","40","800","4728.48000000231","images/stimuli/spore_stims/complex_04_B_d.gif","images/stimuli/spore_stims/complex_01_A_c.gif","","","","","8","complex_dissimilar","images/stimuli/spore_stims/complex_01_A_c.gif","right",""
"","null","html-keyboard-response","154","809845","0.0-32.0-0.1","SS1613138319599","","","null","","","","","<p><img src= images/blank.png width =""200"" height = ""200"" style = ""float:right""></p><p><img src=images/blank.png width =""800"" height = ""200""></p>","","","","","","","",""
"","1421.3349999918137","sequential-stimulus-presentation","155","812124","0.0-32.0-1.1","SS1613138319599","trial","","40","800","2221.3349999918137","images/stimuli/spore_stims/complex_04_B_d.gif","images/stimuli/spore_stims/complex_01_A_c.gif","","","","","8","complex_dissimilar","images/stimuli/spore_stims/complex_01_A_c.gif","right",""
"","null","html-keyboard-response","156","813047","0.0-32.0-0.2","SS1613138319599","","","null","","","","","<p><img src= images/blank.png width =""200"" height = ""200"" style = ""float:right""></p><p><img src=images/blank.png width =""800"" height = ""200""></p>","","","","","","","",""
"","732.7199999999721","sequential-stimulus-presentation","157","814633","0.0-32.0-1.2","SS1613138319599","trial","","40","800","1532.719999999972","images/stimuli/spore_stims/complex_04_B_d.gif","images/stimuli/spore_stims/complex_01_A_c.gif","","","","","8","complex_dissimilar","images/stimuli/spore_stims/complex_01_A_c.gif","right",""
"","null","html-keyboard-response","158","815655","0.0-32.0-0.3","SS1613138319599","","","null","","","","","<p><img src= images/blank.png width =""200"" height = ""200"" style = ""float:right""></p><p><img src=images/blank.png width =""800"" height = ""200""></p>","","","","","","","",""
"","1188.9950000040699","sequential-stimulus-presentation","159","817699","0.0-32.0-1.3","SS1613138319599","trial","","40","800","1988.9950000040699","images/stimuli/spore_stims/complex_04_B_d.gif","images/stimuli/spore_stims/complex_01_A_c.gif","","","","","8","complex_dissimilar","images/stimuli/spore_stims/complex_01_A_c.gif","right",""
"","null","html-keyboard-response","160","818555","0.0-32.0-0.4","SS1613138319599","","","null","","","","","<p><img src= images/blank.png width =""200"" height = ""200"" style = ""float:right""></p><p><img src=images/blank.png width =""800"" height = ""200""></p>","","","","","","","",""
"","707.829999999376","sequential-stimulus-presentation","161","820123","0.0-32.0-1.4","SS1613138319599","trial","","40","800","1507.829999999376","images/stimuli/spore_stims/complex_04_B_d.gif","images/stimuli/spore_stims/complex_01_A_c.gif","","","","","8","complex_dissimilar","images/stimuli/spore_stims/complex_01_A_c.gif","right",""
"","null","html-keyboard-response","162","821323","0.0-32.0-0.5","SS1613138319599","","","null","","","","","<p><img src= images/blank.png width =""200"" height = ""200"" style = ""float:right""></p><p><img src=images/blank.png width =""800"" height = ""200""></p>","","","","","","","",""
"","642.165000012028","sequential-stimulus-presentation","163","822799","0.0-32.0-1.5","SS1613138319599","trial","","40","800","1442.165000012028","images/stimuli/spore_stims/complex_04_B_d.gif","images/stimuli/spore_stims/complex_01_A_c.gif","","","","","8","complex_dissimilar","images/stimuli/spore_stims/complex_01_A_c.gif","right",""
"","null","html-keyboard-response","164","823671","0.0-32.0-0.6","SS1613138319599","","","null","","","","","<p><img src= images/blank.png width =""200"" height = ""200"" style = ""float:right""></p><p><img src=images/blank.png width =""800"" height = ""200""></p>","","","","","","","",""
"","8488.969999991241","sequential-stimulus-presentation","165","833003","0.0-32.0-1.6","SS1613138319599","trial","","40","800","9288.969999991241","images/stimuli/spore_stims/complex_04_B_d.gif","images/stimuli/spore_stims/complex_01_A_c.gif","","","","","8","complex_dissimilar","images/stimuli/spore_stims/complex_04_B_d.gif","middle",""
"","null","html-keyboard-response","166","834269","0.0-32.0-0.7","SS1613138319599","","","null","","","","","<p><img src= images/blank.png width =""200"" height = ""200"" style = ""float:right""></p><p><img src=images/blank.png width =""800"" height = ""200""></p>","","","","","","","",""
"","2771.79499999329","sequential-stimulus-presentation","167","837898","0.0-32.0-1.7","SS1613138319599","trial","","40","800","3571.79499999329","images/stimuli/spore_stims/complex_04_B_d.gif","images/stimuli/spore_stims/complex_01_A_c.gif","","","","","8","complex_dissimilar","images/stimuli/spore_stims/complex_01_A_c.gif","right",""
"","2678.6949999950593","html-keyboard-response","168","840601","0.0-33.0","SS1613138319599","pref_question","","49","","","","","<video width ='960' height = '540' style='padding-top:8%' autoplay muted><source src='images/stimuli/wall_pref.mp4' type='video/mp4'></video>","1","left","25%","8","","","",""
"","15437.96999999904","sequential-stimulus-presentation","169","856884","0.0-34.0","SS1613138319599","pref_reveal","","40","800","16237.96999999904","null","null","","","","","8","","","","novel"
"","null","html-keyboard-response","170","857896","0.0-35.0-0.0","SS1613138319599","","","null","","","","","<p><img src= images/blank.png width =""200"" height = ""200"" style = ""float:right""></p><p><img src=images/blank.png width =""800"" height = ""200""></p>","","","","","","","",""
"","2548.834999994142","sequential-stimulus-presentation","171","861306","0.0-35.0-1.0","SS1613138319599","trial","","40","800","3348.834999994142","images/stimuli/spore_stims/complex_08_A_b.gif","images/stimuli/spore_stims/complex_09_A_a.gif","","","","","9","complex_dissimilar","images/stimuli/spore_stims/complex_09_A_a.gif","right",""
"","null","html-keyboard-response","172","862558","0.0-35.0-0.1","SS1613138319599","","","null","","","","","<p><img src= images/blank.png width =""200"" height = ""200"" style = ""float:right""></p><p><img src=images/blank.png width =""800"" height = ""200""></p>","","","","","","","",""
"","7477.150000006077","sequential-stimulus-presentation","173","870878","0.0-35.0-1.1","SS1613138319599","trial","","40","800","8277.150000006077","images/stimuli/spore_stims/complex_08_A_b.gif","images/stimuli/spore_stims/complex_09_A_a.gif","","","","","9","complex_dissimilar","images/stimuli/spore_stims/complex_09_A_a.gif","right",""
"","null","html-keyboard-response","174","872056","0.0-35.0-0.2","SS1613138319599","","","null","","","","","<p><img src= images/blank.png width =""200"" height = ""200"" style = ""float:right""></p><p><img src=images/blank.png width =""800"" height = ""200""></p>","","","","","","","",""
"","25906.945000009728","sequential-stimulus-presentation","175","898806","0.0-35.0-1.2","SS1613138319599","trial","","40","800","26706.945000009728","images/stimuli/spore_stims/complex_08_A_b.gif","images/stimuli/spore_stims/complex_09_A_a.gif","","","","","9","complex_dissimilar","images/stimuli/spore_stims/complex_09_A_a.gif","right",""
"","null","html-keyboard-response","176","899750","0.0-35.0-0.3","SS1613138319599","","","null","","","","","<p><img src= images/blank.png width =""200"" height = ""200"" style = ""float:right""></p><p><img src=images/blank.png width =""800"" height = ""200""></p>","","","","","","","",""
"","5579.62000000407","sequential-stimulus-presentation","177","906173","0.0-35.0-1.3","SS1613138319599","trial","","40","800","6379.62000000407","images/stimuli/spore_stims/complex_08_A_b.gif","images/stimuli/spore_stims/complex_09_A_a.gif","","","","","9","complex_dissimilar","images/stimuli/spore_stims/complex_09_A_a.gif","right",""
"","null","html-keyboard-response","178","907138","0.0-35.0-0.4","SS1613138319599","","","null","","","","","<p><img src= images/blank.png width =""200"" height = ""200"" style = ""float:right""></p><p><img src=images/blank.png width =""800"" height = ""200""></p>","","","","","","","",""
"","6885.21999999648","sequential-stimulus-presentation","179","914873","0.0-35.0-1.4","SS1613138319599","trial","","40","800","7685.21999999648","images/stimuli/spore_stims/complex_08_A_b.gif","images/stimuli/spore_stims/complex_09_A_a.gif","","","","","9","complex_dissimilar","images/stimuli/spore_stims/complex_09_A_a.gif","right",""
"","null","html-keyboard-response","180","915793","0.0-35.0-0.5","SS1613138319599","","","null","","","","","<p><img src= images/blank.png width =""200"" height = ""200"" style = ""float:right""></p><p><img src=images/blank.png width =""800"" height = ""200""></p>","","","","","","","",""
"","3481.230000004871","sequential-stimulus-presentation","181","920106","0.0-35.0-1.5","SS1613138319599","trial","","40","800","4281.230000004871","images/stimuli/spore_stims/complex_08_A_b.gif","images/stimuli/spore_stims/complex_09_A_a.gif","","","","","9","complex_dissimilar","images/stimuli/spore_stims/complex_09_A_a.gif","right",""
"","null","html-keyboard-response","182","921187","0.0-35.0-0.6","SS1613138319599","","","null","","","","","<p><img src= images/blank.png width =""200"" height = ""200"" style = ""float:right""></p><p><img src=images/blank.png width =""800"" height = ""200""></p>","","","","","","","",""
"","6368.975000004866","sequential-stimulus-presentation","183","928376","0.0-35.0-1.6","SS1613138319599","trial","","40","800","7168.975000004866","images/stimuli/spore_stims/complex_08_A_b.gif","images/stimuli/spore_stims/complex_09_A_a.gif","","","","","9","complex_dissimilar","images/stimuli/spore_stims/complex_08_A_b.gif","left",""
"","null","html-keyboard-response","184","929592","0.0-35.0-0.7","SS1613138319599","","","null","","","","","<p><img src= images/blank.png width =""200"" height = ""200"" style = ""float:right""></p><p><img src=images/blank.png width =""800"" height = ""200""></p>","","","","","","","",""
"","9522.310000000289","sequential-stimulus-presentation","185","939945","0.0-35.0-1.7","SS1613138319599","trial","","40","800","10322.310000000289","images/stimuli/spore_stims/complex_08_A_b.gif","images/stimuli/spore_stims/complex_09_A_a.gif","","","","","9","complex_dissimilar","images/stimuli/spore_stims/complex_09_A_a.gif","right",""
"","1410.2249999996275","html-keyboard-response","186","941409","0.0-36.0","SS1613138319599","pref_question","","50","","","","","<video width ='960' height = '540' style='padding-top:8%' autoplay muted><source src='images/stimuli/wall_pref.mp4' type='video/mp4'></video>","2","middle","45%","9","","","",""
"","5653.390000006766","sequential-stimulus-presentation","187","947888","0.0-37.0","SS1613138319599","pref_reveal","","40","800","6453.390000006766","null","null","","","","","9","","","","novel"
"","null","html-keyboard-response","188","948818","0.0-38.0-0.0","SS1613138319599","","","null","","","","","<p><img src= images/blank.png width =""200"" height = ""200"" style = ""float:right""></p><p><img src=images/blank.png width =""800"" height = ""200""></p>","","","","","","","",""
"","9347.46499999892","sequential-stimulus-presentation","189","959007","0.0-38.0-1.0","SS1613138319599","trial","","40","800","10147.46499999892","images/stimuli/spore_stims/simple_17_A_d.gif","images/stimuli/spore_stims/simple_17_B_d.gif","","","","","10","simple_similar","images/stimuli/spore_stims/simple_17_B_d.gif","right",""
"","null","html-keyboard-response","190","960036","0.0-38.0-0.1","SS1613138319599","","","null","","","","","<p><img src= images/blank.png width =""200"" height = ""200"" style = ""float:right""></p><p><img src=images/blank.png width =""800"" height = ""200""></p>","","","","","","","",""
"","7123.60500000068","sequential-stimulus-presentation","191","968004","0.0-38.0-1.1","SS1613138319599","trial","","40","800","7923.60500000068","images/stimuli/spore_stims/simple_17_A_d.gif","images/stimuli/spore_stims/simple_17_B_d.gif","","","","","10","simple_similar","images/stimuli/spore_stims/simple_17_B_d.gif","right",""
"","null","html-keyboard-response","192","969024","0.0-38.0-0.2","SS1613138319599","","","null","","","","","<p><img src= images/blank.png width =""200"" height = ""200"" style = ""float:right""></p><p><img src=images/blank.png width =""800"" height = ""200""></p>","","","","","","","",""
"","10100.809999988996","sequential-stimulus-presentation","193","979955","0.0-38.0-1.2","SS1613138319599","trial","","40","800","10900.809999988996","images/stimuli/spore_stims/simple_17_A_d.gif","images/stimuli/spore_stims/simple_17_B_d.gif","","","","","10","simple_similar","images/stimuli/spore_stims/simple_17_B_d.gif","right",""
"","null","html-keyboard-response","194","981150","0.0-38.0-0.3","SS1613138319599","","","null","","","","","<p><img src= images/blank.png width =""200"" height = ""200"" style = ""float:right""></p><p><img src=images/blank.png width =""800"" height = ""200""></p>","","","","","","","",""
"","11697.369999994407","sequential-stimulus-presentation","195","993698","0.0-38.0-1.3","SS1613138319599","trial","","40","800","12497.369999994407","images/stimuli/spore_stims/simple_17_A_d.gif","images/stimuli/spore_stims/simple_17_B_d.gif","","","","","10","simple_similar","images/stimuli/spore_stims/simple_17_B_d.gif","right",""
"","null","html-keyboard-response","196","994817","0.0-38.0-0.4","SS1613138319599","","","null","","","","","<p><img src= images/blank.png width =""200"" height = ""200"" style = ""float:right""></p><p><img src=images/blank.png width =""800"" height = ""200""></p>","","","","","","","",""
"","11874.05499999295","sequential-stimulus-presentation","197","1007537","0.0-38.0-1.4","SS1613138319599","trial","","40","800","12674.05499999295","images/stimuli/spore_stims/simple_17_A_d.gif","images/stimuli/spore_stims/simple_17_B_d.gif","","","","","10","simple_similar","images/stimuli/spore_stims/simple_17_B_d.gif","right",""
"","null","html-keyboard-response","198","1008534","0.0-38.0-0.5","SS1613138319599","","","null","","","","","<p><img src= images/blank.png width =""200"" height = ""200"" style = ""float:right""></p><p><img src=images/blank.png width =""800"" height = ""200""></p>","","","","","","","",""
"","4534.674999988056","sequential-stimulus-presentation","199","1013898","0.0-38.0-1.5","SS1613138319599","trial","","40","800","5334.674999988056","images/stimuli/spore_stims/simple_17_A_d.gif","images/stimuli/spore_stims/simple_17_B_d.gif","","","","","10","simple_similar","images/stimuli/spore_stims/simple_17_A_d.gif","left",""
"","null","html-keyboard-response","200","1015134","0.0-38.0-0.6","SS1613138319599","","","null","","","","","<p><img src= images/blank.png width =""200"" height = ""200"" style = ""float:right""></p><p><img src=images/blank.png width =""800"" height = ""200""></p>","","","","","","","",""
"","4967.270000008284","sequential-stimulus-presentation","201","1020959","0.0-38.0-1.6","SS1613138319599","trial","","40","800","5767.270000008284","images/stimuli/spore_stims/simple_17_A_d.gif","images/stimuli/spore_stims/simple_17_B_d.gif","","","","","10","simple_similar","images/stimuli/spore_stims/simple_17_B_d.gif","right",""
"","null","html-keyboard-response","202","1022311","0.0-38.0-0.7","SS1613138319599","","","null","","","","","<p><img src= images/blank.png width =""200"" height = ""200"" style = ""float:right""></p><p><img src=images/blank.png width =""800"" height = ""200""></p>","","","","","","","",""
"","5757.154999999329","sequential-stimulus-presentation","203","1028905","0.0-38.0-1.7","SS1613138319599","trial","","40","800","6557.154999999329","images/stimuli/spore_stims/simple_17_A_d.gif","images/stimuli/spore_stims/simple_17_B_d.gif","","","","","10","simple_similar","images/stimuli/spore_stims/simple_17_B_d.gif","right",""
"","7597.945000001346","html-keyboard-response","204","1036531","0.0-39.0","SS1613138319599","pref_question","","49","","","","","<video width ='960' height = '540' style='padding-top:8%' autoplay muted><source src='images/stimuli/wall_pref.mp4' type='video/mp4'></video>","1","left","25%","10","","","",""
"","9457.899999994086","sequential-stimulus-presentation","205","1046809","0.0-40.0","SS1613138319599","pref_reveal","","40","800","10257.899999994086","null","null","","","","","10","","","","deviant"
"","null","html-keyboard-response","206","1048082","0.0-41.0-0.0","SS1613138319599","","","null","","","","","<p><img src= images/blank.png width =""200"" height = ""200"" style = ""float:right""></p><p><img src=images/blank.png width =""800"" height = ""200""></p>","","","","","","","",""
"","9214.355000003707","sequential-stimulus-presentation","207","1058125","0.0-41.0-1.0","SS1613138319599","trial","","40","800","10014.355000003707","images/stimuli/spore_stims/simple_05_A_b.gif","images/stimuli/spore_stims/simple_12_B_d.gif","","","","","11","simple_dissimilar","images/stimuli/spore_stims/simple_12_B_d.gif","middle",""
"","null","html-keyboard-response","208","1059053","0.0-41.0-0.1","SS1613138319599","","","null","","","","","<p><img src= images/blank.png width =""200"" height = ""200"" style = ""float:right""></p><p><img src=images/blank.png width =""800"" height = ""200""></p>","","","","","","","",""
"","12942.109999988927","sequential-stimulus-presentation","209","1072837","0.0-41.0-1.1","SS1613138319599","trial","","40","800","13742.109999988927","images/stimuli/spore_stims/simple_05_A_b.gif","images/stimuli/spore_stims/simple_12_B_d.gif","","","","","11","simple_dissimilar","images/stimuli/spore_stims/simple_12_B_d.gif","middle",""
"","null","html-keyboard-response","210","1074161","0.0-41.0-0.2","SS1613138319599","","","null","","","","","<p><img src= images/blank.png width =""200"" height = ""200"" style = ""float:right""></p><p><img src=images/blank.png width =""800"" height = ""200""></p>","","","","","","","",""
"","12263.47499999986","sequential-stimulus-presentation","211","1087265","0.0-41.0-1.2","SS1613138319599","trial","","40","800","13063.47499999986","images/stimuli/spore_stims/simple_05_A_b.gif","images/stimuli/spore_stims/simple_12_B_d.gif","","","","","11","simple_dissimilar","images/stimuli/spore_stims/simple_12_B_d.gif","middle",""
"","null","html-keyboard-response","212","1088159","0.0-41.0-0.3","SS1613138319599","","","null","","","","","<p><img src= images/blank.png width =""200"" height = ""200"" style = ""float:right""></p><p><img src=images/blank.png width =""800"" height = ""200""></p>","","","","","","","",""
"","11923.925000010058","sequential-stimulus-presentation","213","1100909","0.0-41.0-1.3","SS1613138319599","trial","","40","800","12723.925000010058","images/stimuli/spore_stims/simple_05_A_b.gif","images/stimuli/spore_stims/simple_12_B_d.gif","","","","","11","simple_dissimilar","images/stimuli/spore_stims/simple_12_B_d.gif","middle",""
"","null","html-keyboard-response","214","1102095","0.0-41.0-0.4","SS1613138319599","","","null","","","","","<p><img src= images/blank.png width =""200"" height = ""200"" style = ""float:right""></p><p><img src=images/blank.png width =""800"" height = ""200""></p>","","","","","","","",""
"","7269.7999999946915","sequential-stimulus-presentation","215","1110211","0.0-41.0-1.4","SS1613138319599","trial","","40","800","8069.7999999946915","images/stimuli/spore_stims/simple_05_A_b.gif","images/stimuli/spore_stims/simple_12_B_d.gif","","","","","11","simple_dissimilar","images/stimuli/spore_stims/simple_12_B_d.gif","middle",""
"","null","html-keyboard-response","216","1111442","0.0-41.0-0.5","SS1613138319599","","","null","","","","","<p><img src= images/blank.png width =""200"" height = ""200"" style = ""float:right""></p><p><img src=images/blank.png width =""800"" height = ""200""></p>","","","","","","","",""
"","3354.310000009602","sequential-stimulus-presentation","217","1115624","0.0-41.0-1.5","SS1613138319599","trial","","40","800","4154.310000009602","images/stimuli/spore_stims/simple_05_A_b.gif","images/stimuli/spore_stims/simple_12_B_d.gif","","","","","11","simple_dissimilar","images/stimuli/spore_stims/simple_12_B_d.gif","middle",""
"","null","html-keyboard-response","218","1116571","0.0-41.0-0.6","SS1613138319599","","","null","","","","","<p><img src= images/blank.png width =""200"" height = ""200"" style = ""float:right""></p><p><img src=images/blank.png width =""800"" height = ""200""></p>","","","","","","","",""
"","5518.3799999943","sequential-stimulus-presentation","219","1122935","0.0-41.0-1.6","SS1613138319599","trial","","40","800","6318.3799999943","images/stimuli/spore_stims/simple_05_A_b.gif","images/stimuli/spore_stims/simple_12_B_d.gif","","","","","11","simple_dissimilar","images/stimuli/spore_stims/simple_05_A_b.gif","right",""
"","null","html-keyboard-response","220","1123965","0.0-41.0-0.7","SS1613138319599","","","null","","","","","<p><img src= images/blank.png width =""200"" height = ""200"" style = ""float:right""></p><p><img src=images/blank.png width =""800"" height = ""200""></p>","","","","","","","",""
"","7080.350000003818","sequential-stimulus-presentation","221","1131886","0.0-41.0-1.7","SS1613138319599","trial","","40","800","7880.350000003818","images/stimuli/spore_stims/simple_05_A_b.gif","images/stimuli/spore_stims/simple_12_B_d.gif","","","","","11","simple_dissimilar","images/stimuli/spore_stims/simple_12_B_d.gif","middle",""
"","1637.495000002673","html-keyboard-response","222","1133566","0.0-42.0","SS1613138319599","pref_question","","50","","","","","<video width ='960' height = '540' style='padding-top:8%' autoplay muted><source src='images/stimuli/wall_pref.mp4' type='video/mp4'></video>","2","middle","45%","11","","","",""
"","11241.810000006808","sequential-stimulus-presentation","223","1145650","0.0-43.0","SS1613138319599","pref_reveal","","40","800","12041.810000006808","null","null","","","","","11","","","","background"
"","null","html-keyboard-response","224","1146908","0.0-44.0-0.0","SS1613138319599","","","null","","","","","<p><img src= images/blank.png width =""200"" height = ""200"" style = ""float:right""></p><p><img src=images/blank.png width =""800"" height = ""200""></p>","","","","","","","",""
"","3354.319999998668","sequential-stimulus-presentation","225","1151078","0.0-44.0-1.0","SS1613138319599","trial","","40","800","4154.319999998668","images/stimuli/spore_stims/complex_10_B_a.gif","images/stimuli/spore_stims/complex_05_A_a.gif","","","","","12","complex_dissimilar","images/stimuli/spore_stims/complex_05_A_a.gif","middle",""
"","null","html-keyboard-response","226","1152220","0.0-44.0-0.1","SS1613138319599","","","null","","","","","<p><img src= images/blank.png width =""200"" height = ""200"" style = ""float:right""></p><p><img src=images/blank.png width =""800"" height = ""200""></p>","","","","","","","",""
"","5086.5800000028685","sequential-stimulus-presentation","227","1158149","0.0-44.0-1.1","SS1613138319599","trial","","40","800","5886.5800000028685","images/stimuli/spore_stims/complex_10_B_a.gif","images/stimuli/spore_stims/complex_05_A_a.gif","","","","","12","complex_dissimilar","images/stimuli/spore_stims/complex_05_A_a.gif","middle",""
"","null","html-keyboard-response","228","1159324","0.0-44.0-0.2","SS1613138319599","","","null","","","","","<p><img src= images/blank.png width =""200"" height = ""200"" style = ""float:right""></p><p><img src=images/blank.png width =""800"" height = ""200""></p>","","","","","","","",""
"","2329.200000007404","sequential-stimulus-presentation","229","1162484","0.0-44.0-1.2","SS1613138319599","trial","","40","800","3129.200000007404","images/stimuli/spore_stims/complex_10_B_a.gif","images/stimuli/spore_stims/complex_05_A_a.gif","","","","","12","complex_dissimilar","images/stimuli/spore_stims/complex_05_A_a.gif","middle",""
"","null","html-keyboard-response","230","1163355","0.0-44.0-0.3","SS1613138319599","","","null","","","","","<p><img src= images/blank.png width =""200"" height = ""200"" style = ""float:right""></p><p><img src=images/blank.png width =""800"" height = ""200""></p>","","","","","","","",""
"","879.954999996582","sequential-stimulus-presentation","231","1165065","0.0-44.0-1.3","SS1613138319599","trial","","40","800","1679.954999996582","images/stimuli/spore_stims/complex_10_B_a.gif","images/stimuli/spore_stims/complex_05_A_a.gif","","","","","12","complex_dissimilar","images/stimuli/spore_stims/complex_05_A_a.gif","middle",""
"","null","html-keyboard-response","232","1166220","0.0-44.0-0.4","SS1613138319599","","","null","","","","","<p><img src= images/blank.png width =""200"" height = ""200"" style = ""float:right""></p><p><img src=images/blank.png width =""800"" height = ""200""></p>","","","","","","","",""
"","469.7799999995623","sequential-stimulus-presentation","233","1167524","0.0-44.0-1.4","SS1613138319599","trial","","40","800","1269.7799999995623","images/stimuli/spore_stims/complex_10_B_a.gif","images/stimuli/spore_stims/complex_05_A_a.gif","","","","","12","complex_dissimilar","images/stimuli/spore_stims/complex_05_A_a.gif","middle",""
"","null","html-keyboard-response","234","1168704","0.0-44.0-0.5","SS1613138319599","","","null","","","","","<p><img src= images/blank.png width =""200"" height = ""200"" style = ""float:right""></p><p><img src=images/blank.png width =""800"" height = ""200""></p>","","","","","","","",""
"","439.01000000187196","sequential-stimulus-presentation","235","1169990","0.0-44.0-1.5","SS1613138319599","trial","","40","800","1239.010000001872","images/stimuli/spore_stims/complex_10_B_a.gif","images/stimuli/spore_stims/complex_05_A_a.gif","","","","","12","complex_dissimilar","images/stimuli/spore_stims/complex_05_A_a.gif","middle",""
"","null","html-keyboard-response","236","1171299","0.0-44.0-0.6","SS1613138319599","","","null","","","","","<p><img src= images/blank.png width =""200"" height = ""200"" style = ""float:right""></p><p><img src=images/blank.png width =""800"" height = ""200""></p>","","","","","","","",""
"","364.2649999964051","sequential-stimulus-presentation","237","1172480","0.0-44.0-1.6","SS1613138319599","trial","","40","800","1164.264999996405","images/stimuli/spore_stims/complex_10_B_a.gif","images/stimuli/spore_stims/complex_05_A_a.gif","","","","","12","complex_dissimilar","images/stimuli/spore_stims/complex_05_A_a.gif","middle",""
"","null","html-keyboard-response","238","1173658","0.0-44.0-0.7","SS1613138319599","","","null","","","","","<p><img src= images/blank.png width =""200"" height = ""200"" style = ""float:right""></p><p><img src=images/blank.png width =""800"" height = ""200""></p>","","","","","","","",""
"","1951.0299999965355","sequential-stimulus-presentation","239","1176428","0.0-44.0-1.7","SS1613138319599","trial","","40","800","2751.0299999965355","images/stimuli/spore_stims/complex_10_B_a.gif","images/stimuli/spore_stims/complex_05_A_a.gif","","","","","12","complex_dissimilar","images/stimuli/spore_stims/complex_10_B_a.gif","right",""
"","1555.009999996284","html-keyboard-response","240","1178007","0.0-45.0","SS1613138319599","pref_question","","49","","","","","<video width ='960' height = '540' style='padding-top:8%' autoplay muted><source src='images/stimuli/wall_pref.mp4' type='video/mp4'></video>","1","left","25%","12","","","",""
"","1694.765000007581","sequential-stimulus-presentation","241","1180538","0.0-46.0","SS1613138319599","pref_reveal","","40","800","2494.765000007581","null","null","","","","","12","","","","novel"
"","null","html-keyboard-response","242","1181670","0.0-47.0-0.0","SS1613138319599","","","null","","","","","<p><img src= images/blank.png width =""200"" height = ""200"" style = ""float:right""></p><p><img src=images/blank.png width =""800"" height = ""200""></p>","","","","","","","",""
"","1260.5299999993294","sequential-stimulus-presentation","243","1183769","0.0-47.0-1.0","SS1613138319599","trial","","40","800","2060.5299999993294","images/stimuli/spore_stims/simple_06_A_a.gif","images/stimuli/spore_stims/simple_08_B_a.gif","","","","","13","simple_dissimilar","images/stimuli/spore_stims/simple_08_B_a.gif","middle",""
"","null","html-keyboard-response","244","1185081","0.0-47.0-0.1","SS1613138319599","","","null","","","","","<p><img src= images/blank.png width =""200"" height = ""200"" style = ""float:right""></p><p><img src=images/blank.png width =""800"" height = ""200""></p>","","","","","","","",""
"","1383.9349999907427","sequential-stimulus-presentation","245","1187357","0.0-47.0-1.1","SS1613138319599","trial","","40","800","2183.9349999907427","images/stimuli/spore_stims/simple_06_A_a.gif","images/stimuli/spore_stims/simple_08_B_a.gif","","","","","13","simple_dissimilar","images/stimuli/spore_stims/simple_08_B_a.gif","middle",""
"","null","html-keyboard-response","246","1188459","0.0-47.0-0.2","SS1613138319599","","","null","","","","","<p><img src= images/blank.png width =""200"" height = ""200"" style = ""float:right""></p><p><img src=images/blank.png width =""800"" height = ""200""></p>","","","","","","","",""
"","780.7999999932945","sequential-stimulus-presentation","247","1190081","0.0-47.0-1.2","SS1613138319599","trial","","40","800","1580.7999999932945","images/stimuli/spore_stims/simple_06_A_a.gif","images/stimuli/spore_stims/simple_08_B_a.gif","","","","","13","simple_dissimilar","images/stimuli/spore_stims/simple_08_B_a.gif","middle",""
"","null","html-keyboard-response","248","1191393","0.0-47.0-0.3","SS1613138319599","","","null","","","","","<p><img src= images/blank.png width =""200"" height = ""200"" style = ""float:right""></p><p><img src=images/blank.png width =""800"" height = ""200""></p>","","","","","","","",""
"","372.48999999440275","sequential-stimulus-presentation","249","1192595","0.0-47.0-1.3","SS1613138319599","trial","","40","800","1172.4899999944028","images/stimuli/spore_stims/simple_06_A_a.gif","images/stimuli/spore_stims/simple_08_B_a.gif","","","","","13","simple_dissimilar","images/stimuli/spore_stims/simple_08_B_a.gif","middle",""
"","null","html-keyboard-response","250","1193673","0.0-47.0-0.4","SS1613138319599","","","null","","","","","<p><img src= images/blank.png width =""200"" height = ""200"" style = ""float:right""></p><p><img src=images/blank.png width =""800"" height = ""200""></p>","","","","","","","",""
"","784.7000000039116","sequential-stimulus-presentation","251","1195285","0.0-47.0-1.4","SS1613138319599","trial","","40","800","1584.7000000039116","images/stimuli/spore_stims/simple_06_A_a.gif","images/stimuli/spore_stims/simple_08_B_a.gif","","","","","13","simple_dissimilar","images/stimuli/spore_stims/simple_06_A_a.gif","right",""
"","null","html-keyboard-response","252","1196286","0.0-47.0-0.5","SS1613138319599","","","null","","","","","<p><img src= images/blank.png width =""200"" height = ""200"" style = ""float:right""></p><p><img src=images/blank.png width =""800"" height = ""200""></p>","","","","","","","",""
"","458.9449999909848","sequential-stimulus-presentation","253","1197572","0.0-47.0-1.5","SS1613138319599","trial","","40","800","1258.9449999909848","images/stimuli/spore_stims/simple_06_A_a.gif","images/stimuli/spore_stims/simple_08_B_a.gif","","","","","13","simple_dissimilar","images/stimuli/spore_stims/simple_08_B_a.gif","middle",""
"","null","html-keyboard-response","254","1198508","0.0-47.0-0.6","SS1613138319599","","","null","","","","","<p><img src= images/blank.png width =""200"" height = ""200"" style = ""float:right""></p><p><img src=images/blank.png width =""800"" height = ""200""></p>","","","","","","","",""
"","1866.0099999979138","sequential-stimulus-presentation","255","1201216","0.0-47.0-1.6","SS1613138319599","trial","","40","800","2666.009999997914","images/stimuli/spore_stims/simple_06_A_a.gif","images/stimuli/spore_stims/simple_08_B_a.gif","","","","","13","simple_dissimilar","images/stimuli/spore_stims/simple_08_B_a.gif","middle",""
"","null","html-keyboard-response","256","1202424","0.0-47.0-0.7","SS1613138319599","","","null","","","","","<p><img src= images/blank.png width =""200"" height = ""200"" style = ""float:right""></p><p><img src=images/blank.png width =""800"" height = ""200""></p>","","","","","","","",""
"","673.8649999897461","sequential-stimulus-presentation","257","1203924","0.0-47.0-1.7","SS1613138319599","trial","","40","800","1473.8649999897461","images/stimuli/spore_stims/simple_06_A_a.gif","images/stimuli/spore_stims/simple_08_B_a.gif","","","","","13","simple_dissimilar","images/stimuli/spore_stims/simple_08_B_a.gif","middle",""
"","1434.9999999976717","html-keyboard-response","258","1205387","0.0-48.0","SS1613138319599","pref_question","","49","","","","","<video width ='960' height = '540' style='padding-top:8%' autoplay muted><source src='images/stimuli/wall_pref.mp4' type='video/mp4'></video>","1","left","25%","13","","","",""
"","906.5700000065845","sequential-stimulus-presentation","259","1207118","0.0-49.0","SS1613138319599","pref_reveal","","40","800","1706.5700000065845","null","null","","","","","13","","","","novel"
"","null","html-keyboard-response","260","1208314","0.0-50.0-0.0","SS1613138319599","","","null","","","","","<p><img src= images/blank.png width =""200"" height = ""200"" style = ""float:right""></p><p><img src=images/blank.png width =""800"" height = ""200""></p>","","","","","","","",""
"","28.070000000298023","sequential-stimulus-presentation","261","1209178","0.0-50.0-1.0","SS1613138319599","trial","","40","800","828.070000000298","images/stimuli/spore_stims/complex_14_B_b.gif","images/stimuli/spore_stims/complex_17_A_b.gif","","","","","14","complex_dissimilar","images/stimuli/spore_stims/complex_17_A_b.gif","right",""
"","null","html-keyboard-response","262","1210507","0.0-50.0-0.1","SS1613138319599","","","null","","","","","<p><img src= images/blank.png width =""200"" height = ""200"" style = ""float:right""></p><p><img src=images/blank.png width =""800"" height = ""200""></p>","","","","","","","",""
"","428.88500000117347","sequential-stimulus-presentation","263","1211776","0.0-50.0-1.1","SS1613138319599","trial","","40","800","1228.8850000011735","images/stimuli/spore_stims/complex_14_B_b.gif","images/stimuli/spore_stims/complex_17_A_b.gif","","","","","14","complex_dissimilar","images/stimuli/spore_stims/complex_17_A_b.gif","right",""
"","null","html-keyboard-response","264","1212774","0.0-50.0-0.2","SS1613138319599","","","null","","","","","<p><img src= images/blank.png width =""200"" height = ""200"" style = ""float:right""></p><p><img src=images/blank.png width =""800"" height = ""200""></p>","","","","","","","",""
"","95.49500000127591","sequential-stimulus-presentation","265","1213693","0.0-50.0-1.2","SS1613138319599","trial","","40","800","895.4950000012759","images/stimuli/spore_stims/complex_14_B_b.gif","images/stimuli/spore_stims/complex_17_A_b.gif","","","","","14","complex_dissimilar","images/stimuli/spore_stims/complex_17_A_b.gif","right",""
"","null","html-keyboard-response","266","1214894","0.0-50.0-0.3","SS1613138319599","","","null","","","","","<p><img src= images/blank.png width =""200"" height = ""200"" style = ""float:right""></p><p><img src=images/blank.png width =""800"" height = ""200""></p>","","","","","","","",""
"","78.60500000254251","sequential-stimulus-presentation","267","1215801","0.0-50.0-1.3","SS1613138319599","trial","","40","800","878.6050000025425","images/stimuli/spore_stims/complex_14_B_b.gif","images/stimuli/spore_stims/complex_17_A_b.gif","","","","","14","complex_dissimilar","images/stimuli/spore_stims/complex_17_A_b.gif","right",""
"","null","html-keyboard-response","268","1217093","0.0-50.0-0.4","SS1613138319599","","","null","","","","","<p><img src= images/blank.png width =""200"" height = ""200"" style = ""float:right""></p><p><img src=images/blank.png width =""800"" height = ""200""></p>","","","","","","","",""
"","29.305000003660098","sequential-stimulus-presentation","269","1218001","0.0-50.0-1.4","SS1613138319599","trial","","40","800","829.3050000036601","images/stimuli/spore_stims/complex_14_B_b.gif","images/stimuli/spore_stims/complex_17_A_b.gif","","","","","14","complex_dissimilar","images/stimuli/spore_stims/complex_17_A_b.gif","right",""
"","null","html-keyboard-response","270","1219220","0.0-50.0-0.5","SS1613138319599","","","null","","","","","<p><img src= images/blank.png width =""200"" height = ""200"" style = ""float:right""></p><p><img src=images/blank.png width =""800"" height = ""200""></p>","","","","","","","",""
"","331.1399999947753","sequential-stimulus-presentation","271","1220366","0.0-50.0-1.5","SS1613138319599","trial","","40","800","1131.1399999947753","images/stimuli/spore_stims/complex_14_B_b.gif","images/stimuli/spore_stims/complex_17_A_b.gif","","","","","14","complex_dissimilar","images/stimuli/spore_stims/complex_17_A_b.gif","right",""
"","null","html-keyboard-response","272","1221664","0.0-50.0-0.6","SS1613138319599","","","null","","","","","<p><img src= images/blank.png width =""200"" height = ""200"" style = ""float:right""></p><p><img src=images/blank.png width =""800"" height = ""200""></p>","","","","","","","",""
"","59.210000006714836","sequential-stimulus-presentation","273","1222582","0.0-50.0-1.6","SS1613138319599","trial","","40","800","859.2100000067148","images/stimuli/spore_stims/complex_14_B_b.gif","images/stimuli/spore_stims/complex_17_A_b.gif","","","","","14","complex_dissimilar","images/stimuli/spore_stims/complex_17_A_b.gif","right",""
"","null","html-keyboard-response","274","1223738","0.0-50.0-0.7","SS1613138319599","","","null","","","","","<p><img src= images/blank.png width =""200"" height = ""200"" style = ""float:right""></p><p><img src=images/blank.png width =""800"" height = ""200""></p>","","","","","","","",""
"","721.7700000037439","sequential-stimulus-presentation","275","1225292","0.0-50.0-1.7","SS1613138319599","trial","","40","800","1521.770000003744","images/stimuli/spore_stims/complex_14_B_b.gif","images/stimuli/spore_stims/complex_17_A_b.gif","","","","","14","complex_dissimilar","images/stimuli/spore_stims/complex_14_B_b.gif","left",""
"","1832.550000006333","html-keyboard-response","276","1227153","0.0-51.0","SS1613138319599","pref_question","","50","","","","","<video width ='960' height = '540' style='padding-top:8%' autoplay muted><source src='images/stimuli/wall_pref.mp4' type='video/mp4'></video>","2","middle","45%","14","","","",""
"","584.9949999975506","sequential-stimulus-presentation","277","1228585","0.0-52.0","SS1613138319599","pref_reveal","","40","800","1384.9949999975506","null","null","","","","","14","","","","novel"
"","null","html-keyboard-response","278","1229423","0.0-53.0-0.0","SS1613138319599","","","null","","","","","<p><img src= images/blank.png width =""200"" height = ""200"" style = ""float:right""></p><p><img src=images/blank.png width =""800"" height = ""200""></p>","","","","","","","",""
"","444.96999999694526","sequential-stimulus-presentation","279","1230693","0.0-53.0-1.0","SS1613138319599","trial","","40","800","1244.9699999969453","images/stimuli/spore_stims/complex_15_B_c.gif","images/stimuli/spore_stims/complex_15_A_c.gif","","","","","15","complex_similar","images/stimuli/spore_stims/complex_15_A_c.gif","middle",""
"","null","html-keyboard-response","280","1231910","0.0-53.0-0.1","SS1613138319599","","","null","","","","","<p><img src= images/blank.png width =""200"" height = ""200"" style = ""float:right""></p><p><img src=images/blank.png width =""800"" height = ""200""></p>","","","","","","","",""
"","93.73000000766478","sequential-stimulus-presentation","281","1232847","0.0-53.0-1.1","SS1613138319599","trial","","40","800","893.7300000076648","images/stimuli/spore_stims/complex_15_B_c.gif","images/stimuli/spore_stims/complex_15_A_c.gif","","","","","15","complex_similar","images/stimuli/spore_stims/complex_15_A_c.gif","middle",""
"","null","html-keyboard-response","282","1233852","0.0-53.0-0.2","SS1613138319599","","","null","","","","","<p><img src= images/blank.png width =""200"" height = ""200"" style = ""float:right""></p><p><img src=images/blank.png width =""800"" height = ""200""></p>","","","","","","","",""
"","72.59000001079403","sequential-stimulus-presentation","283","1234781","0.0-53.0-1.2","SS1613138319599","trial","","40","800","872.590000010794","images/stimuli/spore_stims/complex_15_B_c.gif","images/stimuli/spore_stims/complex_15_A_c.gif","","","","","15","complex_similar","images/stimuli/spore_stims/complex_15_A_c.gif","middle",""
"","null","html-keyboard-response","284","1236101","0.0-53.0-0.3","SS1613138319599","","","null","","","","","<p><img src= images/blank.png width =""200"" height = ""200"" style = ""float:right""></p><p><img src=images/blank.png width =""800"" height = ""200""></p>","","","","","","","",""
"","15495.334999999497","sequential-stimulus-presentation","285","1252450","0.0-53.0-1.3","SS1613138319599","trial","","40","800","16295.334999999497","images/stimuli/spore_stims/complex_15_B_c.gif","images/stimuli/spore_stims/complex_15_A_c.gif","","","","","15","complex_similar","images/stimuli/spore_stims/complex_15_A_c.gif","middle",""
"","null","html-keyboard-response","286","1253381","0.0-53.0-0.4","SS1613138319599","","","null","","","","","<p><img src= images/blank.png width =""200"" height = ""200"" style = ""float:right""></p><p><img src=images/blank.png width =""800"" height = ""200""></p>","","","","","","","",""
"","426.0449999999255","sequential-stimulus-presentation","287","1254655","0.0-53.0-1.4","SS1613138319599","trial","","40","800","1226.0449999999255","images/stimuli/spore_stims/complex_15_B_c.gif","images/stimuli/spore_stims/complex_15_A_c.gif","","","","","15","complex_similar","images/stimuli/spore_stims/complex_15_A_c.gif","middle",""
"","null","html-keyboard-response","288","1255980","0.0-53.0-0.5","SS1613138319599","","","null","","","","","<p><img src= images/blank.png width =""200"" height = ""200"" style = ""float:right""></p><p><img src=images/blank.png width =""800"" height = ""200""></p>","","","","","","","",""
"","466.57999999285676","sequential-stimulus-presentation","289","1257310","0.0-53.0-1.5","SS1613138319599","trial","","40","800","1266.5799999928568","images/stimuli/spore_stims/complex_15_B_c.gif","images/stimuli/spore_stims/complex_15_A_c.gif","","","","","15","complex_similar","images/stimuli/spore_stims/complex_15_A_c.gif","middle",""
"","null","html-keyboard-response","290","1258433","0.0-53.0-0.6","SS1613138319599","","","null","","","","","<p><img src= images/blank.png width =""200"" height = ""200"" style = ""float:right""></p><p><img src=images/blank.png width =""800"" height = ""200""></p>","","","","","","","",""
"","467.7699999883771","sequential-stimulus-presentation","291","1259731","0.0-53.0-1.6","SS1613138319599","trial","","40","800","1267.769999988377","images/stimuli/spore_stims/complex_15_B_c.gif","images/stimuli/spore_stims/complex_15_A_c.gif","","","","","15","complex_similar","images/stimuli/spore_stims/complex_15_A_c.gif","middle",""
"","null","html-keyboard-response","292","1260894","0.0-53.0-0.7","SS1613138319599","","","null","","","","","<p><img src= images/blank.png width =""200"" height = ""200"" style = ""float:right""></p><p><img src=images/blank.png width =""800"" height = ""200""></p>","","","","","","","",""
"","1911.8000000016764","sequential-stimulus-presentation","293","1263654","0.0-53.0-1.7","SS1613138319599","trial","","40","800","2711.8000000016764","images/stimuli/spore_stims/complex_15_B_c.gif","images/stimuli/spore_stims/complex_15_A_c.gif","","","","","15","complex_similar","images/stimuli/spore_stims/complex_15_B_c.gif","right",""
"","1406.4550000037998","html-keyboard-response","294","1265079","0.0-54.0","SS1613138319599","pref_question","","49","","","","","<video width ='960' height = '540' style='padding-top:8%' autoplay muted><source src='images/stimuli/wall_pref.mp4' type='video/mp4'></video>","1","left","25%","15","","","",""
"","450.46999999601394","sequential-stimulus-presentation","295","1266369","0.0-55.0","SS1613138319599","pref_reveal","","40","800","1250.469999996014","null","null","","","","","15","","","","novel"
"","null","html-keyboard-response","296","1267551","0.0-56.0-0.0","SS1613138319599","","","null","","","","","<p><img src= images/blank.png width =""200"" height = ""200"" style = ""float:right""></p><p><img src=images/blank.png width =""800"" height = ""200""></p>","","","","","","","",""
"","86.62499999627471","sequential-stimulus-presentation","297","1268465","0.0-56.0-1.0","SS1613138319599","trial","","40","800","886.6249999962747","images/stimuli/spore_stims/complex_18_A_b.gif","images/stimuli/spore_stims/complex_18_B_b.gif","","","","","16","complex_similar","images/stimuli/spore_stims/complex_18_B_b.gif","left",""
"","null","html-keyboard-response","298","1269356","0.0-56.0-0.1","SS1613138319599","","","null","","","","","<p><img src= images/blank.png width =""200"" height = ""200"" style = ""float:right""></p><p><img src=images/blank.png width =""800"" height = ""200""></p>","","","","","","","",""
"","83.48999998997897","sequential-stimulus-presentation","299","1270263","0.0-56.0-1.1","SS1613138319599","trial","","40","800","883.489999989979","images/stimuli/spore_stims/complex_18_A_b.gif","images/stimuli/spore_stims/complex_18_B_b.gif","","","","","16","complex_similar","images/stimuli/spore_stims/complex_18_B_b.gif","left",""
"","null","html-keyboard-response","300","1271538","0.0-56.0-0.2","SS1613138319599","","","null","","","","","<p><img src= images/blank.png width =""200"" height = ""200"" style = ""float:right""></p><p><img src=images/blank.png width =""800"" height = ""200""></p>","","","","","","","",""
"","60.06000000331551","sequential-stimulus-presentation","301","1272433","0.0-56.0-1.2","SS1613138319599","trial","","40","800","860.0600000033155","images/stimuli/spore_stims/complex_18_A_b.gif","images/stimuli/spore_stims/complex_18_B_b.gif","","","","","16","complex_similar","images/stimuli/spore_stims/complex_18_B_b.gif","left",""
"","null","html-keyboard-response","302","1273740","0.0-56.0-0.3","SS1613138319599","","","null","","","","","<p><img src= images/blank.png width =""200"" height = ""200"" style = ""float:right""></p><p><img src=images/blank.png width =""800"" height = ""200""></p>","","","","","","","",""
"","420.2800000056159","sequential-stimulus-presentation","303","1274987","0.0-56.0-1.3","SS1613138319599","trial","","40","800","1220.2800000056159","images/stimuli/spore_stims/complex_18_A_b.gif","images/stimuli/spore_stims/complex_18_B_b.gif","","","","","16","complex_similar","images/stimuli/spore_stims/complex_18_B_b.gif","left",""
"","null","html-keyboard-response","304","1276059","0.0-56.0-0.4","SS1613138319599","","","null","","","","","<p><img src= images/blank.png width =""200"" height = ""200"" style = ""float:right""></p><p><img src=images/blank.png width =""800"" height = ""200""></p>","","","","","","","",""
"","31023.91499999794","sequential-stimulus-presentation","305","1307932","0.0-56.0-1.4","SS1613138319599","trial","","40","800","31823.91499999794","images/stimuli/spore_stims/complex_18_A_b.gif","images/stimuli/spore_stims/complex_18_B_b.gif","","","","","16","complex_similar","images/stimuli/spore_stims/complex_18_A_b.gif","middle",""
"","null","html-keyboard-response","306","1309116","0.0-56.0-0.5","SS1613138319599","","","null","","","","","<p><img src= images/blank.png width =""200"" height = ""200"" style = ""float:right""></p><p><img src=images/blank.png width =""800"" height = ""200""></p>","","","","","","","",""
"","48.934999998658895","sequential-stimulus-presentation","307","1310004","0.0-56.0-1.5","SS1613138319599","trial","","40","800","848.9349999986589","images/stimuli/spore_stims/complex_18_A_b.gif","images/stimuli/spore_stims/complex_18_B_b.gif","","","","","16","complex_similar","images/stimuli/spore_stims/complex_18_B_b.gif","left",""
"","null","html-keyboard-response","308","1311240","0.0-56.0-0.6","SS1613138319599","","","null","","","","","<p><img src= images/blank.png width =""200"" height = ""200"" style = ""float:right""></p><p><img src=images/blank.png width =""800"" height = ""200""></p>","","","","","","","",""
"","21520.309999992605","sequential-stimulus-presentation","309","1333611","0.0-56.0-1.6","SS1613138319599","trial","","40","800","22320.309999992605","images/stimuli/spore_stims/complex_18_A_b.gif","images/stimuli/spore_stims/complex_18_B_b.gif","","","","","16","complex_similar","images/stimuli/spore_stims/complex_18_B_b.gif","left",""
"","null","html-keyboard-response","310","1334477","0.0-56.0-0.7","SS1613138319599","","","null","","","","","<p><img src= images/blank.png width =""200"" height = ""200"" style = ""float:right""></p><p><img src=images/blank.png width =""800"" height = ""200""></p>","","","","","","","",""
"","347.6999999983236","sequential-stimulus-presentation","311","1335692","0.0-56.0-1.7","SS1613138319599","trial","","40","800","1147.6999999983236","images/stimuli/spore_stims/complex_18_A_b.gif","images/stimuli/spore_stims/complex_18_B_b.gif","","","","","16","complex_similar","images/stimuli/spore_stims/complex_18_B_b.gif","left",""
"","1660.5750000015832","html-keyboard-response","312","1337373","0.0-57.0","SS1613138319599","pref_question","","50","","","","","<video width ='960' height = '540' style='padding-top:8%' autoplay muted><source src='images/stimuli/wall_pref.mp4' type='video/mp4'></video>","2","middle","45%","16","","","",""
"","676.3400000054389","sequential-stimulus-presentation","313","1338888","0.0-58.0","SS1613138319599","pref_reveal","","40","800","1476.340000005439","null","null","","","","","16","","","","deviant"
"","null","html-keyboard-response","314","1340090","0.0-59.0-0.0","SS1613138319599","","","null","","","","","<p><img src= images/blank.png width =""200"" height = ""200"" style = ""float:right""></p><p><img src=images/blank.png width =""800"" height = ""200""></p>","","","","","","","",""
"","200.7749999903608","sequential-stimulus-presentation","315","1341137","0.0-59.0-1.0","SS1613138319599","trial","","40","800","1000.7749999903608","images/stimuli/spore_stims/simple_12_A_c.gif","images/stimuli/spore_stims/simple_11_A_d.gif","","","","","17","simple_dissimilar","images/stimuli/spore_stims/simple_11_A_d.gif","middle",""
"","null","html-keyboard-response","316","1342246","0.0-59.0-0.1","SS1613138319599","","","null","","","","","<p><img src= images/blank.png width =""200"" height = ""200"" style = ""float:right""></p><p><img src=images/blank.png width =""800"" height = ""200""></p>","","","","","","","",""
"","336.43499999004416","sequential-stimulus-presentation","317","1343408","0.0-59.0-1.1","SS1613138319599","trial","","40","800","1136.4349999900442","images/stimuli/spore_stims/simple_12_A_c.gif","images/stimuli/spore_stims/simple_11_A_d.gif","","","","","17","simple_dissimilar","images/stimuli/spore_stims/simple_11_A_d.gif","middle",""
"","null","html-keyboard-response","318","1344696","0.0-59.0-0.2","SS1613138319599","","","null","","","","","<p><img src= images/blank.png width =""200"" height = ""200"" style = ""float:right""></p><p><img src=images/blank.png width =""800"" height = ""200""></p>","","","","","","","",""
"","592.5649999990128","sequential-stimulus-presentation","319","1346120","0.0-59.0-1.2","SS1613138319599","trial","","40","800","1392.5649999990128","images/stimuli/spore_stims/simple_12_A_c.gif","images/stimuli/spore_stims/simple_11_A_d.gif","","","","","17","simple_dissimilar","images/stimuli/spore_stims/simple_11_A_d.gif","middle",""
"","null","html-keyboard-response","320","1346956","0.0-59.0-0.3","SS1613138319599","","","null","","","","","<p><img src= images/blank.png width =""200"" height = ""200"" style = ""float:right""></p><p><img src=images/blank.png width =""800"" height = ""200""></p>","","","","","","","",""
"","172.75500000687316","sequential-stimulus-presentation","321","1347989","0.0-59.0-1.3","SS1613138319599","trial","","40","800","972.7550000068732","images/stimuli/spore_stims/simple_12_A_c.gif","images/stimuli/spore_stims/simple_11_A_d.gif","","","","","17","simple_dissimilar","images/stimuli/spore_stims/simple_11_A_d.gif","middle",""
"","null","html-keyboard-response","322","1348920","0.0-59.0-0.4","SS1613138319599","","","null","","","","","<p><img src= images/blank.png width =""200"" height = ""200"" style = ""float:right""></p><p><img src=images/blank.png width =""800"" height = ""200""></p>","","","","","","","",""
"","7858.405000006314","sequential-stimulus-presentation","323","1357608","0.0-59.0-1.4","SS1613138319599","trial","","40","800","8658.405000006314","images/stimuli/spore_stims/simple_12_A_c.gif","images/stimuli/spore_stims/simple_11_A_d.gif","","","","","17","simple_dissimilar","images/stimuli/spore_stims/simple_12_A_c.gif","left",""
"","null","html-keyboard-response","324","1358565","0.0-59.0-0.5","SS1613138319599","","","null","","","","","<p><img src= images/blank.png width =""200"" height = ""200"" style = ""float:right""></p><p><img src=images/blank.png width =""800"" height = ""200""></p>","","","","","","","",""
