"view_history","rt","trial_type","trial_index","time_elapsed","internal_node_id","subject","stimulus_type","trial_stimulus","key_press","minimum_viewing_duration","trial_looking_time","block_deviant","block_background","stimulus","wall_pref","location","location_percent","block_number","block_type","stimulus_displayed","position_displayed","stim_type_selected","responses","question_order","stimulus_left","stimulus_right"
"[{""page_index"":0,""viewing_time"":2618.000000002212}]","2618.9999999987776","instructions","0","2621","0.0-0.0","SS1613099446439","","","","","","","","","","","","","","","","","","","",""
"[{""page_index"":0,""viewing_time"":2153.999999994994},{""page_index"":1,""viewing_time"":11438.999999998487}]","13593.999999997322","instructions","1","18219","0.0-1.0","SS1613099446439","instructions","","","","","","","","","","","","","","","","","","",""
"","38419.999999998254","sequential-stimulus-presentation","2","57452","0.0-2.0","SS1613099446439","","","40","800","39219.999999998254","null","null","","","","","","","","","","","","",""
"","7442.000000002736","sequential-stimulus-presentation","3","65705","0.0-3.0","SS1613099446439","","","40","800","8242.000000002736","null","null","","","","","","","","","","","","",""
"[{""page_index"":0,""viewing_time"":4993.000000002212}]","4993.999999998778","instructions","4","70701","0.0-4.0","SS1613099446439","instructions","","","","","","","","","","","","","","","","","","",""
"","11559.000000001106","html-keyboard-response","5","82266","0.0-5.0","SS1613099446439","instructions","","50","","","","","<video width ='960' height = '540' autoplay muted><source src='images/stimuli/wall_pref.mp4' type='video/mp4'></video>","2","middle","45%","","","","","","","","",""
"","4230.000000003201","sequential-stimulus-presentation","6","87305","0.0-6.0","SS1613099446439","pref_reveal","","40","800","5030.000000003201","null","null","","","","","","","","","","","","",""
"[{""page_index"":0,""viewing_time"":1838.9999999999418},{""page_index"":1,""viewing_time"":6319.999999999709},{""page_index"":2,""viewing_time"":2462.9999999961},{""page_index"":3,""viewing_time"":1519.0000000002328}]","12140.999999995984","instructions","7","99450","0.0-7.0","SS1613099446439","instructions","","","","","","","","","","","","","","","","","","",""
"","null","html-keyboard-response","8","100479","0.0-8.0-0.0","SS1613099446439","","","null","","","","","<p><img src= images/blank.png width =""200"" height = ""200"" style = ""float:right""></p><p><img src=images/blank.png width =""800"" height = ""200""></p>","","","","","","","","","","","",""
"","3413.0000000004657","sequential-stimulus-presentation","9","104698","0.0-8.0-1.0","SS1613099446439","trial","","40","800","4213.000000000466","images/stimuli/spore_stims/simple_16_A_a.gif","images/stimuli/spore_stims/simple_16_B_a.gif","","","","","0","simple_similar","images/stimuli/spore_stims/simple_16_B_a.gif","right","","","","",""
"","null","html-keyboard-response","10","105819","0.0-8.0-0.1","SS1613099446439","","","null","","","","","<p><img src= images/blank.png width =""200"" height = ""200"" style = ""float:right""></p><p><img src=images/blank.png width =""800"" height = ""200""></p>","","","","","","","","","","","",""
"","982.0000000036089","sequential-stimulus-presentation","11","107610","0.0-8.0-1.1","SS1613099446439","trial","","40","800","1782.0000000036089","images/stimuli/spore_stims/simple_16_A_a.gif","images/stimuli/spore_stims/simple_16_B_a.gif","","","","","0","simple_similar","images/stimuli/spore_stims/simple_16_B_a.gif","right","","","","",""
"","null","html-keyboard-response","12","108881","0.0-8.0-0.2","SS1613099446439","","","null","","","","","<p><img src= images/blank.png width =""200"" height = ""200"" style = ""float:right""></p><p><img src=images/blank.png width =""800"" height = ""200""></p>","","","","","","","","","","","",""
"","922.999999995227","sequential-stimulus-presentation","13","110619","0.0-8.0-1.2","SS1613099446439","trial","","40","800","1722.999999995227","images/stimuli/spore_stims/simple_16_A_a.gif","images/stimuli/spore_stims/simple_16_B_a.gif","","","","","0","simple_similar","images/stimuli/spore_stims/simple_16_B_a.gif","right","","","","",""
"","null","html-keyboard-response","14","111638","0.0-8.0-0.3","SS1613099446439","","","null","","","","","<p><img src= images/blank.png width =""200"" height = ""200"" style = ""float:right""></p><p><img src=images/blank.png width =""800"" height = ""200""></p>","","","","","","","","","","","",""
"","3746.999999995751","sequential-stimulus-presentation","15","116195","0.0-8.0-1.3","SS1613099446439","trial","","40","800","4546.999999995751","images/stimuli/spore_stims/simple_16_A_a.gif","images/stimuli/spore_stims/simple_16_B_a.gif","","","","","0","simple_similar","images/stimuli/spore_stims/simple_16_B_a.gif","right","","","","",""
"","null","html-keyboard-response","16","117033","0.0-8.0-0.4","SS1613099446439","","","null","","","","","<p><img src= images/blank.png width =""200"" height = ""200"" style = ""float:right""></p><p><img src=images/blank.png width =""800"" height = ""200""></p>","","","","","","","","","","","",""
"","1047.0000000059372","sequential-stimulus-presentation","17","118891","0.0-8.0-1.4","SS1613099446439","trial","","40","800","1847.0000000059372","images/stimuli/spore_stims/simple_16_A_a.gif","images/stimuli/spore_stims/simple_16_B_a.gif","","","","","0","simple_similar","images/stimuli/spore_stims/simple_16_B_a.gif","right","","","","",""
"","null","html-keyboard-response","18","119805","0.0-8.0-0.5","SS1613099446439","","","null","","","","","<p><img src= images/blank.png width =""200"" height = ""200"" style = ""float:right""></p><p><img src=images/blank.png width =""800"" height = ""200""></p>","","","","","","","","","","","",""
"","569.999999999709","sequential-stimulus-presentation","19","121186","0.0-8.0-1.5","SS1613099446439","trial","","40","800","1369.999999999709","images/stimuli/spore_stims/simple_16_A_a.gif","images/stimuli/spore_stims/simple_16_B_a.gif","","","","","0","simple_similar","images/stimuli/spore_stims/simple_16_B_a.gif","right","","","","",""
"","null","html-keyboard-response","20","122001","0.0-8.0-0.6","SS1613099446439","","","null","","","","","<p><img src= images/blank.png width =""200"" height = ""200"" style = ""float:right""></p><p><img src=images/blank.png width =""800"" height = ""200""></p>","","","","","","","","","","","",""
"","613.999999994121","sequential-stimulus-presentation","21","123435","0.0-8.0-1.6","SS1613099446439","trial","","40","800","1413.999999994121","images/stimuli/spore_stims/simple_16_A_a.gif","images/stimuli/spore_stims/simple_16_B_a.gif","","","","","0","simple_similar","images/stimuli/spore_stims/simple_16_A_a.gif","left","","","","",""
"","null","html-keyboard-response","22","124641","0.0-8.0-0.7","SS1613099446439","","","null","","","","","<p><img src= images/blank.png width =""200"" height = ""200"" style = ""float:right""></p><p><img src=images/blank.png width =""800"" height = ""200""></p>","","","","","","","","","","","",""
"","1868.000000002212","sequential-stimulus-presentation","23","127318","0.0-8.0-1.7","SS1613099446439","trial","","40","800","2668.000000002212","images/stimuli/spore_stims/simple_16_A_a.gif","images/stimuli/spore_stims/simple_16_B_a.gif","","","","","0","simple_similar","images/stimuli/spore_stims/simple_16_B_a.gif","right","","","","",""
"","1808.99999999383","html-keyboard-response","24","129132","0.0-9.0","SS1613099446439","pref_question","","51","","","","","<video width ='960' height = '540' style='padding-top:8%' autoplay muted><source src='images/stimuli/wall_pref.mp4' type='video/mp4'></video>","3","right","66%","0","","","","","","","",""
"","1216.0000000003492","sequential-stimulus-presentation","25","131155","0.0-10.0","SS1613099446439","pref_reveal","","40","800","2016.0000000003492","null","null","","","","","0","","","","background","","","",""
"","null","html-keyboard-response","26","132115","0.0-11.0-0.0","SS1613099446439","","","null","","","","","<p><img src= images/blank.png width =""200"" height = ""200"" style = ""float:right""></p><p><img src=images/blank.png width =""800"" height = ""200""></p>","","","","","","","","","","","",""
"","1992.999999994936","sequential-stimulus-presentation","27","134918","0.0-11.0-1.0","SS1613099446439","trial","","40","800","2792.999999994936","images/stimuli/spore_stims/complex_12_A_c.gif","images/stimuli/spore_stims/complex_12_B_c.gif","","","","","1","complex_similar","images/stimuli/spore_stims/complex_12_B_c.gif","left","","","","",""
"","null","html-keyboard-response","28","135943","0.0-11.0-0.1","SS1613099446439","","","null","","","","","<p><img src= images/blank.png width =""200"" height = ""200"" style = ""float:right""></p><p><img src=images/blank.png width =""800"" height = ""200""></p>","","","","","","","","","","","",""
"","2203.000000001339","sequential-stimulus-presentation","29","138963","0.0-11.0-1.1","SS1613099446439","trial","","40","800","3003.000000001339","images/stimuli/spore_stims/complex_12_A_c.gif","images/stimuli/spore_stims/complex_12_B_c.gif","","","","","1","complex_similar","images/stimuli/spore_stims/complex_12_B_c.gif","left","","","","",""
"","null","html-keyboard-response","30","139884","0.0-11.0-0.2","SS1613099446439","","","null","","","","","<p><img src= images/blank.png width =""200"" height = ""200"" style = ""float:right""></p><p><img src=images/blank.png width =""800"" height = ""200""></p>","","","","","","","","","","","",""
"","1766.9999999998254","sequential-stimulus-presentation","31","142460","0.0-11.0-1.2","SS1613099446439","trial","","40","800","2566.9999999998254","images/stimuli/spore_stims/complex_12_A_c.gif","images/stimuli/spore_stims/complex_12_B_c.gif","","","","","1","complex_similar","images/stimuli/spore_stims/complex_12_B_c.gif","left","","","","",""
"","null","html-keyboard-response","32","143673","0.0-11.0-0.3","SS1613099446439","","","null","","","","","<p><img src= images/blank.png width =""200"" height = ""200"" style = ""float:right""></p><p><img src=images/blank.png width =""800"" height = ""200""></p>","","","","","","","","","","","",""
"","1316.9999999954598","sequential-stimulus-presentation","33","145799","0.0-11.0-1.3","SS1613099446439","trial","","40","800","2116.99999999546","images/stimuli/spore_stims/complex_12_A_c.gif","images/stimuli/spore_stims/complex_12_B_c.gif","","","","","1","complex_similar","images/stimuli/spore_stims/complex_12_A_c.gif","middle","","","","",""
"","null","html-keyboard-response","34","147028","0.0-11.0-0.4","SS1613099446439","","","null","","","","","<p><img src= images/blank.png width =""200"" height = ""200"" style = ""float:right""></p><p><img src=images/blank.png width =""800"" height = ""200""></p>","","","","","","","","","","","",""
"","775.9999999980209","sequential-stimulus-presentation","35","148611","0.0-11.0-1.4","SS1613099446439","trial","","40","800","1575.999999998021","images/stimuli/spore_stims/complex_12_A_c.gif","images/stimuli/spore_stims/complex_12_B_c.gif","","","","","1","complex_similar","images/stimuli/spore_stims/complex_12_B_c.gif","left","","","","",""
"","null","html-keyboard-response","36","149811","0.0-11.0-0.5","SS1613099446439","","","null","","","","","<p><img src= images/blank.png width =""200"" height = ""200"" style = ""float:right""></p><p><img src=images/blank.png width =""800"" height = ""200""></p>","","","","","","","","","","","",""
"","1486.0000000044238","sequential-stimulus-presentation","37","152101","0.0-11.0-1.5","SS1613099446439","trial","","40","800","2286.000000004424","images/stimuli/spore_stims/complex_12_A_c.gif","images/stimuli/spore_stims/complex_12_B_c.gif","","","","","1","complex_similar","images/stimuli/spore_stims/complex_12_B_c.gif","left","","","","",""
"","null","html-keyboard-response","38","153233","0.0-11.0-0.6","SS1613099446439","","","null","","","","","<p><img src= images/blank.png width =""200"" height = ""200"" style = ""float:right""></p><p><img src=images/blank.png width =""800"" height = ""200""></p>","","","","","","","","","","","",""
"","407.99999999580905","sequential-stimulus-presentation","39","154452","0.0-11.0-1.6","SS1613099446439","trial","","40","800","1207.999999995809","images/stimuli/spore_stims/complex_12_A_c.gif","images/stimuli/spore_stims/complex_12_B_c.gif","","","","","1","complex_similar","images/stimuli/spore_stims/complex_12_B_c.gif","left","","","","",""
"","null","html-keyboard-response","40","155530","0.0-11.0-0.7","SS1613099446439","","","null","","","","","<p><img src= images/blank.png width =""200"" height = ""200"" style = ""float:right""></p><p><img src=images/blank.png width =""800"" height = ""200""></p>","","","","","","","","","","","",""
"","705.0000000017462","sequential-stimulus-presentation","41","157086","0.0-11.0-1.7","SS1613099446439","trial","","40","800","1505.0000000017462","images/stimuli/spore_stims/complex_12_A_c.gif","images/stimuli/spore_stims/complex_12_B_c.gif","","","","","1","complex_similar","images/stimuli/spore_stims/complex_12_B_c.gif","left","","","","",""
"","1192.0000000027358","html-keyboard-response","42","158286","0.0-12.0","SS1613099446439","pref_question","","49","","","","","<video width ='960' height = '540' style='padding-top:8%' autoplay muted><source src='images/stimuli/wall_pref.mp4' type='video/mp4'></video>","1","left","25%","1","","","","","","","",""
"","1153.0000000057044","sequential-stimulus-presentation","43","160244","0.0-13.0","SS1613099446439","pref_reveal","","40","800","1953.0000000057044","null","null","","","","","1","","","","background","","","",""
"","null","html-keyboard-response","44","161475","0.0-14.0-0.0","SS1613099446439","","","null","","","","","<p><img src= images/blank.png width =""200"" height = ""200"" style = ""float:right""></p><p><img src=images/blank.png width =""800"" height = ""200""></p>","","","","","","","","","","","",""
"","398.9999999976135","sequential-stimulus-presentation","45","162684","0.0-14.0-1.0","SS1613099446439","trial","","40","800","1198.9999999976135","images/stimuli/spore_stims/simple_04_B_d.gif","images/stimuli/spore_stims/simple_05_B_c.gif","","","","","2","simple_dissimilar","images/stimuli/spore_stims/simple_05_B_c.gif","middle","","","","",""
"","null","html-keyboard-response","46","163744","0.0-14.0-0.1","SS1613099446439","","","null","","","","","<p><img src= images/blank.png width =""200"" height = ""200"" style = ""float:right""></p><p><img src=images/blank.png width =""800"" height = ""200""></p>","","","","","","","","","","","",""
"","161.99999999662396","sequential-stimulus-presentation","47","164716","0.0-14.0-1.1","SS1613099446439","trial","","40","800","961.999999996624","images/stimuli/spore_stims/simple_04_B_d.gif","images/stimuli/spore_stims/simple_05_B_c.gif","","","","","2","simple_dissimilar","images/stimuli/spore_stims/simple_05_B_c.gif","middle","","","","",""
"","null","html-keyboard-response","48","165844","0.0-14.0-0.2","SS1613099446439","","","null","","","","","<p><img src= images/blank.png width =""200"" height = ""200"" style = ""float:right""></p><p><img src=images/blank.png width =""800"" height = ""200""></p>","","","","","","","","","","","",""
"","307.0000000006985","sequential-stimulus-presentation","49","166964","0.0-14.0-1.2","SS1613099446439","trial","","40","800","1107.0000000006985","images/stimuli/spore_stims/simple_04_B_d.gif","images/stimuli/spore_stims/simple_05_B_c.gif","","","","","2","simple_dissimilar","images/stimuli/spore_stims/simple_04_B_d.gif","right","","","","",""
"","null","html-keyboard-response","50","168127","0.0-14.0-0.3","SS1613099446439","","","null","","","","","<p><img src= images/blank.png width =""200"" height = ""200"" style = ""float:right""></p><p><img src=images/blank.png width =""800"" height = ""200""></p>","","","","","","","","","","","",""
"","483.99999999674037","sequential-stimulus-presentation","51","169441","0.0-14.0-1.3","SS1613099446439","trial","","40","800","1283.9999999967404","images/stimuli/spore_stims/simple_04_B_d.gif","images/stimuli/spore_stims/simple_05_B_c.gif","","","","","2","simple_dissimilar","images/stimuli/spore_stims/simple_05_B_c.gif","middle","","","","",""
"","null","html-keyboard-response","52","170505","0.0-14.0-0.4","SS1613099446439","","","null","","","","","<p><img src= images/blank.png width =""200"" height = ""200"" style = ""float:right""></p><p><img src=images/blank.png width =""800"" height = ""200""></p>","","","","","","","","","","","",""
"","57.00000000069849","sequential-stimulus-presentation","53","171372","0.0-14.0-1.4","SS1613099446439","trial","","40","800","857.0000000006985","images/stimuli/spore_stims/simple_04_B_d.gif","images/stimuli/spore_stims/simple_05_B_c.gif","","","","","2","simple_dissimilar","images/stimuli/spore_stims/simple_05_B_c.gif","middle","","","","",""
"","null","html-keyboard-response","54","172391","0.0-14.0-0.5","SS1613099446439","","","null","","","","","<p><img src= images/blank.png width =""200"" height = ""200"" style = ""float:right""></p><p><img src=images/blank.png width =""800"" height = ""200""></p>","","","","","","","","","","","",""
"","501.0000000038417","sequential-stimulus-presentation","55","173708","0.0-14.0-1.5","SS1613099446439","trial","","40","800","1301.0000000038417","images/stimuli/spore_stims/simple_04_B_d.gif","images/stimuli/spore_stims/simple_05_B_c.gif","","","","","2","simple_dissimilar","images/stimuli/spore_stims/simple_05_B_c.gif","middle","","","","",""
"","null","html-keyboard-response","56","174657","0.0-14.0-0.6","SS1613099446439","","","null","","","","","<p><img src= images/blank.png width =""200"" height = ""200"" style = ""float:right""></p><p><img src=images/blank.png width =""800"" height = ""200""></p>","","","","","","","","","","","",""
"","389.9999999994179","sequential-stimulus-presentation","57","175860","0.0-14.0-1.6","SS1613099446439","trial","","40","800","1189.999999999418","images/stimuli/spore_stims/simple_04_B_d.gif","images/stimuli/spore_stims/simple_05_B_c.gif","","","","","2","simple_dissimilar","images/stimuli/spore_stims/simple_05_B_c.gif","middle","","","","",""
"","null","html-keyboard-response","58","177057","0.0-14.0-0.7","SS1613099446439","","","null","","","","","<p><img src= images/blank.png width =""200"" height = ""200"" style = ""float:right""></p><p><img src=images/blank.png width =""800"" height = ""200""></p>","","","","","","","","","","","",""
"","222.0000000015716","sequential-stimulus-presentation","59","178090","0.0-14.0-1.7","SS1613099446439","trial","","40","800","1022.0000000015716","images/stimuli/spore_stims/simple_04_B_d.gif","images/stimuli/spore_stims/simple_05_B_c.gif","","","","","2","simple_dissimilar","images/stimuli/spore_stims/simple_05_B_c.gif","middle","","","","",""
"","3937.000000005355","html-keyboard-response","60","182033","0.0-15.0","SS1613099446439","pref_question","","50","","","","","<video width ='960' height = '540' style='padding-top:8%' autoplay muted><source src='images/stimuli/wall_pref.mp4' type='video/mp4'></video>","2","middle","45%","2","","","","","","","",""
"","4012.9999999990105","sequential-stimulus-presentation","61","186879","0.0-16.0","SS1613099446439","pref_reveal","","40","800","4812.9999999990105","null","null","","","","","2","","","","background","","","",""
"","null","html-keyboard-response","62","187724","0.0-17.0-0.0","SS1613099446439","","","null","","","","","<p><img src= images/blank.png width =""200"" height = ""200"" style = ""float:right""></p><p><img src=images/blank.png width =""800"" height = ""200""></p>","","","","","","","","","","","",""
"","1373.9999999961583","sequential-stimulus-presentation","63","189933","0.0-17.0-1.0","SS1613099446439","trial","","40","800","2173.9999999961583","images/stimuli/spore_stims/complex_19_B_d.gif","images/stimuli/spore_stims/complex_19_A_d.gif","","","","","3","complex_similar","images/stimuli/spore_stims/complex_19_A_d.gif","middle","","","","",""
"","null","html-keyboard-response","64","191033","0.0-17.0-0.1","SS1613099446439","","","null","","","","","<p><img src= images/blank.png width =""200"" height = ""200"" style = ""float:right""></p><p><img src=images/blank.png width =""800"" height = ""200""></p>","","","","","","","","","","","",""
"","383.99999999819556","sequential-stimulus-presentation","65","192230","0.0-17.0-1.1","SS1613099446439","trial","","40","800","1183.9999999981956","images/stimuli/spore_stims/complex_19_B_d.gif","images/stimuli/spore_stims/complex_19_A_d.gif","","","","","3","complex_similar","images/stimuli/spore_stims/complex_19_A_d.gif","middle","","","","",""
"","null","html-keyboard-response","66","193349","0.0-17.0-0.2","SS1613099446439","","","null","","","","","<p><img src= images/blank.png width =""200"" height = ""200"" style = ""float:right""></p><p><img src=images/blank.png width =""800"" height = ""200""></p>","","","","","","","","","","","",""
"","866.9999999983702","sequential-stimulus-presentation","67","195022","0.0-17.0-1.2","SS1613099446439","trial","","40","800","1666.9999999983702","images/stimuli/spore_stims/complex_19_B_d.gif","images/stimuli/spore_stims/complex_19_A_d.gif","","","","","3","complex_similar","images/stimuli/spore_stims/complex_19_B_d.gif","right","","","","",""
"","null","html-keyboard-response","68","195868","0.0-17.0-0.3","SS1613099446439","","","null","","","","","<p><img src= images/blank.png width =""200"" height = ""200"" style = ""float:right""></p><p><img src=images/blank.png width =""800"" height = ""200""></p>","","","","","","","","","","","",""
"","419.99999999825377","sequential-stimulus-presentation","69","197118","0.0-17.0-1.3","SS1613099446439","trial","","40","800","1219.9999999982538","images/stimuli/spore_stims/complex_19_B_d.gif","images/stimuli/spore_stims/complex_19_A_d.gif","","","","","3","complex_similar","images/stimuli/spore_stims/complex_19_A_d.gif","middle","","","","",""
"","null","html-keyboard-response","70","198173","0.0-17.0-0.4","SS1613099446439","","","null","","","","","<p><img src= images/blank.png width =""200"" height = ""200"" style = ""float:right""></p><p><img src=images/blank.png width =""800"" height = ""200""></p>","","","","","","","","","","","",""
"","554.0000000037253","sequential-stimulus-presentation","71","199541","0.0-17.0-1.4","SS1613099446439","trial","","40","800","1354.0000000037253","images/stimuli/spore_stims/complex_19_B_d.gif","images/stimuli/spore_stims/complex_19_A_d.gif","","","","","3","complex_similar","images/stimuli/spore_stims/complex_19_A_d.gif","middle","","","","",""
"","null","html-keyboard-response","72","200800","0.0-17.0-0.5","SS1613099446439","","","null","","","","","<p><img src= images/blank.png width =""200"" height = ""200"" style = ""float:right""></p><p><img src=images/blank.png width =""800"" height = ""200""></p>","","","","","","","","","","","",""
"","726.9999999989523","sequential-stimulus-presentation","73","202333","0.0-17.0-1.5","SS1613099446439","trial","","40","800","1526.9999999989523","images/stimuli/spore_stims/complex_19_B_d.gif","images/stimuli/spore_stims/complex_19_A_d.gif","","","","","3","complex_similar","images/stimuli/spore_stims/complex_19_A_d.gif","middle","","","","",""
"","null","html-keyboard-response","74","203486","0.0-17.0-0.6","SS1613099446439","","","null","","","","","<p><img src= images/blank.png width =""200"" height = ""200"" style = ""float:right""></p><p><img src=images/blank.png width =""800"" height = ""200""></p>","","","","","","","","","","","",""
"","775.9999999980209","sequential-stimulus-presentation","75","205072","0.0-17.0-1.6","SS1613099446439","trial","","40","800","1575.999999998021","images/stimuli/spore_stims/complex_19_B_d.gif","images/stimuli/spore_stims/complex_19_A_d.gif","","","","","3","complex_similar","images/stimuli/spore_stims/complex_19_A_d.gif","middle","","","","",""
"","null","html-keyboard-response","76","206162","0.0-17.0-0.7","SS1613099446439","","","null","","","","","<p><img src= images/blank.png width =""200"" height = ""200"" style = ""float:right""></p><p><img src=images/blank.png width =""800"" height = ""200""></p>","","","","","","","","","","","",""
"","403.00000000570435","sequential-stimulus-presentation","77","207374","0.0-17.0-1.7","SS1613099446439","trial","","40","800","1203.0000000057044","images/stimuli/spore_stims/complex_19_B_d.gif","images/stimuli/spore_stims/complex_19_A_d.gif","","","","","3","complex_similar","images/stimuli/spore_stims/complex_19_A_d.gif","middle","","","","",""
"","1593.0000000007567","html-keyboard-response","78","208974","0.0-18.0","SS1613099446439","pref_question","","50","","","","","<video width ='960' height = '540' style='padding-top:8%' autoplay muted><source src='images/stimuli/wall_pref.mp4' type='video/mp4'></video>","2","middle","45%","3","","","","","","","",""
"","328.9999999979045","sequential-stimulus-presentation","79","210111","0.0-19.0","SS1613099446439","pref_reveal","","40","800","1128.9999999979045","null","null","","","","","3","","","","background","","","",""
"","null","html-keyboard-response","80","211406","0.0-20.0-0.0","SS1613099446439","","","null","","","","","<p><img src= images/blank.png width =""200"" height = ""200"" style = ""float:right""></p><p><img src=images/blank.png width =""800"" height = ""200""></p>","","","","","","","","","","","",""
"","671.9999999986612","sequential-stimulus-presentation","81","212893","0.0-20.0-1.0","SS1613099446439","trial","","40","800","1471.9999999986612","images/stimuli/spore_stims/simple_14_B_c.gif","images/stimuli/spore_stims/simple_14_A_c.gif","","","","","4","simple_similar","images/stimuli/spore_stims/simple_14_A_c.gif","right","","","","",""
"","null","html-keyboard-response","82","213838","0.0-20.0-0.1","SS1613099446439","","","null","","","","","<p><img src= images/blank.png width =""200"" height = ""200"" style = ""float:right""></p><p><img src=images/blank.png width =""800"" height = ""200""></p>","","","","","","","","","","","",""
"","551.0000000067521","sequential-stimulus-presentation","83","215197","0.0-20.0-1.1","SS1613099446439","trial","","40","800","1351.000000006752","images/stimuli/spore_stims/simple_14_B_c.gif","images/stimuli/spore_stims/simple_14_A_c.gif","","","","","4","simple_similar","images/stimuli/spore_stims/simple_14_A_c.gif","right","","","","",""
"","null","html-keyboard-response","84","216233","0.0-20.0-0.2","SS1613099446439","","","null","","","","","<p><img src= images/blank.png width =""200"" height = ""200"" style = ""float:right""></p><p><img src=images/blank.png width =""800"" height = ""200""></p>","","","","","","","","","","","",""
"","461.99999999953434","sequential-stimulus-presentation","85","217502","0.0-20.0-1.2","SS1613099446439","trial","","40","800","1261.9999999995343","images/stimuli/spore_stims/simple_14_B_c.gif","images/stimuli/spore_stims/simple_14_A_c.gif","","","","","4","simple_similar","images/stimuli/spore_stims/simple_14_A_c.gif","right","","","","",""
"","null","html-keyboard-response","86","218405","0.0-20.0-0.3","SS1613099446439","","","null","","","","","<p><img src= images/blank.png width =""200"" height = ""200"" style = ""float:right""></p><p><img src=images/blank.png width =""800"" height = ""200""></p>","","","","","","","","","","","",""
"","951.9999999974971","sequential-stimulus-presentation","87","220166","0.0-20.0-1.3","SS1613099446439","trial","","40","800","1751.999999997497","images/stimuli/spore_stims/simple_14_B_c.gif","images/stimuli/spore_stims/simple_14_A_c.gif","","","","","4","simple_similar","images/stimuli/spore_stims/simple_14_A_c.gif","right","","","","",""
"","null","html-keyboard-response","88","221332","0.0-20.0-0.4","SS1613099446439","","","null","","","","","<p><img src= images/blank.png width =""200"" height = ""200"" style = ""float:right""></p><p><img src=images/blank.png width =""800"" height = ""200""></p>","","","","","","","","","","","",""
"","1771.0000000006403","sequential-stimulus-presentation","89","223926","0.0-20.0-1.4","SS1613099446439","trial","","40","800","2571.0000000006403","images/stimuli/spore_stims/simple_14_B_c.gif","images/stimuli/spore_stims/simple_14_A_c.gif","","","","","4","simple_similar","images/stimuli/spore_stims/simple_14_A_c.gif","right","","","","",""
"","null","html-keyboard-response","90","224925","0.0-20.0-0.5","SS1613099446439","","","null","","","","","<p><img src= images/blank.png width =""200"" height = ""200"" style = ""float:right""></p><p><img src=images/blank.png width =""800"" height = ""200""></p>","","","","","","","","","","","",""
"","2417.9999999978463","sequential-stimulus-presentation","91","228158","0.0-20.0-1.5","SS1613099446439","trial","","40","800","3217.9999999978463","images/stimuli/spore_stims/simple_14_B_c.gif","images/stimuli/spore_stims/simple_14_A_c.gif","","","","","4","simple_similar","images/stimuli/spore_stims/simple_14_A_c.gif","right","","","","",""
"","null","html-keyboard-response","92","229299","0.0-20.0-0.6","SS1613099446439","","","null","","","","","<p><img src= images/blank.png width =""200"" height = ""200"" style = ""float:right""></p><p><img src=images/blank.png width =""800"" height = ""200""></p>","","","","","","","","","","","",""
"","574.0000000005239","sequential-stimulus-presentation","93","230687","0.0-20.0-1.6","SS1613099446439","trial","","40","800","1374.0000000005239","images/stimuli/spore_stims/simple_14_B_c.gif","images/stimuli/spore_stims/simple_14_A_c.gif","","","","","4","simple_similar","images/stimuli/spore_stims/simple_14_A_c.gif","right","","","","",""
"","null","html-keyboard-response","94","231535","0.0-20.0-0.7","SS1613099446439","","","null","","","","","<p><img src= images/blank.png width =""200"" height = ""200"" style = ""float:right""></p><p><img src=images/blank.png width =""800"" height = ""200""></p>","","","","","","","","","","","",""
"","1026.000000005297","sequential-stimulus-presentation","95","233374","0.0-20.0-1.7","SS1613099446439","trial","","40","800","1826.000000005297","images/stimuli/spore_stims/simple_14_B_c.gif","images/stimuli/spore_stims/simple_14_A_c.gif","","","","","4","simple_similar","images/stimuli/spore_stims/simple_14_B_c.gif","left","","","","",""
"","2220.000000001164","html-keyboard-response","96","235599","0.0-21.0","SS1613099446439","pref_question","","51","","","","","<video width ='960' height = '540' style='padding-top:8%' autoplay muted><source src='images/stimuli/wall_pref.mp4' type='video/mp4'></video>","3","right","66%","4","","","","","","","",""
"","1256.999999997788","sequential-stimulus-presentation","97","237686","0.0-22.0","SS1613099446439","pref_reveal","","40","800","2056.999999997788","null","null","","","","","4","","","","background","","","",""
"","null","html-keyboard-response","98","238762","0.0-23.0-0.0","SS1613099446439","","","null","","","","","<p><img src= images/blank.png width =""200"" height = ""200"" style = ""float:right""></p><p><img src=images/blank.png width =""800"" height = ""200""></p>","","","","","","","","","","","",""
"","848.0000000054133","sequential-stimulus-presentation","99","240423","0.0-23.0-1.0","SS1613099446439","trial","","40","800","1648.0000000054133","images/stimuli/spore_stims/complex_08_B_c.gif","images/stimuli/spore_stims/complex_08_A_c.gif","","","","","5","complex_similar","images/stimuli/spore_stims/complex_08_A_c.gif","right","","","","",""
"","null","html-keyboard-response","100","241657","0.0-23.0-0.1","SS1613099446439","","","null","","","","","<p><img src= images/blank.png width =""200"" height = ""200"" style = ""float:right""></p><p><img src=images/blank.png width =""800"" height = ""200""></p>","","","","","","","","","","","",""
"","504.0000000008149","sequential-stimulus-presentation","101","242975","0.0-23.0-1.1","SS1613099446439","trial","","40","800","1304.000000000815","images/stimuli/spore_stims/complex_08_B_c.gif","images/stimuli/spore_stims/complex_08_A_c.gif","","","","","5","complex_similar","images/stimuli/spore_stims/complex_08_A_c.gif","right","","","","",""
"","null","html-keyboard-response","102","244103","0.0-23.0-0.2","SS1613099446439","","","null","","","","","<p><img src= images/blank.png width =""200"" height = ""200"" style = ""float:right""></p><p><img src=images/blank.png width =""800"" height = ""200""></p>","","","","","","","","","","","",""
"","3398.9999999976135","sequential-stimulus-presentation","103","248314","0.0-23.0-1.2","SS1613099446439","trial","","40","800","4198.9999999976135","images/stimuli/spore_stims/complex_08_B_c.gif","images/stimuli/spore_stims/complex_08_A_c.gif","","","","","5","complex_similar","images/stimuli/spore_stims/complex_08_B_c.gif","middle","","","","",""
"","null","html-keyboard-response","104","249442","0.0-23.0-0.3","SS1613099446439","","","null","","","","","<p><img src= images/blank.png width =""200"" height = ""200"" style = ""float:right""></p><p><img src=images/blank.png width =""800"" height = ""200""></p>","","","","","","","","","","","",""
"","1091.0000000003492","sequential-stimulus-presentation","105","251351","0.0-23.0-1.3","SS1613099446439","trial","","40","800","1891.0000000003492","images/stimuli/spore_stims/complex_08_B_c.gif","images/stimuli/spore_stims/complex_08_A_c.gif","","","","","5","complex_similar","images/stimuli/spore_stims/complex_08_A_c.gif","right","","","","",""
"","null","html-keyboard-response","106","252523","0.0-23.0-0.4","SS1613099446439","","","null","","","","","<p><img src= images/blank.png width =""200"" height = ""200"" style = ""float:right""></p><p><img src=images/blank.png width =""800"" height = ""200""></p>","","","","","","","","","","","",""
"","548.9999999990687","sequential-stimulus-presentation","107","253894","0.0-23.0-1.4","SS1613099446439","trial","","40","800","1348.9999999990687","images/stimuli/spore_stims/complex_08_B_c.gif","images/stimuli/spore_stims/complex_08_A_c.gif","","","","","5","complex_similar","images/stimuli/spore_stims/complex_08_A_c.gif","right","","","","",""
"","null","html-keyboard-response","108","254774","0.0-23.0-0.5","SS1613099446439","","","null","","","","","<p><img src= images/blank.png width =""200"" height = ""200"" style = ""float:right""></p><p><img src=images/blank.png width =""800"" height = ""200""></p>","","","","","","","","","","","",""
"","1301.9999999960419","sequential-stimulus-presentation","109","256887","0.0-23.0-1.5","SS1613099446439","trial","","40","800","2101.999999996042","images/stimuli/spore_stims/complex_08_B_c.gif","images/stimuli/spore_stims/complex_08_A_c.gif","","","","","5","complex_similar","images/stimuli/spore_stims/complex_08_A_c.gif","right","","","","",""
"","null","html-keyboard-response","110","258071","0.0-23.0-0.6","SS1613099446439","","","null","","","","","<p><img src= images/blank.png width =""200"" height = ""200"" style = ""float:right""></p><p><img src=images/blank.png width =""800"" height = ""200""></p>","","","","","","","","","","","",""
"","1139.999999999418","sequential-stimulus-presentation","111","260023","0.0-23.0-1.6","SS1613099446439","trial","","40","800","1939.999999999418","images/stimuli/spore_stims/complex_08_B_c.gif","images/stimuli/spore_stims/complex_08_A_c.gif","","","","","5","complex_similar","images/stimuli/spore_stims/complex_08_A_c.gif","right","","","","",""
"","null","html-keyboard-response","112","260960","0.0-23.0-0.7","SS1613099446439","","","null","","","","","<p><img src= images/blank.png width =""200"" height = ""200"" style = ""float:right""></p><p><img src=images/blank.png width =""800"" height = ""200""></p>","","","","","","","","","","","",""
"","804.0000000037253","sequential-stimulus-presentation","113","262576","0.0-23.0-1.7","SS1613099446439","trial","","40","800","1604.0000000037253","images/stimuli/spore_stims/complex_08_B_c.gif","images/stimuli/spore_stims/complex_08_A_c.gif","","","","","5","complex_similar","images/stimuli/spore_stims/complex_08_A_c.gif","right","","","","",""
"","1300.0000000029104","html-keyboard-response","114","263889","0.0-24.0","SS1613099446439","pref_question","","51","","","","","<video width ='960' height = '540' style='padding-top:8%' autoplay muted><source src='images/stimuli/wall_pref.mp4' type='video/mp4'></video>","3","right","66%","5","","","","","","","",""
"","505.9999999939464","sequential-stimulus-presentation","115","265255","0.0-25.0","SS1613099446439","pref_reveal","","40","800","1305.9999999939464","null","null","","","","","5","","","","background","","","",""
"","null","html-keyboard-response","116","266261","0.0-26.0-0.0","SS1613099446439","","","null","","","","","<p><img src= images/blank.png width =""200"" height = ""200"" style = ""float:right""></p><p><img src=images/blank.png width =""800"" height = ""200""></p>","","","","","","","","","","","",""
"","610.0000000005821","sequential-stimulus-presentation","117","267688","0.0-26.0-1.0","SS1613099446439","trial","","40","800","1410.000000000582","images/stimuli/spore_stims/simple_11_B_a.gif","images/stimuli/spore_stims/simple_11_A_a.gif","","","","","6","simple_similar","images/stimuli/spore_stims/simple_11_A_a.gif","left","","","","",""
"","null","html-keyboard-response","118","268749","0.0-26.0-0.1","SS1613099446439","","","null","","","","","<p><img src= images/blank.png width =""200"" height = ""200"" style = ""float:right""></p><p><img src=images/blank.png width =""800"" height = ""200""></p>","","","","","","","","","","","",""
"","421.9999999986612","sequential-stimulus-presentation","119","269983","0.0-26.0-1.1","SS1613099446439","trial","","40","800","1221.9999999986612","images/stimuli/spore_stims/simple_11_B_a.gif","images/stimuli/spore_stims/simple_11_A_a.gif","","","","","6","simple_similar","images/stimuli/spore_stims/simple_11_A_a.gif","left","","","","",""
"","null","html-keyboard-response","120","270933","0.0-26.0-0.2","SS1613099446439","","","null","","","","","<p><img src= images/blank.png width =""200"" height = ""200"" style = ""float:right""></p><p><img src=images/blank.png width =""800"" height = ""200""></p>","","","","","","","","","","","",""
"","614.000000001397","sequential-stimulus-presentation","121","272375","0.0-26.0-1.2","SS1613099446439","trial","","40","800","1414.000000001397","images/stimuli/spore_stims/simple_11_B_a.gif","images/stimuli/spore_stims/simple_11_A_a.gif","","","","","6","simple_similar","images/stimuli/spore_stims/simple_11_B_a.gif","middle","","","","",""
"","null","html-keyboard-response","122","273264","0.0-26.0-0.3","SS1613099446439","","","null","","","","","<p><img src= images/blank.png width =""200"" height = ""200"" style = ""float:right""></p><p><img src=images/blank.png width =""800"" height = ""200""></p>","","","","","","","","","","","",""
"","521.999999997206","sequential-stimulus-presentation","123","274593","0.0-26.0-1.3","SS1613099446439","trial","","40","800","1321.999999997206","images/stimuli/spore_stims/simple_11_B_a.gif","images/stimuli/spore_stims/simple_11_A_a.gif","","","","","6","simple_similar","images/stimuli/spore_stims/simple_11_A_a.gif","left","","","","",""
"","null","html-keyboard-response","124","275440","0.0-26.0-0.4","SS1613099446439","","","null","","","","","<p><img src= images/blank.png width =""200"" height = ""200"" style = ""float:right""></p><p><img src=images/blank.png width =""800"" height = ""200""></p>","","","","","","","","","","","",""
"","496.99999999575084","sequential-stimulus-presentation","125","276784","0.0-26.0-1.4","SS1613099446439","trial","","40","800","1296.9999999957508","images/stimuli/spore_stims/simple_11_B_a.gif","images/stimuli/spore_stims/simple_11_A_a.gif","","","","","6","simple_similar","images/stimuli/spore_stims/simple_11_A_a.gif","left","","","","",""
"","null","html-keyboard-response","126","277732","0.0-26.0-0.5","SS1613099446439","","","null","","","","","<p><img src= images/blank.png width =""200"" height = ""200"" style = ""float:right""></p><p><img src=images/blank.png width =""800"" height = ""200""></p>","","","","","","","","","","","",""
"","550.9999999994761","sequential-stimulus-presentation","127","279112","0.0-26.0-1.5","SS1613099446439","trial","","40","800","1350.9999999994761","images/stimuli/spore_stims/simple_11_B_a.gif","images/stimuli/spore_stims/simple_11_A_a.gif","","","","","6","simple_similar","images/stimuli/spore_stims/simple_11_A_a.gif","left","","","","",""
"","null","html-keyboard-response","128","280209","0.0-26.0-0.6","SS1613099446439","","","null","","","","","<p><img src= images/blank.png width =""200"" height = ""200"" style = ""float:right""></p><p><img src=images/blank.png width =""800"" height = ""200""></p>","","","","","","","","","","","",""
"","389.9999999994179","sequential-stimulus-presentation","129","281408","0.0-26.0-1.6","SS1613099446439","trial","","40","800","1189.999999999418","images/stimuli/spore_stims/simple_11_B_a.gif","images/stimuli/spore_stims/simple_11_A_a.gif","","","","","6","simple_similar","images/stimuli/spore_stims/simple_11_A_a.gif","left","","","","",""
"","null","html-keyboard-response","130","282519","0.0-26.0-0.7","SS1613099446439","","","null","","","","","<p><img src= images/blank.png width =""200"" height = ""200"" style = ""float:right""></p><p><img src=images/blank.png width =""800"" height = ""200""></p>","","","","","","","","","","","",""
"","322.99999999668216","sequential-stimulus-presentation","131","283656","0.0-26.0-1.7","SS1613099446439","trial","","40","800","1122.9999999966822","images/stimuli/spore_stims/simple_11_B_a.gif","images/stimuli/spore_stims/simple_11_A_a.gif","","","","","6","simple_similar","images/stimuli/spore_stims/simple_11_A_a.gif","left","","","","",""
"","1919.9999999982538","html-keyboard-response","132","285584","0.0-27.0","SS1613099446439","pref_question","","51","","","","","<video width ='960' height = '540' style='padding-top:8%' autoplay muted><source src='images/stimuli/wall_pref.mp4' type='video/mp4'></video>","3","right","66%","6","","","","","","","",""
"","189.00000000576256","sequential-stimulus-presentation","133","286584","0.0-28.0","SS1613099446439","pref_reveal","","40","800","989.0000000057626","null","null","","","","","6","","","","novel","","","",""
"","null","html-keyboard-response","134","287726","0.0-29.0-0.0","SS1613099446439","","","null","","","","","<p><img src= images/blank.png width =""200"" height = ""200"" style = ""float:right""></p><p><img src=images/blank.png width =""800"" height = ""200""></p>","","","","","","","","","","","",""
"","1281.9999999992433","sequential-stimulus-presentation","135","289836","0.0-29.0-1.0","SS1613099446439","trial","","40","800","2081.9999999992433","images/stimuli/spore_stims/complex_11_B_c.gif","images/stimuli/spore_stims/complex_13_B_b.gif","","","","","7","complex_dissimilar","images/stimuli/spore_stims/complex_13_B_b.gif","middle","","","","",""
"","null","html-keyboard-response","136","290791","0.0-29.0-0.1","SS1613099446439","","","null","","","","","<p><img src= images/blank.png width =""200"" height = ""200"" style = ""float:right""></p><p><img src=images/blank.png width =""800"" height = ""200""></p>","","","","","","","","","","","",""
"","400.0000000014552","sequential-stimulus-presentation","137","292032","0.0-29.0-1.1","SS1613099446439","trial","","40","800","1200.0000000014552","images/stimuli/spore_stims/complex_11_B_c.gif","images/stimuli/spore_stims/complex_13_B_b.gif","","","","","7","complex_dissimilar","images/stimuli/spore_stims/complex_13_B_b.gif","middle","","","","",""
"","null","html-keyboard-response","138","293067","0.0-29.0-0.2","SS1613099446439","","","null","","","","","<p><img src= images/blank.png width =""200"" height = ""200"" style = ""float:right""></p><p><img src=images/blank.png width =""800"" height = ""200""></p>","","","","","","","","","","","",""
"","1567.0000000027358","sequential-stimulus-presentation","139","295448","0.0-29.0-1.2","SS1613099446439","trial","","40","800","2367.0000000027358","images/stimuli/spore_stims/complex_11_B_c.gif","images/stimuli/spore_stims/complex_13_B_b.gif","","","","","7","complex_dissimilar","images/stimuli/spore_stims/complex_11_B_c.gif","right","","","","",""
"","null","html-keyboard-response","140","296611","0.0-29.0-0.3","SS1613099446439","","","null","","","","","<p><img src= images/blank.png width =""200"" height = ""200"" style = ""float:right""></p><p><img src=images/blank.png width =""800"" height = ""200""></p>","","","","","","","","","","","",""
"","1307.0000000006985","sequential-stimulus-presentation","141","298733","0.0-29.0-1.3","SS1613099446439","trial","","40","800","2107.0000000006985","images/stimuli/spore_stims/complex_11_B_c.gif","images/stimuli/spore_stims/complex_13_B_b.gif","","","","","7","complex_dissimilar","images/stimuli/spore_stims/complex_13_B_b.gif","middle","","","","",""
"","null","html-keyboard-response","142","299975","0.0-29.0-0.4","SS1613099446439","","","null","","","","","<p><img src= images/blank.png width =""200"" height = ""200"" style = ""float:right""></p><p><img src=images/blank.png width =""800"" height = ""200""></p>","","","","","","","","","","","",""
"","366.9999999983702","sequential-stimulus-presentation","143","301163","0.0-29.0-1.4","SS1613099446439","trial","","40","800","1166.9999999983702","images/stimuli/spore_stims/complex_11_B_c.gif","images/stimuli/spore_stims/complex_13_B_b.gif","","","","","7","complex_dissimilar","images/stimuli/spore_stims/complex_13_B_b.gif","middle","","","","",""
"","null","html-keyboard-response","144","302344","0.0-29.0-0.5","SS1613099446439","","","null","","","","","<p><img src= images/blank.png width =""200"" height = ""200"" style = ""float:right""></p><p><img src=images/blank.png width =""800"" height = ""200""></p>","","","","","","","","","","","",""
"","474.9999999985448","sequential-stimulus-presentation","145","303624","0.0-29.0-1.5","SS1613099446439","trial","","40","800","1274.9999999985448","images/stimuli/spore_stims/complex_11_B_c.gif","images/stimuli/spore_stims/complex_13_B_b.gif","","","","","7","complex_dissimilar","images/stimuli/spore_stims/complex_13_B_b.gif","middle","","","","",""
"","null","html-keyboard-response","146","304812","0.0-29.0-0.6","SS1613099446439","","","null","","","","","<p><img src= images/blank.png width =""200"" height = ""200"" style = ""float:right""></p><p><img src=images/blank.png width =""800"" height = ""200""></p>","","","","","","","","","","","",""
"","101.00000000238651","sequential-stimulus-presentation","147","305736","0.0-29.0-1.6","SS1613099446439","trial","","40","800","901.0000000023865","images/stimuli/spore_stims/complex_11_B_c.gif","images/stimuli/spore_stims/complex_13_B_b.gif","","","","","7","complex_dissimilar","images/stimuli/spore_stims/complex_13_B_b.gif","middle","","","","",""
"","null","html-keyboard-response","148","306737","0.0-29.0-0.7","SS1613099446439","","","null","","","","","<p><img src= images/blank.png width =""200"" height = ""200"" style = ""float:right""></p><p><img src=images/blank.png width =""800"" height = ""200""></p>","","","","","","","","","","","",""
"","385.00000000203727","sequential-stimulus-presentation","149","307930","0.0-29.0-1.7","SS1613099446439","trial","","40","800","1185.0000000020373","images/stimuli/spore_stims/complex_11_B_c.gif","images/stimuli/spore_stims/complex_13_B_b.gif","","","","","7","complex_dissimilar","images/stimuli/spore_stims/complex_13_B_b.gif","middle","","","","",""
"","991.0000000018044","html-keyboard-response","150","308929","0.0-30.0","SS1613099446439","pref_question","","50","","","","","<video width ='960' height = '540' style='padding-top:8%' autoplay muted><source src='images/stimuli/wall_pref.mp4' type='video/mp4'></video>","2","middle","45%","7","","","","","","","",""
"","368.99999999877764","sequential-stimulus-presentation","151","310116","0.0-31.0","SS1613099446439","pref_reveal","","40","800","1168.9999999987776","null","null","","","","","7","","","","background","","","",""
"","null","html-keyboard-response","152","311399","0.0-32.0-0.0","SS1613099446439","","","null","","","","","<p><img src= images/blank.png width =""200"" height = ""200"" style = ""float:right""></p><p><img src=images/blank.png width =""800"" height = ""200""></p>","","","","","","","","","","","",""
"","408.000000003085","sequential-stimulus-presentation","153","312632","0.0-32.0-1.0","SS1613099446439","trial","","40","800","1208.000000003085","images/stimuli/spore_stims/complex_06_A_b.gif","images/stimuli/spore_stims/complex_01_B_c.gif","","","","","8","complex_dissimilar","images/stimuli/spore_stims/complex_01_B_c.gif","middle","","","","",""
"","null","html-keyboard-response","154","313868","0.0-32.0-0.1","SS1613099446439","","","null","","","","","<p><img src= images/blank.png width =""200"" height = ""200"" style = ""float:right""></p><p><img src=images/blank.png width =""800"" height = ""200""></p>","","","","","","","","","","","",""
"","358.99999999674037","sequential-stimulus-presentation","155","315062","0.0-32.0-1.1","SS1613099446439","trial","","40","800","1158.9999999967404","images/stimuli/spore_stims/complex_06_A_b.gif","images/stimuli/spore_stims/complex_01_B_c.gif","","","","","8","complex_dissimilar","images/stimuli/spore_stims/complex_01_B_c.gif","middle","","","","",""
"","null","html-keyboard-response","156","315923","0.0-32.0-0.2","SS1613099446439","","","null","","","","","<p><img src= images/blank.png width =""200"" height = ""200"" style = ""float:right""></p><p><img src=images/blank.png width =""800"" height = ""200""></p>","","","","","","","","","","","",""
"","319.0000000031432","sequential-stimulus-presentation","157","317049","0.0-32.0-1.2","SS1613099446439","trial","","40","800","1119.0000000031432","images/stimuli/spore_stims/complex_06_A_b.gif","images/stimuli/spore_stims/complex_01_B_c.gif","","","","","8","complex_dissimilar","images/stimuli/spore_stims/complex_01_B_c.gif","middle","","","","",""
"","null","html-keyboard-response","158","318257","0.0-32.0-0.3","SS1613099446439","","","null","","","","","<p><img src= images/blank.png width =""200"" height = ""200"" style = ""float:right""></p><p><img src=images/blank.png width =""800"" height = ""200""></p>","","","","","","","","","","","",""
"","405.9999999954016","sequential-stimulus-presentation","159","319494","0.0-32.0-1.3","SS1613099446439","trial","","40","800","1205.9999999954016","images/stimuli/spore_stims/complex_06_A_b.gif","images/stimuli/spore_stims/complex_01_B_c.gif","","","","","8","complex_dissimilar","images/stimuli/spore_stims/complex_01_B_c.gif","middle","","","","",""
"","null","html-keyboard-response","160","320396","0.0-32.0-0.4","SS1613099446439","","","null","","","","","<p><img src= images/blank.png width =""200"" height = ""200"" style = ""float:right""></p><p><img src=images/blank.png width =""800"" height = ""200""></p>","","","","","","","","","","","",""
"","461.99999999953434","sequential-stimulus-presentation","161","321659","0.0-32.0-1.4","SS1613099446439","trial","","40","800","1261.9999999995343","images/stimuli/spore_stims/complex_06_A_b.gif","images/stimuli/spore_stims/complex_01_B_c.gif","","","","","8","complex_dissimilar","images/stimuli/spore_stims/complex_01_B_c.gif","middle","","","","",""
"","null","html-keyboard-response","162","322861","0.0-32.0-0.5","SS1613099446439","","","null","","","","","<p><img src= images/blank.png width =""200"" height = ""200"" style = ""float:right""></p><p><img src=images/blank.png width =""800"" height = ""200""></p>","","","","","","","","","","","",""
"","389.9999999994179","sequential-stimulus-presentation","163","324061","0.0-32.0-1.5","SS1613099446439","trial","","40","800","1189.999999999418","images/stimuli/spore_stims/complex_06_A_b.gif","images/stimuli/spore_stims/complex_01_B_c.gif","","","","","8","complex_dissimilar","images/stimuli/spore_stims/complex_01_B_c.gif","middle","","","","",""
"","null","html-keyboard-response","164","325163","0.0-32.0-0.6","SS1613099446439","","","null","","","","","<p><img src= images/blank.png width =""200"" height = ""200"" style = ""float:right""></p><p><img src=images/blank.png width =""800"" height = ""200""></p>","","","","","","","","","","","",""
"","274.00000000488944","sequential-stimulus-presentation","165","326250","0.0-32.0-1.6","SS1613099446439","trial","","40","800","1074.0000000048894","images/stimuli/spore_stims/complex_06_A_b.gif","images/stimuli/spore_stims/complex_01_B_c.gif","","","","","8","complex_dissimilar","images/stimuli/spore_stims/complex_01_B_c.gif","middle","","","","",""
"","null","html-keyboard-response","166","327485","0.0-32.0-0.7","SS1613099446439","","","null","","","","","<p><img src= images/blank.png width =""200"" height = ""200"" style = ""float:right""></p><p><img src=images/blank.png width =""800"" height = ""200""></p>","","","","","","","","","","","",""
"","451.0000000009313","sequential-stimulus-presentation","167","328761","0.0-32.0-1.7","SS1613099446439","trial","","40","800","1251.0000000009313","images/stimuli/spore_stims/complex_06_A_b.gif","images/stimuli/spore_stims/complex_01_B_c.gif","","","","","8","complex_dissimilar","images/stimuli/spore_stims/complex_06_A_b.gif","right","","","","",""
"","1815.0000000023283","html-keyboard-response","168","330589","0.0-33.0","SS1613099446439","pref_question","","51","","","","","<video width ='960' height = '540' style='padding-top:8%' autoplay muted><source src='images/stimuli/wall_pref.mp4' type='video/mp4'></video>","3","right","66%","8","","","","","","","",""
"","650.9999999980209","sequential-stimulus-presentation","169","332081","0.0-34.0","SS1613099446439","pref_reveal","","40","800","1450.999999998021","null","null","","","","","8","","","","deviant","","","",""
"","null","html-keyboard-response","170","333297","0.0-35.0-0.0","SS1613099446439","","","null","","","","","<p><img src= images/blank.png width =""200"" height = ""200"" style = ""float:right""></p><p><img src=images/blank.png width =""800"" height = ""200""></p>","","","","","","","","","","","",""
"","353.00000000279397","sequential-stimulus-presentation","171","334473","0.0-35.0-1.0","SS1613099446439","trial","","40","800","1153.000000002794","images/stimuli/spore_stims/complex_02_A_c.gif","images/stimuli/spore_stims/complex_15_B_d.gif","","","","","9","complex_dissimilar","images/stimuli/spore_stims/complex_15_B_d.gif","right","","","","",""
"","null","html-keyboard-response","172","335500","0.0-35.0-0.1","SS1613099446439","","","null","","","","","<p><img src= images/blank.png width =""200"" height = ""200"" style = ""float:right""></p><p><img src=images/blank.png width =""800"" height = ""200""></p>","","","","","","","","","","","",""
"","396.0000000006403","sequential-stimulus-presentation","173","336706","0.0-35.0-1.1","SS1613099446439","trial","","40","800","1196.0000000006403","images/stimuli/spore_stims/complex_02_A_c.gif","images/stimuli/spore_stims/complex_15_B_d.gif","","","","","9","complex_dissimilar","images/stimuli/spore_stims/complex_15_B_d.gif","right","","","","",""
"","null","html-keyboard-response","174","337821","0.0-35.0-0.2","SS1613099446439","","","null","","","","","<p><img src= images/blank.png width =""200"" height = ""200"" style = ""float:right""></p><p><img src=images/blank.png width =""800"" height = ""200""></p>","","","","","","","","","","","",""
"","349.9999999985448","sequential-stimulus-presentation","175","338986","0.0-35.0-1.2","SS1613099446439","trial","","40","800","1149.9999999985448","images/stimuli/spore_stims/complex_02_A_c.gif","images/stimuli/spore_stims/complex_15_B_d.gif","","","","","9","complex_dissimilar","images/stimuli/spore_stims/complex_15_B_d.gif","right","","","","",""
"","null","html-keyboard-response","176","339855","0.0-35.0-0.3","SS1613099446439","","","null","","","","","<p><img src= images/blank.png width =""200"" height = ""200"" style = ""float:right""></p><p><img src=images/blank.png width =""800"" height = ""200""></p>","","","","","","","","","","","",""
"","387.0000000024447","sequential-stimulus-presentation","177","341050","0.0-35.0-1.3","SS1613099446439","trial","","40","800","1187.0000000024447","images/stimuli/spore_stims/complex_02_A_c.gif","images/stimuli/spore_stims/complex_15_B_d.gif","","","","","9","complex_dissimilar","images/stimuli/spore_stims/complex_02_A_c.gif","left","","","","",""
"","null","html-keyboard-response","178","341889","0.0-35.0-0.4","SS1613099446439","","","null","","","","","<p><img src= images/blank.png width =""200"" height = ""200"" style = ""float:right""></p><p><img src=images/blank.png width =""800"" height = ""200""></p>","","","","","","","","","","","",""
"","692.9999999993015","sequential-stimulus-presentation","179","343442","0.0-35.0-1.4","SS1613099446439","trial","","40","800","1492.9999999993015","images/stimuli/spore_stims/complex_02_A_c.gif","images/stimuli/spore_stims/complex_15_B_d.gif","","","","","9","complex_dissimilar","images/stimuli/spore_stims/complex_15_B_d.gif","right","","","","",""
"","null","html-keyboard-response","180","344321","0.0-35.0-0.5","SS1613099446439","","","null","","","","","<p><img src= images/blank.png width =""200"" height = ""200"" style = ""float:right""></p><p><img src=images/blank.png width =""800"" height = ""200""></p>","","","","","","","","","","","",""
"","556.0000000041327","sequential-stimulus-presentation","181","345690","0.0-35.0-1.5","SS1613099446439","trial","","40","800","1356.0000000041327","images/stimuli/spore_stims/complex_02_A_c.gif","images/stimuli/spore_stims/complex_15_B_d.gif","","","","","9","complex_dissimilar","images/stimuli/spore_stims/complex_15_B_d.gif","right","","","","",""
"","null","html-keyboard-response","182","346697","0.0-35.0-0.6","SS1613099446439","","","null","","","","","<p><img src= images/blank.png width =""200"" height = ""200"" style = ""float:right""></p><p><img src=images/blank.png width =""800"" height = ""200""></p>","","","","","","","","","","","",""
"","345.00000000116415","sequential-stimulus-presentation","183","347873","0.0-35.0-1.6","SS1613099446439","trial","","40","800","1145.0000000011642","images/stimuli/spore_stims/complex_02_A_c.gif","images/stimuli/spore_stims/complex_15_B_d.gif","","","","","9","complex_dissimilar","images/stimuli/spore_stims/complex_15_B_d.gif","right","","","","",""
"","null","html-keyboard-response","184","348735","0.0-35.0-0.7","SS1613099446439","","","null","","","","","<p><img src= images/blank.png width =""200"" height = ""200"" style = ""float:right""></p><p><img src=images/blank.png width =""800"" height = ""200""></p>","","","","","","","","","","","",""
"","389.0000000028522","sequential-stimulus-presentation","185","349938","0.0-35.0-1.7","SS1613099446439","trial","","40","800","1189.0000000028522","images/stimuli/spore_stims/complex_02_A_c.gif","images/stimuli/spore_stims/complex_15_B_d.gif","","","","","9","complex_dissimilar","images/stimuli/spore_stims/complex_15_B_d.gif","right","","","","",""
"","1536.0000000000582","html-keyboard-response","186","351491","0.0-36.0","SS1613099446439","pref_question","","49","","","","","<video width ='960' height = '540' style='padding-top:8%' autoplay muted><source src='images/stimuli/wall_pref.mp4' type='video/mp4'></video>","1","left","25%","9","","","","","","","",""
"","435.99999999423744","sequential-stimulus-presentation","187","352755","0.0-37.0","SS1613099446439","pref_reveal","","40","800","1235.9999999942374","null","null","","","","","9","","","","deviant","","","",""
"","null","html-keyboard-response","188","353839","0.0-38.0-0.0","SS1613099446439","","","null","","","","","<p><img src= images/blank.png width =""200"" height = ""200"" style = ""float:right""></p><p><img src=images/blank.png width =""800"" height = ""200""></p>","","","","","","","","","","","",""
"","408.99999999965075","sequential-stimulus-presentation","189","355058","0.0-38.0-1.0","SS1613099446439","trial","","40","800","1208.9999999996508","images/stimuli/spore_stims/simple_20_A_b.gif","images/stimuli/spore_stims/simple_20_B_b.gif","","","","","10","simple_similar","images/stimuli/spore_stims/simple_20_B_b.gif","middle","","","","",""
"","null","html-keyboard-response","190","356310","0.0-38.0-0.1","SS1613099446439","","","null","","","","","<p><img src= images/blank.png width =""200"" height = ""200"" style = ""float:right""></p><p><img src=images/blank.png width =""800"" height = ""200""></p>","","","","","","","","","","","",""
"","747.0000000030268","sequential-stimulus-presentation","191","357914","0.0-38.0-1.1","SS1613099446439","trial","","40","800","1547.0000000030268","images/stimuli/spore_stims/simple_20_A_b.gif","images/stimuli/spore_stims/simple_20_B_b.gif","","","","","10","simple_similar","images/stimuli/spore_stims/simple_20_B_b.gif","middle","","","","",""
"","null","html-keyboard-response","192","359114","0.0-38.0-0.2","SS1613099446439","","","null","","","","","<p><img src= images/blank.png width =""200"" height = ""200"" style = ""float:right""></p><p><img src=images/blank.png width =""800"" height = ""200""></p>","","","","","","","","","","","",""
"","389.9999999994179","sequential-stimulus-presentation","193","360316","0.0-38.0-1.2","SS1613099446439","trial","","40","800","1189.999999999418","images/stimuli/spore_stims/simple_20_A_b.gif","images/stimuli/spore_stims/simple_20_B_b.gif","","","","","10","simple_similar","images/stimuli/spore_stims/simple_20_B_b.gif","middle","","","","",""
"","null","html-keyboard-response","194","361199","0.0-38.0-0.3","SS1613099446439","","","null","","","","","<p><img src= images/blank.png width =""200"" height = ""200"" style = ""float:right""></p><p><img src=images/blank.png width =""800"" height = ""200""></p>","","","","","","","","","","","",""
"","510.999999998603","sequential-stimulus-presentation","195","362531","0.0-38.0-1.3","SS1613099446439","trial","","40","800","1310.999999998603","images/stimuli/spore_stims/simple_20_A_b.gif","images/stimuli/spore_stims/simple_20_B_b.gif","","","","","10","simple_similar","images/stimuli/spore_stims/simple_20_A_b.gif","left","","","","",""
"","null","html-keyboard-response","196","363803","0.0-38.0-0.4","SS1613099446439","","","null","","","","","<p><img src= images/blank.png width =""200"" height = ""200"" style = ""float:right""></p><p><img src=images/blank.png width =""800"" height = ""200""></p>","","","","","","","","","","","",""
"","423.9999999990687","sequential-stimulus-presentation","197","365050","0.0-38.0-1.4","SS1613099446439","trial","","40","800","1223.9999999990687","images/stimuli/spore_stims/simple_20_A_b.gif","images/stimuli/spore_stims/simple_20_B_b.gif","","","","","10","simple_similar","images/stimuli/spore_stims/simple_20_B_b.gif","middle","","","","",""
"","null","html-keyboard-response","198","366082","0.0-38.0-0.5","SS1613099446439","","","null","","","","","<p><img src= images/blank.png width =""200"" height = ""200"" style = ""float:right""></p><p><img src=images/blank.png width =""800"" height = ""200""></p>","","","","","","","","","","","",""
"","146.99999999720603","sequential-stimulus-presentation","199","367043","0.0-38.0-1.5","SS1613099446439","trial","","40","800","946.999999997206","images/stimuli/spore_stims/simple_20_A_b.gif","images/stimuli/spore_stims/simple_20_B_b.gif","","","","","10","simple_similar","images/stimuli/spore_stims/simple_20_B_b.gif","middle","","","","",""
"","null","html-keyboard-response","200","368057","0.0-38.0-0.6","SS1613099446439","","","null","","","","","<p><img src= images/blank.png width =""200"" height = ""200"" style = ""float:right""></p><p><img src=images/blank.png width =""800"" height = ""200""></p>","","","","","","","","","","","",""
"","364.000000001397","sequential-stimulus-presentation","201","369236","0.0-38.0-1.6","SS1613099446439","trial","","40","800","1164.000000001397","images/stimuli/spore_stims/simple_20_A_b.gif","images/stimuli/spore_stims/simple_20_B_b.gif","","","","","10","simple_similar","images/stimuli/spore_stims/simple_20_B_b.gif","middle","","","","",""
"","null","html-keyboard-response","202","370243","0.0-38.0-0.7","SS1613099446439","","","null","","","","","<p><img src= images/blank.png width =""200"" height = ""200"" style = ""float:right""></p><p><img src=images/blank.png width =""800"" height = ""200""></p>","","","","","","","","","","","",""
"","385.00000000203727","sequential-stimulus-presentation","203","371452","0.0-38.0-1.7","SS1613099446439","trial","","40","800","1185.0000000020373","images/stimuli/spore_stims/simple_20_A_b.gif","images/stimuli/spore_stims/simple_20_B_b.gif","","","","","10","simple_similar","images/stimuli/spore_stims/simple_20_B_b.gif","middle","","","","",""
"","678.9999999964493","html-keyboard-response","204","372139","0.0-39.0","SS1613099446439","pref_question","","49","","","","","<video width ='960' height = '540' style='padding-top:8%' autoplay muted><source src='images/stimuli/wall_pref.mp4' type='video/mp4'></video>","1","left","25%","10","","","","","","","",""
"","665.0000000008731","sequential-stimulus-presentation","205","373635","0.0-40.0","SS1613099446439","pref_reveal","","40","800","1465.0000000008731","null","null","","","","","10","","","","deviant","","","",""
"","null","html-keyboard-response","206","374720","0.0-41.0-0.0","SS1613099446439","","","null","","","","","<p><img src= images/blank.png width =""200"" height = ""200"" style = ""float:right""></p><p><img src=images/blank.png width =""800"" height = ""200""></p>","","","","","","","","","","","",""
"","525.0000000014552","sequential-stimulus-presentation","207","376058","0.0-41.0-1.0","SS1613099446439","trial","","40","800","1325.0000000014552","images/stimuli/spore_stims/simple_02_B_c.gif","images/stimuli/spore_stims/simple_01_B_b.gif","","","","","11","simple_dissimilar","images/stimuli/spore_stims/simple_01_B_b.gif","left","","","","",""
"","null","html-keyboard-response","208","377076","0.0-41.0-0.1","SS1613099446439","","","null","","","","","<p><img src= images/blank.png width =""200"" height = ""200"" style = ""float:right""></p><p><img src=images/blank.png width =""800"" height = ""200""></p>","","","","","","","","","","","",""
"","409.9999999962165","sequential-stimulus-presentation","209","378302","0.0-41.0-1.1","SS1613099446439","trial","","40","800","1209.9999999962165","images/stimuli/spore_stims/simple_02_B_c.gif","images/stimuli/spore_stims/simple_01_B_b.gif","","","","","11","simple_dissimilar","images/stimuli/spore_stims/simple_01_B_b.gif","left","","","","",""
"","null","html-keyboard-response","210","379381","0.0-41.0-0.2","SS1613099446439","","","null","","","","","<p><img src= images/blank.png width =""200"" height = ""200"" style = ""float:right""></p><p><img src=images/blank.png width =""800"" height = ""200""></p>","","","","","","","","","","","",""
"","37.999999993189704","sequential-stimulus-presentation","211","380236","0.0-41.0-1.2","SS1613099446439","trial","","40","800","837.9999999931897","images/stimuli/spore_stims/simple_02_B_c.gif","images/stimuli/spore_stims/simple_01_B_b.gif","","","","","11","simple_dissimilar","images/stimuli/spore_stims/simple_01_B_b.gif","left","","","","",""
"","null","html-keyboard-response","212","381532","0.0-41.0-0.3","SS1613099446439","","","null","","","","","<p><img src= images/blank.png width =""200"" height = ""200"" style = ""float:right""></p><p><img src=images/blank.png width =""800"" height = ""200""></p>","","","","","","","","","","","",""
"","400.0000000014552","sequential-stimulus-presentation","213","382749","0.0-41.0-1.3","SS1613099446439","trial","","40","800","1200.0000000014552","images/stimuli/spore_stims/simple_02_B_c.gif","images/stimuli/spore_stims/simple_01_B_b.gif","","","","","11","simple_dissimilar","images/stimuli/spore_stims/simple_01_B_b.gif","left","","","","",""
"","null","html-keyboard-response","214","383951","0.0-41.0-0.4","SS1613099446439","","","null","","","","","<p><img src= images/blank.png width =""200"" height = ""200"" style = ""float:right""></p><p><img src=images/blank.png width =""800"" height = ""200""></p>","","","","","","","","","","","",""
"","633.9999999981956","sequential-stimulus-presentation","215","385411","0.0-41.0-1.4","SS1613099446439","trial","","40","800","1433.9999999981956","images/stimuli/spore_stims/simple_02_B_c.gif","images/stimuli/spore_stims/simple_01_B_b.gif","","","","","11","simple_dissimilar","images/stimuli/spore_stims/simple_01_B_b.gif","left","","","","",""
"","null","html-keyboard-response","216","386490","0.0-41.0-0.5","SS1613099446439","","","null","","","","","<p><img src= images/blank.png width =""200"" height = ""200"" style = ""float:right""></p><p><img src=images/blank.png width =""800"" height = ""200""></p>","","","","","","","","","","","",""
"","444.99999999970896","sequential-stimulus-presentation","217","387755","0.0-41.0-1.5","SS1613099446439","trial","","40","800","1244.999999999709","images/stimuli/spore_stims/simple_02_B_c.gif","images/stimuli/spore_stims/simple_01_B_b.gif","","","","","11","simple_dissimilar","images/stimuli/spore_stims/simple_02_B_c.gif","right","","","","",""
"","null","html-keyboard-response","218","388576","0.0-41.0-0.6","SS1613099446439","","","null","","","","","<p><img src= images/blank.png width =""200"" height = ""200"" style = ""float:right""></p><p><img src=images/blank.png width =""800"" height = ""200""></p>","","","","","","","","","","","",""
"","572.0000000001164","sequential-stimulus-presentation","219","389963","0.0-41.0-1.6","SS1613099446439","trial","","40","800","1372.0000000001164","images/stimuli/spore_stims/simple_02_B_c.gif","images/stimuli/spore_stims/simple_01_B_b.gif","","","","","11","simple_dissimilar","images/stimuli/spore_stims/simple_01_B_b.gif","left","","","","",""
"","null","html-keyboard-response","220","390890","0.0-41.0-0.7","SS1613099446439","","","null","","","","","<p><img src= images/blank.png width =""200"" height = ""200"" style = ""float:right""></p><p><img src=images/blank.png width =""800"" height = ""200""></p>","","","","","","","","","","","",""
"","309.00000000110595","sequential-stimulus-presentation","221","392019","0.0-41.0-1.7","SS1613099446439","trial","","40","800","1109.000000001106","images/stimuli/spore_stims/simple_02_B_c.gif","images/stimuli/spore_stims/simple_01_B_b.gif","","","","","11","simple_dissimilar","images/stimuli/spore_stims/simple_01_B_b.gif","left","","","","",""
"","781.0000000026776","html-keyboard-response","222","392809","0.0-42.0","SS1613099446439","pref_question","","51","","","","","<video width ='960' height = '540' style='padding-top:8%' autoplay muted><source src='images/stimuli/wall_pref.mp4' type='video/mp4'></video>","3","right","66%","11","","","","","","","",""
"","649.0000000048894","sequential-stimulus-presentation","223","394285","0.0-43.0","SS1613099446439","pref_reveal","","40","800","1449.0000000048894","null","null","","","","","11","","","","deviant","","","",""
"","null","html-keyboard-response","224","395204","0.0-44.0-0.0","SS1613099446439","","","null","","","","","<p><img src= images/blank.png width =""200"" height = ""200"" style = ""float:right""></p><p><img src=images/blank.png width =""800"" height = ""200""></p>","","","","","","","","","","","",""
"","422.999999995227","sequential-stimulus-presentation","225","396436","0.0-44.0-1.0","SS1613099446439","trial","","40","800","1222.999999995227","images/stimuli/spore_stims/complex_16_A_d.gif","images/stimuli/spore_stims/complex_01_A_d.gif","","","","","12","complex_dissimilar","images/stimuli/spore_stims/complex_01_A_d.gif","right","","","","",""
"","null","html-keyboard-response","226","397383","0.0-44.0-0.1","SS1613099446439","","","null","","","","","<p><img src= images/blank.png width =""200"" height = ""200"" style = ""float:right""></p><p><img src=images/blank.png width =""800"" height = ""200""></p>","","","","","","","","","","","",""
"","88.99999999994179","sequential-stimulus-presentation","227","398348","0.0-44.0-1.1","SS1613099446439","trial","","40","800","888.9999999999418","images/stimuli/spore_stims/complex_16_A_d.gif","images/stimuli/spore_stims/complex_01_A_d.gif","","","","","12","complex_dissimilar","images/stimuli/spore_stims/complex_01_A_d.gif","right","","","","",""
"","null","html-keyboard-response","228","399461","0.0-44.0-0.2","SS1613099446439","","","null","","","","","<p><img src= images/blank.png width =""200"" height = ""200"" style = ""float:right""></p><p><img src=images/blank.png width =""800"" height = ""200""></p>","","","","","","","","","","","",""
"","69.99999999970896","sequential-stimulus-presentation","229","400347","0.0-44.0-1.2","SS1613099446439","trial","","40","800","869.999999999709","images/stimuli/spore_stims/complex_16_A_d.gif","images/stimuli/spore_stims/complex_01_A_d.gif","","","","","12","complex_dissimilar","images/stimuli/spore_stims/complex_01_A_d.gif","right","","","","",""
"","null","html-keyboard-response","230","401502","0.0-44.0-0.3","SS1613099446439","","","null","","","","","<p><img src= images/blank.png width =""200"" height = ""200"" style = ""float:right""></p><p><img src=images/blank.png width =""800"" height = ""200""></p>","","","","","","","","","","","",""
"","57.99999999726424","sequential-stimulus-presentation","231","402396","0.0-44.0-1.3","SS1613099446439","trial","","40","800","857.9999999972642","images/stimuli/spore_stims/complex_16_A_d.gif","images/stimuli/spore_stims/complex_01_A_d.gif","","","","","12","complex_dissimilar","images/stimuli/spore_stims/complex_01_A_d.gif","right","","","","",""
"","null","html-keyboard-response","232","403293","0.0-44.0-0.4","SS1613099446439","","","null","","","","","<p><img src= images/blank.png width =""200"" height = ""200"" style = ""float:right""></p><p><img src=images/blank.png width =""800"" height = ""200""></p>","","","","","","","","","","","",""
"","173.99999999906868","sequential-stimulus-presentation","233","404275","0.0-44.0-1.4","SS1613099446439","trial","","40","800","973.9999999990687","images/stimuli/spore_stims/complex_16_A_d.gif","images/stimuli/spore_stims/complex_01_A_d.gif","","","","","12","complex_dissimilar","images/stimuli/spore_stims/complex_16_A_d.gif","left","","","","",""
"","null","html-keyboard-response","234","405458","0.0-44.0-0.5","SS1613099446439","","","null","","","","","<p><img src= images/blank.png width =""200"" height = ""200"" style = ""float:right""></p><p><img src=images/blank.png width =""800"" height = ""200""></p>","","","","","","","","","","","",""
"","167.00000000128057","sequential-stimulus-presentation","235","406544","0.0-44.0-1.5","SS1613099446439","trial","","40","800","967.0000000012806","images/stimuli/spore_stims/complex_16_A_d.gif","images/stimuli/spore_stims/complex_01_A_d.gif","","","","","12","complex_dissimilar","images/stimuli/spore_stims/complex_01_A_d.gif","right","","","","",""
"","null","html-keyboard-response","236","407728","0.0-44.0-0.6","SS1613099446439","","","null","","","","","<p><img src= images/blank.png width =""200"" height = ""200"" style = ""float:right""></p><p><img src=images/blank.png width =""800"" height = ""200""></p>","","","","","","","","","","","",""
"","217.00000000419095","sequential-stimulus-presentation","237","408756","0.0-44.0-1.6","SS1613099446439","trial","","40","800","1017.000000004191","images/stimuli/spore_stims/complex_16_A_d.gif","images/stimuli/spore_stims/complex_01_A_d.gif","","","","","12","complex_dissimilar","images/stimuli/spore_stims/complex_01_A_d.gif","right","","","","",""
"","null","html-keyboard-response","238","409991","0.0-44.0-0.7","SS1613099446439","","","null","","","","","<p><img src= images/blank.png width =""200"" height = ""200"" style = ""float:right""></p><p><img src=images/blank.png width =""800"" height = ""200""></p>","","","","","","","","","","","",""
"","315.0000000023283","sequential-stimulus-presentation","239","411123","0.0-44.0-1.7","SS1613099446439","trial","","40","800","1115.0000000023283","images/stimuli/spore_stims/complex_16_A_d.gif","images/stimuli/spore_stims/complex_01_A_d.gif","","","","","12","complex_dissimilar","images/stimuli/spore_stims/complex_01_A_d.gif","right","","","","",""
"","1185.0000000049477","html-keyboard-response","240","412317","0.0-45.0","SS1613099446439","pref_question","","49","","","","","<video width ='960' height = '540' style='padding-top:8%' autoplay muted><source src='images/stimuli/wall_pref.mp4' type='video/mp4'></video>","1","left","25%","12","","","","","","","",""
"","665.0000000008731","sequential-stimulus-presentation","241","413799","0.0-46.0","SS1613099446439","pref_reveal","","40","800","1465.0000000008731","null","null","","","","","12","","","","deviant","","","",""
"","null","html-keyboard-response","242","415090","0.0-47.0-0.0","SS1613099446439","","","null","","","","","<p><img src= images/blank.png width =""200"" height = ""200"" style = ""float:right""></p><p><img src=images/blank.png width =""800"" height = ""200""></p>","","","","","","","","","","","",""
"","1029.00000000227","sequential-stimulus-presentation","243","416942","0.0-47.0-1.0","SS1613099446439","trial","","40","800","1829.00000000227","images/stimuli/spore_stims/simple_05_A_a.gif","images/stimuli/spore_stims/simple_01_A_b.gif","","","","","13","simple_dissimilar","images/stimuli/spore_stims/simple_01_A_b.gif","right","","","","",""
"","null","html-keyboard-response","244","418192","0.0-47.0-0.1","SS1613099446439","","","null","","","","","<p><img src= images/blank.png width =""200"" height = ""200"" style = ""float:right""></p><p><img src=images/blank.png width =""800"" height = ""200""></p>","","","","","","","","","","","",""
"","523.0000000010477","sequential-stimulus-presentation","245","419524","0.0-47.0-1.1","SS1613099446439","trial","","40","800","1323.0000000010477","images/stimuli/spore_stims/simple_05_A_a.gif","images/stimuli/spore_stims/simple_01_A_b.gif","","","","","13","simple_dissimilar","images/stimuli/spore_stims/simple_01_A_b.gif","right","","","","",""
"","null","html-keyboard-response","246","420414","0.0-47.0-0.2","SS1613099446439","","","null","","","","","<p><img src= images/blank.png width =""200"" height = ""200"" style = ""float:right""></p><p><img src=images/blank.png width =""800"" height = ""200""></p>","","","","","","","","","","","",""
"","372.0000000030268","sequential-stimulus-presentation","247","421604","0.0-47.0-1.2","SS1613099446439","trial","","40","800","1172.0000000030268","images/stimuli/spore_stims/simple_05_A_a.gif","images/stimuli/spore_stims/simple_01_A_b.gif","","","","","13","simple_dissimilar","images/stimuli/spore_stims/simple_01_A_b.gif","right","","","","",""
"","null","html-keyboard-response","248","422580","0.0-47.0-0.3","SS1613099446439","","","null","","","","","<p><img src= images/blank.png width =""200"" height = ""200"" style = ""float:right""></p><p><img src=images/blank.png width =""800"" height = ""200""></p>","","","","","","","","","","","",""
"","387.99999999901047","sequential-stimulus-presentation","249","423780","0.0-47.0-1.3","SS1613099446439","trial","","40","800","1187.9999999990105","images/stimuli/spore_stims/simple_05_A_a.gif","images/stimuli/spore_stims/simple_01_A_b.gif","","","","","13","simple_dissimilar","images/stimuli/spore_stims/simple_01_A_b.gif","right","","","","",""
"","null","html-keyboard-response","250","424956","0.0-47.0-0.4","SS1613099446439","","","null","","","","","<p><img src= images/blank.png width =""200"" height = ""200"" style = ""float:right""></p><p><img src=images/blank.png width =""800"" height = ""200""></p>","","","","","","","","","","","",""
"","555.000000000291","sequential-stimulus-presentation","251","426332","0.0-47.0-1.4","SS1613099446439","trial","","40","800","1355.000000000291","images/stimuli/spore_stims/simple_05_A_a.gif","images/stimuli/spore_stims/simple_01_A_b.gif","","","","","13","simple_dissimilar","images/stimuli/spore_stims/simple_01_A_b.gif","right","","","","",""
"","null","html-keyboard-response","252","427179","0.0-47.0-0.5","SS1613099446439","","","null","","","","","<p><img src= images/blank.png width =""200"" height = ""200"" style = ""float:right""></p><p><img src=images/blank.png width =""800"" height = ""200""></p>","","","","","","","","","","","",""
"","1597.0000000015716","sequential-stimulus-presentation","253","429592","0.0-47.0-1.5","SS1613099446439","trial","","40","800","2397.0000000015716","images/stimuli/spore_stims/simple_05_A_a.gif","images/stimuli/spore_stims/simple_01_A_b.gif","","","","","13","simple_dissimilar","images/stimuli/spore_stims/simple_01_A_b.gif","right","","","","",""
"","null","html-keyboard-response","254","430790","0.0-47.0-0.6","SS1613099446439","","","null","","","","","<p><img src= images/blank.png width =""200"" height = ""200"" style = ""float:right""></p><p><img src=images/blank.png width =""800"" height = ""200""></p>","","","","","","","","","","","",""
"","1474.000000001979","sequential-stimulus-presentation","255","433084","0.0-47.0-1.6","SS1613099446439","trial","","40","800","2274.000000001979","images/stimuli/spore_stims/simple_05_A_a.gif","images/stimuli/spore_stims/simple_01_A_b.gif","","","","","13","simple_dissimilar","images/stimuli/spore_stims/simple_01_A_b.gif","right","","","","",""
"","null","html-keyboard-response","256","434302","0.0-47.0-0.7","SS1613099446439","","","null","","","","","<p><img src= images/blank.png width =""200"" height = ""200"" style = ""float:right""></p><p><img src=images/blank.png width =""800"" height = ""200""></p>","","","","","","","","","","","",""
"","3228.9999999993597","sequential-stimulus-presentation","257","438350","0.0-47.0-1.7","SS1613099446439","trial","","40","800","4028.9999999993597","images/stimuli/spore_stims/simple_05_A_a.gif","images/stimuli/spore_stims/simple_01_A_b.gif","","","","","13","simple_dissimilar","images/stimuli/spore_stims/simple_05_A_a.gif","left","","","","",""
"","1582.9999999987194","html-keyboard-response","258","439949","0.0-48.0","SS1613099446439","pref_question","","51","","","","","<video width ='960' height = '540' style='padding-top:8%' autoplay muted><source src='images/stimuli/wall_pref.mp4' type='video/mp4'></video>","3","right","66%","13","","","","","","","",""
"","1502.9999999969732","sequential-stimulus-presentation","259","442277","0.0-49.0","SS1613099446439","pref_reveal","","40","800","2302.999999996973","null","null","","","","","13","","","","background","","","",""
"","null","html-keyboard-response","260","443163","0.0-50.0-0.0","SS1613099446439","","","null","","","","","<p><img src= images/blank.png width =""200"" height = ""200"" style = ""float:right""></p><p><img src=images/blank.png width =""800"" height = ""200""></p>","","","","","","","","","","","",""
"","1455.999999998312","sequential-stimulus-presentation","261","445485","0.0-50.0-1.0","SS1613099446439","trial","","40","800","2255.999999998312","images/stimuli/spore_stims/complex_11_A_b.gif","images/stimuli/spore_stims/complex_08_B_a.gif","","","","","14","complex_dissimilar","images/stimuli/spore_stims/complex_08_B_a.gif","left","","","","",""
"","null","html-keyboard-response","262","446440","0.0-50.0-0.1","SS1613099446439","","","null","","","","","<p><img src= images/blank.png width =""200"" height = ""200"" style = ""float:right""></p><p><img src=images/blank.png width =""800"" height = ""200""></p>","","","","","","","","","","","",""
"","242.99999999493593","sequential-stimulus-presentation","263","447509","0.0-50.0-1.1","SS1613099446439","trial","","40","800","1042.999999994936","images/stimuli/spore_stims/complex_11_A_b.gif","images/stimuli/spore_stims/complex_08_B_a.gif","","","","","14","complex_dissimilar","images/stimuli/spore_stims/complex_08_B_a.gif","left","","","","",""
"","null","html-keyboard-response","264","448347","0.0-50.0-0.2","SS1613099446439","","","null","","","","","<p><img src= images/blank.png width =""200"" height = ""200"" style = ""float:right""></p><p><img src=images/blank.png width =""800"" height = ""200""></p>","","","","","","","","","","","",""
"","1644.9999999967986","sequential-stimulus-presentation","265","450822","0.0-50.0-1.2","SS1613099446439","trial","","40","800","2444.9999999967986","images/stimuli/spore_stims/complex_11_A_b.gif","images/stimuli/spore_stims/complex_08_B_a.gif","","","","","14","complex_dissimilar","images/stimuli/spore_stims/complex_08_B_a.gif","left","","","","",""
"","null","html-keyboard-response","266","451744","0.0-50.0-0.3","SS1613099446439","","","null","","","","","<p><img src= images/blank.png width =""200"" height = ""200"" style = ""float:right""></p><p><img src=images/blank.png width =""800"" height = ""200""></p>","","","","","","","","","","","",""
"","453.0000000013388","sequential-stimulus-presentation","267","453040","0.0-50.0-1.3","SS1613099446439","trial","","40","800","1253.0000000013388","images/stimuli/spore_stims/complex_11_A_b.gif","images/stimuli/spore_stims/complex_08_B_a.gif","","","","","14","complex_dissimilar","images/stimuli/spore_stims/complex_08_B_a.gif","left","","","","",""
"","null","html-keyboard-response","268","454173","0.0-50.0-0.4","SS1613099446439","","","null","","","","","<p><img src= images/blank.png width =""200"" height = ""200"" style = ""float:right""></p><p><img src=images/blank.png width =""800"" height = ""200""></p>","","","","","","","","","","","",""
"","660.0000000034925","sequential-stimulus-presentation","269","455654","0.0-50.0-1.4","SS1613099446439","trial","","40","800","1460.0000000034925","images/stimuli/spore_stims/complex_11_A_b.gif","images/stimuli/spore_stims/complex_08_B_a.gif","","","","","14","complex_dissimilar","images/stimuli/spore_stims/complex_11_A_b.gif","middle","","","","",""
"","null","html-keyboard-response","270","456794","0.0-50.0-0.5","SS1613099446439","","","null","","","","","<p><img src= images/blank.png width =""200"" height = ""200"" style = ""float:right""></p><p><img src=images/blank.png width =""800"" height = ""200""></p>","","","","","","","","","","","",""
"","368.99999999877764","sequential-stimulus-presentation","271","457982","0.0-50.0-1.5","SS1613099446439","trial","","40","800","1168.9999999987776","images/stimuli/spore_stims/complex_11_A_b.gif","images/stimuli/spore_stims/complex_08_B_a.gif","","","","","14","complex_dissimilar","images/stimuli/spore_stims/complex_08_B_a.gif","left","","","","",""
"","null","html-keyboard-response","272","458887","0.0-50.0-0.6","SS1613099446439","","","null","","","","","<p><img src= images/blank.png width =""200"" height = ""200"" style = ""float:right""></p><p><img src=images/blank.png width =""800"" height = ""200""></p>","","","","","","","","","","","",""
"","495.9999999991851","sequential-stimulus-presentation","273","460207","0.0-50.0-1.6","SS1613099446439","trial","","40","800","1295.999999999185","images/stimuli/spore_stims/complex_11_A_b.gif","images/stimuli/spore_stims/complex_08_B_a.gif","","","","","14","complex_dissimilar","images/stimuli/spore_stims/complex_08_B_a.gif","left","","","","",""
"","null","html-keyboard-response","274","461198","0.0-50.0-0.7","SS1613099446439","","","null","","","","","<p><img src= images/blank.png width =""200"" height = ""200"" style = ""float:right""></p><p><img src=images/blank.png width =""800"" height = ""200""></p>","","","","","","","","","","","",""
"","2.0000000004074536","sequential-stimulus-presentation","275","462048","0.0-50.0-1.7","SS1613099446439","trial","","40","800","802.0000000004075","images/stimuli/spore_stims/complex_11_A_b.gif","images/stimuli/spore_stims/complex_08_B_a.gif","","","","","14","complex_dissimilar","images/stimuli/spore_stims/complex_08_B_a.gif","left","","","","",""
"","1555.000000000291","html-keyboard-response","276","463615","0.0-51.0","SS1613099446439","pref_question","","49","","","","","<video width ='960' height = '540' style='padding-top:8%' autoplay muted><source src='images/stimuli/wall_pref.mp4' type='video/mp4'></video>","1","left","25%","14","","","","","","","",""
"","4036.999999996624","sequential-stimulus-presentation","277","468464","0.0-52.0","SS1613099446439","pref_reveal","","40","800","4836.999999996624","null","null","","","","","14","","","","background","","","",""
"","null","html-keyboard-response","278","469369","0.0-53.0-0.0","SS1613099446439","","","null","","","","","<p><img src= images/blank.png width =""200"" height = ""200"" style = ""float:right""></p><p><img src=images/blank.png width =""800"" height = ""200""></p>","","","","","","","","","","","",""
"","645.0000000040745","sequential-stimulus-presentation","279","470839","0.0-53.0-1.0","SS1613099446439","trial","","40","800","1445.0000000040745","images/stimuli/spore_stims/simple_13_B_d.gif","images/stimuli/spore_stims/simple_13_A_d.gif","","","","","15","simple_similar","images/stimuli/spore_stims/simple_13_A_d.gif","left","","","","",""
"","null","html-keyboard-response","280","471909","0.0-53.0-0.1","SS1613099446439","","","null","","","","","<p><img src= images/blank.png width =""200"" height = ""200"" style = ""float:right""></p><p><img src=images/blank.png width =""800"" height = ""200""></p>","","","","","","","","","","","",""
"","381.9999999977881","sequential-stimulus-presentation","281","473111","0.0-53.0-1.1","SS1613099446439","trial","","40","800","1181.999999997788","images/stimuli/spore_stims/simple_13_B_d.gif","images/stimuli/spore_stims/simple_13_A_d.gif","","","","","15","simple_similar","images/stimuli/spore_stims/simple_13_A_d.gif","left","","","","",""
"","null","html-keyboard-response","282","473972","0.0-53.0-0.2","SS1613099446439","","","null","","","","","<p><img src= images/blank.png width =""200"" height = ""200"" style = ""float:right""></p><p><img src=images/blank.png width =""800"" height = ""200""></p>","","","","","","","","","","","",""
"","438.9999999984866","sequential-stimulus-presentation","283","475238","0.0-53.0-1.2","SS1613099446439","trial","","40","800","1238.9999999984866","images/stimuli/spore_stims/simple_13_B_d.gif","images/stimuli/spore_stims/simple_13_A_d.gif","","","","","15","simple_similar","images/stimuli/spore_stims/simple_13_A_d.gif","left","","","","",""
"","null","html-keyboard-response","284","476482","0.0-53.0-0.3","SS1613099446439","","","null","","","","","<p><img src= images/blank.png width =""200"" height = ""200"" style = ""float:right""></p><p><img src=images/blank.png width =""800"" height = ""200""></p>","","","","","","","","","","","",""
"","447.0000000001164","sequential-stimulus-presentation","285","477751","0.0-53.0-1.3","SS1613099446439","trial","","40","800","1247.0000000001164","images/stimuli/spore_stims/simple_13_B_d.gif","images/stimuli/spore_stims/simple_13_A_d.gif","","","","","15","simple_similar","images/stimuli/spore_stims/simple_13_A_d.gif","left","","","","",""
"","null","html-keyboard-response","286","478714","0.0-53.0-0.4","SS1613099446439","","","null","","","","","<p><img src= images/blank.png width =""200"" height = ""200"" style = ""float:right""></p><p><img src=images/blank.png width =""800"" height = ""200""></p>","","","","","","","","","","","",""
"","444.99999999970896","sequential-stimulus-presentation","287","479975","0.0-53.0-1.4","SS1613099446439","trial","","40","800","1244.999999999709","images/stimuli/spore_stims/simple_13_B_d.gif","images/stimuli/spore_stims/simple_13_A_d.gif","","","","","15","simple_similar","images/stimuli/spore_stims/simple_13_B_d.gif","right","","","","",""
"","null","html-keyboard-response","288","481260","0.0-53.0-0.5","SS1613099446439","","","null","","","","","<p><img src= images/blank.png width =""200"" height = ""200"" style = ""float:right""></p><p><img src=images/blank.png width =""800"" height = ""200""></p>","","","","","","","","","","","",""
"","222.0000000015716","sequential-stimulus-presentation","289","482297","0.0-53.0-1.5","SS1613099446439","trial","","40","800","1022.0000000015716","images/stimuli/spore_stims/simple_13_B_d.gif","images/stimuli/spore_stims/simple_13_A_d.gif","","","","","15","simple_similar","images/stimuli/spore_stims/simple_13_A_d.gif","left","","","","",""
"","null","html-keyboard-response","290","483413","0.0-53.0-0.6","SS1613099446439","","","null","","","","","<p><img src= images/blank.png width =""200"" height = ""200"" style = ""float:right""></p><p><img src=images/blank.png width =""800"" height = ""200""></p>","","","","","","","","","","","",""
"","555.000000000291","sequential-stimulus-presentation","291","484792","0.0-53.0-1.6","SS1613099446439","trial","","40","800","1355.000000000291","images/stimuli/spore_stims/simple_13_B_d.gif","images/stimuli/spore_stims/simple_13_A_d.gif","","","","","15","simple_similar","images/stimuli/spore_stims/simple_13_A_d.gif","left","","","","",""
"","null","html-keyboard-response","292","485619","0.0-53.0-0.7","SS1613099446439","","","null","","","","","<p><img src= images/blank.png width =""200"" height = ""200"" style = ""float:right""></p><p><img src=images/blank.png width =""800"" height = ""200""></p>","","","","","","","","","","","",""
"","238.99999999412103","sequential-stimulus-presentation","293","486807","0.0-53.0-1.7","SS1613099446439","trial","","40","800","1038.999999994121","images/stimuli/spore_stims/simple_13_B_d.gif","images/stimuli/spore_stims/simple_13_A_d.gif","","","","","15","simple_similar","images/stimuli/spore_stims/simple_13_A_d.gif","left","","","","",""
"","991.0000000018044","html-keyboard-response","294","487808","0.0-54.0","SS1613099446439","pref_question","","49","","","","","<video width ='960' height = '540' style='padding-top:8%' autoplay muted><source src='images/stimuli/wall_pref.mp4' type='video/mp4'></video>","1","left","25%","15","","","","","","","",""
"","345.9999999977299","sequential-stimulus-presentation","295","488967","0.0-55.0","SS1613099446439","pref_reveal","","40","800","1145.99999999773","null","null","","","","","15","","","","background","","","",""
"","null","html-keyboard-response","296","490220","0.0-56.0-0.0","SS1613099446439","","","null","","","","","<p><img src= images/blank.png width =""200"" height = ""200"" style = ""float:right""></p><p><img src=images/blank.png width =""800"" height = ""200""></p>","","","","","","","","","","","",""
"","365.9999999945285","sequential-stimulus-presentation","297","491399","0.0-56.0-1.0","SS1613099446439","trial","","40","800","1165.9999999945285","images/stimuli/spore_stims/complex_17_B_d.gif","images/stimuli/spore_stims/complex_17_A_d.gif","","","","","16","complex_similar","images/stimuli/spore_stims/complex_17_A_d.gif","right","","","","",""
"","null","html-keyboard-response","298","492469","0.0-56.0-0.1","SS1613099446439","","","null","","","","","<p><img src= images/blank.png width =""200"" height = ""200"" style = ""float:right""></p><p><img src=images/blank.png width =""800"" height = ""200""></p>","","","","","","","","","","","",""
"","46.999999998661224","sequential-stimulus-presentation","299","493336","0.0-56.0-1.1","SS1613099446439","trial","","40","800","846.9999999986612","images/stimuli/spore_stims/complex_17_B_d.gif","images/stimuli/spore_stims/complex_17_A_d.gif","","","","","16","complex_similar","images/stimuli/spore_stims/complex_17_A_d.gif","right","","","","",""
"","null","html-keyboard-response","300","494590","0.0-56.0-0.2","SS1613099446439","","","null","","","","","<p><img src= images/blank.png width =""200"" height = ""200"" style = ""float:right""></p><p><img src=images/blank.png width =""800"" height = ""200""></p>","","","","","","","","","","","",""
"","713.9999999999418","sequential-stimulus-presentation","301","496121","0.0-56.0-1.2","SS1613099446439","trial","","40","800","1513.9999999999418","images/stimuli/spore_stims/complex_17_B_d.gif","images/stimuli/spore_stims/complex_17_A_d.gif","","","","","16","complex_similar","images/stimuli/spore_stims/complex_17_A_d.gif","right","","","","",""
"","null","html-keyboard-response","302","497391","0.0-56.0-0.3","SS1613099446439","","","null","","","","","<p><img src= images/blank.png width =""200"" height = ""200"" style = ""float:right""></p><p><img src=images/blank.png width =""800"" height = ""200""></p>","","","","","","","","","","","",""
"","392.9999999963911","sequential-stimulus-presentation","303","498616","0.0-56.0-1.3","SS1613099446439","trial","","40","800","1192.9999999963911","images/stimuli/spore_stims/complex_17_B_d.gif","images/stimuli/spore_stims/complex_17_A_d.gif","","","","","16","complex_similar","images/stimuli/spore_stims/complex_17_A_d.gif","right","","","","",""
"","null","html-keyboard-response","304","499885","0.0-56.0-0.4","SS1613099446439","","","null","","","","","<p><img src= images/blank.png width =""200"" height = ""200"" style = ""float:right""></p><p><img src=images/blank.png width =""800"" height = ""200""></p>","","","","","","","","","","","",""
"","342.99999999348074","sequential-stimulus-presentation","305","501040","0.0-56.0-1.4","SS1613099446439","trial","","40","800","1142.9999999934807","images/stimuli/spore_stims/complex_17_B_d.gif","images/stimuli/spore_stims/complex_17_A_d.gif","","","","","16","complex_similar","images/stimuli/spore_stims/complex_17_A_d.gif","right","","","","",""
"","null","html-keyboard-response","306","502247","0.0-56.0-0.5","SS1613099446439","","","null","","","","","<p><img src= images/blank.png width =""200"" height = ""200"" style = ""float:right""></p><p><img src=images/blank.png width =""800"" height = ""200""></p>","","","","","","","","","","","",""
"","788.0000000004657","sequential-stimulus-presentation","307","503850","0.0-56.0-1.5","SS1613099446439","trial","","40","800","1588.0000000004657","images/stimuli/spore_stims/complex_17_B_d.gif","images/stimuli/spore_stims/complex_17_A_d.gif","","","","","16","complex_similar","images/stimuli/spore_stims/complex_17_B_d.gif","middle","","","","",""
"","null","html-keyboard-response","308","504787","0.0-56.0-0.6","SS1613099446439","","","null","","","","","<p><img src= images/blank.png width =""200"" height = ""200"" style = ""float:right""></p><p><img src=images/blank.png width =""800"" height = ""200""></p>","","","","","","","","","","","",""
"","430.00000000034925","sequential-stimulus-presentation","309","506051","0.0-56.0-1.6","SS1613099446439","trial","","40","800","1230.0000000003492","images/stimuli/spore_stims/complex_17_B_d.gif","images/stimuli/spore_stims/complex_17_A_d.gif","","","","","16","complex_similar","images/stimuli/spore_stims/complex_17_A_d.gif","right","","","","",""
"","null","html-keyboard-response","310","507345","0.0-56.0-0.7","SS1613099446439","","","null","","","","","<p><img src= images/blank.png width =""200"" height = ""200"" style = ""float:right""></p><p><img src=images/blank.png width =""800"" height = ""200""></p>","","","","","","","","","","","",""
"","788.0000000004657","sequential-stimulus-presentation","311","508952","0.0-56.0-1.7","SS1613099446439","trial","","40","800","1588.0000000004657","images/stimuli/spore_stims/complex_17_B_d.gif","images/stimuli/spore_stims/complex_17_A_d.gif","","","","","16","complex_similar","images/stimuli/spore_stims/complex_17_A_d.gif","right","","","","",""
