"view_history","rt","trial_type","trial_index","time_elapsed","internal_node_id","subject","stimulus_type","trial_stimulus","key_press","minimum_viewing_duration","trial_looking_time","block_deviant","block_background","stimulus","wall_pref","location","location_percent","block_number","block_type","stimulus_displayed","position_displayed","stim_type_selected","responses","question_order","stimulus_left","stimulus_right"
"[{""page_index"":0,""viewing_time"":2866.999999852851}]","2868.000000016764","instructions","0","2871","0.0-0.0","SS1613102914792","","","","","","","","","","","","","","","","","","","",""
"[{""page_index"":0,""viewing_time"":6128.000000026077},{""page_index"":1,""viewing_time"":18584.000000031665}]","24714.000000152737","instructions","1","29590","0.0-1.0","SS1613102914792","instructions","","","","","","","","","","","","","","","","","","",""
"","3695.9999999962747","sequential-stimulus-presentation","2","34110","0.0-2.0","SS1613102914792","","","40","800","4495.999999996275","null","null","","","","","","","","","","","","",""
"","2828.0000002123415","sequential-stimulus-presentation","3","37751","0.0-3.0","SS1613102914792","","","40","800","3628.0000002123415","null","null","","","","","","","","","","","","",""
"[{""page_index"":0,""viewing_time"":3334.999999962747}]","3335.999999893829","instructions","4","41094","0.0-4.0","SS1613102914792","instructions","","","","","","","","","","","","","","","","","","",""
"","18744.999999878928","html-keyboard-response","5","59848","0.0-5.0","SS1613102914792","instructions","","50","","","","","<video width ='960' height = '540' autoplay muted><source src='images/stimuli/wall_pref.mp4' type='video/mp4'></video>","2","middle","45%","","","","","","","","",""
"","1563.0000000819564","sequential-stimulus-presentation","6","62227","0.0-6.0","SS1613102914792","pref_reveal","","40","800","2363.0000000819564","null","null","","","","","","","","","","","","",""
"[{""page_index"":0,""viewing_time"":3252.000000094995},{""page_index"":1,""viewing_time"":2703.999999910593},{""page_index"":2,""viewing_time"":2375},{""page_index"":3,""viewing_time"":2296.000000089407}]","10628.000000026077","instructions","7","72861","0.0-7.0","SS1613102914792","instructions","","","","","","","","","","","","","","","","","","",""
"","null","html-keyboard-response","8","73933","0.0-8.0-0.0","SS1613102914792","","","null","","","","","<p><img src= images/blank.png width =""200"" height = ""200"" style = ""float:right""></p><p><img src=images/blank.png width =""800"" height = ""200""></p>","","","","","","","","","","","",""
"","1030.0000000279397","sequential-stimulus-presentation","9","75777","0.0-8.0-1.0","SS1613102914792","trial","","40","800","1830.0000000279397","images/stimuli/spore_stims/simple_07_A_d.gif","images/stimuli/spore_stims/simple_03_B_a.gif","","","","","0","simple_dissimilar","images/stimuli/spore_stims/simple_03_B_a.gif","right","","","","",""
"","null","html-keyboard-response","10","76751","0.0-8.0-0.1","SS1613102914792","","","null","","","","","<p><img src= images/blank.png width =""200"" height = ""200"" style = ""float:right""></p><p><img src=images/blank.png width =""800"" height = ""200""></p>","","","","","","","","","","","",""
"","232.00000007636845","sequential-stimulus-presentation","11","77790","0.0-8.0-1.1","SS1613102914792","trial","","40","800","1032.0000000763685","images/stimuli/spore_stims/simple_07_A_d.gif","images/stimuli/spore_stims/simple_03_B_a.gif","","","","","0","simple_dissimilar","images/stimuli/spore_stims/simple_03_B_a.gif","right","","","","",""
"","null","html-keyboard-response","12","78631","0.0-8.0-0.2","SS1613102914792","","","null","","","","","<p><img src= images/blank.png width =""200"" height = ""200"" style = ""float:right""></p><p><img src=images/blank.png width =""800"" height = ""200""></p>","","","","","","","","","","","",""
"","101.00000002421439","sequential-stimulus-presentation","13","79543","0.0-8.0-1.2","SS1613102914792","trial","","40","800","901.0000000242144","images/stimuli/spore_stims/simple_07_A_d.gif","images/stimuli/spore_stims/simple_03_B_a.gif","","","","","0","simple_dissimilar","images/stimuli/spore_stims/simple_07_A_d.gif","middle","","","","",""
"","null","html-keyboard-response","14","80741","0.0-8.0-0.3","SS1613102914792","","","null","","","","","<p><img src= images/blank.png width =""200"" height = ""200"" style = ""float:right""></p><p><img src=images/blank.png width =""800"" height = ""200""></p>","","","","","","","","","","","",""
"","4229.999999981374","sequential-stimulus-presentation","15","85810","0.0-8.0-1.3","SS1613102914792","trial","","40","800","5029.999999981374","images/stimuli/spore_stims/simple_07_A_d.gif","images/stimuli/spore_stims/simple_03_B_a.gif","","","","","0","simple_dissimilar","images/stimuli/spore_stims/simple_03_B_a.gif","right","","","","",""
"","null","html-keyboard-response","16","86656","0.0-8.0-0.4","SS1613102914792","","","null","","","","","<p><img src= images/blank.png width =""200"" height = ""200"" style = ""float:right""></p><p><img src=images/blank.png width =""800"" height = ""200""></p>","","","","","","","","","","","",""
"","202.00000004842877","sequential-stimulus-presentation","17","87673","0.0-8.0-1.4","SS1613102914792","trial","","40","800","1002.0000000484288","images/stimuli/spore_stims/simple_07_A_d.gif","images/stimuli/spore_stims/simple_03_B_a.gif","","","","","0","simple_dissimilar","images/stimuli/spore_stims/simple_03_B_a.gif","right","","","","",""
"","null","html-keyboard-response","18","88623","0.0-8.0-0.5","SS1613102914792","","","null","","","","","<p><img src= images/blank.png width =""200"" height = ""200"" style = ""float:right""></p><p><img src=images/blank.png width =""800"" height = ""200""></p>","","","","","","","","","","","",""
"","134.0000000782311","sequential-stimulus-presentation","19","89574","0.0-8.0-1.5","SS1613102914792","trial","","40","800","934.0000000782311","images/stimuli/spore_stims/simple_07_A_d.gif","images/stimuli/spore_stims/simple_03_B_a.gif","","","","","0","simple_dissimilar","images/stimuli/spore_stims/simple_03_B_a.gif","right","","","","",""
"","null","html-keyboard-response","20","90465","0.0-8.0-0.6","SS1613102914792","","","null","","","","","<p><img src= images/blank.png width =""200"" height = ""200"" style = ""float:right""></p><p><img src=images/blank.png width =""800"" height = ""200""></p>","","","","","","","","","","","",""
"","95.99999990314245","sequential-stimulus-presentation","21","91374","0.0-8.0-1.6","SS1613102914792","trial","","40","800","895.9999999031425","images/stimuli/spore_stims/simple_07_A_d.gif","images/stimuli/spore_stims/simple_03_B_a.gif","","","","","0","simple_dissimilar","images/stimuli/spore_stims/simple_03_B_a.gif","right","","","","",""
"","null","html-keyboard-response","22","92530","0.0-8.0-0.7","SS1613102914792","","","null","","","","","<p><img src= images/blank.png width =""200"" height = ""200"" style = ""float:right""></p><p><img src=images/blank.png width =""800"" height = ""200""></p>","","","","","","","","","","","",""
"","1072.999999858439","sequential-stimulus-presentation","23","94431","0.0-8.0-1.7","SS1613102914792","trial","","40","800","1872.999999858439","images/stimuli/spore_stims/simple_07_A_d.gif","images/stimuli/spore_stims/simple_03_B_a.gif","","","","","0","simple_dissimilar","images/stimuli/spore_stims/simple_03_B_a.gif","right","","","","",""
"","1471.000000135973","html-keyboard-response","24","95911","0.0-9.0","SS1613102914792","pref_question","","49","","","","","<video width ='960' height = '540' style='padding-top:8%' autoplay muted><source src='images/stimuli/wall_pref.mp4' type='video/mp4'></video>","1","left","25%","0","","","","","","","",""
"","2308.9999998919666","sequential-stimulus-presentation","25","99038","0.0-10.0","SS1613102914792","pref_reveal","","40","800","3108.9999998919666","null","null","","","","","0","","","","novel","","","",""
"","null","html-keyboard-response","26","100165","0.0-11.0-0.0","SS1613102914792","","","null","","","","","<p><img src= images/blank.png width =""200"" height = ""200"" style = ""float:right""></p><p><img src=images/blank.png width =""800"" height = ""200""></p>","","","","","","","","","","","",""
"","406.99999989010394","sequential-stimulus-presentation","27","101389","0.0-11.0-1.0","SS1613102914792","trial","","40","800","1206.999999890104","images/stimuli/spore_stims/simple_12_A_b.gif","images/stimuli/spore_stims/simple_09_B_d.gif","","","","","1","simple_dissimilar","images/stimuli/spore_stims/simple_09_B_d.gif","right","","","","",""
"","null","html-keyboard-response","28","102447","0.0-11.0-0.1","SS1613102914792","","","null","","","","","<p><img src= images/blank.png width =""200"" height = ""200"" style = ""float:right""></p><p><img src=images/blank.png width =""800"" height = ""200""></p>","","","","","","","","","","","",""
"","1020.0000000186265","sequential-stimulus-presentation","29","104277","0.0-11.0-1.1","SS1613102914792","trial","","40","800","1820.0000000186265","images/stimuli/spore_stims/simple_12_A_b.gif","images/stimuli/spore_stims/simple_09_B_d.gif","","","","","1","simple_dissimilar","images/stimuli/spore_stims/simple_09_B_d.gif","right","","","","",""
"","null","html-keyboard-response","30","105574","0.0-11.0-0.2","SS1613102914792","","","null","","","","","<p><img src= images/blank.png width =""200"" height = ""200"" style = ""float:right""></p><p><img src=images/blank.png width =""800"" height = ""200""></p>","","","","","","","","","","","",""
"","461.00000012665987","sequential-stimulus-presentation","31","106848","0.0-11.0-1.2","SS1613102914792","trial","","40","800","1261.0000001266599","images/stimuli/spore_stims/simple_12_A_b.gif","images/stimuli/spore_stims/simple_09_B_d.gif","","","","","1","simple_dissimilar","images/stimuli/spore_stims/simple_12_A_b.gif","middle","","","","",""
"","null","html-keyboard-response","32","107906","0.0-11.0-0.3","SS1613102914792","","","null","","","","","<p><img src= images/blank.png width =""200"" height = ""200"" style = ""float:right""></p><p><img src=images/blank.png width =""800"" height = ""200""></p>","","","","","","","","","","","",""
"","87.99999998882413","sequential-stimulus-presentation","33","108809","0.0-11.0-1.3","SS1613102914792","trial","","40","800","887.9999999888241","images/stimuli/spore_stims/simple_12_A_b.gif","images/stimuli/spore_stims/simple_09_B_d.gif","","","","","1","simple_dissimilar","images/stimuli/spore_stims/simple_09_B_d.gif","right","","","","",""
"","null","html-keyboard-response","34","109803","0.0-11.0-0.4","SS1613102914792","","","null","","","","","<p><img src= images/blank.png width =""200"" height = ""200"" style = ""float:right""></p><p><img src=images/blank.png width =""800"" height = ""200""></p>","","","","","","","","","","","",""
"","60.000000055879354","sequential-stimulus-presentation","35","110681","0.0-11.0-1.4","SS1613102914792","trial","","40","800","860.0000000558794","images/stimuli/spore_stims/simple_12_A_b.gif","images/stimuli/spore_stims/simple_09_B_d.gif","","","","","1","simple_dissimilar","images/stimuli/spore_stims/simple_09_B_d.gif","right","","","","",""
"","null","html-keyboard-response","36","111888","0.0-11.0-0.5","SS1613102914792","","","null","","","","","<p><img src= images/blank.png width =""200"" height = ""200"" style = ""float:right""></p><p><img src=images/blank.png width =""800"" height = ""200""></p>","","","","","","","","","","","",""
"","679.9999999348074","sequential-stimulus-presentation","37","113398","0.0-11.0-1.5","SS1613102914792","trial","","40","800","1479.9999999348074","images/stimuli/spore_stims/simple_12_A_b.gif","images/stimuli/spore_stims/simple_09_B_d.gif","","","","","1","simple_dissimilar","images/stimuli/spore_stims/simple_09_B_d.gif","right","","","","",""
"","null","html-keyboard-response","38","114572","0.0-11.0-0.6","SS1613102914792","","","null","","","","","<p><img src= images/blank.png width =""200"" height = ""200"" style = ""float:right""></p><p><img src=images/blank.png width =""800"" height = ""200""></p>","","","","","","","","","","","",""
"","694.0000001341105","sequential-stimulus-presentation","39","116077","0.0-11.0-1.6","SS1613102914792","trial","","40","800","1494.0000001341105","images/stimuli/spore_stims/simple_12_A_b.gif","images/stimuli/spore_stims/simple_09_B_d.gif","","","","","1","simple_dissimilar","images/stimuli/spore_stims/simple_09_B_d.gif","right","","","","",""
"","null","html-keyboard-response","40","117133","0.0-11.0-0.7","SS1613102914792","","","null","","","","","<p><img src= images/blank.png width =""200"" height = ""200"" style = ""float:right""></p><p><img src=images/blank.png width =""800"" height = ""200""></p>","","","","","","","","","","","",""
"","722.9999999981374","sequential-stimulus-presentation","41","118664","0.0-11.0-1.7","SS1613102914792","trial","","40","800","1522.9999999981374","images/stimuli/spore_stims/simple_12_A_b.gif","images/stimuli/spore_stims/simple_09_B_d.gif","","","","","1","simple_dissimilar","images/stimuli/spore_stims/simple_09_B_d.gif","right","","","","",""
"","1439.0000000130385","html-keyboard-response","42","120110","0.0-12.0","SS1613102914792","pref_question","","49","","","","","<video width ='960' height = '540' style='padding-top:8%' autoplay muted><source src='images/stimuli/wall_pref.mp4' type='video/mp4'></video>","1","left","25%","1","","","","","","","",""
"","782.9999998211861","sequential-stimulus-presentation","43","121701","0.0-13.0","SS1613102914792","pref_reveal","","40","800","1582.999999821186","null","null","","","","","1","","","","novel","","","",""
"","null","html-keyboard-response","44","122585","0.0-14.0-0.0","SS1613102914792","","","null","","","","","<p><img src= images/blank.png width =""200"" height = ""200"" style = ""float:right""></p><p><img src=images/blank.png width =""800"" height = ""200""></p>","","","","","","","","","","","",""
"","740.9999999217689","sequential-stimulus-presentation","45","124142","0.0-14.0-1.0","SS1613102914792","trial","","40","800","1540.999999921769","images/stimuli/spore_stims/complex_13_A_a.gif","images/stimuli/spore_stims/complex_13_B_a.gif","","","","","2","complex_similar","images/stimuli/spore_stims/complex_13_B_a.gif","right","","","","",""
"","null","html-keyboard-response","46","125171","0.0-14.0-0.1","SS1613102914792","","","null","","","","","<p><img src= images/blank.png width =""200"" height = ""200"" style = ""float:right""></p><p><img src=images/blank.png width =""800"" height = ""200""></p>","","","","","","","","","","","",""
"","333.00000010058284","sequential-stimulus-presentation","47","126318","0.0-14.0-1.1","SS1613102914792","trial","","40","800","1133.0000001005828","images/stimuli/spore_stims/complex_13_A_a.gif","images/stimuli/spore_stims/complex_13_B_a.gif","","","","","2","complex_similar","images/stimuli/spore_stims/complex_13_B_a.gif","right","","","","",""
"","null","html-keyboard-response","48","127390","0.0-14.0-0.2","SS1613102914792","","","null","","","","","<p><img src= images/blank.png width =""200"" height = ""200"" style = ""float:right""></p><p><img src=images/blank.png width =""800"" height = ""200""></p>","","","","","","","","","","","",""
"","777.9999999329448","sequential-stimulus-presentation","49","128977","0.0-14.0-1.2","SS1613102914792","trial","","40","800","1577.9999999329448","images/stimuli/spore_stims/complex_13_A_a.gif","images/stimuli/spore_stims/complex_13_B_a.gif","","","","","2","complex_similar","images/stimuli/spore_stims/complex_13_B_a.gif","right","","","","",""
"","null","html-keyboard-response","50","129989","0.0-14.0-0.3","SS1613102914792","","","null","","","","","<p><img src= images/blank.png width =""200"" height = ""200"" style = ""float:right""></p><p><img src=images/blank.png width =""800"" height = ""200""></p>","","","","","","","","","","","",""
"","143.0000001564622","sequential-stimulus-presentation","51","130949","0.0-14.0-1.3","SS1613102914792","trial","","40","800","943.0000001564622","images/stimuli/spore_stims/complex_13_A_a.gif","images/stimuli/spore_stims/complex_13_B_a.gif","","","","","2","complex_similar","images/stimuli/spore_stims/complex_13_B_a.gif","right","","","","",""
"","null","html-keyboard-response","52","132009","0.0-14.0-0.4","SS1613102914792","","","null","","","","","<p><img src= images/blank.png width =""200"" height = ""200"" style = ""float:right""></p><p><img src=images/blank.png width =""800"" height = ""200""></p>","","","","","","","","","","","",""
"","700.999999884516","sequential-stimulus-presentation","53","133525","0.0-14.0-1.4","SS1613102914792","trial","","40","800","1500.999999884516","images/stimuli/spore_stims/complex_13_A_a.gif","images/stimuli/spore_stims/complex_13_B_a.gif","","","","","2","complex_similar","images/stimuli/spore_stims/complex_13_B_a.gif","right","","","","",""
"","null","html-keyboard-response","54","134635","0.0-14.0-0.5","SS1613102914792","","","null","","","","","<p><img src= images/blank.png width =""200"" height = ""200"" style = ""float:right""></p><p><img src=images/blank.png width =""800"" height = ""200""></p>","","","","","","","","","","","",""
"","500","sequential-stimulus-presentation","55","135973","0.0-14.0-1.5","SS1613102914792","trial","","40","800","1300","images/stimuli/spore_stims/complex_13_A_a.gif","images/stimuli/spore_stims/complex_13_B_a.gif","","","","","2","complex_similar","images/stimuli/spore_stims/complex_13_B_a.gif","right","","","","",""
"","null","html-keyboard-response","56","136996","0.0-14.0-0.6","SS1613102914792","","","null","","","","","<p><img src= images/blank.png width =""200"" height = ""200"" style = ""float:right""></p><p><img src=images/blank.png width =""800"" height = ""200""></p>","","","","","","","","","","","",""
"","1022.0000001136214","sequential-stimulus-presentation","57","138830","0.0-14.0-1.6","SS1613102914792","trial","","40","800","1822.0000001136214","images/stimuli/spore_stims/complex_13_A_a.gif","images/stimuli/spore_stims/complex_13_B_a.gif","","","","","2","complex_similar","images/stimuli/spore_stims/complex_13_A_a.gif","left","","","","",""
"","null","html-keyboard-response","58","139922","0.0-14.0-0.7","SS1613102914792","","","null","","","","","<p><img src= images/blank.png width =""200"" height = ""200"" style = ""float:right""></p><p><img src=images/blank.png width =""800"" height = ""200""></p>","","","","","","","","","","","",""
"","593.0000001098961","sequential-stimulus-presentation","59","141325","0.0-14.0-1.7","SS1613102914792","trial","","40","800","1393.000000109896","images/stimuli/spore_stims/complex_13_A_a.gif","images/stimuli/spore_stims/complex_13_B_a.gif","","","","","2","complex_similar","images/stimuli/spore_stims/complex_13_B_a.gif","right","","","","",""
"","1579.9999998416752","html-keyboard-response","60","142914","0.0-15.0","SS1613102914792","pref_question","","51","","","","","<video width ='960' height = '540' style='padding-top:8%' autoplay muted><source src='images/stimuli/wall_pref.mp4' type='video/mp4'></video>","3","right","66%","2","","","","","","","",""
"","1086.9999998249114","sequential-stimulus-presentation","61","144809","0.0-16.0","SS1613102914792","pref_reveal","","40","800","1886.9999998249114","null","null","","","","","2","","","","background","","","",""
"","null","html-keyboard-response","62","146000","0.0-17.0-0.0","SS1613102914792","","","null","","","","","<p><img src= images/blank.png width =""200"" height = ""200"" style = ""float:right""></p><p><img src=images/blank.png width =""800"" height = ""200""></p>","","","","","","","","","","","",""
"","636.000000173226","sequential-stimulus-presentation","63","147489","0.0-17.0-1.0","SS1613102914792","trial","","40","800","1436.000000173226","images/stimuli/spore_stims/complex_12_B_a.gif","images/stimuli/spore_stims/complex_12_A_a.gif","","","","","3","complex_similar","images/stimuli/spore_stims/complex_12_A_a.gif","right","","","","",""
"","null","html-keyboard-response","64","148302","0.0-17.0-0.1","SS1613102914792","","","null","","","","","<p><img src= images/blank.png width =""200"" height = ""200"" style = ""float:right""></p><p><img src=images/blank.png width =""800"" height = ""200""></p>","","","","","","","","","","","",""
"","756.0000000521541","sequential-stimulus-presentation","65","149866","0.0-17.0-1.1","SS1613102914792","trial","","40","800","1556.000000052154","images/stimuli/spore_stims/complex_12_B_a.gif","images/stimuli/spore_stims/complex_12_A_a.gif","","","","","3","complex_similar","images/stimuli/spore_stims/complex_12_A_a.gif","right","","","","",""
"","null","html-keyboard-response","66","150684","0.0-17.0-0.2","SS1613102914792","","","null","","","","","<p><img src= images/blank.png width =""200"" height = ""200"" style = ""float:right""></p><p><img src=images/blank.png width =""800"" height = ""200""></p>","","","","","","","","","","","",""
"","533.9999999850988","sequential-stimulus-presentation","67","152038","0.0-17.0-1.2","SS1613102914792","trial","","40","800","1333.9999999850988","images/stimuli/spore_stims/complex_12_B_a.gif","images/stimuli/spore_stims/complex_12_A_a.gif","","","","","3","complex_similar","images/stimuli/spore_stims/complex_12_A_a.gif","right","","","","",""
"","null","html-keyboard-response","68","152975","0.0-17.0-0.3","SS1613102914792","","","null","","","","","<p><img src= images/blank.png width =""200"" height = ""200"" style = ""float:right""></p><p><img src=images/blank.png width =""800"" height = ""200""></p>","","","","","","","","","","","",""
"","783.9999999850988","sequential-stimulus-presentation","69","154579","0.0-17.0-1.3","SS1613102914792","trial","","40","800","1583.9999999850988","images/stimuli/spore_stims/complex_12_B_a.gif","images/stimuli/spore_stims/complex_12_A_a.gif","","","","","3","complex_similar","images/stimuli/spore_stims/complex_12_A_a.gif","right","","","","",""
"","null","html-keyboard-response","70","155639","0.0-17.0-0.4","SS1613102914792","","","null","","","","","<p><img src= images/blank.png width =""200"" height = ""200"" style = ""float:right""></p><p><img src=images/blank.png width =""800"" height = ""200""></p>","","","","","","","","","","","",""
"","1116.0000001545995","sequential-stimulus-presentation","71","157568","0.0-17.0-1.4","SS1613102914792","trial","","40","800","1916.0000001545995","images/stimuli/spore_stims/complex_12_B_a.gif","images/stimuli/spore_stims/complex_12_A_a.gif","","","","","3","complex_similar","images/stimuli/spore_stims/complex_12_B_a.gif","middle","","","","",""
"","null","html-keyboard-response","72","158773","0.0-17.0-0.5","SS1613102914792","","","null","","","","","<p><img src= images/blank.png width =""200"" height = ""200"" style = ""float:right""></p><p><img src=images/blank.png width =""800"" height = ""200""></p>","","","","","","","","","","","",""
"","367.99999978393316","sequential-stimulus-presentation","73","159959","0.0-17.0-1.5","SS1613102914792","trial","","40","800","1167.9999997839332","images/stimuli/spore_stims/complex_12_B_a.gif","images/stimuli/spore_stims/complex_12_A_a.gif","","","","","3","complex_similar","images/stimuli/spore_stims/complex_12_A_a.gif","right","","","","",""
"","null","html-keyboard-response","74","161234","0.0-17.0-0.6","SS1613102914792","","","null","","","","","<p><img src= images/blank.png width =""200"" height = ""200"" style = ""float:right""></p><p><img src=images/blank.png width =""800"" height = ""200""></p>","","","","","","","","","","","",""
"","871.999999973923","sequential-stimulus-presentation","75","162917","0.0-17.0-1.6","SS1613102914792","trial","","40","800","1671.999999973923","images/stimuli/spore_stims/complex_12_B_a.gif","images/stimuli/spore_stims/complex_12_A_a.gif","","","","","3","complex_similar","images/stimuli/spore_stims/complex_12_A_a.gif","right","","","","",""
"","null","html-keyboard-response","76","164056","0.0-17.0-0.7","SS1613102914792","","","null","","","","","<p><img src= images/blank.png width =""200"" height = ""200"" style = ""float:right""></p><p><img src=images/blank.png width =""800"" height = ""200""></p>","","","","","","","","","","","",""
"","705.0000000745058","sequential-stimulus-presentation","77","165582","0.0-17.0-1.7","SS1613102914792","trial","","40","800","1505.0000000745058","images/stimuli/spore_stims/complex_12_B_a.gif","images/stimuli/spore_stims/complex_12_A_a.gif","","","","","3","complex_similar","images/stimuli/spore_stims/complex_12_A_a.gif","right","","","","",""
"","3584.999999962747","html-keyboard-response","78","169181","0.0-18.0","SS1613102914792","pref_question","","50","","","","","<video width ='960' height = '540' style='padding-top:8%' autoplay muted><source src='images/stimuli/wall_pref.mp4' type='video/mp4'></video>","2","middle","45%","3","","","","","","","",""
"","1766.0000000614673","sequential-stimulus-presentation","79","171763","0.0-19.0","SS1613102914792","pref_reveal","","40","800","2566.0000000614673","null","null","","","","","3","","","","deviant","","","",""
"","null","html-keyboard-response","80","172968","0.0-20.0-0.0","SS1613102914792","","","null","","","","","<p><img src= images/blank.png width =""200"" height = ""200"" style = ""float:right""></p><p><img src=images/blank.png width =""800"" height = ""200""></p>","","","","","","","","","","","",""
"","368.99999994784594","sequential-stimulus-presentation","81","174157","0.0-20.0-1.0","SS1613102914792","trial","","40","800","1168.999999947846","images/stimuli/spore_stims/complex_19_A_d.gif","images/stimuli/spore_stims/complex_08_A_c.gif","","","","","4","complex_dissimilar","images/stimuli/spore_stims/complex_08_A_c.gif","middle","","","","",""
"","null","html-keyboard-response","82","174991","0.0-20.0-0.1","SS1613102914792","","","null","","","","","<p><img src= images/blank.png width =""200"" height = ""200"" style = ""float:right""></p><p><img src=images/blank.png width =""800"" height = ""200""></p>","","","","","","","","","","","",""
"","458.00000010058284","sequential-stimulus-presentation","83","176269","0.0-20.0-1.1","SS1613102914792","trial","","40","800","1258.0000001005828","images/stimuli/spore_stims/complex_19_A_d.gif","images/stimuli/spore_stims/complex_08_A_c.gif","","","","","4","complex_dissimilar","images/stimuli/spore_stims/complex_08_A_c.gif","middle","","","","",""
"","null","html-keyboard-response","84","177081","0.0-20.0-0.2","SS1613102914792","","","null","","","","","<p><img src= images/blank.png width =""200"" height = ""200"" style = ""float:right""></p><p><img src=images/blank.png width =""800"" height = ""200""></p>","","","","","","","","","","","",""
"","1172.000000020489","sequential-stimulus-presentation","85","179063","0.0-20.0-1.2","SS1613102914792","trial","","40","800","1972.000000020489","images/stimuli/spore_stims/complex_19_A_d.gif","images/stimuli/spore_stims/complex_08_A_c.gif","","","","","4","complex_dissimilar","images/stimuli/spore_stims/complex_08_A_c.gif","middle","","","","",""
"","null","html-keyboard-response","86","180148","0.0-20.0-0.3","SS1613102914792","","","null","","","","","<p><img src= images/blank.png width =""200"" height = ""200"" style = ""float:right""></p><p><img src=images/blank.png width =""800"" height = ""200""></p>","","","","","","","","","","","",""
"","1582.9999998677522","sequential-stimulus-presentation","87","182550","0.0-20.0-1.3","SS1613102914792","trial","","40","800","2382.999999867752","images/stimuli/spore_stims/complex_19_A_d.gif","images/stimuli/spore_stims/complex_08_A_c.gif","","","","","4","complex_dissimilar","images/stimuli/spore_stims/complex_08_A_c.gif","middle","","","","",""
"","null","html-keyboard-response","88","183689","0.0-20.0-0.4","SS1613102914792","","","null","","","","","<p><img src= images/blank.png width =""200"" height = ""200"" style = ""float:right""></p><p><img src=images/blank.png width =""800"" height = ""200""></p>","","","","","","","","","","","",""
"","952.0000000484288","sequential-stimulus-presentation","89","185453","0.0-20.0-1.4","SS1613102914792","trial","","40","800","1752.0000000484288","images/stimuli/spore_stims/complex_19_A_d.gif","images/stimuli/spore_stims/complex_08_A_c.gif","","","","","4","complex_dissimilar","images/stimuli/spore_stims/complex_08_A_c.gif","middle","","","","",""
"","null","html-keyboard-response","90","186634","0.0-20.0-0.5","SS1613102914792","","","null","","","","","<p><img src= images/blank.png width =""200"" height = ""200"" style = ""float:right""></p><p><img src=images/blank.png width =""800"" height = ""200""></p>","","","","","","","","","","","",""
"","374.00000006891787","sequential-stimulus-presentation","91","187842","0.0-20.0-1.5","SS1613102914792","trial","","40","800","1174.0000000689179","images/stimuli/spore_stims/complex_19_A_d.gif","images/stimuli/spore_stims/complex_08_A_c.gif","","","","","4","complex_dissimilar","images/stimuli/spore_stims/complex_08_A_c.gif","middle","","","","",""
"","null","html-keyboard-response","92","189011","0.0-20.0-0.6","SS1613102914792","","","null","","","","","<p><img src= images/blank.png width =""200"" height = ""200"" style = ""float:right""></p><p><img src=images/blank.png width =""800"" height = ""200""></p>","","","","","","","","","","","",""
"","739.9999999906868","sequential-stimulus-presentation","93","190562","0.0-20.0-1.6","SS1613102914792","trial","","40","800","1539.9999999906868","images/stimuli/spore_stims/complex_19_A_d.gif","images/stimuli/spore_stims/complex_08_A_c.gif","","","","","4","complex_dissimilar","images/stimuli/spore_stims/complex_19_A_d.gif","left","","","","",""
"","null","html-keyboard-response","94","191542","0.0-20.0-0.7","SS1613102914792","","","null","","","","","<p><img src= images/blank.png width =""200"" height = ""200"" style = ""float:right""></p><p><img src=images/blank.png width =""800"" height = ""200""></p>","","","","","","","","","","","",""
"","983.0000000074506","sequential-stimulus-presentation","95","193342","0.0-20.0-1.7","SS1613102914792","trial","","40","800","1783.0000000074506","images/stimuli/spore_stims/complex_19_A_d.gif","images/stimuli/spore_stims/complex_08_A_c.gif","","","","","4","complex_dissimilar","images/stimuli/spore_stims/complex_08_A_c.gif","middle","","","","",""
"","2453.0000002123415","html-keyboard-response","96","195804","0.0-21.0","SS1613102914792","pref_question","","51","","","","","<video width ='960' height = '540' style='padding-top:8%' autoplay muted><source src='images/stimuli/wall_pref.mp4' type='video/mp4'></video>","3","right","66%","4","","","","","","","",""
"","638.0000000353903","sequential-stimulus-presentation","97","197257","0.0-22.0","SS1613102914792","pref_reveal","","40","800","1438.0000000353903","null","null","","","","","4","","","","novel","","","",""
"","null","html-keyboard-response","98","198159","0.0-23.0-0.0","SS1613102914792","","","null","","","","","<p><img src= images/blank.png width =""200"" height = ""200"" style = ""float:right""></p><p><img src=images/blank.png width =""800"" height = ""200""></p>","","","","","","","","","","","",""
"","276.0000000707805","sequential-stimulus-presentation","99","199256","0.0-23.0-1.0","SS1613102914792","trial","","40","800","1076.0000000707805","images/stimuli/spore_stims/simple_19_A_c.gif","images/stimuli/spore_stims/simple_19_B_c.gif","","","","","5","simple_similar","images/stimuli/spore_stims/simple_19_B_c.gif","middle","","","","",""
"","null","html-keyboard-response","100","200108","0.0-23.0-0.1","SS1613102914792","","","null","","","","","<p><img src= images/blank.png width =""200"" height = ""200"" style = ""float:right""></p><p><img src=images/blank.png width =""800"" height = ""200""></p>","","","","","","","","","","","",""
"","773.0000000447035","sequential-stimulus-presentation","101","201715","0.0-23.0-1.1","SS1613102914792","trial","","40","800","1573.0000000447035","images/stimuli/spore_stims/simple_19_A_c.gif","images/stimuli/spore_stims/simple_19_B_c.gif","","","","","5","simple_similar","images/stimuli/spore_stims/simple_19_B_c.gif","middle","","","","",""
"","null","html-keyboard-response","102","202582","0.0-23.0-0.2","SS1613102914792","","","null","","","","","<p><img src= images/blank.png width =""200"" height = ""200"" style = ""float:right""></p><p><img src=images/blank.png width =""800"" height = ""200""></p>","","","","","","","","","","","",""
"","760.0000000093132","sequential-stimulus-presentation","103","204163","0.0-23.0-1.2","SS1613102914792","trial","","40","800","1560.0000000093132","images/stimuli/spore_stims/simple_19_A_c.gif","images/stimuli/spore_stims/simple_19_B_c.gif","","","","","5","simple_similar","images/stimuli/spore_stims/simple_19_B_c.gif","middle","","","","",""
"","null","html-keyboard-response","104","205173","0.0-23.0-0.3","SS1613102914792","","","null","","","","","<p><img src= images/blank.png width =""200"" height = ""200"" style = ""float:right""></p><p><img src=images/blank.png width =""800"" height = ""200""></p>","","","","","","","","","","","",""
"","347.0000000670552","sequential-stimulus-presentation","105","206347","0.0-23.0-1.3","SS1613102914792","trial","","40","800","1147.0000000670552","images/stimuli/spore_stims/simple_19_A_c.gif","images/stimuli/spore_stims/simple_19_B_c.gif","","","","","5","simple_similar","images/stimuli/spore_stims/simple_19_B_c.gif","middle","","","","",""
"","null","html-keyboard-response","106","207636","0.0-23.0-0.4","SS1613102914792","","","null","","","","","<p><img src= images/blank.png width =""200"" height = ""200"" style = ""float:right""></p><p><img src=images/blank.png width =""800"" height = ""200""></p>","","","","","","","","","","","",""
"","253.00000002607703","sequential-stimulus-presentation","107","208697","0.0-23.0-1.4","SS1613102914792","trial","","40","800","1053.000000026077","images/stimuli/spore_stims/simple_19_A_c.gif","images/stimuli/spore_stims/simple_19_B_c.gif","","","","","5","simple_similar","images/stimuli/spore_stims/simple_19_B_c.gif","middle","","","","",""
"","null","html-keyboard-response","108","209942","0.0-23.0-0.5","SS1613102914792","","","null","","","","","<p><img src= images/blank.png width =""200"" height = ""200"" style = ""float:right""></p><p><img src=images/blank.png width =""800"" height = ""200""></p>","","","","","","","","","","","",""
"","324.00000002235174","sequential-stimulus-presentation","109","211079","0.0-23.0-1.5","SS1613102914792","trial","","40","800","1124.0000000223517","images/stimuli/spore_stims/simple_19_A_c.gif","images/stimuli/spore_stims/simple_19_B_c.gif","","","","","5","simple_similar","images/stimuli/spore_stims/simple_19_B_c.gif","middle","","","","",""
"","null","html-keyboard-response","110","212045","0.0-23.0-0.6","SS1613102914792","","","null","","","","","<p><img src= images/blank.png width =""200"" height = ""200"" style = ""float:right""></p><p><img src=images/blank.png width =""800"" height = ""200""></p>","","","","","","","","","","","",""
"","155.00000002793968","sequential-stimulus-presentation","111","213011","0.0-23.0-1.6","SS1613102914792","trial","","40","800","955.0000000279397","images/stimuli/spore_stims/simple_19_A_c.gif","images/stimuli/spore_stims/simple_19_B_c.gif","","","","","5","simple_similar","images/stimuli/spore_stims/simple_19_B_c.gif","middle","","","","",""
"","null","html-keyboard-response","112","213918","0.0-23.0-0.7","SS1613102914792","","","null","","","","","<p><img src= images/blank.png width =""200"" height = ""200"" style = ""float:right""></p><p><img src=images/blank.png width =""800"" height = ""200""></p>","","","","","","","","","","","",""
"","67.00000003911555","sequential-stimulus-presentation","113","214794","0.0-23.0-1.7","SS1613102914792","trial","","40","800","867.0000000391155","images/stimuli/spore_stims/simple_19_A_c.gif","images/stimuli/spore_stims/simple_19_B_c.gif","","","","","5","simple_similar","images/stimuli/spore_stims/simple_19_A_c.gif","left","","","","",""
"","4068.99999990128","html-keyboard-response","114","218880","0.0-24.0","SS1613102914792","pref_question","","50","","","","","<video width ='960' height = '540' style='padding-top:8%' autoplay muted><source src='images/stimuli/wall_pref.mp4' type='video/mp4'></video>","2","middle","45%","5","","","","","","","",""
"","4413.000000175089","sequential-stimulus-presentation","115","224113","0.0-25.0","SS1613102914792","pref_reveal","","40","800","5213.000000175089","null","null","","","","","5","","","","background","","","",""
"","null","html-keyboard-response","116","224932","0.0-26.0-0.0","SS1613102914792","","","null","","","","","<p><img src= images/blank.png width =""200"" height = ""200"" style = ""float:right""></p><p><img src=images/blank.png width =""800"" height = ""200""></p>","","","","","","","","","","","",""
"","1136.000000173226","sequential-stimulus-presentation","117","226888","0.0-26.0-1.0","SS1613102914792","trial","","40","800","1936.000000173226","images/stimuli/spore_stims/simple_18_A_a.gif","images/stimuli/spore_stims/simple_18_B_a.gif","","","","","6","simple_similar","images/stimuli/spore_stims/simple_18_B_a.gif","left","","","","",""
"","null","html-keyboard-response","118","228137","0.0-26.0-0.1","SS1613102914792","","","null","","","","","<p><img src= images/blank.png width =""200"" height = ""200"" style = ""float:right""></p><p><img src=images/blank.png width =""800"" height = ""200""></p>","","","","","","","","","","","",""
"","112.00000019744039","sequential-stimulus-presentation","119","229063","0.0-26.0-1.1","SS1613102914792","trial","","40","800","912.0000001974404","images/stimuli/spore_stims/simple_18_A_a.gif","images/stimuli/spore_stims/simple_18_B_a.gif","","","","","6","simple_similar","images/stimuli/spore_stims/simple_18_B_a.gif","left","","","","",""
"","null","html-keyboard-response","120","230236","0.0-26.0-0.2","SS1613102914792","","","null","","","","","<p><img src= images/blank.png width =""200"" height = ""200"" style = ""float:right""></p><p><img src=images/blank.png width =""800"" height = ""200""></p>","","","","","","","","","","","",""
"","1016.9999999925494","sequential-stimulus-presentation","121","232081","0.0-26.0-1.2","SS1613102914792","trial","","40","800","1816.9999999925494","images/stimuli/spore_stims/simple_18_A_a.gif","images/stimuli/spore_stims/simple_18_B_a.gif","","","","","6","simple_similar","images/stimuli/spore_stims/simple_18_B_a.gif","left","","","","",""
"","null","html-keyboard-response","122","232997","0.0-26.0-0.3","SS1613102914792","","","null","","","","","<p><img src= images/blank.png width =""200"" height = ""200"" style = ""float:right""></p><p><img src=images/blank.png width =""800"" height = ""200""></p>","","","","","","","","","","","",""
"","425.99999997764826","sequential-stimulus-presentation","123","234233","0.0-26.0-1.3","SS1613102914792","trial","","40","800","1225.9999999776483","images/stimuli/spore_stims/simple_18_A_a.gif","images/stimuli/spore_stims/simple_18_B_a.gif","","","","","6","simple_similar","images/stimuli/spore_stims/simple_18_B_a.gif","left","","","","",""
"","null","html-keyboard-response","124","235054","0.0-26.0-0.4","SS1613102914792","","","null","","","","","<p><img src= images/blank.png width =""200"" height = ""200"" style = ""float:right""></p><p><img src=images/blank.png width =""800"" height = ""200""></p>","","","","","","","","","","","",""
"","307.0000000298023","sequential-stimulus-presentation","125","236178","0.0-26.0-1.4","SS1613102914792","trial","","40","800","1107.0000000298023","images/stimuli/spore_stims/simple_18_A_a.gif","images/stimuli/spore_stims/simple_18_B_a.gif","","","","","6","simple_similar","images/stimuli/spore_stims/simple_18_A_a.gif","right","","","","",""
"","null","html-keyboard-response","126","237114","0.0-26.0-0.5","SS1613102914792","","","null","","","","","<p><img src= images/blank.png width =""200"" height = ""200"" style = ""float:right""></p><p><img src=images/blank.png width =""800"" height = ""200""></p>","","","","","","","","","","","",""
"","256.9999999832362","sequential-stimulus-presentation","127","238194","0.0-26.0-1.5","SS1613102914792","trial","","40","800","1056.9999999832362","images/stimuli/spore_stims/simple_18_A_a.gif","images/stimuli/spore_stims/simple_18_B_a.gif","","","","","6","simple_similar","images/stimuli/spore_stims/simple_18_B_a.gif","left","","","","",""
"","null","html-keyboard-response","128","239430","0.0-26.0-0.6","SS1613102914792","","","null","","","","","<p><img src= images/blank.png width =""200"" height = ""200"" style = ""float:right""></p><p><img src=images/blank.png width =""800"" height = ""200""></p>","","","","","","","","","","","",""
"","973.9999999292195","sequential-stimulus-presentation","129","241225","0.0-26.0-1.6","SS1613102914792","trial","","40","800","1773.9999999292195","images/stimuli/spore_stims/simple_18_A_a.gif","images/stimuli/spore_stims/simple_18_B_a.gif","","","","","6","simple_similar","images/stimuli/spore_stims/simple_18_B_a.gif","left","","","","",""
"","null","html-keyboard-response","130","242468","0.0-26.0-0.7","SS1613102914792","","","null","","","","","<p><img src= images/blank.png width =""200"" height = ""200"" style = ""float:right""></p><p><img src=images/blank.png width =""800"" height = ""200""></p>","","","","","","","","","","","",""
"","186.9999999180436","sequential-stimulus-presentation","131","243473","0.0-26.0-1.7","SS1613102914792","trial","","40","800","986.9999999180436","images/stimuli/spore_stims/simple_18_A_a.gif","images/stimuli/spore_stims/simple_18_B_a.gif","","","","","6","simple_similar","images/stimuli/spore_stims/simple_18_B_a.gif","left","","","","",""
"","2568.0000002030283","html-keyboard-response","132","246098","0.0-27.0","SS1613102914792","pref_question","","49","","","","","<video width ='960' height = '540' style='padding-top:8%' autoplay muted><source src='images/stimuli/wall_pref.mp4' type='video/mp4'></video>","1","left","25%","6","","","","","","","",""
"","404.00000009685755","sequential-stimulus-presentation","133","247313","0.0-28.0","SS1613102914792","pref_reveal","","40","800","1204.0000000968575","null","null","","","","","6","","","","background","","","",""
"","null","html-keyboard-response","134","248156","0.0-29.0-0.0","SS1613102914792","","","null","","","","","<p><img src= images/blank.png width =""200"" height = ""200"" style = ""float:right""></p><p><img src=images/blank.png width =""800"" height = ""200""></p>","","","","","","","","","","","",""
"","416.99999989941716","sequential-stimulus-presentation","135","249387","0.0-29.0-1.0","SS1613102914792","trial","","40","800","1216.9999998994172","images/stimuli/spore_stims/simple_08_A_a.gif","images/stimuli/spore_stims/simple_08_B_a.gif","","","","","7","simple_similar","images/stimuli/spore_stims/simple_08_B_a.gif","middle","","","","",""
"","null","html-keyboard-response","136","250367","0.0-29.0-0.1","SS1613102914792","","","null","","","","","<p><img src= images/blank.png width =""200"" height = ""200"" style = ""float:right""></p><p><img src=images/blank.png width =""800"" height = ""200""></p>","","","","","","","","","","","",""
"","1416.9999998994172","sequential-stimulus-presentation","137","252610","0.0-29.0-1.1","SS1613102914792","trial","","40","800","2216.999999899417","images/stimuli/spore_stims/simple_08_A_a.gif","images/stimuli/spore_stims/simple_08_B_a.gif","","","","","7","simple_similar","images/stimuli/spore_stims/simple_08_B_a.gif","middle","","","","",""
"","null","html-keyboard-response","138","253683","0.0-29.0-0.2","SS1613102914792","","","null","","","","","<p><img src= images/blank.png width =""200"" height = ""200"" style = ""float:right""></p><p><img src=images/blank.png width =""800"" height = ""200""></p>","","","","","","","","","","","",""
"","135.99999994039536","sequential-stimulus-presentation","139","254640","0.0-29.0-1.2","SS1613102914792","trial","","40","800","935.9999999403954","images/stimuli/spore_stims/simple_08_A_a.gif","images/stimuli/spore_stims/simple_08_B_a.gif","","","","","7","simple_similar","images/stimuli/spore_stims/simple_08_B_a.gif","middle","","","","",""
"","null","html-keyboard-response","140","255584","0.0-29.0-0.3","SS1613102914792","","","null","","","","","<p><img src= images/blank.png width =""200"" height = ""200"" style = ""float:right""></p><p><img src=images/blank.png width =""800"" height = ""200""></p>","","","","","","","","","","","",""
"","503.99999995715916","sequential-stimulus-presentation","141","256921","0.0-29.0-1.3","SS1613102914792","trial","","40","800","1303.9999999571592","images/stimuli/spore_stims/simple_08_A_a.gif","images/stimuli/spore_stims/simple_08_B_a.gif","","","","","7","simple_similar","images/stimuli/spore_stims/simple_08_B_a.gif","middle","","","","",""
"","null","html-keyboard-response","142","258062","0.0-29.0-0.4","SS1613102914792","","","null","","","","","<p><img src= images/blank.png width =""200"" height = ""200"" style = ""float:right""></p><p><img src=images/blank.png width =""800"" height = ""200""></p>","","","","","","","","","","","",""
"","110.99999980069697","sequential-stimulus-presentation","143","258985","0.0-29.0-1.4","SS1613102914792","trial","","40","800","910.999999800697","images/stimuli/spore_stims/simple_08_A_a.gif","images/stimuli/spore_stims/simple_08_B_a.gif","","","","","7","simple_similar","images/stimuli/spore_stims/simple_08_B_a.gif","middle","","","","",""
"","null","html-keyboard-response","144","260128","0.0-29.0-0.5","SS1613102914792","","","null","","","","","<p><img src= images/blank.png width =""200"" height = ""200"" style = ""float:right""></p><p><img src=images/blank.png width =""800"" height = ""200""></p>","","","","","","","","","","","",""
"","175.99999997764826","sequential-stimulus-presentation","145","261132","0.0-29.0-1.5","SS1613102914792","trial","","40","800","975.9999999776483","images/stimuli/spore_stims/simple_08_A_a.gif","images/stimuli/spore_stims/simple_08_B_a.gif","","","","","7","simple_similar","images/stimuli/spore_stims/simple_08_A_a.gif","left","","","","",""
"","null","html-keyboard-response","146","262284","0.0-29.0-0.6","SS1613102914792","","","null","","","","","<p><img src= images/blank.png width =""200"" height = ""200"" style = ""float:right""></p><p><img src=images/blank.png width =""800"" height = ""200""></p>","","","","","","","","","","","",""
"","179.0000000037253","sequential-stimulus-presentation","147","263303","0.0-29.0-1.6","SS1613102914792","trial","","40","800","979.0000000037253","images/stimuli/spore_stims/simple_08_A_a.gif","images/stimuli/spore_stims/simple_08_B_a.gif","","","","","7","simple_similar","images/stimuli/spore_stims/simple_08_B_a.gif","middle","","","","",""
"","null","html-keyboard-response","148","264354","0.0-29.0-0.7","SS1613102914792","","","null","","","","","<p><img src= images/blank.png width =""200"" height = ""200"" style = ""float:right""></p><p><img src=images/blank.png width =""800"" height = ""200""></p>","","","","","","","","","","","",""
"","131.00000005215406","sequential-stimulus-presentation","149","265299","0.0-29.0-1.7","SS1613102914792","trial","","40","800","931.0000000521541","images/stimuli/spore_stims/simple_08_A_a.gif","images/stimuli/spore_stims/simple_08_B_a.gif","","","","","7","simple_similar","images/stimuli/spore_stims/simple_08_B_a.gif","middle","","","","",""
"","2381.000000052154","html-keyboard-response","150","267690","0.0-30.0","SS1613102914792","pref_question","","51","","","","","<video width ='960' height = '540' style='padding-top:8%' autoplay muted><source src='images/stimuli/wall_pref.mp4' type='video/mp4'></video>","3","right","66%","7","","","","","","","",""
"","988.999999826774","sequential-stimulus-presentation","151","269498","0.0-31.0","SS1613102914792","pref_reveal","","40","800","1788.999999826774","null","null","","","","","7","","","","novel","","","",""
"","null","html-keyboard-response","152","270463","0.0-32.0-0.0","SS1613102914792","","","null","","","","","<p><img src= images/blank.png width =""200"" height = ""200"" style = ""float:right""></p><p><img src=images/blank.png width =""800"" height = ""200""></p>","","","","","","","","","","","",""
"","222.99999999813735","sequential-stimulus-presentation","153","271508","0.0-32.0-1.0","SS1613102914792","trial","","40","800","1022.9999999981374","images/stimuli/spore_stims/complex_20_B_c.gif","images/stimuli/spore_stims/complex_20_A_c.gif","","","","","8","complex_similar","images/stimuli/spore_stims/complex_20_A_c.gif","middle","","","","",""
"","null","html-keyboard-response","154","272450","0.0-32.0-0.1","SS1613102914792","","","null","","","","","<p><img src= images/blank.png width =""200"" height = ""200"" style = ""float:right""></p><p><img src=images/blank.png width =""800"" height = ""200""></p>","","","","","","","","","","","",""
"","347.0000000670552","sequential-stimulus-presentation","155","273636","0.0-32.0-1.1","SS1613102914792","trial","","40","800","1147.0000000670552","images/stimuli/spore_stims/complex_20_B_c.gif","images/stimuli/spore_stims/complex_20_A_c.gif","","","","","8","complex_similar","images/stimuli/spore_stims/complex_20_A_c.gif","middle","","","","",""
"","null","html-keyboard-response","156","274816","0.0-32.0-0.2","SS1613102914792","","","null","","","","","<p><img src= images/blank.png width =""200"" height = ""200"" style = ""float:right""></p><p><img src=images/blank.png width =""800"" height = ""200""></p>","","","","","","","","","","","",""
"","625.9999999310821","sequential-stimulus-presentation","157","276256","0.0-32.0-1.2","SS1613102914792","trial","","40","800","1425.9999999310821","images/stimuli/spore_stims/complex_20_B_c.gif","images/stimuli/spore_stims/complex_20_A_c.gif","","","","","8","complex_similar","images/stimuli/spore_stims/complex_20_A_c.gif","middle","","","","",""
"","null","html-keyboard-response","158","277514","0.0-32.0-0.3","SS1613102914792","","","null","","","","","<p><img src= images/blank.png width =""200"" height = ""200"" style = ""float:right""></p><p><img src=images/blank.png width =""800"" height = ""200""></p>","","","","","","","","","","","",""
"","418.99999999441206","sequential-stimulus-presentation","159","278744","0.0-32.0-1.3","SS1613102914792","trial","","40","800","1218.999999994412","images/stimuli/spore_stims/complex_20_B_c.gif","images/stimuli/spore_stims/complex_20_A_c.gif","","","","","8","complex_similar","images/stimuli/spore_stims/complex_20_B_c.gif","left","","","","",""
"","null","html-keyboard-response","160","279969","0.0-32.0-0.4","SS1613102914792","","","null","","","","","<p><img src= images/blank.png width =""200"" height = ""200"" style = ""float:right""></p><p><img src=images/blank.png width =""800"" height = ""200""></p>","","","","","","","","","","","",""
"","120.9999998100102","sequential-stimulus-presentation","161","280904","0.0-32.0-1.4","SS1613102914792","trial","","40","800","920.9999998100102","images/stimuli/spore_stims/complex_20_B_c.gif","images/stimuli/spore_stims/complex_20_A_c.gif","","","","","8","complex_similar","images/stimuli/spore_stims/complex_20_A_c.gif","middle","","","","",""
"","null","html-keyboard-response","162","282041","0.0-32.0-0.5","SS1613102914792","","","null","","","","","<p><img src= images/blank.png width =""200"" height = ""200"" style = ""float:right""></p><p><img src=images/blank.png width =""800"" height = ""200""></p>","","","","","","","","","","","",""
"","743.0000000167638","sequential-stimulus-presentation","163","283620","0.0-32.0-1.5","SS1613102914792","trial","","40","800","1543.0000000167638","images/stimuli/spore_stims/complex_20_B_c.gif","images/stimuli/spore_stims/complex_20_A_c.gif","","","","","8","complex_similar","images/stimuli/spore_stims/complex_20_A_c.gif","middle","","","","",""
"","null","html-keyboard-response","164","284806","0.0-32.0-0.6","SS1613102914792","","","null","","","","","<p><img src= images/blank.png width =""200"" height = ""200"" style = ""float:right""></p><p><img src=images/blank.png width =""800"" height = ""200""></p>","","","","","","","","","","","",""
"","2824.0000000223517","sequential-stimulus-presentation","165","288455","0.0-32.0-1.6","SS1613102914792","trial","","40","800","3624.0000000223517","images/stimuli/spore_stims/complex_20_B_c.gif","images/stimuli/spore_stims/complex_20_A_c.gif","","","","","8","complex_similar","images/stimuli/spore_stims/complex_20_A_c.gif","middle","","","","",""
"","null","html-keyboard-response","166","289589","0.0-32.0-0.7","SS1613102914792","","","null","","","","","<p><img src= images/blank.png width =""200"" height = ""200"" style = ""float:right""></p><p><img src=images/blank.png width =""800"" height = ""200""></p>","","","","","","","","","","","",""
"","820.0000000651926","sequential-stimulus-presentation","167","291224","0.0-32.0-1.7","SS1613102914792","trial","","40","800","1620.0000000651926","images/stimuli/spore_stims/complex_20_B_c.gif","images/stimuli/spore_stims/complex_20_A_c.gif","","","","","8","complex_similar","images/stimuli/spore_stims/complex_20_A_c.gif","middle","","","","",""
"","3081.99999993667","html-keyboard-response","168","294327","0.0-33.0","SS1613102914792","pref_question","","49","","","","","<video width ='960' height = '540' style='padding-top:8%' autoplay muted><source src='images/stimuli/wall_pref.mp4' type='video/mp4'></video>","1","left","25%","8","","","","","","","",""
"","950.0000001862645","sequential-stimulus-presentation","169","296091","0.0-34.0","SS1613102914792","pref_reveal","","40","800","1750.0000001862645","null","null","","","","","8","","","","deviant","","","",""
"","null","html-keyboard-response","170","297008","0.0-35.0-0.0","SS1613102914792","","","null","","","","","<p><img src= images/blank.png width =""200"" height = ""200"" style = ""float:right""></p><p><img src=images/blank.png width =""800"" height = ""200""></p>","","","","","","","","","","","",""
"","3465.000000083819","sequential-stimulus-presentation","171","301285","0.0-35.0-1.0","SS1613102914792","trial","","40","800","4265.000000083819","images/stimuli/spore_stims/simple_05_B_a.gif","images/stimuli/spore_stims/simple_05_A_a.gif","","","","","9","simple_similar","images/stimuli/spore_stims/simple_05_A_a.gif","middle","","","","",""
"","null","html-keyboard-response","172","302274","0.0-35.0-0.1","SS1613102914792","","","null","","","","","<p><img src= images/blank.png width =""200"" height = ""200"" style = ""float:right""></p><p><img src=images/blank.png width =""800"" height = ""200""></p>","","","","","","","","","","","",""
"","1624.0000000689179","sequential-stimulus-presentation","173","304722","0.0-35.0-1.1","SS1613102914792","trial","","40","800","2424.000000068918","images/stimuli/spore_stims/simple_05_B_a.gif","images/stimuli/spore_stims/simple_05_A_a.gif","","","","","9","simple_similar","images/stimuli/spore_stims/simple_05_A_a.gif","middle","","","","",""
"","null","html-keyboard-response","174","305608","0.0-35.0-0.2","SS1613102914792","","","null","","","","","<p><img src= images/blank.png width =""200"" height = ""200"" style = ""float:right""></p><p><img src=images/blank.png width =""800"" height = ""200""></p>","","","","","","","","","","","",""
"","267.99999992363155","sequential-stimulus-presentation","175","306687","0.0-35.0-1.2","SS1613102914792","trial","","40","800","1067.9999999236315","images/stimuli/spore_stims/simple_05_B_a.gif","images/stimuli/spore_stims/simple_05_A_a.gif","","","","","9","simple_similar","images/stimuli/spore_stims/simple_05_A_a.gif","middle","","","","",""
"","null","html-keyboard-response","176","307685","0.0-35.0-0.3","SS1613102914792","","","null","","","","","<p><img src= images/blank.png width =""200"" height = ""200"" style = ""float:right""></p><p><img src=images/blank.png width =""800"" height = ""200""></p>","","","","","","","","","","","",""
"","690.9999998752028","sequential-stimulus-presentation","177","309229","0.0-35.0-1.3","SS1613102914792","trial","","40","800","1490.9999998752028","images/stimuli/spore_stims/simple_05_B_a.gif","images/stimuli/spore_stims/simple_05_A_a.gif","","","","","9","simple_similar","images/stimuli/spore_stims/simple_05_A_a.gif","middle","","","","",""
"","null","html-keyboard-response","178","310168","0.0-35.0-0.4","SS1613102914792","","","null","","","","","<p><img src= images/blank.png width =""200"" height = ""200"" style = ""float:right""></p><p><img src=images/blank.png width =""800"" height = ""200""></p>","","","","","","","","","","","",""
"","489.9999999906868","sequential-stimulus-presentation","179","311474","0.0-35.0-1.4","SS1613102914792","trial","","40","800","1289.9999999906868","images/stimuli/spore_stims/simple_05_B_a.gif","images/stimuli/spore_stims/simple_05_A_a.gif","","","","","9","simple_similar","images/stimuli/spore_stims/simple_05_B_a.gif","left","","","","",""
"","null","html-keyboard-response","180","312611","0.0-35.0-0.5","SS1613102914792","","","null","","","","","<p><img src= images/blank.png width =""200"" height = ""200"" style = ""float:right""></p><p><img src=images/blank.png width =""800"" height = ""200""></p>","","","","","","","","","","","",""
"","104.99999998137355","sequential-stimulus-presentation","181","313546","0.0-35.0-1.5","SS1613102914792","trial","","40","800","904.9999999813735","images/stimuli/spore_stims/simple_05_B_a.gif","images/stimuli/spore_stims/simple_05_A_a.gif","","","","","9","simple_similar","images/stimuli/spore_stims/simple_05_A_a.gif","middle","","","","",""
"","null","html-keyboard-response","182","314552","0.0-35.0-0.6","SS1613102914792","","","null","","","","","<p><img src= images/blank.png width =""200"" height = ""200"" style = ""float:right""></p><p><img src=images/blank.png width =""800"" height = ""200""></p>","","","","","","","","","","","",""
"","1662.999999942258","sequential-stimulus-presentation","183","317048","0.0-35.0-1.6","SS1613102914792","trial","","40","800","2462.999999942258","images/stimuli/spore_stims/simple_05_B_a.gif","images/stimuli/spore_stims/simple_05_A_a.gif","","","","","9","simple_similar","images/stimuli/spore_stims/simple_05_A_a.gif","middle","","","","",""
"","null","html-keyboard-response","184","318216","0.0-35.0-0.7","SS1613102914792","","","null","","","","","<p><img src= images/blank.png width =""200"" height = ""200"" style = ""float:right""></p><p><img src=images/blank.png width =""800"" height = ""200""></p>","","","","","","","","","","","",""
"","1065.0000001769513","sequential-stimulus-presentation","185","320095","0.0-35.0-1.7","SS1613102914792","trial","","40","800","1865.0000001769513","images/stimuli/spore_stims/simple_05_B_a.gif","images/stimuli/spore_stims/simple_05_A_a.gif","","","","","9","simple_similar","images/stimuli/spore_stims/simple_05_A_a.gif","middle","","","","",""
"","2347.9999999981374","html-keyboard-response","186","322460","0.0-36.0","SS1613102914792","pref_question","","51","","","","","<video width ='960' height = '540' style='padding-top:8%' autoplay muted><source src='images/stimuli/wall_pref.mp4' type='video/mp4'></video>","3","right","66%","9","","","","","","","",""
"","749.0000000689179","sequential-stimulus-presentation","187","324029","0.0-37.0","SS1613102914792","pref_reveal","","40","800","1549.0000000689179","null","null","","","","","9","","","","novel","","","",""
"","null","html-keyboard-response","188","324863","0.0-38.0-0.0","SS1613102914792","","","null","","","","","<p><img src= images/blank.png width =""200"" height = ""200"" style = ""float:right""></p><p><img src=images/blank.png width =""800"" height = ""200""></p>","","","","","","","","","","","",""
"","674.000000115484","sequential-stimulus-presentation","189","326360","0.0-38.0-1.0","SS1613102914792","trial","","40","800","1474.000000115484","images/stimuli/spore_stims/complex_10_B_c.gif","images/stimuli/spore_stims/complex_03_B_a.gif","","","","","10","complex_dissimilar","images/stimuli/spore_stims/complex_03_B_a.gif","middle","","","","",""
"","null","html-keyboard-response","190","327232","0.0-38.0-0.1","SS1613102914792","","","null","","","","","<p><img src= images/blank.png width =""200"" height = ""200"" style = ""float:right""></p><p><img src=images/blank.png width =""800"" height = ""200""></p>","","","","","","","","","","","",""
"","288.00000017508864","sequential-stimulus-presentation","191","328331","0.0-38.0-1.1","SS1613102914792","trial","","40","800","1088.0000001750886","images/stimuli/spore_stims/complex_10_B_c.gif","images/stimuli/spore_stims/complex_03_B_a.gif","","","","","10","complex_dissimilar","images/stimuli/spore_stims/complex_03_B_a.gif","middle","","","","",""
"","null","html-keyboard-response","192","329262","0.0-38.0-0.2","SS1613102914792","","","null","","","","","<p><img src= images/blank.png width =""200"" height = ""200"" style = ""float:right""></p><p><img src=images/blank.png width =""800"" height = ""200""></p>","","","","","","","","","","","",""
"","689.0000000130385","sequential-stimulus-presentation","193","330763","0.0-38.0-1.2","SS1613102914792","trial","","40","800","1489.0000000130385","images/stimuli/spore_stims/complex_10_B_c.gif","images/stimuli/spore_stims/complex_03_B_a.gif","","","","","10","complex_dissimilar","images/stimuli/spore_stims/complex_03_B_a.gif","middle","","","","",""
"","null","html-keyboard-response","194","331745","0.0-38.0-0.3","SS1613102914792","","","null","","","","","<p><img src= images/blank.png width =""200"" height = ""200"" style = ""float:right""></p><p><img src=images/blank.png width =""800"" height = ""200""></p>","","","","","","","","","","","",""
"","766.9999999925494","sequential-stimulus-presentation","195","333331","0.0-38.0-1.3","SS1613102914792","trial","","40","800","1566.9999999925494","images/stimuli/spore_stims/complex_10_B_c.gif","images/stimuli/spore_stims/complex_03_B_a.gif","","","","","10","complex_dissimilar","images/stimuli/spore_stims/complex_03_B_a.gif","middle","","","","",""
"","null","html-keyboard-response","196","334199","0.0-38.0-0.4","SS1613102914792","","","null","","","","","<p><img src= images/blank.png width =""200"" height = ""200"" style = ""float:right""></p><p><img src=images/blank.png width =""800"" height = ""200""></p>","","","","","","","","","","","",""
"","1246.0000000428408","sequential-stimulus-presentation","197","336260","0.0-38.0-1.4","SS1613102914792","trial","","40","800","2046.0000000428408","images/stimuli/spore_stims/complex_10_B_c.gif","images/stimuli/spore_stims/complex_03_B_a.gif","","","","","10","complex_dissimilar","images/stimuli/spore_stims/complex_03_B_a.gif","middle","","","","",""
"","null","html-keyboard-response","198","337558","0.0-38.0-0.5","SS1613102914792","","","null","","","","","<p><img src= images/blank.png width =""200"" height = ""200"" style = ""float:right""></p><p><img src=images/blank.png width =""800"" height = ""200""></p>","","","","","","","","","","","",""
"","597.9999999981374","sequential-stimulus-presentation","199","338968","0.0-38.0-1.5","SS1613102914792","trial","","40","800","1397.9999999981374","images/stimuli/spore_stims/complex_10_B_c.gif","images/stimuli/spore_stims/complex_03_B_a.gif","","","","","10","complex_dissimilar","images/stimuli/spore_stims/complex_03_B_a.gif","middle","","","","",""
"","null","html-keyboard-response","200","340100","0.0-38.0-0.6","SS1613102914792","","","null","","","","","<p><img src= images/blank.png width =""200"" height = ""200"" style = ""float:right""></p><p><img src=images/blank.png width =""800"" height = ""200""></p>","","","","","","","","","","","",""
"","388.00000003539026","sequential-stimulus-presentation","201","341300","0.0-38.0-1.6","SS1613102914792","trial","","40","800","1188.0000000353903","images/stimuli/spore_stims/complex_10_B_c.gif","images/stimuli/spore_stims/complex_03_B_a.gif","","","","","10","complex_dissimilar","images/stimuli/spore_stims/complex_10_B_c.gif","left","","","","",""
"","null","html-keyboard-response","202","342327","0.0-38.0-0.7","SS1613102914792","","","null","","","","","<p><img src= images/blank.png width =""200"" height = ""200"" style = ""float:right""></p><p><img src=images/blank.png width =""800"" height = ""200""></p>","","","","","","","","","","","",""
"","215.00000008381903","sequential-stimulus-presentation","203","343355","0.0-38.0-1.7","SS1613102914792","trial","","40","800","1015.000000083819","images/stimuli/spore_stims/complex_10_B_c.gif","images/stimuli/spore_stims/complex_03_B_a.gif","","","","","10","complex_dissimilar","images/stimuli/spore_stims/complex_03_B_a.gif","middle","","","","",""
"","4579.000000143424","html-keyboard-response","204","347950","0.0-39.0","SS1613102914792","pref_question","","51","","","","","<video width ='960' height = '540' style='padding-top:8%' autoplay muted><source src='images/stimuli/wall_pref.mp4' type='video/mp4'></video>","3","right","66%","10","","","","","","","",""
"","139.99999989755452","sequential-stimulus-presentation","205","348903","0.0-40.0","SS1613102914792","pref_reveal","","40","800","939.9999998975545","null","null","","","","","10","","","","novel","","","",""
"","null","html-keyboard-response","206","350096","0.0-41.0-0.0","SS1613102914792","","","null","","","","","<p><img src= images/blank.png width =""200"" height = ""200"" style = ""float:right""></p><p><img src=images/blank.png width =""800"" height = ""200""></p>","","","","","","","","","","","",""
"","135.00000000931323","sequential-stimulus-presentation","207","351049","0.0-41.0-1.0","SS1613102914792","trial","","40","800","935.0000000093132","images/stimuli/spore_stims/simple_15_A_a.gif","images/stimuli/spore_stims/simple_04_B_b.gif","","","","","11","simple_dissimilar","images/stimuli/spore_stims/simple_04_B_b.gif","middle","","","","",""
"","null","html-keyboard-response","208","352269","0.0-41.0-0.1","SS1613102914792","","","null","","","","","<p><img src= images/blank.png width =""200"" height = ""200"" style = ""float:right""></p><p><img src=images/blank.png width =""800"" height = ""200""></p>","","","","","","","","","","","",""
"","542.9999998304993","sequential-stimulus-presentation","209","353633","0.0-41.0-1.1","SS1613102914792","trial","","40","800","1342.9999998304993","images/stimuli/spore_stims/simple_15_A_a.gif","images/stimuli/spore_stims/simple_04_B_b.gif","","","","","11","simple_dissimilar","images/stimuli/spore_stims/simple_04_B_b.gif","middle","","","","",""
"","null","html-keyboard-response","210","354471","0.0-41.0-0.2","SS1613102914792","","","null","","","","","<p><img src= images/blank.png width =""200"" height = ""200"" style = ""float:right""></p><p><img src=images/blank.png width =""800"" height = ""200""></p>","","","","","","","","","","","",""
"","1939.0000000130385","sequential-stimulus-presentation","211","357224","0.0-41.0-1.2","SS1613102914792","trial","","40","800","2739.0000000130385","images/stimuli/spore_stims/simple_15_A_a.gif","images/stimuli/spore_stims/simple_04_B_b.gif","","","","","11","simple_dissimilar","images/stimuli/spore_stims/simple_04_B_b.gif","middle","","","","",""
"","null","html-keyboard-response","212","358139","0.0-41.0-0.3","SS1613102914792","","","null","","","","","<p><img src= images/blank.png width =""200"" height = ""200"" style = ""float:right""></p><p><img src=images/blank.png width =""800"" height = ""200""></p>","","","","","","","","","","","",""
"","1023.9999999757856","sequential-stimulus-presentation","213","359997","0.0-41.0-1.3","SS1613102914792","trial","","40","800","1823.9999999757856","images/stimuli/spore_stims/simple_15_A_a.gif","images/stimuli/spore_stims/simple_04_B_b.gif","","","","","11","simple_dissimilar","images/stimuli/spore_stims/simple_04_B_b.gif","middle","","","","",""
"","null","html-keyboard-response","214","361107","0.0-41.0-0.4","SS1613102914792","","","null","","","","","<p><img src= images/blank.png width =""200"" height = ""200"" style = ""float:right""></p><p><img src=images/blank.png width =""800"" height = ""200""></p>","","","","","","","","","","","",""
"","16.99999999254942","sequential-stimulus-presentation","215","361935","0.0-41.0-1.4","SS1613102914792","trial","","40","800","816.9999999925494","images/stimuli/spore_stims/simple_15_A_a.gif","images/stimuli/spore_stims/simple_04_B_b.gif","","","","","11","simple_dissimilar","images/stimuli/spore_stims/simple_04_B_b.gif","middle","","","","",""
"","null","html-keyboard-response","216","362862","0.0-41.0-0.5","SS1613102914792","","","null","","","","","<p><img src= images/blank.png width =""200"" height = ""200"" style = ""float:right""></p><p><img src=images/blank.png width =""800"" height = ""200""></p>","","","","","","","","","","","",""
"","50.99999997764826","sequential-stimulus-presentation","217","363733","0.0-41.0-1.5","SS1613102914792","trial","","40","800","850.9999999776483","images/stimuli/spore_stims/simple_15_A_a.gif","images/stimuli/spore_stims/simple_04_B_b.gif","","","","","11","simple_dissimilar","images/stimuli/spore_stims/simple_04_B_b.gif","middle","","","","",""
"","null","html-keyboard-response","218","364667","0.0-41.0-0.6","SS1613102914792","","","null","","","","","<p><img src= images/blank.png width =""200"" height = ""200"" style = ""float:right""></p><p><img src=images/blank.png width =""800"" height = ""200""></p>","","","","","","","","","","","",""
"","1159.999999916181","sequential-stimulus-presentation","219","366658","0.0-41.0-1.6","SS1613102914792","trial","","40","800","1959.999999916181","images/stimuli/spore_stims/simple_15_A_a.gif","images/stimuli/spore_stims/simple_04_B_b.gif","","","","","11","simple_dissimilar","images/stimuli/spore_stims/simple_04_B_b.gif","middle","","","","",""
"","null","html-keyboard-response","220","367598","0.0-41.0-0.7","SS1613102914792","","","null","","","","","<p><img src= images/blank.png width =""200"" height = ""200"" style = ""float:right""></p><p><img src=images/blank.png width =""800"" height = ""200""></p>","","","","","","","","","","","",""
"","544.9999999254942","sequential-stimulus-presentation","221","368957","0.0-41.0-1.7","SS1613102914792","trial","","40","800","1344.9999999254942","images/stimuli/spore_stims/simple_15_A_a.gif","images/stimuli/spore_stims/simple_04_B_b.gif","","","","","11","simple_dissimilar","images/stimuli/spore_stims/simple_15_A_a.gif","right","","","","",""
"","1910.0000001490116","html-keyboard-response","222","370879","0.0-42.0","SS1613102914792","pref_question","","49","","","","","<video width ='960' height = '540' style='padding-top:8%' autoplay muted><source src='images/stimuli/wall_pref.mp4' type='video/mp4'></video>","1","left","25%","11","","","","","","","",""
"","250","sequential-stimulus-presentation","223","371943","0.0-43.0","SS1613102914792","pref_reveal","","40","800","1050","null","null","","","","","11","","","","novel","","","",""
"","null","html-keyboard-response","224","373145","0.0-44.0-0.0","SS1613102914792","","","null","","","","","<p><img src= images/blank.png width =""200"" height = ""200"" style = ""float:right""></p><p><img src=images/blank.png width =""800"" height = ""200""></p>","","","","","","","","","","","",""
"","288.00000017508864","sequential-stimulus-presentation","225","374249","0.0-44.0-1.0","SS1613102914792","trial","","40","800","1088.0000001750886","images/stimuli/spore_stims/simple_13_A_d.gif","images/stimuli/spore_stims/simple_13_B_d.gif","","","","","12","simple_similar","images/stimuli/spore_stims/simple_13_B_d.gif","middle","","","","",""
"","null","html-keyboard-response","226","375207","0.0-44.0-0.1","SS1613102914792","","","null","","","","","<p><img src= images/blank.png width =""200"" height = ""200"" style = ""float:right""></p><p><img src=images/blank.png width =""800"" height = ""200""></p>","","","","","","","","","","","",""
"","605.9999999124557","sequential-stimulus-presentation","227","376633","0.0-44.0-1.1","SS1613102914792","trial","","40","800","1405.9999999124557","images/stimuli/spore_stims/simple_13_A_d.gif","images/stimuli/spore_stims/simple_13_B_d.gif","","","","","12","simple_similar","images/stimuli/spore_stims/simple_13_B_d.gif","middle","","","","",""
"","null","html-keyboard-response","228","377493","0.0-44.0-0.2","SS1613102914792","","","null","","","","","<p><img src= images/blank.png width =""200"" height = ""200"" style = ""float:right""></p><p><img src=images/blank.png width =""800"" height = ""200""></p>","","","","","","","","","","","",""
"","280.0000000279397","sequential-stimulus-presentation","229","378605","0.0-44.0-1.2","SS1613102914792","trial","","40","800","1080.0000000279397","images/stimuli/spore_stims/simple_13_A_d.gif","images/stimuli/spore_stims/simple_13_B_d.gif","","","","","12","simple_similar","images/stimuli/spore_stims/simple_13_B_d.gif","middle","","","","",""
"","null","html-keyboard-response","230","379765","0.0-44.0-0.3","SS1613102914792","","","null","","","","","<p><img src= images/blank.png width =""200"" height = ""200"" style = ""float:right""></p><p><img src=images/blank.png width =""800"" height = ""200""></p>","","","","","","","","","","","",""
"","373.00000013783574","sequential-stimulus-presentation","231","380949","0.0-44.0-1.3","SS1613102914792","trial","","40","800","1173.0000001378357","images/stimuli/spore_stims/simple_13_A_d.gif","images/stimuli/spore_stims/simple_13_B_d.gif","","","","","12","simple_similar","images/stimuli/spore_stims/simple_13_B_d.gif","middle","","","","",""
"","null","html-keyboard-response","232","381984","0.0-44.0-0.4","SS1613102914792","","","null","","","","","<p><img src= images/blank.png width =""200"" height = ""200"" style = ""float:right""></p><p><img src=images/blank.png width =""800"" height = ""200""></p>","","","","","","","","","","","",""
"","202.00000004842877","sequential-stimulus-presentation","233","383000","0.0-44.0-1.4","SS1613102914792","trial","","40","800","1002.0000000484288","images/stimuli/spore_stims/simple_13_A_d.gif","images/stimuli/spore_stims/simple_13_B_d.gif","","","","","12","simple_similar","images/stimuli/spore_stims/simple_13_B_d.gif","middle","","","","",""
"","null","html-keyboard-response","234","384004","0.0-44.0-0.5","SS1613102914792","","","null","","","","","<p><img src= images/blank.png width =""200"" height = ""200"" style = ""float:right""></p><p><img src=images/blank.png width =""800"" height = ""200""></p>","","","","","","","","","","","",""
"","2216.9999999459833","sequential-stimulus-presentation","235","387046","0.0-44.0-1.5","SS1613102914792","trial","","40","800","3016.9999999459833","images/stimuli/spore_stims/simple_13_A_d.gif","images/stimuli/spore_stims/simple_13_B_d.gif","","","","","12","simple_similar","images/stimuli/spore_stims/simple_13_A_d.gif","left","","","","",""
"","null","html-keyboard-response","236","388188","0.0-44.0-0.6","SS1613102914792","","","null","","","","","<p><img src= images/blank.png width =""200"" height = ""200"" style = ""float:right""></p><p><img src=images/blank.png width =""800"" height = ""200""></p>","","","","","","","","","","","",""
"","353.0000001192093","sequential-stimulus-presentation","237","389357","0.0-44.0-1.6","SS1613102914792","trial","","40","800","1153.0000001192093","images/stimuli/spore_stims/simple_13_A_d.gif","images/stimuli/spore_stims/simple_13_B_d.gif","","","","","12","simple_similar","images/stimuli/spore_stims/simple_13_B_d.gif","middle","","","","",""
"","null","html-keyboard-response","238","390189","0.0-44.0-0.7","SS1613102914792","","","null","","","","","<p><img src= images/blank.png width =""200"" height = ""200"" style = ""float:right""></p><p><img src=images/blank.png width =""800"" height = ""200""></p>","","","","","","","","","","","",""
"","1754.0000001899898","sequential-stimulus-presentation","239","392756","0.0-44.0-1.7","SS1613102914792","trial","","40","800","2554.00000018999","images/stimuli/spore_stims/simple_13_A_d.gif","images/stimuli/spore_stims/simple_13_B_d.gif","","","","","12","simple_similar","images/stimuli/spore_stims/simple_13_B_d.gif","middle","","","","",""
"","1905.9999999590218","html-keyboard-response","240","394674","0.0-45.0","SS1613102914792","pref_question","","51","","","","","<video width ='960' height = '540' style='padding-top:8%' autoplay muted><source src='images/stimuli/wall_pref.mp4' type='video/mp4'></video>","3","right","66%","12","","","","","","","",""
"","1142.9999999236315","sequential-stimulus-presentation","241","396630","0.0-46.0","SS1613102914792","pref_reveal","","40","800","1942.9999999236315","null","null","","","","","12","","","","novel","","","",""
"","null","html-keyboard-response","242","397484","0.0-47.0-0.0","SS1613102914792","","","null","","","","","<p><img src= images/blank.png width =""200"" height = ""200"" style = ""float:right""></p><p><img src=images/blank.png width =""800"" height = ""200""></p>","","","","","","","","","","","",""
"","2396.9999998807907","sequential-stimulus-presentation","243","400699","0.0-47.0-1.0","SS1613102914792","trial","","40","800","3196.9999998807907","images/stimuli/spore_stims/complex_15_A_a.gif","images/stimuli/spore_stims/complex_15_B_a.gif","","","","","13","complex_similar","images/stimuli/spore_stims/complex_15_B_a.gif","middle","","","","",""
"","null","html-keyboard-response","244","401519","0.0-47.0-0.1","SS1613102914792","","","null","","","","","<p><img src= images/blank.png width =""200"" height = ""200"" style = ""float:right""></p><p><img src=images/blank.png width =""800"" height = ""200""></p>","","","","","","","","","","","",""
"","683.9999998919666","sequential-stimulus-presentation","245","403031","0.0-47.0-1.1","SS1613102914792","trial","","40","800","1483.9999998919666","images/stimuli/spore_stims/complex_15_A_a.gif","images/stimuli/spore_stims/complex_15_B_a.gif","","","","","13","complex_similar","images/stimuli/spore_stims/complex_15_B_a.gif","middle","","","","",""
"","null","html-keyboard-response","246","404332","0.0-47.0-0.2","SS1613102914792","","","null","","","","","<p><img src= images/blank.png width =""200"" height = ""200"" style = ""float:right""></p><p><img src=images/blank.png width =""800"" height = ""200""></p>","","","","","","","","","","","",""
"","820.9999999962747","sequential-stimulus-presentation","247","405972","0.0-47.0-1.2","SS1613102914792","trial","","40","800","1620.9999999962747","images/stimuli/spore_stims/complex_15_A_a.gif","images/stimuli/spore_stims/complex_15_B_a.gif","","","","","13","complex_similar","images/stimuli/spore_stims/complex_15_B_a.gif","middle","","","","",""
"","null","html-keyboard-response","248","406944","0.0-47.0-0.3","SS1613102914792","","","null","","","","","<p><img src= images/blank.png width =""200"" height = ""200"" style = ""float:right""></p><p><img src=images/blank.png width =""800"" height = ""200""></p>","","","","","","","","","","","",""
"","500.99999993108213","sequential-stimulus-presentation","249","408261","0.0-47.0-1.3","SS1613102914792","trial","","40","800","1300.9999999310821","images/stimuli/spore_stims/complex_15_A_a.gif","images/stimuli/spore_stims/complex_15_B_a.gif","","","","","13","complex_similar","images/stimuli/spore_stims/complex_15_B_a.gif","middle","","","","",""
"","null","html-keyboard-response","250","409350","0.0-47.0-0.4","SS1613102914792","","","null","","","","","<p><img src= images/blank.png width =""200"" height = ""200"" style = ""float:right""></p><p><img src=images/blank.png width =""800"" height = ""200""></p>","","","","","","","","","","","",""
"","271.0000001825392","sequential-stimulus-presentation","251","410455","0.0-47.0-1.4","SS1613102914792","trial","","40","800","1071.0000001825392","images/stimuli/spore_stims/complex_15_A_a.gif","images/stimuli/spore_stims/complex_15_B_a.gif","","","","","13","complex_similar","images/stimuli/spore_stims/complex_15_B_a.gif","middle","","","","",""
"","null","html-keyboard-response","252","411480","0.0-47.0-0.5","SS1613102914792","","","null","","","","","<p><img src= images/blank.png width =""200"" height = ""200"" style = ""float:right""></p><p><img src=images/blank.png width =""800"" height = ""200""></p>","","","","","","","","","","","",""
"","343.99999980814755","sequential-stimulus-presentation","253","412637","0.0-47.0-1.5","SS1613102914792","trial","","40","800","1143.9999998081475","images/stimuli/spore_stims/complex_15_A_a.gif","images/stimuli/spore_stims/complex_15_B_a.gif","","","","","13","complex_similar","images/stimuli/spore_stims/complex_15_A_a.gif","left","","","","",""
"","null","html-keyboard-response","254","413459","0.0-47.0-0.6","SS1613102914792","","","null","","","","","<p><img src= images/blank.png width =""200"" height = ""200"" style = ""float:right""></p><p><img src=images/blank.png width =""800"" height = ""200""></p>","","","","","","","","","","","",""
"","168.00000006332994","sequential-stimulus-presentation","255","414445","0.0-47.0-1.6","SS1613102914792","trial","","40","800","968.0000000633299","images/stimuli/spore_stims/complex_15_A_a.gif","images/stimuli/spore_stims/complex_15_B_a.gif","","","","","13","complex_similar","images/stimuli/spore_stims/complex_15_B_a.gif","middle","","","","",""
"","null","html-keyboard-response","256","415387","0.0-47.0-0.7","SS1613102914792","","","null","","","","","<p><img src= images/blank.png width =""200"" height = ""200"" style = ""float:right""></p><p><img src=images/blank.png width =""800"" height = ""200""></p>","","","","","","","","","","","",""
"","1742.0000000856817","sequential-stimulus-presentation","257","417943","0.0-47.0-1.7","SS1613102914792","trial","","40","800","2542.0000000856817","images/stimuli/spore_stims/complex_15_A_a.gif","images/stimuli/spore_stims/complex_15_B_a.gif","","","","","13","complex_similar","images/stimuli/spore_stims/complex_15_B_a.gif","middle","","","","",""
"","2209.999999962747","html-keyboard-response","258","420189","0.0-48.0","SS1613102914792","pref_question","","51","","","","","<video width ='960' height = '540' style='padding-top:8%' autoplay muted><source src='images/stimuli/wall_pref.mp4' type='video/mp4'></video>","3","right","66%","13","","","","","","","",""
"","1459.000000031665","sequential-stimulus-presentation","259","422461","0.0-49.0","SS1613102914792","pref_reveal","","40","800","2259.000000031665","null","null","","","","","13","","","","novel","","","",""
"","null","html-keyboard-response","260","423593","0.0-50.0-0.0","SS1613102914792","","","null","","","","","<p><img src= images/blank.png width =""200"" height = ""200"" style = ""float:right""></p><p><img src=images/blank.png width =""800"" height = ""200""></p>","","","","","","","","","","","",""
"","2676.9999999087304","sequential-stimulus-presentation","261","427086","0.0-50.0-1.0","SS1613102914792","trial","","40","800","3476.9999999087304","images/stimuli/spore_stims/simple_03_A_d.gif","images/stimuli/spore_stims/simple_10_B_c.gif","","","","","14","simple_dissimilar","images/stimuli/spore_stims/simple_10_B_c.gif","right","","","","",""
"","null","html-keyboard-response","262","428345","0.0-50.0-0.1","SS1613102914792","","","null","","","","","<p><img src= images/blank.png width =""200"" height = ""200"" style = ""float:right""></p><p><img src=images/blank.png width =""800"" height = ""200""></p>","","","","","","","","","","","",""
"","430.99999986588955","sequential-stimulus-presentation","263","429592","0.0-50.0-1.1","SS1613102914792","trial","","40","800","1230.9999998658895","images/stimuli/spore_stims/simple_03_A_d.gif","images/stimuli/spore_stims/simple_10_B_c.gif","","","","","14","simple_dissimilar","images/stimuli/spore_stims/simple_10_B_c.gif","right","","","","",""
"","null","html-keyboard-response","264","430598","0.0-50.0-0.2","SS1613102914792","","","null","","","","","<p><img src= images/blank.png width =""200"" height = ""200"" style = ""float:right""></p><p><img src=images/blank.png width =""800"" height = ""200""></p>","","","","","","","","","","","",""
"","722.9999999981374","sequential-stimulus-presentation","265","432133","0.0-50.0-1.2","SS1613102914792","trial","","40","800","1522.9999999981374","images/stimuli/spore_stims/simple_03_A_d.gif","images/stimuli/spore_stims/simple_10_B_c.gif","","","","","14","simple_dissimilar","images/stimuli/spore_stims/simple_10_B_c.gif","right","","","","",""
"","null","html-keyboard-response","266","433323","0.0-50.0-0.3","SS1613102914792","","","null","","","","","<p><img src= images/blank.png width =""200"" height = ""200"" style = ""float:right""></p><p><img src=images/blank.png width =""800"" height = ""200""></p>","","","","","","","","","","","",""
"","431.9999997969717","sequential-stimulus-presentation","267","434573","0.0-50.0-1.3","SS1613102914792","trial","","40","800","1231.9999997969717","images/stimuli/spore_stims/simple_03_A_d.gif","images/stimuli/spore_stims/simple_10_B_c.gif","","","","","14","simple_dissimilar","images/stimuli/spore_stims/simple_10_B_c.gif","right","","","","",""
"","null","html-keyboard-response","268","435720","0.0-50.0-0.4","SS1613102914792","","","null","","","","","<p><img src= images/blank.png width =""200"" height = ""200"" style = ""float:right""></p><p><img src=images/blank.png width =""800"" height = ""200""></p>","","","","","","","","","","","",""
"","223.99999992921948","sequential-stimulus-presentation","269","436757","0.0-50.0-1.4","SS1613102914792","trial","","40","800","1023.9999999292195","images/stimuli/spore_stims/simple_03_A_d.gif","images/stimuli/spore_stims/simple_10_B_c.gif","","","","","14","simple_dissimilar","images/stimuli/spore_stims/simple_03_A_d.gif","left","","","","",""
"","null","html-keyboard-response","270","437778","0.0-50.0-0.5","SS1613102914792","","","null","","","","","<p><img src= images/blank.png width =""200"" height = ""200"" style = ""float:right""></p><p><img src=images/blank.png width =""800"" height = ""200""></p>","","","","","","","","","","","",""
"","282.0000001229346","sequential-stimulus-presentation","271","438878","0.0-50.0-1.5","SS1613102914792","trial","","40","800","1082.0000001229346","images/stimuli/spore_stims/simple_03_A_d.gif","images/stimuli/spore_stims/simple_10_B_c.gif","","","","","14","simple_dissimilar","images/stimuli/spore_stims/simple_10_B_c.gif","right","","","","",""
"","null","html-keyboard-response","272","439996","0.0-50.0-0.6","SS1613102914792","","","null","","","","","<p><img src= images/blank.png width =""200"" height = ""200"" style = ""float:right""></p><p><img src=images/blank.png width =""800"" height = ""200""></p>","","","","","","","","","","","",""
"","2324.999999953434","sequential-stimulus-presentation","273","443134","0.0-50.0-1.6","SS1613102914792","trial","","40","800","3124.999999953434","images/stimuli/spore_stims/simple_03_A_d.gif","images/stimuli/spore_stims/simple_10_B_c.gif","","","","","14","simple_dissimilar","images/stimuli/spore_stims/simple_10_B_c.gif","right","","","","",""
"","null","html-keyboard-response","274","444159","0.0-50.0-0.7","SS1613102914792","","","null","","","","","<p><img src= images/blank.png width =""200"" height = ""200"" style = ""float:right""></p><p><img src=images/blank.png width =""800"" height = ""200""></p>","","","","","","","","","","","",""
"","7.999999914318323","sequential-stimulus-presentation","275","445014","0.0-50.0-1.7","SS1613102914792","trial","","40","800","807.9999999143183","images/stimuli/spore_stims/simple_03_A_d.gif","images/stimuli/spore_stims/simple_10_B_c.gif","","","","","14","simple_dissimilar","images/stimuli/spore_stims/simple_10_B_c.gif","right","","","","",""
"","2260.000000009313","html-keyboard-response","276","447302","0.0-51.0","SS1613102914792","pref_question","","50","","","","","<video width ='960' height = '540' style='padding-top:8%' autoplay muted><source src='images/stimuli/wall_pref.mp4' type='video/mp4'></video>","2","middle","45%","14","","","","","","","",""
"","661.0000000800937","sequential-stimulus-presentation","277","448788","0.0-52.0","SS1613102914792","pref_reveal","","40","800","1461.0000000800937","null","null","","","","","14","","","","novel","","","",""
"","null","html-keyboard-response","278","449651","0.0-53.0-0.0","SS1613102914792","","","null","","","","","<p><img src= images/blank.png width =""200"" height = ""200"" style = ""float:right""></p><p><img src=images/blank.png width =""800"" height = ""200""></p>","","","","","","","","","","","",""
"","628.000000026077","sequential-stimulus-presentation","279","451094","0.0-53.0-1.0","SS1613102914792","trial","","40","800","1428.000000026077","images/stimuli/spore_stims/simple_20_A_b.gif","images/stimuli/spore_stims/simple_04_A_a.gif","","","","","15","simple_dissimilar","images/stimuli/spore_stims/simple_04_A_a.gif","right","","","","",""
"","null","html-keyboard-response","280","452087","0.0-53.0-0.1","SS1613102914792","","","null","","","","","<p><img src= images/blank.png width =""200"" height = ""200"" style = ""float:right""></p><p><img src=images/blank.png width =""800"" height = ""200""></p>","","","","","","","","","","","",""
"","287.999999942258","sequential-stimulus-presentation","281","453189","0.0-53.0-1.1","SS1613102914792","trial","","40","800","1087.999999942258","images/stimuli/spore_stims/simple_20_A_b.gif","images/stimuli/spore_stims/simple_04_A_a.gif","","","","","15","simple_dissimilar","images/stimuli/spore_stims/simple_04_A_a.gif","right","","","","",""
"","null","html-keyboard-response","282","454362","0.0-53.0-0.2","SS1613102914792","","","null","","","","","<p><img src= images/blank.png width =""200"" height = ""200"" style = ""float:right""></p><p><img src=images/blank.png width =""800"" height = ""200""></p>","","","","","","","","","","","",""
"","278.9999998640269","sequential-stimulus-presentation","283","455461","0.0-53.0-1.2","SS1613102914792","trial","","40","800","1078.999999864027","images/stimuli/spore_stims/simple_20_A_b.gif","images/stimuli/spore_stims/simple_04_A_a.gif","","","","","15","simple_dissimilar","images/stimuli/spore_stims/simple_04_A_a.gif","right","","","","",""
"","null","html-keyboard-response","284","456766","0.0-53.0-0.3","SS1613102914792","","","null","","","","","<p><img src= images/blank.png width =""200"" height = ""200"" style = ""float:right""></p><p><img src=images/blank.png width =""800"" height = ""200""></p>","","","","","","","","","","","",""
"","918.9999999944121","sequential-stimulus-presentation","285","458497","0.0-53.0-1.3","SS1613102914792","trial","","40","800","1718.999999994412","images/stimuli/spore_stims/simple_20_A_b.gif","images/stimuli/spore_stims/simple_04_A_a.gif","","","","","15","simple_dissimilar","images/stimuli/spore_stims/simple_20_A_b.gif","middle","","","","",""
"","null","html-keyboard-response","286","459556","0.0-53.0-0.4","SS1613102914792","","","null","","","","","<p><img src= images/blank.png width =""200"" height = ""200"" style = ""float:right""></p><p><img src=images/blank.png width =""800"" height = ""200""></p>","","","","","","","","","","","",""
"","487.9999998956919","sequential-stimulus-presentation","287","460877","0.0-53.0-1.4","SS1613102914792","trial","","40","800","1287.9999998956919","images/stimuli/spore_stims/simple_20_A_b.gif","images/stimuli/spore_stims/simple_04_A_a.gif","","","","","15","simple_dissimilar","images/stimuli/spore_stims/simple_04_A_a.gif","right","","","","",""
"","null","html-keyboard-response","288","462070","0.0-53.0-0.5","SS1613102914792","","","null","","","","","<p><img src= images/blank.png width =""200"" height = ""200"" style = ""float:right""></p><p><img src=images/blank.png width =""800"" height = ""200""></p>","","","","","","","","","","","",""
"","571.9999999273568","sequential-stimulus-presentation","289","463454","0.0-53.0-1.5","SS1613102914792","trial","","40","800","1371.9999999273568","images/stimuli/spore_stims/simple_20_A_b.gif","images/stimuli/spore_stims/simple_04_A_a.gif","","","","","15","simple_dissimilar","images/stimuli/spore_stims/simple_04_A_a.gif","right","","","","",""
"","null","html-keyboard-response","290","464634","0.0-53.0-0.6","SS1613102914792","","","null","","","","","<p><img src= images/blank.png width =""200"" height = ""200"" style = ""float:right""></p><p><img src=images/blank.png width =""800"" height = ""200""></p>","","","","","","","","","","","",""
"","911.0000000800937","sequential-stimulus-presentation","291","466356","0.0-53.0-1.6","SS1613102914792","trial","","40","800","1711.0000000800937","images/stimuli/spore_stims/simple_20_A_b.gif","images/stimuli/spore_stims/simple_04_A_a.gif","","","","","15","simple_dissimilar","images/stimuli/spore_stims/simple_04_A_a.gif","right","","","","",""
"","null","html-keyboard-response","292","467224","0.0-53.0-0.7","SS1613102914792","","","null","","","","","<p><img src= images/blank.png width =""200"" height = ""200"" style = ""float:right""></p><p><img src=images/blank.png width =""800"" height = ""200""></p>","","","","","","","","","","","",""
"","398.0000000447035","sequential-stimulus-presentation","293","468436","0.0-53.0-1.7","SS1613102914792","trial","","40","800","1198.0000000447035","images/stimuli/spore_stims/simple_20_A_b.gif","images/stimuli/spore_stims/simple_04_A_a.gif","","","","","15","simple_dissimilar","images/stimuli/spore_stims/simple_04_A_a.gif","right","","","","",""
"","2171.000000089407","html-keyboard-response","294","470622","0.0-54.0","SS1613102914792","pref_question","","49","","","","","<video width ='960' height = '540' style='padding-top:8%' autoplay muted><source src='images/stimuli/wall_pref.mp4' type='video/mp4'></video>","1","left","25%","15","","","","","","","",""
"","986.0000000335276","sequential-stimulus-presentation","295","472436","0.0-55.0","SS1613102914792","pref_reveal","","40","800","1786.0000000335276","null","null","","","","","15","","","","novel","","","",""
"","null","html-keyboard-response","296","473481","0.0-56.0-0.0","SS1613102914792","","","null","","","","","<p><img src= images/blank.png width =""200"" height = ""200"" style = ""float:right""></p><p><img src=images/blank.png width =""800"" height = ""200""></p>","","","","","","","","","","","",""
"","631.0000000521541","sequential-stimulus-presentation","297","474927","0.0-56.0-1.0","SS1613102914792","trial","","40","800","1431.000000052154","images/stimuli/spore_stims/complex_02_B_b.gif","images/stimuli/spore_stims/complex_14_A_c.gif","","","","","16","complex_dissimilar","images/stimuli/spore_stims/complex_14_A_c.gif","left","","","","",""
"","null","html-keyboard-response","298","475933","0.0-56.0-0.1","SS1613102914792","","","null","","","","","<p><img src= images/blank.png width =""200"" height = ""200"" style = ""float:right""></p><p><img src=images/blank.png width =""800"" height = ""200""></p>","","","","","","","","","","","",""
"","172.0000000204891","sequential-stimulus-presentation","299","476916","0.0-56.0-1.1","SS1613102914792","trial","","40","800","972.0000000204891","images/stimuli/spore_stims/complex_02_B_b.gif","images/stimuli/spore_stims/complex_14_A_c.gif","","","","","16","complex_dissimilar","images/stimuli/spore_stims/complex_14_A_c.gif","left","","","","",""
"","null","html-keyboard-response","300","478155","0.0-56.0-0.2","SS1613102914792","","","null","","","","","<p><img src= images/blank.png width =""200"" height = ""200"" style = ""float:right""></p><p><img src=images/blank.png width =""800"" height = ""200""></p>","","","","","","","","","","","",""
"","601.9999999552965","sequential-stimulus-presentation","301","479572","0.0-56.0-1.2","SS1613102914792","trial","","40","800","1401.9999999552965","images/stimuli/spore_stims/complex_02_B_b.gif","images/stimuli/spore_stims/complex_14_A_c.gif","","","","","16","complex_dissimilar","images/stimuli/spore_stims/complex_14_A_c.gif","left","","","","",""
"","null","html-keyboard-response","302","480738","0.0-56.0-0.3","SS1613102914792","","","null","","","","","<p><img src= images/blank.png width =""200"" height = ""200"" style = ""float:right""></p><p><img src=images/blank.png width =""800"" height = ""200""></p>","","","","","","","","","","","",""
"","39.00000010617077","sequential-stimulus-presentation","303","481597","0.0-56.0-1.3","SS1613102914792","trial","","40","800","839.0000001061708","images/stimuli/spore_stims/complex_02_B_b.gif","images/stimuli/spore_stims/complex_14_A_c.gif","","","","","16","complex_dissimilar","images/stimuli/spore_stims/complex_14_A_c.gif","left","","","","",""
"","null","html-keyboard-response","304","482853","0.0-56.0-0.4","SS1613102914792","","","null","","","","","<p><img src= images/blank.png width =""200"" height = ""200"" style = ""float:right""></p><p><img src=images/blank.png width =""800"" height = ""200""></p>","","","","","","","","","","","",""
"","753.000000026077","sequential-stimulus-presentation","305","484443","0.0-56.0-1.4","SS1613102914792","trial","","40","800","1553.000000026077","images/stimuli/spore_stims/complex_02_B_b.gif","images/stimuli/spore_stims/complex_14_A_c.gif","","","","","16","complex_dissimilar","images/stimuli/spore_stims/complex_02_B_b.gif","middle","","","","",""
"","null","html-keyboard-response","306","485669","0.0-56.0-0.5","SS1613102914792","","","null","","","","","<p><img src= images/blank.png width =""200"" height = ""200"" style = ""float:right""></p><p><img src=images/blank.png width =""800"" height = ""200""></p>","","","","","","","","","","","",""
"","309.9999998230487","sequential-stimulus-presentation","307","486792","0.0-56.0-1.5","SS1613102914792","trial","","40","800","1109.9999998230487","images/stimuli/spore_stims/complex_02_B_b.gif","images/stimuli/spore_stims/complex_14_A_c.gif","","","","","16","complex_dissimilar","images/stimuli/spore_stims/complex_14_A_c.gif","left","","","","",""
"","null","html-keyboard-response","308","487804","0.0-56.0-0.6","SS1613102914792","","","null","","","","","<p><img src= images/blank.png width =""200"" height = ""200"" style = ""float:right""></p><p><img src=images/blank.png width =""800"" height = ""200""></p>","","","","","","","","","","","",""
"","783.0000000540167","sequential-stimulus-presentation","309","489405","0.0-56.0-1.6","SS1613102914792","trial","","40","800","1583.0000000540167","images/stimuli/spore_stims/complex_02_B_b.gif","images/stimuli/spore_stims/complex_14_A_c.gif","","","","","16","complex_dissimilar","images/stimuli/spore_stims/complex_14_A_c.gif","left","","","","",""
"","null","html-keyboard-response","310","490471","0.0-56.0-0.7","SS1613102914792","","","null","","","","","<p><img src= images/blank.png width =""200"" height = ""200"" style = ""float:right""></p><p><img src=images/blank.png width =""800"" height = ""200""></p>","","","","","","","","","","","",""
"","256.9999999832362","sequential-stimulus-presentation","311","491541","0.0-56.0-1.7","SS1613102914792","trial","","40","800","1056.9999999832362","images/stimuli/spore_stims/complex_02_B_b.gif","images/stimuli/spore_stims/complex_14_A_c.gif","","","","","16","complex_dissimilar","images/stimuli/spore_stims/complex_14_A_c.gif","left","","","","",""
"","2331.000000005588","html-keyboard-response","312","493887","0.0-57.0","SS1613102914792","pref_question","","51","","","","","<video width ='960' height = '540' style='padding-top:8%' autoplay muted><source src='images/stimuli/wall_pref.mp4' type='video/mp4'></video>","3","right","66%","16","","","","","","","",""
