"view_history","rt","trial_type","trial_index","time_elapsed","internal_node_id","subject","stimulus_type","trial_stimulus","key_press","minimum_viewing_duration","trial_looking_time","block_deviant","block_background","stimulus","wall_pref","location","location_percent","block_number","block_type","stimulus_displayed","position_displayed","stim_type_selected","responses","question_order","stimulus_left","stimulus_right"
"[{""page_index"":0,""viewing_time"":8817.154999997001}]","8818.215000006603","instructions","0","8821","0.0-0.0","SS1613138420933","","","","","","","","","","","","","","","","","","","",""
"[{""page_index"":0,""viewing_time"":1906.010000006063},{""page_index"":1,""viewing_time"":7969.440000015311}]","9875.935000018217","instructions","1","20701","0.0-1.0","SS1613138420933","instructions","","","","","","","","","","","","","","","","","","",""
"","8073.014999972656","sequential-stimulus-presentation","2","29604","0.0-2.0","SS1613138420933","","","40","800","8873.014999972656","null","null","","","","","","","","","","","","",""
"","1153.874999989057","sequential-stimulus-presentation","3","31567","0.0-3.0","SS1613138420933","","","40","800","1953.874999989057","null","null","","","","","","","","","","","","",""
"[{""page_index"":0,""viewing_time"":2291.5300000167917}]","2292.010000004666","instructions","4","33862","0.0-4.0","SS1613138420933","instructions","","","","","","","","","","","","","","","","","","",""
"","3631.164999998873","html-keyboard-response","5","37500","0.0-5.0","SS1613138420933","instructions","","49","","","","","<video width ='960' height = '540' autoplay muted><source src='images/stimuli/wall_pref.mp4' type='video/mp4'></video>","1","left","25%","","","","","","","","",""
"","1371.469999983674","sequential-stimulus-presentation","6","39684","0.0-6.0","SS1613138420933","pref_reveal","","40","800","2171.469999983674","null","null","","","","","","","","","","","","",""
"[{""page_index"":0,""viewing_time"":2855.234999995446},{""page_index"":1,""viewing_time"":3478.5350000020117},{""page_index"":2,""viewing_time"":2999.469999980647},{""page_index"":3,""viewing_time"":1601.3700000185054}]","10935.019999975339","instructions","7","50621","0.0-7.0","SS1613138420933","instructions","","","","","","","","","","","","","","","","","","",""
"","null","html-keyboard-response","8","51844","0.0-8.0-0.0","SS1613138420933","","","null","","","","","<p><img src= images/blank.png width =""200"" height = ""200"" style = ""float:right""></p><p><img src=images/blank.png width =""800"" height = ""200""></p>","","","","","","","","","","","",""
"","1095.4499999934342","sequential-stimulus-presentation","9","53767","0.0-8.0-1.0","SS1613138420933","trial","","40","800","1895.4499999934342","images/stimuli/spore_stims/simple_01_A_c.gif","images/stimuli/spore_stims/simple_08_B_c.gif","","","","","0","simple_dissimilar","images/stimuli/spore_stims/simple_08_B_c.gif","middle","","","","",""
"","null","html-keyboard-response","10","54591","0.0-8.0-0.1","SS1613138420933","","","null","","","","","<p><img src= images/blank.png width =""200"" height = ""200"" style = ""float:right""></p><p><img src=images/blank.png width =""800"" height = ""200""></p>","","","","","","","","","","","",""
"","580.8950000209734","sequential-stimulus-presentation","11","56010","0.0-8.0-1.1","SS1613138420933","trial","","40","800","1380.8950000209734","images/stimuli/spore_stims/simple_01_A_c.gif","images/stimuli/spore_stims/simple_08_B_c.gif","","","","","0","simple_dissimilar","images/stimuli/spore_stims/simple_08_B_c.gif","middle","","","","",""
"","null","html-keyboard-response","12","57130","0.0-8.0-0.2","SS1613138420933","","","null","","","","","<p><img src= images/blank.png width =""200"" height = ""200"" style = ""float:right""></p><p><img src=images/blank.png width =""800"" height = ""200""></p>","","","","","","","","","","","",""
"","457.8349999792408","sequential-stimulus-presentation","13","58415","0.0-8.0-1.2","SS1613138420933","trial","","40","800","1257.8349999792408","images/stimuli/spore_stims/simple_01_A_c.gif","images/stimuli/spore_stims/simple_08_B_c.gif","","","","","0","simple_dissimilar","images/stimuli/spore_stims/simple_08_B_c.gif","middle","","","","",""
"","null","html-keyboard-response","14","59605","0.0-8.0-0.3","SS1613138420933","","","null","","","","","<p><img src= images/blank.png width =""200"" height = ""200"" style = ""float:right""></p><p><img src=images/blank.png width =""800"" height = ""200""></p>","","","","","","","","","","","",""
"","386.3249999994878","sequential-stimulus-presentation","15","60866","0.0-8.0-1.3","SS1613138420933","trial","","40","800","1186.3249999994878","images/stimuli/spore_stims/simple_01_A_c.gif","images/stimuli/spore_stims/simple_08_B_c.gif","","","","","0","simple_dissimilar","images/stimuli/spore_stims/simple_08_B_c.gif","middle","","","","",""
"","null","html-keyboard-response","16","62012","0.0-8.0-0.4","SS1613138420933","","","null","","","","","<p><img src= images/blank.png width =""200"" height = ""200"" style = ""float:right""></p><p><img src=images/blank.png width =""800"" height = ""200""></p>","","","","","","","","","","","",""
"","994.845000008354","sequential-stimulus-presentation","17","63823","0.0-8.0-1.4","SS1613138420933","trial","","40","800","1794.845000008354","images/stimuli/spore_stims/simple_01_A_c.gif","images/stimuli/spore_stims/simple_08_B_c.gif","","","","","0","simple_dissimilar","images/stimuli/spore_stims/simple_01_A_c.gif","right","","","","",""
"","null","html-keyboard-response","18","65129","0.0-8.0-0.5","SS1613138420933","","","null","","","","","<p><img src= images/blank.png width =""200"" height = ""200"" style = ""float:right""></p><p><img src=images/blank.png width =""800"" height = ""200""></p>","","","","","","","","","","","",""
"","834.9750000052154","sequential-stimulus-presentation","19","66781","0.0-8.0-1.5","SS1613138420933","trial","","40","800","1634.9750000052154","images/stimuli/spore_stims/simple_01_A_c.gif","images/stimuli/spore_stims/simple_08_B_c.gif","","","","","0","simple_dissimilar","images/stimuli/spore_stims/simple_08_B_c.gif","middle","","","","",""
"","null","html-keyboard-response","20","67852","0.0-8.0-0.6","SS1613138420933","","","null","","","","","<p><img src= images/blank.png width =""200"" height = ""200"" style = ""float:right""></p><p><img src=images/blank.png width =""800"" height = ""200""></p>","","","","","","","","","","","",""
"","652.9600000067148","sequential-stimulus-presentation","21","69326","0.0-8.0-1.6","SS1613138420933","trial","","40","800","1452.9600000067148","images/stimuli/spore_stims/simple_01_A_c.gif","images/stimuli/spore_stims/simple_08_B_c.gif","","","","","0","simple_dissimilar","images/stimuli/spore_stims/simple_08_B_c.gif","middle","","","","",""
"","null","html-keyboard-response","22","70252","0.0-8.0-0.7","SS1613138420933","","","null","","","","","<p><img src= images/blank.png width =""200"" height = ""200"" style = ""float:right""></p><p><img src=images/blank.png width =""800"" height = ""200""></p>","","","","","","","","","","","",""
"","640.4650000040419","sequential-stimulus-presentation","23","71722","0.0-8.0-1.7","SS1613138420933","trial","","40","800","1440.465000004042","images/stimuli/spore_stims/simple_01_A_c.gif","images/stimuli/spore_stims/simple_08_B_c.gif","","","","","0","simple_dissimilar","images/stimuli/spore_stims/simple_08_B_c.gif","middle","","","","",""
"","3650.0449999875855","html-keyboard-response","24","75378","0.0-9.0","SS1613138420933","pref_question","","49","","","","","<video width ='960' height = '540' style='padding-top:8%' autoplay muted><source src='images/stimuli/wall_pref.mp4' type='video/mp4'></video>","1","left","25%","0","","","","","","","",""
"","1340.8200000121724","sequential-stimulus-presentation","25","77538","0.0-10.0","SS1613138420933","pref_reveal","","40","800","2140.8200000121724","null","null","","","","","0","","","","novel","","","",""
"","null","html-keyboard-response","26","78659","0.0-11.0-0.0","SS1613138420933","","","null","","","","","<p><img src= images/blank.png width =""200"" height = ""200"" style = ""float:right""></p><p><img src=images/blank.png width =""800"" height = ""200""></p>","","","","","","","","","","","",""
"","848.2099999964703","sequential-stimulus-presentation","27","80322","0.0-11.0-1.0","SS1613138420933","trial","","40","800","1648.2099999964703","images/stimuli/spore_stims/simple_12_B_c.gif","images/stimuli/spore_stims/simple_12_A_c.gif","","","","","1","simple_similar","images/stimuli/spore_stims/simple_12_A_c.gif","left","","","","",""
"","null","html-keyboard-response","28","81385","0.0-11.0-0.1","SS1613138420933","","","null","","","","","<p><img src= images/blank.png width =""200"" height = ""200"" style = ""float:right""></p><p><img src=images/blank.png width =""800"" height = ""200""></p>","","","","","","","","","","","",""
"","531.3899999891873","sequential-stimulus-presentation","29","82740","0.0-11.0-1.1","SS1613138420933","trial","","40","800","1331.3899999891873","images/stimuli/spore_stims/simple_12_B_c.gif","images/stimuli/spore_stims/simple_12_A_c.gif","","","","","1","simple_similar","images/stimuli/spore_stims/simple_12_A_c.gif","left","","","","",""
"","null","html-keyboard-response","30","83850","0.0-11.0-0.2","SS1613138420933","","","null","","","","","<p><img src= images/blank.png width =""200"" height = ""200"" style = ""float:right""></p><p><img src=images/blank.png width =""800"" height = ""200""></p>","","","","","","","","","","","",""
"","765.3700000082608","sequential-stimulus-presentation","31","85423","0.0-11.0-1.2","SS1613138420933","trial","","40","800","1565.3700000082608","images/stimuli/spore_stims/simple_12_B_c.gif","images/stimuli/spore_stims/simple_12_A_c.gif","","","","","1","simple_similar","images/stimuli/spore_stims/simple_12_A_c.gif","left","","","","",""
"","null","html-keyboard-response","32","86685","0.0-11.0-0.3","SS1613138420933","","","null","","","","","<p><img src= images/blank.png width =""200"" height = ""200"" style = ""float:right""></p><p><img src=images/blank.png width =""800"" height = ""200""></p>","","","","","","","","","","","",""
"","605.2949999866541","sequential-stimulus-presentation","33","88101","0.0-11.0-1.3","SS1613138420933","trial","","40","800","1405.2949999866541","images/stimuli/spore_stims/simple_12_B_c.gif","images/stimuli/spore_stims/simple_12_A_c.gif","","","","","1","simple_similar","images/stimuli/spore_stims/simple_12_B_c.gif","right","","","","",""
"","null","html-keyboard-response","34","89220","0.0-11.0-0.4","SS1613138420933","","","null","","","","","<p><img src= images/blank.png width =""200"" height = ""200"" style = ""float:right""></p><p><img src=images/blank.png width =""800"" height = ""200""></p>","","","","","","","","","","","",""
"","148.58499998808838","sequential-stimulus-presentation","35","90182","0.0-11.0-1.4","SS1613138420933","trial","","40","800","948.5849999880884","images/stimuli/spore_stims/simple_12_B_c.gif","images/stimuli/spore_stims/simple_12_A_c.gif","","","","","1","simple_similar","images/stimuli/spore_stims/simple_12_A_c.gif","left","","","","",""
"","null","html-keyboard-response","36","91288","0.0-11.0-0.5","SS1613138420933","","","null","","","","","<p><img src= images/blank.png width =""200"" height = ""200"" style = ""float:right""></p><p><img src=images/blank.png width =""800"" height = ""200""></p>","","","","","","","","","","","",""
"","1120.3049999894574","sequential-stimulus-presentation","37","93222","0.0-11.0-1.5","SS1613138420933","trial","","40","800","1920.3049999894574","images/stimuli/spore_stims/simple_12_B_c.gif","images/stimuli/spore_stims/simple_12_A_c.gif","","","","","1","simple_similar","images/stimuli/spore_stims/simple_12_A_c.gif","left","","","","",""
"","null","html-keyboard-response","38","94271","0.0-11.0-0.6","SS1613138420933","","","null","","","","","<p><img src= images/blank.png width =""200"" height = ""200"" style = ""float:right""></p><p><img src=images/blank.png width =""800"" height = ""200""></p>","","","","","","","","","","","",""
"","200.24000000557862","sequential-stimulus-presentation","39","95287","0.0-11.0-1.6","SS1613138420933","trial","","40","800","1000.2400000055786","images/stimuli/spore_stims/simple_12_B_c.gif","images/stimuli/spore_stims/simple_12_A_c.gif","","","","","1","simple_similar","images/stimuli/spore_stims/simple_12_A_c.gif","left","","","","",""
"","null","html-keyboard-response","40","96513","0.0-11.0-0.7","SS1613138420933","","","null","","","","","<p><img src= images/blank.png width =""200"" height = ""200"" style = ""float:right""></p><p><img src=images/blank.png width =""800"" height = ""200""></p>","","","","","","","","","","","",""
"","329.6799999952782","sequential-stimulus-presentation","41","97690","0.0-11.0-1.7","SS1613138420933","trial","","40","800","1129.6799999952782","images/stimuli/spore_stims/simple_12_B_c.gif","images/stimuli/spore_stims/simple_12_A_c.gif","","","","","1","simple_similar","images/stimuli/spore_stims/simple_12_A_c.gif","left","","","","",""
"","1478.3750000060536","html-keyboard-response","42","99181","0.0-12.0","SS1613138420933","pref_question","","50","","","","","<video width ='960' height = '540' style='padding-top:8%' autoplay muted><source src='images/stimuli/wall_pref.mp4' type='video/mp4'></video>","2","middle","45%","1","","","","","","","",""
"","756.0250000096858","sequential-stimulus-presentation","43","100757","0.0-13.0","SS1613138420933","pref_reveal","","40","800","1556.0250000096858","null","null","","","","","1","","","","novel","","","",""
"","null","html-keyboard-response","44","101982","0.0-14.0-0.0","SS1613138420933","","","null","","","","","<p><img src= images/blank.png width =""200"" height = ""200"" style = ""float:right""></p><p><img src=images/blank.png width =""800"" height = ""200""></p>","","","","","","","","","","","",""
"","616.4300000236835","sequential-stimulus-presentation","45","103412","0.0-14.0-1.0","SS1613138420933","trial","","40","800","1416.4300000236835","images/stimuli/spore_stims/simple_16_A_c.gif","images/stimuli/spore_stims/simple_16_B_c.gif","","","","","2","simple_similar","images/stimuli/spore_stims/simple_16_B_c.gif","right","","","","",""
"","null","html-keyboard-response","46","104725","0.0-14.0-0.1","SS1613138420933","","","null","","","","","<p><img src= images/blank.png width =""200"" height = ""200"" style = ""float:right""></p><p><img src=images/blank.png width =""800"" height = ""200""></p>","","","","","","","","","","","",""
"","67.9050000035204","sequential-stimulus-presentation","47","105616","0.0-14.0-1.1","SS1613138420933","trial","","40","800","867.9050000035204","images/stimuli/spore_stims/simple_16_A_c.gif","images/stimuli/spore_stims/simple_16_B_c.gif","","","","","2","simple_similar","images/stimuli/spore_stims/simple_16_B_c.gif","right","","","","",""
"","null","html-keyboard-response","48","106849","0.0-14.0-0.2","SS1613138420933","","","null","","","","","<p><img src= images/blank.png width =""200"" height = ""200"" style = ""float:right""></p><p><img src=images/blank.png width =""800"" height = ""200""></p>","","","","","","","","","","","",""
"","207.38999999593943","sequential-stimulus-presentation","49","107866","0.0-14.0-1.2","SS1613138420933","trial","","40","800","1007.3899999959394","images/stimuli/spore_stims/simple_16_A_c.gif","images/stimuli/spore_stims/simple_16_B_c.gif","","","","","2","simple_similar","images/stimuli/spore_stims/simple_16_B_c.gif","right","","","","",""
"","null","html-keyboard-response","50","108994","0.0-14.0-0.3","SS1613138420933","","","null","","","","","<p><img src= images/blank.png width =""200"" height = ""200"" style = ""float:right""></p><p><img src=images/blank.png width =""800"" height = ""200""></p>","","","","","","","","","","","",""
"","127.30500000179745","sequential-stimulus-presentation","51","109979","0.0-14.0-1.3","SS1613138420933","trial","","40","800","927.3050000017975","images/stimuli/spore_stims/simple_16_A_c.gif","images/stimuli/spore_stims/simple_16_B_c.gif","","","","","2","simple_similar","images/stimuli/spore_stims/simple_16_B_c.gif","right","","","","",""
"","null","html-keyboard-response","52","111092","0.0-14.0-0.4","SS1613138420933","","","null","","","","","<p><img src= images/blank.png width =""200"" height = ""200"" style = ""float:right""></p><p><img src=images/blank.png width =""800"" height = ""200""></p>","","","","","","","","","","","",""
"","120.1850000070408","sequential-stimulus-presentation","53","112023","0.0-14.0-1.4","SS1613138420933","trial","","40","800","920.1850000070408","images/stimuli/spore_stims/simple_16_A_c.gif","images/stimuli/spore_stims/simple_16_B_c.gif","","","","","2","simple_similar","images/stimuli/spore_stims/simple_16_B_c.gif","right","","","","",""
"","null","html-keyboard-response","54","112914","0.0-14.0-0.5","SS1613138420933","","","null","","","","","<p><img src= images/blank.png width =""200"" height = ""200"" style = ""float:right""></p><p><img src=images/blank.png width =""800"" height = ""200""></p>","","","","","","","","","","","",""
"","109.6700000052806","sequential-stimulus-presentation","55","113842","0.0-14.0-1.5","SS1613138420933","trial","","40","800","909.6700000052806","images/stimuli/spore_stims/simple_16_A_c.gif","images/stimuli/spore_stims/simple_16_B_c.gif","","","","","2","simple_similar","images/stimuli/spore_stims/simple_16_A_c.gif","middle","","","","",""
"","null","html-keyboard-response","56","115102","0.0-14.0-0.6","SS1613138420933","","","null","","","","","<p><img src= images/blank.png width =""200"" height = ""200"" style = ""float:right""></p><p><img src=images/blank.png width =""800"" height = ""200""></p>","","","","","","","","","","","",""
"","97.06500000902452","sequential-stimulus-presentation","57","116053","0.0-14.0-1.6","SS1613138420933","trial","","40","800","897.0650000090245","images/stimuli/spore_stims/simple_16_A_c.gif","images/stimuli/spore_stims/simple_16_B_c.gif","","","","","2","simple_similar","images/stimuli/spore_stims/simple_16_B_c.gif","right","","","","",""
"","null","html-keyboard-response","58","117223","0.0-14.0-0.7","SS1613138420933","","","null","","","","","<p><img src= images/blank.png width =""200"" height = ""200"" style = ""float:right""></p><p><img src=images/blank.png width =""800"" height = ""200""></p>","","","","","","","","","","","",""
"","49.69000001437962","sequential-stimulus-presentation","59","118104","0.0-14.0-1.7","SS1613138420933","trial","","40","800","849.6900000143796","images/stimuli/spore_stims/simple_16_A_c.gif","images/stimuli/spore_stims/simple_16_B_c.gif","","","","","2","simple_similar","images/stimuli/spore_stims/simple_16_B_c.gif","right","","","","",""
"","1143.1850000226405","html-keyboard-response","60","119257","0.0-15.0","SS1613138420933","pref_question","","50","","","","","<video width ='960' height = '540' style='padding-top:8%' autoplay muted><source src='images/stimuli/wall_pref.mp4' type='video/mp4'></video>","2","middle","45%","2","","","","","","","",""
"","118.86499999673106","sequential-stimulus-presentation","61","120188","0.0-16.0","SS1613138420933","pref_reveal","","40","800","918.8649999967311","null","null","","","","","2","","","","deviant","","","",""
"","null","html-keyboard-response","62","121005","0.0-17.0-0.0","SS1613138420933","","","null","","","","","<p><img src= images/blank.png width =""200"" height = ""200"" style = ""float:right""></p><p><img src=images/blank.png width =""800"" height = ""200""></p>","","","","","","","","","","","",""
"","5.594999995082617","sequential-stimulus-presentation","63","121847","0.0-17.0-1.0","SS1613138420933","trial","","40","800","805.5949999950826","images/stimuli/spore_stims/simple_04_B_a.gif","images/stimuli/spore_stims/simple_02_A_b.gif","","","","","3","simple_dissimilar","images/stimuli/spore_stims/simple_02_A_b.gif","right","","","","",""
"","null","html-keyboard-response","64","122894","0.0-17.0-0.1","SS1613138420933","","","null","","","","","<p><img src= images/blank.png width =""200"" height = ""200"" style = ""float:right""></p><p><img src=images/blank.png width =""800"" height = ""200""></p>","","","","","","","","","","","",""
"","651.2000000220723","sequential-stimulus-presentation","65","124375","0.0-17.0-1.1","SS1613138420933","trial","","40","800","1451.2000000220723","images/stimuli/spore_stims/simple_04_B_a.gif","images/stimuli/spore_stims/simple_02_A_b.gif","","","","","3","simple_dissimilar","images/stimuli/spore_stims/simple_02_A_b.gif","right","","","","",""
"","null","html-keyboard-response","66","125181","0.0-17.0-0.2","SS1613138420933","","","null","","","","","<p><img src= images/blank.png width =""200"" height = ""200"" style = ""float:right""></p><p><img src=images/blank.png width =""800"" height = ""200""></p>","","","","","","","","","","","",""
"","142.96500000637025","sequential-stimulus-presentation","67","126149","0.0-17.0-1.2","SS1613138420933","trial","","40","800","942.9650000063702","images/stimuli/spore_stims/simple_04_B_a.gif","images/stimuli/spore_stims/simple_02_A_b.gif","","","","","3","simple_dissimilar","images/stimuli/spore_stims/simple_02_A_b.gif","right","","","","",""
"","null","html-keyboard-response","68","127125","0.0-17.0-0.3","SS1613138420933","","","null","","","","","<p><img src= images/blank.png width =""200"" height = ""200"" style = ""float:right""></p><p><img src=images/blank.png width =""800"" height = ""200""></p>","","","","","","","","","","","",""
"","185.86999998660758","sequential-stimulus-presentation","69","128126","0.0-17.0-1.3","SS1613138420933","trial","","40","800","985.8699999866076","images/stimuli/spore_stims/simple_04_B_a.gif","images/stimuli/spore_stims/simple_02_A_b.gif","","","","","3","simple_dissimilar","images/stimuli/spore_stims/simple_02_A_b.gif","right","","","","",""
"","null","html-keyboard-response","70","129163","0.0-17.0-0.4","SS1613138420933","","","null","","","","","<p><img src= images/blank.png width =""200"" height = ""200"" style = ""float:right""></p><p><img src=images/blank.png width =""800"" height = ""200""></p>","","","","","","","","","","","",""
"","22.859999997308478","sequential-stimulus-presentation","71","130002","0.0-17.0-1.4","SS1613138420933","trial","","40","800","822.8599999973085","images/stimuli/spore_stims/simple_04_B_a.gif","images/stimuli/spore_stims/simple_02_A_b.gif","","","","","3","simple_dissimilar","images/stimuli/spore_stims/simple_02_A_b.gif","right","","","","",""
"","null","html-keyboard-response","72","130960","0.0-17.0-0.5","SS1613138420933","","","null","","","","","<p><img src= images/blank.png width =""200"" height = ""200"" style = ""float:right""></p><p><img src=images/blank.png width =""800"" height = ""200""></p>","","","","","","","","","","","",""
"","136.1650000035297","sequential-stimulus-presentation","73","131933","0.0-17.0-1.5","SS1613138420933","trial","","40","800","936.1650000035297","images/stimuli/spore_stims/simple_04_B_a.gif","images/stimuli/spore_stims/simple_02_A_b.gif","","","","","3","simple_dissimilar","images/stimuli/spore_stims/simple_02_A_b.gif","right","","","","",""
"","null","html-keyboard-response","74","132993","0.0-17.0-0.6","SS1613138420933","","","null","","","","","<p><img src= images/blank.png width =""200"" height = ""200"" style = ""float:right""></p><p><img src=images/blank.png width =""800"" height = ""200""></p>","","","","","","","","","","","",""
"","11.949999985517934","sequential-stimulus-presentation","75","133818","0.0-17.0-1.6","SS1613138420933","trial","","40","800","811.9499999855179","images/stimuli/spore_stims/simple_04_B_a.gif","images/stimuli/spore_stims/simple_02_A_b.gif","","","","","3","simple_dissimilar","images/stimuli/spore_stims/simple_02_A_b.gif","right","","","","",""
"","null","html-keyboard-response","76","134922","0.0-17.0-0.7","SS1613138420933","","","null","","","","","<p><img src= images/blank.png width =""200"" height = ""200"" style = ""float:right""></p><p><img src=images/blank.png width =""800"" height = ""200""></p>","","","","","","","","","","","",""
"","222.2450000117533","sequential-stimulus-presentation","77","135960","0.0-17.0-1.7","SS1613138420933","trial","","40","800","1022.2450000117533","images/stimuli/spore_stims/simple_04_B_a.gif","images/stimuli/spore_stims/simple_02_A_b.gif","","","","","3","simple_dissimilar","images/stimuli/spore_stims/simple_04_B_a.gif","middle","","","","",""
"","1369.6749999944586","html-keyboard-response","78","137376","0.0-18.0","SS1613138420933","pref_question","","50","","","","","<video width ='960' height = '540' style='padding-top:8%' autoplay muted><source src='images/stimuli/wall_pref.mp4' type='video/mp4'></video>","2","middle","45%","3","","","","","","","",""
"","57.785000011790544","sequential-stimulus-presentation","79","138245","0.0-19.0","SS1613138420933","pref_reveal","","40","800","857.7850000117905","null","null","","","","","3","","","","deviant","","","",""
"","null","html-keyboard-response","80","139545","0.0-20.0-0.0","SS1613138420933","","","null","","","","","<p><img src= images/blank.png width =""200"" height = ""200"" style = ""float:right""></p><p><img src=images/blank.png width =""800"" height = ""200""></p>","","","","","","","","","","","",""
"","91.94000001298264","sequential-stimulus-presentation","81","140456","0.0-20.0-1.0","SS1613138420933","trial","","40","800","891.9400000129826","images/stimuli/spore_stims/simple_10_B_b.gif","images/stimuli/spore_stims/simple_19_B_b.gif","","","","","4","simple_dissimilar","images/stimuli/spore_stims/simple_19_B_b.gif","left","","","","",""
"","null","html-keyboard-response","82","141272","0.0-20.0-0.1","SS1613138420933","","","null","","","","","<p><img src= images/blank.png width =""200"" height = ""200"" style = ""float:right""></p><p><img src=images/blank.png width =""800"" height = ""200""></p>","","","","","","","","","","","",""
"","115.85499998182058","sequential-stimulus-presentation","83","142265","0.0-20.0-1.1","SS1613138420933","trial","","40","800","915.8549999818206","images/stimuli/spore_stims/simple_10_B_b.gif","images/stimuli/spore_stims/simple_19_B_b.gif","","","","","4","simple_dissimilar","images/stimuli/spore_stims/simple_19_B_b.gif","left","","","","",""
"","null","html-keyboard-response","84","143255","0.0-20.0-0.2","SS1613138420933","","","null","","","","","<p><img src= images/blank.png width =""200"" height = ""200"" style = ""float:right""></p><p><img src=images/blank.png width =""800"" height = ""200""></p>","","","","","","","","","","","",""
"","46.119999984512106","sequential-stimulus-presentation","85","144130","0.0-20.0-1.2","SS1613138420933","trial","","40","800","846.1199999845121","images/stimuli/spore_stims/simple_10_B_b.gif","images/stimuli/spore_stims/simple_19_B_b.gif","","","","","4","simple_dissimilar","images/stimuli/spore_stims/simple_10_B_b.gif","right","","","","",""
"","null","html-keyboard-response","86","144969","0.0-20.0-0.3","SS1613138420933","","","null","","","","","<p><img src= images/blank.png width =""200"" height = ""200"" style = ""float:right""></p><p><img src=images/blank.png width =""800"" height = ""200""></p>","","","","","","","","","","","",""
"","191.2550000124611","sequential-stimulus-presentation","87","145985","0.0-20.0-1.3","SS1613138420933","trial","","40","800","991.2550000124611","images/stimuli/spore_stims/simple_10_B_b.gif","images/stimuli/spore_stims/simple_19_B_b.gif","","","","","4","simple_dissimilar","images/stimuli/spore_stims/simple_19_B_b.gif","left","","","","",""
"","null","html-keyboard-response","88","146861","0.0-20.0-0.4","SS1613138420933","","","null","","","","","<p><img src= images/blank.png width =""200"" height = ""200"" style = ""float:right""></p><p><img src=images/blank.png width =""800"" height = ""200""></p>","","","","","","","","","","","",""
"","165.3050000022631","sequential-stimulus-presentation","89","147853","0.0-20.0-1.4","SS1613138420933","trial","","40","800","965.3050000022631","images/stimuli/spore_stims/simple_10_B_b.gif","images/stimuli/spore_stims/simple_19_B_b.gif","","","","","4","simple_dissimilar","images/stimuli/spore_stims/simple_19_B_b.gif","left","","","","",""
"","null","html-keyboard-response","90","149008","0.0-20.0-0.5","SS1613138420933","","","null","","","","","<p><img src= images/blank.png width =""200"" height = ""200"" style = ""float:right""></p><p><img src=images/blank.png width =""800"" height = ""200""></p>","","","","","","","","","","","",""
"","150.95000001019798","sequential-stimulus-presentation","91","149971","0.0-20.0-1.5","SS1613138420933","trial","","40","800","950.950000010198","images/stimuli/spore_stims/simple_10_B_b.gif","images/stimuli/spore_stims/simple_19_B_b.gif","","","","","4","simple_dissimilar","images/stimuli/spore_stims/simple_19_B_b.gif","left","","","","",""
"","null","html-keyboard-response","92","151261","0.0-20.0-0.6","SS1613138420933","","","null","","","","","<p><img src= images/blank.png width =""200"" height = ""200"" style = ""float:right""></p><p><img src=images/blank.png width =""800"" height = ""200""></p>","","","","","","","","","","","",""
"","131.45000001532026","sequential-stimulus-presentation","93","152214","0.0-20.0-1.6","SS1613138420933","trial","","40","800","931.4500000153203","images/stimuli/spore_stims/simple_10_B_b.gif","images/stimuli/spore_stims/simple_19_B_b.gif","","","","","4","simple_dissimilar","images/stimuli/spore_stims/simple_19_B_b.gif","left","","","","",""
"","null","html-keyboard-response","94","153295","0.0-20.0-0.7","SS1613138420933","","","null","","","","","<p><img src= images/blank.png width =""200"" height = ""200"" style = ""float:right""></p><p><img src=images/blank.png width =""800"" height = ""200""></p>","","","","","","","","","","","",""
"","174.23500001314096","sequential-stimulus-presentation","95","154293","0.0-20.0-1.7","SS1613138420933","trial","","40","800","974.235000013141","images/stimuli/spore_stims/simple_10_B_b.gif","images/stimuli/spore_stims/simple_19_B_b.gif","","","","","4","simple_dissimilar","images/stimuli/spore_stims/simple_19_B_b.gif","left","","","","",""
"","1269.8300000047311","html-keyboard-response","96","155571","0.0-21.0","SS1613138420933","pref_question","","50","","","","","<video width ='960' height = '540' style='padding-top:8%' autoplay muted><source src='images/stimuli/wall_pref.mp4' type='video/mp4'></video>","2","middle","45%","4","","","","","","","",""
"","60.85500001790933","sequential-stimulus-presentation","97","156457","0.0-22.0","SS1613138420933","pref_reveal","","40","800","860.8550000179093","null","null","","","","","4","","","","novel","","","",""
"","null","html-keyboard-response","98","157680","0.0-23.0-0.0","SS1613138420933","","","null","","","","","<p><img src= images/blank.png width =""200"" height = ""200"" style = ""float:right""></p><p><img src=images/blank.png width =""800"" height = ""200""></p>","","","","","","","","","","","",""
"","93.93000000272878","sequential-stimulus-presentation","99","158644","0.0-23.0-1.0","SS1613138420933","trial","","40","800","893.9300000027288","images/stimuli/spore_stims/complex_09_A_d.gif","images/stimuli/spore_stims/complex_12_A_d.gif","","","","","5","complex_dissimilar","images/stimuli/spore_stims/complex_12_A_d.gif","middle","","","","",""
"","null","html-keyboard-response","100","159806","0.0-23.0-0.1","SS1613138420933","","","null","","","","","<p><img src= images/blank.png width =""200"" height = ""200"" style = ""float:right""></p><p><img src=images/blank.png width =""800"" height = ""200""></p>","","","","","","","","","","","",""
"","79.52999998815358","sequential-stimulus-presentation","101","160731","0.0-23.0-1.1","SS1613138420933","trial","","40","800","879.5299999881536","images/stimuli/spore_stims/complex_09_A_d.gif","images/stimuli/spore_stims/complex_12_A_d.gif","","","","","5","complex_dissimilar","images/stimuli/spore_stims/complex_12_A_d.gif","middle","","","","",""
"","null","html-keyboard-response","102","161663","0.0-23.0-0.2","SS1613138420933","","","null","","","","","<p><img src= images/blank.png width =""200"" height = ""200"" style = ""float:right""></p><p><img src=images/blank.png width =""800"" height = ""200""></p>","","","","","","","","","","","",""
"","149.96499998960644","sequential-stimulus-presentation","103","162638","0.0-23.0-1.2","SS1613138420933","trial","","40","800","949.9649999896064","images/stimuli/spore_stims/complex_09_A_d.gif","images/stimuli/spore_stims/complex_12_A_d.gif","","","","","5","complex_dissimilar","images/stimuli/spore_stims/complex_12_A_d.gif","middle","","","","",""
"","null","html-keyboard-response","104","163908","0.0-23.0-0.3","SS1613138420933","","","null","","","","","<p><img src= images/blank.png width =""200"" height = ""200"" style = ""float:right""></p><p><img src=images/blank.png width =""800"" height = ""200""></p>","","","","","","","","","","","",""
"","211.57499999389984","sequential-stimulus-presentation","105","164958","0.0-23.0-1.3","SS1613138420933","trial","","40","800","1011.5749999938998","images/stimuli/spore_stims/complex_09_A_d.gif","images/stimuli/spore_stims/complex_12_A_d.gif","","","","","5","complex_dissimilar","images/stimuli/spore_stims/complex_09_A_d.gif","right","","","","",""
"","null","html-keyboard-response","106","165932","0.0-23.0-0.4","SS1613138420933","","","null","","","","","<p><img src= images/blank.png width =""200"" height = ""200"" style = ""float:right""></p><p><img src=images/blank.png width =""800"" height = ""200""></p>","","","","","","","","","","","",""
"","88.89000001363456","sequential-stimulus-presentation","107","166862","0.0-23.0-1.4","SS1613138420933","trial","","40","800","888.8900000136346","images/stimuli/spore_stims/complex_09_A_d.gif","images/stimuli/spore_stims/complex_12_A_d.gif","","","","","5","complex_dissimilar","images/stimuli/spore_stims/complex_12_A_d.gif","middle","","","","",""
"","null","html-keyboard-response","108","168034","0.0-23.0-0.5","SS1613138420933","","","null","","","","","<p><img src= images/blank.png width =""200"" height = ""200"" style = ""float:right""></p><p><img src=images/blank.png width =""800"" height = ""200""></p>","","","","","","","","","","","",""
"","153.90500001376495","sequential-stimulus-presentation","109","169016","0.0-23.0-1.5","SS1613138420933","trial","","40","800","953.905000013765","images/stimuli/spore_stims/complex_09_A_d.gif","images/stimuli/spore_stims/complex_12_A_d.gif","","","","","5","complex_dissimilar","images/stimuli/spore_stims/complex_12_A_d.gif","middle","","","","",""
"","null","html-keyboard-response","110","170150","0.0-23.0-0.6","SS1613138420933","","","null","","","","","<p><img src= images/blank.png width =""200"" height = ""200"" style = ""float:right""></p><p><img src=images/blank.png width =""800"" height = ""200""></p>","","","","","","","","","","","",""
"","188.2249999907799","sequential-stimulus-presentation","111","171189","0.0-23.0-1.6","SS1613138420933","trial","","40","800","988.2249999907799","images/stimuli/spore_stims/complex_09_A_d.gif","images/stimuli/spore_stims/complex_12_A_d.gif","","","","","5","complex_dissimilar","images/stimuli/spore_stims/complex_12_A_d.gif","middle","","","","",""
"","null","html-keyboard-response","112","172456","0.0-23.0-0.7","SS1613138420933","","","null","","","","","<p><img src= images/blank.png width =""200"" height = ""200"" style = ""float:right""></p><p><img src=images/blank.png width =""800"" height = ""200""></p>","","","","","","","","","","","",""
"","204.80000000679865","sequential-stimulus-presentation","113","173503","0.0-23.0-1.7","SS1613138420933","trial","","40","800","1004.8000000067987","images/stimuli/spore_stims/complex_09_A_d.gif","images/stimuli/spore_stims/complex_12_A_d.gif","","","","","5","complex_dissimilar","images/stimuli/spore_stims/complex_12_A_d.gif","middle","","","","",""
"","1212.0100000174716","html-keyboard-response","114","174732","0.0-24.0","SS1613138420933","pref_question","","50","","","","","<video width ='960' height = '540' style='padding-top:8%' autoplay muted><source src='images/stimuli/wall_pref.mp4' type='video/mp4'></video>","2","middle","45%","5","","","","","","","",""
"","66.27499999012798","sequential-stimulus-presentation","115","175628","0.0-25.0","SS1613138420933","pref_reveal","","40","800","866.274999990128","null","null","","","","","5","","","","background","","","",""
"","null","html-keyboard-response","116","176695","0.0-26.0-0.0","SS1613138420933","","","null","","","","","<p><img src= images/blank.png width =""200"" height = ""200"" style = ""float:right""></p><p><img src=images/blank.png width =""800"" height = ""200""></p>","","","","","","","","","","","",""
"","109.25000000861473","sequential-stimulus-presentation","117","177628","0.0-26.0-1.0","SS1613138420933","trial","","40","800","909.2500000086147","images/stimuli/spore_stims/complex_01_B_c.gif","images/stimuli/spore_stims/complex_10_A_a.gif","","","","","6","complex_dissimilar","images/stimuli/spore_stims/complex_10_A_a.gif","middle","","","","",""
"","null","html-keyboard-response","118","178928","0.0-26.0-0.1","SS1613138420933","","","null","","","","","<p><img src= images/blank.png width =""200"" height = ""200"" style = ""float:right""></p><p><img src=images/blank.png width =""800"" height = ""200""></p>","","","","","","","","","","","",""
"","37.115000013727695","sequential-stimulus-presentation","119","179811","0.0-26.0-1.1","SS1613138420933","trial","","40","800","837.1150000137277","images/stimuli/spore_stims/complex_01_B_c.gif","images/stimuli/spore_stims/complex_10_A_a.gif","","","","","6","complex_dissimilar","images/stimuli/spore_stims/complex_10_A_a.gif","middle","","","","",""
"","null","html-keyboard-response","120","180764","0.0-26.0-0.2","SS1613138420933","","","null","","","","","<p><img src= images/blank.png width =""200"" height = ""200"" style = ""float:right""></p><p><img src=images/blank.png width =""800"" height = ""200""></p>","","","","","","","","","","","",""
"","104.3399999907706","sequential-stimulus-presentation","121","181683","0.0-26.0-1.2","SS1613138420933","trial","","40","800","904.3399999907706","images/stimuli/spore_stims/complex_01_B_c.gif","images/stimuli/spore_stims/complex_10_A_a.gif","","","","","6","complex_dissimilar","images/stimuli/spore_stims/complex_10_A_a.gif","middle","","","","",""
"","null","html-keyboard-response","122","182747","0.0-26.0-0.3","SS1613138420933","","","null","","","","","<p><img src= images/blank.png width =""200"" height = ""200"" style = ""float:right""></p><p><img src=images/blank.png width =""800"" height = ""200""></p>","","","","","","","","","","","",""
"","29.230000014649704","sequential-stimulus-presentation","123","183607","0.0-26.0-1.3","SS1613138420933","trial","","40","800","829.2300000146497","images/stimuli/spore_stims/complex_01_B_c.gif","images/stimuli/spore_stims/complex_10_A_a.gif","","","","","6","complex_dissimilar","images/stimuli/spore_stims/complex_10_A_a.gif","middle","","","","",""
"","null","html-keyboard-response","124","184807","0.0-26.0-0.4","SS1613138420933","","","null","","","","","<p><img src= images/blank.png width =""200"" height = ""200"" style = ""float:right""></p><p><img src=images/blank.png width =""800"" height = ""200""></p>","","","","","","","","","","","",""
"","95.5250000115484","sequential-stimulus-presentation","125","185744","0.0-26.0-1.4","SS1613138420933","trial","","40","800","895.5250000115484","images/stimuli/spore_stims/complex_01_B_c.gif","images/stimuli/spore_stims/complex_10_A_a.gif","","","","","6","complex_dissimilar","images/stimuli/spore_stims/complex_10_A_a.gif","middle","","","","",""
"","null","html-keyboard-response","126","186895","0.0-26.0-0.5","SS1613138420933","","","null","","","","","<p><img src= images/blank.png width =""200"" height = ""200"" style = ""float:right""></p><p><img src=images/blank.png width =""800"" height = ""200""></p>","","","","","","","","","","","",""
"","205.30000000144355","sequential-stimulus-presentation","127","187930","0.0-26.0-1.5","SS1613138420933","trial","","40","800","1005.3000000014435","images/stimuli/spore_stims/complex_01_B_c.gif","images/stimuli/spore_stims/complex_10_A_a.gif","","","","","6","complex_dissimilar","images/stimuli/spore_stims/complex_10_A_a.gif","middle","","","","",""
"","null","html-keyboard-response","128","188764","0.0-26.0-0.6","SS1613138420933","","","null","","","","","<p><img src= images/blank.png width =""200"" height = ""200"" style = ""float:right""></p><p><img src=images/blank.png width =""800"" height = ""200""></p>","","","","","","","","","","","",""
"","28.990000020712614","sequential-stimulus-presentation","129","189611","0.0-26.0-1.6","SS1613138420933","trial","","40","800","828.9900000207126","images/stimuli/spore_stims/complex_01_B_c.gif","images/stimuli/spore_stims/complex_10_A_a.gif","","","","","6","complex_dissimilar","images/stimuli/spore_stims/complex_10_A_a.gif","middle","","","","",""
"","null","html-keyboard-response","130","190704","0.0-26.0-0.7","SS1613138420933","","","null","","","","","<p><img src= images/blank.png width =""200"" height = ""200"" style = ""float:right""></p><p><img src=images/blank.png width =""800"" height = ""200""></p>","","","","","","","","","","","",""
"","196.37499999953434","sequential-stimulus-presentation","131","191728","0.0-26.0-1.7","SS1613138420933","trial","","40","800","996.3749999995343","images/stimuli/spore_stims/complex_01_B_c.gif","images/stimuli/spore_stims/complex_10_A_a.gif","","","","","6","complex_dissimilar","images/stimuli/spore_stims/complex_01_B_c.gif","right","","","","",""
"","3834.0949999983422","html-keyboard-response","132","195573","0.0-27.0","SS1613138420933","pref_question","","51","","","","","<video width ='960' height = '540' style='padding-top:8%' autoplay muted><source src='images/stimuli/wall_pref.mp4' type='video/mp4'></video>","3","right","66%","6","","","","","","","",""
"","18.190000002505258","sequential-stimulus-presentation","133","196421","0.0-28.0","SS1613138420933","pref_reveal","","40","800","818.1900000025053","null","null","","","","","6","","","","deviant","","","",""
"","null","html-keyboard-response","134","197655","0.0-29.0-0.0","SS1613138420933","","","null","","","","","<p><img src= images/blank.png width =""200"" height = ""200"" style = ""float:right""></p><p><img src=images/blank.png width =""800"" height = ""200""></p>","","","","","","","","","","","",""
"","10.104999993927777","sequential-stimulus-presentation","135","198494","0.0-29.0-1.0","SS1613138420933","trial","","40","800","810.1049999939278","images/stimuli/spore_stims/complex_03_B_a.gif","images/stimuli/spore_stims/complex_03_A_a.gif","","","","","7","complex_similar","images/stimuli/spore_stims/complex_03_A_a.gif","right","","","","",""
"","null","html-keyboard-response","136","199460","0.0-29.0-0.1","SS1613138420933","","","null","","","","","<p><img src= images/blank.png width =""200"" height = ""200"" style = ""float:right""></p><p><img src=images/blank.png width =""800"" height = ""200""></p>","","","","","","","","","","","",""
"","19.845000002533197","sequential-stimulus-presentation","137","200335","0.0-29.0-1.1","SS1613138420933","trial","","40","800","819.8450000025332","images/stimuli/spore_stims/complex_03_B_a.gif","images/stimuli/spore_stims/complex_03_A_a.gif","","","","","7","complex_similar","images/stimuli/spore_stims/complex_03_A_a.gif","right","","","","",""
"","null","html-keyboard-response","138","201522","0.0-29.0-0.2","SS1613138420933","","","null","","","","","<p><img src= images/blank.png width =""200"" height = ""200"" style = ""float:right""></p><p><img src=images/blank.png width =""800"" height = ""200""></p>","","","","","","","","","","","",""
"","34.24000000813976","sequential-stimulus-presentation","139","202382","0.0-29.0-1.2","SS1613138420933","trial","","40","800","834.2400000081398","images/stimuli/spore_stims/complex_03_B_a.gif","images/stimuli/spore_stims/complex_03_A_a.gif","","","","","7","complex_similar","images/stimuli/spore_stims/complex_03_A_a.gif","right","","","","",""
"","null","html-keyboard-response","140","203235","0.0-29.0-0.3","SS1613138420933","","","null","","","","","<p><img src= images/blank.png width =""200"" height = ""200"" style = ""float:right""></p><p><img src=images/blank.png width =""800"" height = ""200""></p>","","","","","","","","","","","",""
"","63.6850000009872","sequential-stimulus-presentation","141","204123","0.0-29.0-1.3","SS1613138420933","trial","","40","800","863.6850000009872","images/stimuli/spore_stims/complex_03_B_a.gif","images/stimuli/spore_stims/complex_03_A_a.gif","","","","","7","complex_similar","images/stimuli/spore_stims/complex_03_A_a.gif","right","","","","",""
"","null","html-keyboard-response","142","205318","0.0-29.0-0.4","SS1613138420933","","","null","","","","","<p><img src= images/blank.png width =""200"" height = ""200"" style = ""float:right""></p><p><img src=images/blank.png width =""800"" height = ""200""></p>","","","","","","","","","","","",""
"","112.39500000374392","sequential-stimulus-presentation","143","206284","0.0-29.0-1.4","SS1613138420933","trial","","40","800","912.3950000037439","images/stimuli/spore_stims/complex_03_B_a.gif","images/stimuli/spore_stims/complex_03_A_a.gif","","","","","7","complex_similar","images/stimuli/spore_stims/complex_03_B_a.gif","middle","","","","",""
"","null","html-keyboard-response","144","207251","0.0-29.0-0.5","SS1613138420933","","","null","","","","","<p><img src= images/blank.png width =""200"" height = ""200"" style = ""float:right""></p><p><img src=images/blank.png width =""800"" height = ""200""></p>","","","","","","","","","","","",""
"","172.51999999280088","sequential-stimulus-presentation","145","208264","0.0-29.0-1.5","SS1613138420933","trial","","40","800","972.5199999928009","images/stimuli/spore_stims/complex_03_B_a.gif","images/stimuli/spore_stims/complex_03_A_a.gif","","","","","7","complex_similar","images/stimuli/spore_stims/complex_03_A_a.gif","right","","","","",""
"","null","html-keyboard-response","146","209302","0.0-29.0-0.6","SS1613138420933","","","null","","","","","<p><img src= images/blank.png width =""200"" height = ""200"" style = ""float:right""></p><p><img src=images/blank.png width =""800"" height = ""200""></p>","","","","","","","","","","","",""
"","41.865000006509945","sequential-stimulus-presentation","147","210172","0.0-29.0-1.6","SS1613138420933","trial","","40","800","841.86500000651","images/stimuli/spore_stims/complex_03_B_a.gif","images/stimuli/spore_stims/complex_03_A_a.gif","","","","","7","complex_similar","images/stimuli/spore_stims/complex_03_A_a.gif","right","","","","",""
"","null","html-keyboard-response","148","211247","0.0-29.0-0.7","SS1613138420933","","","null","","","","","<p><img src= images/blank.png width =""200"" height = ""200"" style = ""float:right""></p><p><img src=images/blank.png width =""800"" height = ""200""></p>","","","","","","","","","","","",""
"","182.57999999332242","sequential-stimulus-presentation","149","212253","0.0-29.0-1.7","SS1613138420933","trial","","40","800","982.5799999933224","images/stimuli/spore_stims/complex_03_B_a.gif","images/stimuli/spore_stims/complex_03_A_a.gif","","","","","7","complex_similar","images/stimuli/spore_stims/complex_03_A_a.gif","right","","","","",""
"","1754.1350000246894","html-keyboard-response","150","214022","0.0-30.0","SS1613138420933","pref_question","","49","","","","","<video width ='960' height = '540' style='padding-top:8%' autoplay muted><source src='images/stimuli/wall_pref.mp4' type='video/mp4'></video>","1","left","25%","7","","","","","","","",""
"","144.98499999172054","sequential-stimulus-presentation","151","214984","0.0-31.0","SS1613138420933","pref_reveal","","40","800","944.9849999917205","null","null","","","","","7","","","","novel","","","",""
"","null","html-keyboard-response","152","216222","0.0-32.0-0.0","SS1613138420933","","","null","","","","","<p><img src= images/blank.png width =""200"" height = ""200"" style = ""float:right""></p><p><img src=images/blank.png width =""800"" height = ""200""></p>","","","","","","","","","","","",""
"","31.134999997448176","sequential-stimulus-presentation","153","217093","0.0-32.0-1.0","SS1613138420933","trial","","40","800","831.1349999974482","images/stimuli/spore_stims/complex_14_A_d.gif","images/stimuli/spore_stims/complex_14_B_d.gif","","","","","8","complex_similar","images/stimuli/spore_stims/complex_14_B_d.gif","left","","","","",""
"","null","html-keyboard-response","154","218393","0.0-32.0-0.1","SS1613138420933","","","null","","","","","<p><img src= images/blank.png width =""200"" height = ""200"" style = ""float:right""></p><p><img src=images/blank.png width =""800"" height = ""200""></p>","","","","","","","","","","","",""
"","39.70000002300367","sequential-stimulus-presentation","155","219254","0.0-32.0-1.1","SS1613138420933","trial","","40","800","839.7000000230037","images/stimuli/spore_stims/complex_14_A_d.gif","images/stimuli/spore_stims/complex_14_B_d.gif","","","","","8","complex_similar","images/stimuli/spore_stims/complex_14_B_d.gif","left","","","","",""
"","null","html-keyboard-response","156","220308","0.0-32.0-0.2","SS1613138420933","","","null","","","","","<p><img src= images/blank.png width =""200"" height = ""200"" style = ""float:right""></p><p><img src=images/blank.png width =""800"" height = ""200""></p>","","","","","","","","","","","",""
"","40.13999999733642","sequential-stimulus-presentation","157","221185","0.0-32.0-1.2","SS1613138420933","trial","","40","800","840.1399999973364","images/stimuli/spore_stims/complex_14_A_d.gif","images/stimuli/spore_stims/complex_14_B_d.gif","","","","","8","complex_similar","images/stimuli/spore_stims/complex_14_B_d.gif","left","","","","",""
"","null","html-keyboard-response","158","222455","0.0-32.0-0.3","SS1613138420933","","","null","","","","","<p><img src= images/blank.png width =""200"" height = ""200"" style = ""float:right""></p><p><img src=images/blank.png width =""800"" height = ""200""></p>","","","","","","","","","","","",""
"","74.28500000969507","sequential-stimulus-presentation","159","223344","0.0-32.0-1.3","SS1613138420933","trial","","40","800","874.2850000096951","images/stimuli/spore_stims/complex_14_A_d.gif","images/stimuli/spore_stims/complex_14_B_d.gif","","","","","8","complex_similar","images/stimuli/spore_stims/complex_14_B_d.gif","left","","","","",""
"","null","html-keyboard-response","160","224218","0.0-32.0-0.4","SS1613138420933","","","null","","","","","<p><img src= images/blank.png width =""200"" height = ""200"" style = ""float:right""></p><p><img src=images/blank.png width =""800"" height = ""200""></p>","","","","","","","","","","","",""
"","49.88000000594184","sequential-stimulus-presentation","161","225086","0.0-32.0-1.4","SS1613138420933","trial","","40","800","849.8800000059418","images/stimuli/spore_stims/complex_14_A_d.gif","images/stimuli/spore_stims/complex_14_B_d.gif","","","","","8","complex_similar","images/stimuli/spore_stims/complex_14_B_d.gif","left","","","","",""
"","null","html-keyboard-response","162","226187","0.0-32.0-0.5","SS1613138420933","","","null","","","","","<p><img src= images/blank.png width =""200"" height = ""200"" style = ""float:right""></p><p><img src=images/blank.png width =""800"" height = ""200""></p>","","","","","","","","","","","",""
"","7.60499999159947","sequential-stimulus-presentation","163","227017","0.0-32.0-1.5","SS1613138420933","trial","","40","800","807.6049999915995","images/stimuli/spore_stims/complex_14_A_d.gif","images/stimuli/spore_stims/complex_14_B_d.gif","","","","","8","complex_similar","images/stimuli/spore_stims/complex_14_B_d.gif","left","","","","",""
"","null","html-keyboard-response","164","228087","0.0-32.0-0.6","SS1613138420933","","","null","","","","","<p><img src= images/blank.png width =""200"" height = ""200"" style = ""float:right""></p><p><img src=images/blank.png width =""800"" height = ""200""></p>","","","","","","","","","","","",""
"","117.34500000602566","sequential-stimulus-presentation","165","229019","0.0-32.0-1.6","SS1613138420933","trial","","40","800","917.3450000060257","images/stimuli/spore_stims/complex_14_A_d.gif","images/stimuli/spore_stims/complex_14_B_d.gif","","","","","8","complex_similar","images/stimuli/spore_stims/complex_14_B_d.gif","left","","","","",""
"","null","html-keyboard-response","166","230283","0.0-32.0-0.7","SS1613138420933","","","null","","","","","<p><img src= images/blank.png width =""200"" height = ""200"" style = ""float:right""></p><p><img src=images/blank.png width =""800"" height = ""200""></p>","","","","","","","","","","","",""
"","32.2650000161957","sequential-stimulus-presentation","167","231145","0.0-32.0-1.7","SS1613138420933","trial","","40","800","832.2650000161957","images/stimuli/spore_stims/complex_14_A_d.gif","images/stimuli/spore_stims/complex_14_B_d.gif","","","","","8","complex_similar","images/stimuli/spore_stims/complex_14_A_d.gif","right","","","","",""
"","1751.8850000051316","html-keyboard-response","168","232935","0.0-33.0","SS1613138420933","pref_question","","50","","","","","<video width ='960' height = '540' style='padding-top:8%' autoplay muted><source src='images/stimuli/wall_pref.mp4' type='video/mp4'></video>","2","middle","45%","8","","","","","","","",""
"","111.46500002359971","sequential-stimulus-presentation","169","233865","0.0-34.0","SS1613138420933","pref_reveal","","40","800","911.4650000235997","null","null","","","","","8","","","","novel","","","",""
"","null","html-keyboard-response","170","235107","0.0-35.0-0.0","SS1613138420933","","","null","","","","","<p><img src= images/blank.png width =""200"" height = ""200"" style = ""float:right""></p><p><img src=images/blank.png width =""800"" height = ""200""></p>","","","","","","","","","","","",""
"","75.13000001199543","sequential-stimulus-presentation","171","236006","0.0-35.0-1.0","SS1613138420933","trial","","40","800","875.1300000119954","images/stimuli/spore_stims/complex_02_B_d.gif","images/stimuli/spore_stims/complex_06_A_a.gif","","","","","9","complex_dissimilar","images/stimuli/spore_stims/complex_06_A_a.gif","left","","","","",""
"","null","html-keyboard-response","172","237190","0.0-35.0-0.1","SS1613138420933","","","null","","","","","<p><img src= images/blank.png width =""200"" height = ""200"" style = ""float:right""></p><p><img src=images/blank.png width =""800"" height = ""200""></p>","","","","","","","","","","","",""
"","183.25000000186265","sequential-stimulus-presentation","173","238206","0.0-35.0-1.1","SS1613138420933","trial","","40","800","983.2500000018626","images/stimuli/spore_stims/complex_02_B_d.gif","images/stimuli/spore_stims/complex_06_A_a.gif","","","","","9","complex_dissimilar","images/stimuli/spore_stims/complex_06_A_a.gif","left","","","","",""
"","null","html-keyboard-response","174","239072","0.0-35.0-0.2","SS1613138420933","","","null","","","","","<p><img src= images/blank.png width =""200"" height = ""200"" style = ""float:right""></p><p><img src=images/blank.png width =""800"" height = ""200""></p>","","","","","","","","","","","",""
"","224.4700000155717","sequential-stimulus-presentation","175","240166","0.0-35.0-1.2","SS1613138420933","trial","","40","800","1024.4700000155717","images/stimuli/spore_stims/complex_02_B_d.gif","images/stimuli/spore_stims/complex_06_A_a.gif","","","","","9","complex_dissimilar","images/stimuli/spore_stims/complex_06_A_a.gif","left","","","","",""
"","null","html-keyboard-response","176","241267","0.0-35.0-0.3","SS1613138420933","","","null","","","","","<p><img src= images/blank.png width =""200"" height = ""200"" style = ""float:right""></p><p><img src=images/blank.png width =""800"" height = ""200""></p>","","","","","","","","","","","",""
"","48.18499999237247","sequential-stimulus-presentation","177","242158","0.0-35.0-1.3","SS1613138420933","trial","","40","800","848.1849999923725","images/stimuli/spore_stims/complex_02_B_d.gif","images/stimuli/spore_stims/complex_06_A_a.gif","","","","","9","complex_dissimilar","images/stimuli/spore_stims/complex_06_A_a.gif","left","","","","",""
"","null","html-keyboard-response","178","243068","0.0-35.0-0.4","SS1613138420933","","","null","","","","","<p><img src= images/blank.png width =""200"" height = ""200"" style = ""float:right""></p><p><img src=images/blank.png width =""800"" height = ""200""></p>","","","","","","","","","","","",""
"","135.3499999968335","sequential-stimulus-presentation","179","244028","0.0-35.0-1.4","SS1613138420933","trial","","40","800","935.3499999968335","images/stimuli/spore_stims/complex_02_B_d.gif","images/stimuli/spore_stims/complex_06_A_a.gif","","","","","9","complex_dissimilar","images/stimuli/spore_stims/complex_06_A_a.gif","left","","","","",""
"","null","html-keyboard-response","180","244947","0.0-35.0-0.5","SS1613138420933","","","null","","","","","<p><img src= images/blank.png width =""200"" height = ""200"" style = ""float:right""></p><p><img src=images/blank.png width =""800"" height = ""200""></p>","","","","","","","","","","","",""
"","14.660000015283003","sequential-stimulus-presentation","181","245782","0.0-35.0-1.5","SS1613138420933","trial","","40","800","814.660000015283","images/stimuli/spore_stims/complex_02_B_d.gif","images/stimuli/spore_stims/complex_06_A_a.gif","","","","","9","complex_dissimilar","images/stimuli/spore_stims/complex_06_A_a.gif","left","","","","",""
"","null","html-keyboard-response","182","246695","0.0-35.0-0.6","SS1613138420933","","","null","","","","","<p><img src= images/blank.png width =""200"" height = ""200"" style = ""float:right""></p><p><img src=images/blank.png width =""800"" height = ""200""></p>","","","","","","","","","","","",""
"","221.16999997524545","sequential-stimulus-presentation","183","247750","0.0-35.0-1.6","SS1613138420933","trial","","40","800","1021.1699999752454","images/stimuli/spore_stims/complex_02_B_d.gif","images/stimuli/spore_stims/complex_06_A_a.gif","","","","","9","complex_dissimilar","images/stimuli/spore_stims/complex_06_A_a.gif","left","","","","",""
"","null","html-keyboard-response","184","248940","0.0-35.0-0.7","SS1613138420933","","","null","","","","","<p><img src= images/blank.png width =""200"" height = ""200"" style = ""float:right""></p><p><img src=images/blank.png width =""800"" height = ""200""></p>","","","","","","","","","","","",""
"","166.60999998566695","sequential-stimulus-presentation","185","249934","0.0-35.0-1.7","SS1613138420933","trial","","40","800","966.609999985667","images/stimuli/spore_stims/complex_02_B_d.gif","images/stimuli/spore_stims/complex_06_A_a.gif","","","","","9","complex_dissimilar","images/stimuli/spore_stims/complex_02_B_d.gif","middle","","","","",""
"","1307.3900000017602","html-keyboard-response","186","251254","0.0-36.0","SS1613138420933","pref_question","","50","","","","","<video width ='960' height = '540' style='padding-top:8%' autoplay muted><source src='images/stimuli/wall_pref.mp4' type='video/mp4'></video>","2","middle","45%","9","","","","","","","",""
"","45.68500001914799","sequential-stimulus-presentation","187","252143","0.0-37.0","SS1613138420933","pref_reveal","","40","800","845.685000019148","null","null","","","","","9","","","","deviant","","","",""
"","null","html-keyboard-response","188","253434","0.0-38.0-0.0","SS1613138420933","","","null","","","","","<p><img src= images/blank.png width =""200"" height = ""200"" style = ""float:right""></p><p><img src=images/blank.png width =""800"" height = ""200""></p>","","","","","","","","","","","",""
"","33.3999999857042","sequential-stimulus-presentation","189","254327","0.0-38.0-1.0","SS1613138420933","trial","","40","800","833.3999999857042","images/stimuli/spore_stims/complex_17_A_a.gif","images/stimuli/spore_stims/complex_18_A_a.gif","","","","","10","complex_dissimilar","images/stimuli/spore_stims/complex_18_A_a.gif","right","","","","",""
"","null","html-keyboard-response","190","255379","0.0-38.0-0.1","SS1613138420933","","","null","","","","","<p><img src= images/blank.png width =""200"" height = ""200"" style = ""float:right""></p><p><img src=images/blank.png width =""800"" height = ""200""></p>","","","","","","","","","","","",""
"","146.67000001645647","sequential-stimulus-presentation","191","256352","0.0-38.0-1.1","SS1613138420933","trial","","40","800","946.6700000164565","images/stimuli/spore_stims/complex_17_A_a.gif","images/stimuli/spore_stims/complex_18_A_a.gif","","","","","10","complex_dissimilar","images/stimuli/spore_stims/complex_18_A_a.gif","right","","","","",""
"","null","html-keyboard-response","192","257629","0.0-38.0-0.2","SS1613138420933","","","null","","","","","<p><img src= images/blank.png width =""200"" height = ""200"" style = ""float:right""></p><p><img src=images/blank.png width =""800"" height = ""200""></p>","","","","","","","","","","","",""
"","66.53500001993962","sequential-stimulus-presentation","193","258548","0.0-38.0-1.2","SS1613138420933","trial","","40","800","866.5350000199396","images/stimuli/spore_stims/complex_17_A_a.gif","images/stimuli/spore_stims/complex_18_A_a.gif","","","","","10","complex_dissimilar","images/stimuli/spore_stims/complex_17_A_a.gif","middle","","","","",""
"","null","html-keyboard-response","194","259456","0.0-38.0-0.3","SS1613138420933","","","null","","","","","<p><img src= images/blank.png width =""200"" height = ""200"" style = ""float:right""></p><p><img src=images/blank.png width =""800"" height = ""200""></p>","","","","","","","","","","","",""
"","64.54000002122484","sequential-stimulus-presentation","195","260347","0.0-38.0-1.3","SS1613138420933","trial","","40","800","864.5400000212248","images/stimuli/spore_stims/complex_17_A_a.gif","images/stimuli/spore_stims/complex_18_A_a.gif","","","","","10","complex_dissimilar","images/stimuli/spore_stims/complex_18_A_a.gif","right","","","","",""
"","null","html-keyboard-response","196","261173","0.0-38.0-0.4","SS1613138420933","","","null","","","","","<p><img src= images/blank.png width =""200"" height = ""200"" style = ""float:right""></p><p><img src=images/blank.png width =""800"" height = ""200""></p>","","","","","","","","","","","",""
"","174.5050000026822","sequential-stimulus-presentation","197","262176","0.0-38.0-1.4","SS1613138420933","trial","","40","800","974.5050000026822","images/stimuli/spore_stims/complex_17_A_a.gif","images/stimuli/spore_stims/complex_18_A_a.gif","","","","","10","complex_dissimilar","images/stimuli/spore_stims/complex_18_A_a.gif","right","","","","",""
"","null","html-keyboard-response","198","263310","0.0-38.0-0.5","SS1613138420933","","","null","","","","","<p><img src= images/blank.png width =""200"" height = ""200"" style = ""float:right""></p><p><img src=images/blank.png width =""800"" height = ""200""></p>","","","","","","","","","","","",""
"","218.6550000042189","sequential-stimulus-presentation","199","264346","0.0-38.0-1.5","SS1613138420933","trial","","40","800","1018.6550000042189","images/stimuli/spore_stims/complex_17_A_a.gif","images/stimuli/spore_stims/complex_18_A_a.gif","","","","","10","complex_dissimilar","images/stimuli/spore_stims/complex_18_A_a.gif","right","","","","",""
"","null","html-keyboard-response","200","265629","0.0-38.0-0.6","SS1613138420933","","","null","","","","","<p><img src= images/blank.png width =""200"" height = ""200"" style = ""float:right""></p><p><img src=images/blank.png width =""800"" height = ""200""></p>","","","","","","","","","","","",""
"","154.8999999940861","sequential-stimulus-presentation","201","266615","0.0-38.0-1.6","SS1613138420933","trial","","40","800","954.8999999940861","images/stimuli/spore_stims/complex_17_A_a.gif","images/stimuli/spore_stims/complex_18_A_a.gif","","","","","10","complex_dissimilar","images/stimuli/spore_stims/complex_18_A_a.gif","right","","","","",""
"","null","html-keyboard-response","202","267702","0.0-38.0-0.7","SS1613138420933","","","null","","","","","<p><img src= images/blank.png width =""200"" height = ""200"" style = ""float:right""></p><p><img src=images/blank.png width =""800"" height = ""200""></p>","","","","","","","","","","","",""
"","56.315000023460016","sequential-stimulus-presentation","203","268589","0.0-38.0-1.7","SS1613138420933","trial","","40","800","856.31500002346","images/stimuli/spore_stims/complex_17_A_a.gif","images/stimuli/spore_stims/complex_18_A_a.gif","","","","","10","complex_dissimilar","images/stimuli/spore_stims/complex_18_A_a.gif","right","","","","",""
"","62.319999997271225","html-keyboard-response","204","268722","0.0-39.0","SS1613138420933","pref_question","","50","","","","","<video width ='960' height = '540' style='padding-top:8%' autoplay muted><source src='images/stimuli/wall_pref.mp4' type='video/mp4'></video>","2","middle","45%","10","","","","","","","",""
"","56.34499998996034","sequential-stimulus-presentation","205","269607","0.0-40.0","SS1613138420933","pref_reveal","","40","800","856.3449999899603","null","null","","","","","10","","","","deviant","","","",""
"","null","html-keyboard-response","206","270530","0.0-41.0-0.0","SS1613138420933","","","null","","","","","<p><img src= images/blank.png width =""200"" height = ""200"" style = ""float:right""></p><p><img src=images/blank.png width =""800"" height = ""200""></p>","","","","","","","","","","","",""
"","18.110000004526228","sequential-stimulus-presentation","207","271374","0.0-41.0-1.0","SS1613138420933","trial","","40","800","818.1100000045262","images/stimuli/spore_stims/complex_11_B_b.gif","images/stimuli/spore_stims/complex_11_A_b.gif","","","","","11","complex_similar","images/stimuli/spore_stims/complex_11_A_b.gif","middle","","","","",""
"","null","html-keyboard-response","208","272600","0.0-41.0-0.1","SS1613138420933","","","null","","","","","<p><img src= images/blank.png width =""200"" height = ""200"" style = ""float:right""></p><p><img src=images/blank.png width =""800"" height = ""200""></p>","","","","","","","","","","","",""
"","113.0399999965448","sequential-stimulus-presentation","209","273532","0.0-41.0-1.1","SS1613138420933","trial","","40","800","913.0399999965448","images/stimuli/spore_stims/complex_11_B_b.gif","images/stimuli/spore_stims/complex_11_A_b.gif","","","","","11","complex_similar","images/stimuli/spore_stims/complex_11_A_b.gif","middle","","","","",""
"","null","html-keyboard-response","210","274618","0.0-41.0-0.2","SS1613138420933","","","null","","","","","<p><img src= images/blank.png width =""200"" height = ""200"" style = ""float:right""></p><p><img src=images/blank.png width =""800"" height = ""200""></p>","","","","","","","","","","","",""
"","31.539999996311963","sequential-stimulus-presentation","211","275506","0.0-41.0-1.2","SS1613138420933","trial","","40","800","831.539999996312","images/stimuli/spore_stims/complex_11_B_b.gif","images/stimuli/spore_stims/complex_11_A_b.gif","","","","","11","complex_similar","images/stimuli/spore_stims/complex_11_A_b.gif","middle","","","","",""
"","null","html-keyboard-response","212","276348","0.0-41.0-0.3","SS1613138420933","","","null","","","","","<p><img src= images/blank.png width =""200"" height = ""200"" style = ""float:right""></p><p><img src=images/blank.png width =""800"" height = ""200""></p>","","","","","","","","","","","",""
"","186.56999999075197","sequential-stimulus-presentation","213","277379","0.0-41.0-1.3","SS1613138420933","trial","","40","800","986.569999990752","images/stimuli/spore_stims/complex_11_B_b.gif","images/stimuli/spore_stims/complex_11_A_b.gif","","","","","11","complex_similar","images/stimuli/spore_stims/complex_11_B_b.gif","right","","","","",""
"","null","html-keyboard-response","214","278584","0.0-41.0-0.4","SS1613138420933","","","null","","","","","<p><img src= images/blank.png width =""200"" height = ""200"" style = ""float:right""></p><p><img src=images/blank.png width =""800"" height = ""200""></p>","","","","","","","","","","","",""
"","115.06999999983236","sequential-stimulus-presentation","215","279524","0.0-41.0-1.4","SS1613138420933","trial","","40","800","915.0699999998324","images/stimuli/spore_stims/complex_11_B_b.gif","images/stimuli/spore_stims/complex_11_A_b.gif","","","","","11","complex_similar","images/stimuli/spore_stims/complex_11_A_b.gif","middle","","","","",""
"","null","html-keyboard-response","216","280351","0.0-41.0-0.5","SS1613138420933","","","null","","","","","<p><img src= images/blank.png width =""200"" height = ""200"" style = ""float:right""></p><p><img src=images/blank.png width =""800"" height = ""200""></p>","","","","","","","","","","","",""
"","100.40500000468455","sequential-stimulus-presentation","217","281296","0.0-41.0-1.5","SS1613138420933","trial","","40","800","900.4050000046846","images/stimuli/spore_stims/complex_11_B_b.gif","images/stimuli/spore_stims/complex_11_A_b.gif","","","","","11","complex_similar","images/stimuli/spore_stims/complex_11_A_b.gif","middle","","","","",""
"","null","html-keyboard-response","218","282201","0.0-41.0-0.6","SS1613138420933","","","null","","","","","<p><img src= images/blank.png width =""200"" height = ""200"" style = ""float:right""></p><p><img src=images/blank.png width =""800"" height = ""200""></p>","","","","","","","","","","","",""
"","210.18500000354834","sequential-stimulus-presentation","219","283262","0.0-41.0-1.6","SS1613138420933","trial","","40","800","1010.1850000035483","images/stimuli/spore_stims/complex_11_B_b.gif","images/stimuli/spore_stims/complex_11_A_b.gif","","","","","11","complex_similar","images/stimuli/spore_stims/complex_11_A_b.gif","middle","","","","",""
"","null","html-keyboard-response","220","284388","0.0-41.0-0.7","SS1613138420933","","","null","","","","","<p><img src= images/blank.png width =""200"" height = ""200"" style = ""float:right""></p><p><img src=images/blank.png width =""800"" height = ""200""></p>","","","","","","","","","","","",""
"","93.38499998557381","sequential-stimulus-presentation","221","285306","0.0-41.0-1.7","SS1613138420933","trial","","40","800","893.3849999855738","images/stimuli/spore_stims/complex_11_B_b.gif","images/stimuli/spore_stims/complex_11_A_b.gif","","","","","11","complex_similar","images/stimuli/spore_stims/complex_11_A_b.gif","middle","","","","",""
"","2457.800000003772","html-keyboard-response","222","287783","0.0-42.0","SS1613138420933","pref_question","","50","","","","","<video width ='960' height = '540' style='padding-top:8%' autoplay muted><source src='images/stimuli/wall_pref.mp4' type='video/mp4'></video>","2","middle","45%","11","","","","","","","",""
"","109.15000000386499","sequential-stimulus-presentation","223","288719","0.0-43.0","SS1613138420933","pref_reveal","","40","800","909.150000003865","null","null","","","","","11","","","","background","","","",""
"","null","html-keyboard-response","224","289958","0.0-44.0-0.0","SS1613138420933","","","null","","","","","<p><img src= images/blank.png width =""200"" height = ""200"" style = ""float:right""></p><p><img src=images/blank.png width =""800"" height = ""200""></p>","","","","","","","","","","","",""
"","46.12500002258457","sequential-stimulus-presentation","225","290828","0.0-44.0-1.0","SS1613138420933","trial","","40","800","846.1250000225846","images/stimuli/spore_stims/simple_07_A_a.gif","images/stimuli/spore_stims/simple_07_B_a.gif","","","","","12","simple_similar","images/stimuli/spore_stims/simple_07_B_a.gif","right","","","","",""
"","null","html-keyboard-response","226","292014","0.0-44.0-0.1","SS1613138420933","","","null","","","","","<p><img src= images/blank.png width =""200"" height = ""200"" style = ""float:right""></p><p><img src=images/blank.png width =""800"" height = ""200""></p>","","","","","","","","","","","",""
"","253.76500000129454","sequential-stimulus-presentation","227","293099","0.0-44.0-1.1","SS1613138420933","trial","","40","800","1053.7650000012945","images/stimuli/spore_stims/simple_07_A_a.gif","images/stimuli/spore_stims/simple_07_B_a.gif","","","","","12","simple_similar","images/stimuli/spore_stims/simple_07_B_a.gif","right","","","","",""
"","null","html-keyboard-response","228","294064","0.0-44.0-0.2","SS1613138420933","","","null","","","","","<p><img src= images/blank.png width =""200"" height = ""200"" style = ""float:right""></p><p><img src=images/blank.png width =""800"" height = ""200""></p>","","","","","","","","","","","",""
"","1.6949999844655395","sequential-stimulus-presentation","229","294894","0.0-44.0-1.2","SS1613138420933","trial","","40","800","801.6949999844655","images/stimuli/spore_stims/simple_07_A_a.gif","images/stimuli/spore_stims/simple_07_B_a.gif","","","","","12","simple_similar","images/stimuli/spore_stims/simple_07_A_a.gif","left","","","","",""
"","null","html-keyboard-response","230","295804","0.0-44.0-0.3","SS1613138420933","","","null","","","","","<p><img src= images/blank.png width =""200"" height = ""200"" style = ""float:right""></p><p><img src=images/blank.png width =""800"" height = ""200""></p>","","","","","","","","","","","",""
"","19.33500001905486","sequential-stimulus-presentation","231","296647","0.0-44.0-1.3","SS1613138420933","trial","","40","800","819.3350000190549","images/stimuli/spore_stims/simple_07_A_a.gif","images/stimuli/spore_stims/simple_07_B_a.gif","","","","","12","simple_similar","images/stimuli/spore_stims/simple_07_B_a.gif","right","","","","",""
"","null","html-keyboard-response","232","297491","0.0-44.0-0.4","SS1613138420933","","","null","","","","","<p><img src= images/blank.png width =""200"" height = ""200"" style = ""float:right""></p><p><img src=images/blank.png width =""800"" height = ""200""></p>","","","","","","","","","","","",""
"","61.45499998820014","sequential-stimulus-presentation","233","298417","0.0-44.0-1.4","SS1613138420933","trial","","40","800","861.4549999882001","images/stimuli/spore_stims/simple_07_A_a.gif","images/stimuli/spore_stims/simple_07_B_a.gif","","","","","12","simple_similar","images/stimuli/spore_stims/simple_07_B_a.gif","right","","","","",""
"","null","html-keyboard-response","234","299404","0.0-44.0-0.5","SS1613138420933","","","null","","","","","<p><img src= images/blank.png width =""200"" height = ""200"" style = ""float:right""></p><p><img src=images/blank.png width =""800"" height = ""200""></p>","","","","","","","","","","","",""
"","167.40500001469627","sequential-stimulus-presentation","235","300421","0.0-44.0-1.5","SS1613138420933","trial","","40","800","967.4050000146963","images/stimuli/spore_stims/simple_07_A_a.gif","images/stimuli/spore_stims/simple_07_B_a.gif","","","","","12","simple_similar","images/stimuli/spore_stims/simple_07_B_a.gif","right","","","","",""
"","null","html-keyboard-response","236","301655","0.0-44.0-0.6","SS1613138420933","","","null","","","","","<p><img src= images/blank.png width =""200"" height = ""200"" style = ""float:right""></p><p><img src=images/blank.png width =""800"" height = ""200""></p>","","","","","","","","","","","",""
"","183.6650000186637","sequential-stimulus-presentation","237","302661","0.0-44.0-1.6","SS1613138420933","trial","","40","800","983.6650000186637","images/stimuli/spore_stims/simple_07_A_a.gif","images/stimuli/spore_stims/simple_07_B_a.gif","","","","","12","simple_similar","images/stimuli/spore_stims/simple_07_B_a.gif","right","","","","",""
"","null","html-keyboard-response","238","303972","0.0-44.0-0.7","SS1613138420933","","","null","","","","","<p><img src= images/blank.png width =""200"" height = ""200"" style = ""float:right""></p><p><img src=images/blank.png width =""800"" height = ""200""></p>","","","","","","","","","","","",""
"","389.1449999937322","sequential-stimulus-presentation","239","305180","0.0-44.0-1.7","SS1613138420933","trial","","40","800","1189.1449999937322","images/stimuli/spore_stims/simple_07_A_a.gif","images/stimuli/spore_stims/simple_07_B_a.gif","","","","","12","simple_similar","images/stimuli/spore_stims/simple_07_B_a.gif","right","","","","",""
"","1934.3600000138395","html-keyboard-response","240","307165","0.0-45.0","SS1613138420933","pref_question","","49","","","","","<video width ='960' height = '540' style='padding-top:8%' autoplay muted><source src='images/stimuli/wall_pref.mp4' type='video/mp4'></video>","1","left","25%","12","","","","","","","",""
"","20.764999993843958","sequential-stimulus-presentation","241","308015","0.0-46.0","SS1613138420933","pref_reveal","","40","800","820.764999993844","null","null","","","","","12","","","","deviant","","","",""
"","null","html-keyboard-response","242","309025","0.0-47.0-0.0","SS1613138420933","","","null","","","","","<p><img src= images/blank.png width =""200"" height = ""200"" style = ""float:right""></p><p><img src=images/blank.png width =""800"" height = ""200""></p>","","","","","","","","","","","",""
"","186.62000002223067","sequential-stimulus-presentation","243","310052","0.0-47.0-1.0","SS1613138420933","trial","","40","800","986.6200000222307","images/stimuli/spore_stims/complex_07_A_d.gif","images/stimuli/spore_stims/complex_10_B_b.gif","","","","","13","complex_dissimilar","images/stimuli/spore_stims/complex_10_B_b.gif","middle","","","","",""
"","null","html-keyboard-response","244","311305","0.0-47.0-0.1","SS1613138420933","","","null","","","","","<p><img src= images/blank.png width =""200"" height = ""200"" style = ""float:right""></p><p><img src=images/blank.png width =""800"" height = ""200""></p>","","","","","","","","","","","",""
"","77.93500000843778","sequential-stimulus-presentation","245","312215","0.0-47.0-1.1","SS1613138420933","trial","","40","800","877.9350000084378","images/stimuli/spore_stims/complex_07_A_d.gif","images/stimuli/spore_stims/complex_10_B_b.gif","","","","","13","complex_dissimilar","images/stimuli/spore_stims/complex_10_B_b.gif","middle","","","","",""
"","null","html-keyboard-response","246","313165","0.0-47.0-0.2","SS1613138420933","","","null","","","","","<p><img src= images/blank.png width =""200"" height = ""200"" style = ""float:right""></p><p><img src=images/blank.png width =""800"" height = ""200""></p>","","","","","","","","","","","",""
"","176.1899999983143","sequential-stimulus-presentation","247","314217","0.0-47.0-1.2","SS1613138420933","trial","","40","800","976.1899999983143","images/stimuli/spore_stims/complex_07_A_d.gif","images/stimuli/spore_stims/complex_10_B_b.gif","","","","","13","complex_dissimilar","images/stimuli/spore_stims/complex_10_B_b.gif","middle","","","","",""
"","null","html-keyboard-response","248","315204","0.0-47.0-0.3","SS1613138420933","","","null","","","","","<p><img src= images/blank.png width =""200"" height = ""200"" style = ""float:right""></p><p><img src=images/blank.png width =""800"" height = ""200""></p>","","","","","","","","","","","",""
"","208.4599999943748","sequential-stimulus-presentation","249","316236","0.0-47.0-1.3","SS1613138420933","trial","","40","800","1008.4599999943748","images/stimuli/spore_stims/complex_07_A_d.gif","images/stimuli/spore_stims/complex_10_B_b.gif","","","","","13","complex_dissimilar","images/stimuli/spore_stims/complex_10_B_b.gif","middle","","","","",""
"","null","html-keyboard-response","250","317321","0.0-47.0-0.4","SS1613138420933","","","null","","","","","<p><img src= images/blank.png width =""200"" height = ""200"" style = ""float:right""></p><p><img src=images/blank.png width =""800"" height = ""200""></p>","","","","","","","","","","","",""
"","103.09499999857508","sequential-stimulus-presentation","251","318260","0.0-47.0-1.4","SS1613138420933","trial","","40","800","903.0949999985751","images/stimuli/spore_stims/complex_07_A_d.gif","images/stimuli/spore_stims/complex_10_B_b.gif","","","","","13","complex_dissimilar","images/stimuli/spore_stims/complex_10_B_b.gif","middle","","","","",""
"","null","html-keyboard-response","252","319120","0.0-47.0-0.5","SS1613138420933","","","null","","","","","<p><img src= images/blank.png width =""200"" height = ""200"" style = ""float:right""></p><p><img src=images/blank.png width =""800"" height = ""200""></p>","","","","","","","","","","","",""
"","50.41000002529472","sequential-stimulus-presentation","253","320004","0.0-47.0-1.5","SS1613138420933","trial","","40","800","850.4100000252947","images/stimuli/spore_stims/complex_07_A_d.gif","images/stimuli/spore_stims/complex_10_B_b.gif","","","","","13","complex_dissimilar","images/stimuli/spore_stims/complex_10_B_b.gif","middle","","","","",""
"","null","html-keyboard-response","254","321082","0.0-47.0-0.6","SS1613138420933","","","null","","","","","<p><img src= images/blank.png width =""200"" height = ""200"" style = ""float:right""></p><p><img src=images/blank.png width =""800"" height = ""200""></p>","","","","","","","","","","","",""
"","81.50500000920147","sequential-stimulus-presentation","255","321983","0.0-47.0-1.6","SS1613138420933","trial","","40","800","881.5050000092015","images/stimuli/spore_stims/complex_07_A_d.gif","images/stimuli/spore_stims/complex_10_B_b.gif","","","","","13","complex_dissimilar","images/stimuli/spore_stims/complex_07_A_d.gif","right","","","","",""
"","null","html-keyboard-response","256","323232","0.0-47.0-0.7","SS1613138420933","","","null","","","","","<p><img src= images/blank.png width =""200"" height = ""200"" style = ""float:right""></p><p><img src=images/blank.png width =""800"" height = ""200""></p>","","","","","","","","","","","",""
"","245.5949999857694","sequential-stimulus-presentation","257","324304","0.0-47.0-1.7","SS1613138420933","trial","","40","800","1045.5949999857694","images/stimuli/spore_stims/complex_07_A_d.gif","images/stimuli/spore_stims/complex_10_B_b.gif","","","","","13","complex_dissimilar","images/stimuli/spore_stims/complex_10_B_b.gif","middle","","","","",""
"","1331.8350000190549","html-keyboard-response","258","325655","0.0-48.0","SS1613138420933","pref_question","","50","","","","","<video width ='960' height = '540' style='padding-top:8%' autoplay muted><source src='images/stimuli/wall_pref.mp4' type='video/mp4'></video>","2","middle","45%","13","","","","","","","",""
"","79.19499999843538","sequential-stimulus-presentation","259","326565","0.0-49.0","SS1613138420933","pref_reveal","","40","800","879.1949999984354","null","null","","","","","13","","","","background","","","",""
"","null","html-keyboard-response","260","327469","0.0-50.0-0.0","SS1613138420933","","","null","","","","","<p><img src= images/blank.png width =""200"" height = ""200"" style = ""float:right""></p><p><img src=images/blank.png width =""800"" height = ""200""></p>","","","","","","","","","","","",""
"","242.18000000109896","sequential-stimulus-presentation","261","328534","0.0-50.0-1.0","SS1613138420933","trial","","40","800","1042.180000001099","images/stimuli/spore_stims/simple_01_B_d.gif","images/stimuli/spore_stims/simple_18_B_b.gif","","","","","14","simple_dissimilar","images/stimuli/spore_stims/simple_18_B_b.gif","left","","","","",""
"","null","html-keyboard-response","262","329709","0.0-50.0-0.1","SS1613138420933","","","null","","","","","<p><img src= images/blank.png width =""200"" height = ""200"" style = ""float:right""></p><p><img src=images/blank.png width =""800"" height = ""200""></p>","","","","","","","","","","","",""
"","148.29500002088025","sequential-stimulus-presentation","263","330685","0.0-50.0-1.1","SS1613138420933","trial","","40","800","948.2950000208803","images/stimuli/spore_stims/simple_01_B_d.gif","images/stimuli/spore_stims/simple_18_B_b.gif","","","","","14","simple_dissimilar","images/stimuli/spore_stims/simple_18_B_b.gif","left","","","","",""
"","null","html-keyboard-response","264","331516","0.0-50.0-0.2","SS1613138420933","","","null","","","","","<p><img src= images/blank.png width =""200"" height = ""200"" style = ""float:right""></p><p><img src=images/blank.png width =""800"" height = ""200""></p>","","","","","","","","","","","",""
"","73.29999998910353","sequential-stimulus-presentation","265","332428","0.0-50.0-1.2","SS1613138420933","trial","","40","800","873.2999999891035","images/stimuli/spore_stims/simple_01_B_d.gif","images/stimuli/spore_stims/simple_18_B_b.gif","","","","","14","simple_dissimilar","images/stimuli/spore_stims/simple_18_B_b.gif","left","","","","",""
"","null","html-keyboard-response","266","333412","0.0-50.0-0.3","SS1613138420933","","","null","","","","","<p><img src= images/blank.png width =""200"" height = ""200"" style = ""float:right""></p><p><img src=images/blank.png width =""800"" height = ""200""></p>","","","","","","","","","","","",""
"","221.38999999151565","sequential-stimulus-presentation","267","334462","0.0-50.0-1.3","SS1613138420933","trial","","40","800","1021.3899999915157","images/stimuli/spore_stims/simple_01_B_d.gif","images/stimuli/spore_stims/simple_18_B_b.gif","","","","","14","simple_dissimilar","images/stimuli/spore_stims/simple_18_B_b.gif","left","","","","",""
"","null","html-keyboard-response","268","335381","0.0-50.0-0.4","SS1613138420933","","","null","","","","","<p><img src= images/blank.png width =""200"" height = ""200"" style = ""float:right""></p><p><img src=images/blank.png width =""800"" height = ""200""></p>","","","","","","","","","","","",""
"","180.08499999996275","sequential-stimulus-presentation","269","336388","0.0-50.0-1.4","SS1613138420933","trial","","40","800","980.0849999999627","images/stimuli/spore_stims/simple_01_B_d.gif","images/stimuli/spore_stims/simple_18_B_b.gif","","","","","14","simple_dissimilar","images/stimuli/spore_stims/simple_18_B_b.gif","left","","","","",""
"","null","html-keyboard-response","270","337692","0.0-50.0-0.5","SS1613138420933","","","null","","","","","<p><img src= images/blank.png width =""200"" height = ""200"" style = ""float:right""></p><p><img src=images/blank.png width =""800"" height = ""200""></p>","","","","","","","","","","","",""
"","191.02500000735745","sequential-stimulus-presentation","271","338740","0.0-50.0-1.5","SS1613138420933","trial","","40","800","991.0250000073574","images/stimuli/spore_stims/simple_01_B_d.gif","images/stimuli/spore_stims/simple_18_B_b.gif","","","","","14","simple_dissimilar","images/stimuli/spore_stims/simple_18_B_b.gif","left","","","","",""
"","null","html-keyboard-response","272","339578","0.0-50.0-0.6","SS1613138420933","","","null","","","","","<p><img src= images/blank.png width =""200"" height = ""200"" style = ""float:right""></p><p><img src=images/blank.png width =""800"" height = ""200""></p>","","","","","","","","","","","",""
"","82.00500000384636","sequential-stimulus-presentation","273","340494","0.0-50.0-1.6","SS1613138420933","trial","","40","800","882.0050000038464","images/stimuli/spore_stims/simple_01_B_d.gif","images/stimuli/spore_stims/simple_18_B_b.gif","","","","","14","simple_dissimilar","images/stimuli/spore_stims/simple_18_B_b.gif","left","","","","",""
"","null","html-keyboard-response","274","341763","0.0-50.0-0.7","SS1613138420933","","","null","","","","","<p><img src= images/blank.png width =""200"" height = ""200"" style = ""float:right""></p><p><img src=images/blank.png width =""800"" height = ""200""></p>","","","","","","","","","","","",""
"","57.730000000447035","sequential-stimulus-presentation","275","342665","0.0-50.0-1.7","SS1613138420933","trial","","40","800","857.730000000447","images/stimuli/spore_stims/simple_01_B_d.gif","images/stimuli/spore_stims/simple_18_B_b.gif","","","","","14","simple_dissimilar","images/stimuli/spore_stims/simple_01_B_d.gif","middle","","","","",""
"","4333.6899999994785","html-keyboard-response","276","347015","0.0-51.0","SS1613138420933","pref_question","","50","","","","","<video width ='960' height = '540' style='padding-top:8%' autoplay muted><source src='images/stimuli/wall_pref.mp4' type='video/mp4'></video>","2","middle","45%","14","","","","","","","",""
"","19.729999999981374","sequential-stimulus-presentation","277","347866","0.0-52.0","SS1613138420933","pref_reveal","","40","800","819.7299999999814","null","null","","","","","14","","","","deviant","","","",""
"","null","html-keyboard-response","278","349111","0.0-53.0-0.0","SS1613138420933","","","null","","","","","<p><img src= images/blank.png width =""200"" height = ""200"" style = ""float:right""></p><p><img src=images/blank.png width =""800"" height = ""200""></p>","","","","","","","","","","","",""
"","7.790000003296882","sequential-stimulus-presentation","279","349984","0.0-53.0-1.0","SS1613138420933","trial","","40","800","807.7900000032969","images/stimuli/spore_stims/complex_13_A_d.gif","images/stimuli/spore_stims/complex_13_B_d.gif","","","","","15","complex_similar","images/stimuli/spore_stims/complex_13_B_d.gif","middle","","","","",""
"","null","html-keyboard-response","280","350988","0.0-53.0-0.1","SS1613138420933","","","null","","","","","<p><img src= images/blank.png width =""200"" height = ""200"" style = ""float:right""></p><p><img src=images/blank.png width =""800"" height = ""200""></p>","","","","","","","","","","","",""
"","144.00999998906627","sequential-stimulus-presentation","281","351965","0.0-53.0-1.1","SS1613138420933","trial","","40","800","944.0099999890663","images/stimuli/spore_stims/complex_13_A_d.gif","images/stimuli/spore_stims/complex_13_B_d.gif","","","","","15","complex_similar","images/stimuli/spore_stims/complex_13_B_d.gif","middle","","","","",""
"","null","html-keyboard-response","282","352865","0.0-53.0-0.2","SS1613138420933","","","null","","","","","<p><img src= images/blank.png width =""200"" height = ""200"" style = ""float:right""></p><p><img src=images/blank.png width =""800"" height = ""200""></p>","","","","","","","","","","","",""
"","23.920000006910414","sequential-stimulus-presentation","283","353713","0.0-53.0-1.2","SS1613138420933","trial","","40","800","823.9200000069104","images/stimuli/spore_stims/complex_13_A_d.gif","images/stimuli/spore_stims/complex_13_B_d.gif","","","","","15","complex_similar","images/stimuli/spore_stims/complex_13_B_d.gif","middle","","","","",""
"","null","html-keyboard-response","284","354910","0.0-53.0-0.3","SS1613138420933","","","null","","","","","<p><img src= images/blank.png width =""200"" height = ""200"" style = ""float:right""></p><p><img src=images/blank.png width =""800"" height = ""200""></p>","","","","","","","","","","","",""
"","122.57499998668209","sequential-stimulus-presentation","285","355893","0.0-53.0-1.3","SS1613138420933","trial","","40","800","922.5749999866821","images/stimuli/spore_stims/complex_13_A_d.gif","images/stimuli/spore_stims/complex_13_B_d.gif","","","","","15","complex_similar","images/stimuli/spore_stims/complex_13_B_d.gif","middle","","","","",""
"","null","html-keyboard-response","286","356934","0.0-53.0-0.4","SS1613138420933","","","null","","","","","<p><img src= images/blank.png width =""200"" height = ""200"" style = ""float:right""></p><p><img src=images/blank.png width =""800"" height = ""200""></p>","","","","","","","","","","","",""
"","30.964999983552843","sequential-stimulus-presentation","287","357807","0.0-53.0-1.4","SS1613138420933","trial","","40","800","830.9649999835528","images/stimuli/spore_stims/complex_13_A_d.gif","images/stimuli/spore_stims/complex_13_B_d.gif","","","","","15","complex_similar","images/stimuli/spore_stims/complex_13_B_d.gif","middle","","","","",""
"","null","html-keyboard-response","288","358670","0.0-53.0-0.5","SS1613138420933","","","null","","","","","<p><img src= images/blank.png width =""200"" height = ""200"" style = ""float:right""></p><p><img src=images/blank.png width =""800"" height = ""200""></p>","","","","","","","","","","","",""
"","83.54000002145767","sequential-stimulus-presentation","289","359575","0.0-53.0-1.5","SS1613138420933","trial","","40","800","883.5400000214577","images/stimuli/spore_stims/complex_13_A_d.gif","images/stimuli/spore_stims/complex_13_B_d.gif","","","","","15","complex_similar","images/stimuli/spore_stims/complex_13_B_d.gif","middle","","","","",""
"","null","html-keyboard-response","290","360762","0.0-53.0-0.6","SS1613138420933","","","null","","","","","<p><img src= images/blank.png width =""200"" height = ""200"" style = ""float:right""></p><p><img src=images/blank.png width =""800"" height = ""200""></p>","","","","","","","","","","","",""
"","164.14999999688007","sequential-stimulus-presentation","291","361781","0.0-53.0-1.6","SS1613138420933","trial","","40","800","964.1499999968801","images/stimuli/spore_stims/complex_13_A_d.gif","images/stimuli/spore_stims/complex_13_B_d.gif","","","","","15","complex_similar","images/stimuli/spore_stims/complex_13_B_d.gif","middle","","","","",""
"","null","html-keyboard-response","292","362653","0.0-53.0-0.7","SS1613138420933","","","null","","","","","<p><img src= images/blank.png width =""200"" height = ""200"" style = ""float:right""></p><p><img src=images/blank.png width =""800"" height = ""200""></p>","","","","","","","","","","","",""
"","57.70000000484288","sequential-stimulus-presentation","293","363536","0.0-53.0-1.7","SS1613138420933","trial","","40","800","857.7000000048429","images/stimuli/spore_stims/complex_13_A_d.gif","images/stimuli/spore_stims/complex_13_B_d.gif","","","","","15","complex_similar","images/stimuli/spore_stims/complex_13_A_d.gif","right","","","","",""
"","3067.139999999199","html-keyboard-response","294","366628","0.0-54.0","SS1613138420933","pref_question","","49","","","","","<video width ='960' height = '540' style='padding-top:8%' autoplay muted><source src='images/stimuli/wall_pref.mp4' type='video/mp4'></video>","1","left","25%","15","","","","","","","",""
"","180.00999998184852","sequential-stimulus-presentation","295","367656","0.0-55.0","SS1613138420933","pref_reveal","","40","800","980.0099999818485","null","null","","","","","15","","","","novel","","","",""
"","null","html-keyboard-response","296","368772","0.0-56.0-0.0","SS1613138420933","","","null","","","","","<p><img src= images/blank.png width =""200"" height = ""200"" style = ""float:right""></p><p><img src=images/blank.png width =""800"" height = ""200""></p>","","","","","","","","","","","",""
"","81.15499999257736","sequential-stimulus-presentation","297","369737","0.0-56.0-1.0","SS1613138420933","trial","","40","800","881.1549999925774","images/stimuli/spore_stims/complex_15_A_a.gif","images/stimuli/spore_stims/complex_15_B_a.gif","","","","","16","complex_similar","images/stimuli/spore_stims/complex_15_B_a.gif","middle","","","","",""
"","null","html-keyboard-response","298","370933","0.0-56.0-0.1","SS1613138420933","","","null","","","","","<p><img src= images/blank.png width =""200"" height = ""200"" style = ""float:right""></p><p><img src=images/blank.png width =""800"" height = ""200""></p>","","","","","","","","","","","",""
"","171.0050000110641","sequential-stimulus-presentation","299","371940","0.0-56.0-1.1","SS1613138420933","trial","","40","800","971.0050000110641","images/stimuli/spore_stims/complex_15_A_a.gif","images/stimuli/spore_stims/complex_15_B_a.gif","","","","","16","complex_similar","images/stimuli/spore_stims/complex_15_B_a.gif","middle","","","","",""
"","null","html-keyboard-response","300","372958","0.0-56.0-0.2","SS1613138420933","","","null","","","","","<p><img src= images/blank.png width =""200"" height = ""200"" style = ""float:right""></p><p><img src=images/blank.png width =""800"" height = ""200""></p>","","","","","","","","","","","",""
"","59.97500001103617","sequential-stimulus-presentation","301","373855","0.0-56.0-1.2","SS1613138420933","trial","","40","800","859.9750000110362","images/stimuli/spore_stims/complex_15_A_a.gif","images/stimuli/spore_stims/complex_15_B_a.gif","","","","","16","complex_similar","images/stimuli/spore_stims/complex_15_B_a.gif","middle","","","","",""
"","null","html-keyboard-response","302","374988","0.0-56.0-0.3","SS1613138420933","","","null","","","","","<p><img src= images/blank.png width =""200"" height = ""200"" style = ""float:right""></p><p><img src=images/blank.png width =""800"" height = ""200""></p>","","","","","","","","","","","",""
"","164.45999999996275","sequential-stimulus-presentation","303","375976","0.0-56.0-1.3","SS1613138420933","trial","","40","800","964.4599999999627","images/stimuli/spore_stims/complex_15_A_a.gif","images/stimuli/spore_stims/complex_15_B_a.gif","","","","","16","complex_similar","images/stimuli/spore_stims/complex_15_B_a.gif","middle","","","","",""
"","null","html-keyboard-response","304","377286","0.0-56.0-0.4","SS1613138420933","","","null","","","","","<p><img src= images/blank.png width =""200"" height = ""200"" style = ""float:right""></p><p><img src=images/blank.png width =""800"" height = ""200""></p>","","","","","","","","","","","",""
"","17.39999998244457","sequential-stimulus-presentation","305","378135","0.0-56.0-1.4","SS1613138420933","trial","","40","800","817.3999999824446","images/stimuli/spore_stims/complex_15_A_a.gif","images/stimuli/spore_stims/complex_15_B_a.gif","","","","","16","complex_similar","images/stimuli/spore_stims/complex_15_B_a.gif","middle","","","","",""
"","null","html-keyboard-response","306","378955","0.0-56.0-0.5","SS1613138420933","","","null","","","","","<p><img src= images/blank.png width =""200"" height = ""200"" style = ""float:right""></p><p><img src=images/blank.png width =""800"" height = ""200""></p>","","","","","","","","","","","",""
"","275.2549999859184","sequential-stimulus-presentation","307","380056","0.0-56.0-1.5","SS1613138420933","trial","","40","800","1075.2549999859184","images/stimuli/spore_stims/complex_15_A_a.gif","images/stimuli/spore_stims/complex_15_B_a.gif","","","","","16","complex_similar","images/stimuli/spore_stims/complex_15_B_a.gif","middle","","","","",""
"","null","html-keyboard-response","308","380953","0.0-56.0-0.6","SS1613138420933","","","null","","","","","<p><img src= images/blank.png width =""200"" height = ""200"" style = ""float:right""></p><p><img src=images/blank.png width =""800"" height = ""200""></p>","","","","","","","","","","","",""
"","233.17500000121072","sequential-stimulus-presentation","309","382016","0.0-56.0-1.6","SS1613138420933","trial","","40","800","1033.1750000012107","images/stimuli/spore_stims/complex_15_A_a.gif","images/stimuli/spore_stims/complex_15_B_a.gif","","","","","16","complex_similar","images/stimuli/spore_stims/complex_15_A_a.gif","left","","","","",""
"","null","html-keyboard-response","310","383321","0.0-56.0-0.7","SS1613138420933","","","null","","","","","<p><img src= images/blank.png width =""200"" height = ""200"" style = ""float:right""></p><p><img src=images/blank.png width =""800"" height = ""200""></p>","","","","","","","","","","","",""
"","209.6949999977369","sequential-stimulus-presentation","311","384360","0.0-56.0-1.7","SS1613138420933","trial","","40","800","1009.6949999977369","images/stimuli/spore_stims/complex_15_A_a.gif","images/stimuli/spore_stims/complex_15_B_a.gif","","","","","16","complex_similar","images/stimuli/spore_stims/complex_15_B_a.gif","middle","","","","",""
"","1931.6899999976158","html-keyboard-response","312","386414","0.0-57.0","SS1613138420933","pref_question","","49","","","","","<video width ='960' height = '540' style='padding-top:8%' autoplay muted><source src='images/stimuli/wall_pref.mp4' type='video/mp4'></video>","1","left","25%","16","","","","","","","",""
