"view_history","rt","trial_type","trial_index","time_elapsed","internal_node_id","subject","stimulus_type","trial_stimulus","key_press","minimum_viewing_duration","trial_looking_time","block_deviant","block_background","stimulus","wall_pref","location","location_percent","block_number","block_type","stimulus_displayed","position_displayed","stim_type_selected","responses","question_order","stimulus_left","stimulus_right"
"[{""page_index"":0,""viewing_time"":2601582.445}]","2601583.419999999","instructions","0","2601588","0.0-0.0","SS1613168790250","","","","","","","","","","","","","","","","","","","",""
"[{""page_index"":0,""viewing_time"":3806.1750000012107},{""page_index"":1,""viewing_time"":4979.334999999963}]","8785.75500000082","instructions","1","2613025","0.0-1.0","SS1613168790250","instructions","","","","","","","","","","","","","","","","","","",""
"","4235.404999999329","sequential-stimulus-presentation","2","2618066","0.0-2.0","SS1613168790250","","","40","800","5035.404999999329","null","null","","","","","","","","","","","","",""
"","1065.934999998659","sequential-stimulus-presentation","3","2619938","0.0-3.0","SS1613168790250","","","40","800","1865.934999998659","null","null","","","","","","","","","","","","",""
"[{""page_index"":0,""viewing_time"":2650.119999998715}]","2650.419999998063","instructions","4","2622591","0.0-4.0","SS1613168790250","instructions","","","","","","","","","","","","","","","","","","",""
"","7778.64000000013","html-keyboard-response","5","2630374","0.0-5.0","SS1613168790250","instructions","","49","","","","","<video width ='960' height = '540' autoplay muted><source src='images/stimuli/wall_pref.mp4' type='video/mp4'></video>","1","left","25%","","","","","","","","",""
"","1414.3650000002235","sequential-stimulus-presentation","6","2632602","0.0-6.0","SS1613168790250","pref_reveal","","40","800","2214.3650000002235","null","null","","","","","","","","","","","","",""
"[{""page_index"":0,""viewing_time"":5319.210000001825},{""page_index"":1,""viewing_time"":3152.2000000001863},{""page_index"":2,""viewing_time"":886.1899999976158},{""page_index"":3,""viewing_time"":566.9550000019372}]","9924.96500000218","instructions","7","2642532","0.0-7.0","SS1613168790250","instructions","","","","","","","","","","","","","","","","","","",""
"","null","html-keyboard-response","8","2643347","0.0-8.0-0.0","SS1613168790250","","","null","","","","","<p><img src= images/blank.png width =""200"" height = ""200"" style = ""float:right""></p><p><img src=images/blank.png width =""800"" height = ""200""></p>","","","","","","","","","","","",""
"","744.9799999995157","sequential-stimulus-presentation","9","2644906","0.0-8.0-1.0","SS1613168790250","trial","","40","800","1544.9799999995157","images/stimuli/spore_stims/simple_16_B_c.gif","images/stimuli/spore_stims/simple_16_A_c.gif","","","","","0","simple_similar","images/stimuli/spore_stims/simple_16_A_c.gif","right","","","","",""
"","null","html-keyboard-response","10","2646148","0.0-8.0-0.1","SS1613168790250","","","null","","","","","<p><img src= images/blank.png width =""200"" height = ""200"" style = ""float:right""></p><p><img src=images/blank.png width =""800"" height = ""200""></p>","","","","","","","","","","","",""
"","477.95000000018626","sequential-stimulus-presentation","11","2647440","0.0-8.0-1.1","SS1613168790250","trial","","40","800","1277.9500000001863","images/stimuli/spore_stims/simple_16_B_c.gif","images/stimuli/spore_stims/simple_16_A_c.gif","","","","","0","simple_similar","images/stimuli/spore_stims/simple_16_A_c.gif","right","","","","",""
"","null","html-keyboard-response","12","2648606","0.0-8.0-0.2","SS1613168790250","","","null","","","","","<p><img src= images/blank.png width =""200"" height = ""200"" style = ""float:right""></p><p><img src=images/blank.png width =""800"" height = ""200""></p>","","","","","","","","","","","",""
"","437.0899999993853","sequential-stimulus-presentation","13","2649855","0.0-8.0-1.2","SS1613168790250","trial","","40","800","1237.0899999993853","images/stimuli/spore_stims/simple_16_B_c.gif","images/stimuli/spore_stims/simple_16_A_c.gif","","","","","0","simple_similar","images/stimuli/spore_stims/simple_16_A_c.gif","right","","","","",""
"","null","html-keyboard-response","14","2650902","0.0-8.0-0.3","SS1613168790250","","","null","","","","","<p><img src= images/blank.png width =""200"" height = ""200"" style = ""float:right""></p><p><img src=images/blank.png width =""800"" height = ""200""></p>","","","","","","","","","","","",""
"","339.5999999991618","sequential-stimulus-presentation","15","2652054","0.0-8.0-1.3","SS1613168790250","trial","","40","800","1139.5999999991618","images/stimuli/spore_stims/simple_16_B_c.gif","images/stimuli/spore_stims/simple_16_A_c.gif","","","","","0","simple_similar","images/stimuli/spore_stims/simple_16_A_c.gif","right","","","","",""
"","null","html-keyboard-response","16","2653146","0.0-8.0-0.4","SS1613168790250","","","null","","","","","<p><img src= images/blank.png width =""200"" height = ""200"" style = ""float:right""></p><p><img src=images/blank.png width =""800"" height = ""200""></p>","","","","","","","","","","","",""
"","56.914999997243285","sequential-stimulus-presentation","17","2654014","0.0-8.0-1.4","SS1613168790250","trial","","40","800","856.9149999972433","images/stimuli/spore_stims/simple_16_B_c.gif","images/stimuli/spore_stims/simple_16_A_c.gif","","","","","0","simple_similar","images/stimuli/spore_stims/simple_16_B_c.gif","middle","","","","",""
"","null","html-keyboard-response","18","2654871","0.0-8.0-0.5","SS1613168790250","","","null","","","","","<p><img src= images/blank.png width =""200"" height = ""200"" style = ""float:right""></p><p><img src=images/blank.png width =""800"" height = ""200""></p>","","","","","","","","","","","",""
"","244.4799999971874","sequential-stimulus-presentation","19","2655926","0.0-8.0-1.5","SS1613168790250","trial","","40","800","1044.4799999971874","images/stimuli/spore_stims/simple_16_B_c.gif","images/stimuli/spore_stims/simple_16_A_c.gif","","","","","0","simple_similar","images/stimuli/spore_stims/simple_16_A_c.gif","right","","","","",""
"","null","html-keyboard-response","20","2657208","0.0-8.0-0.6","SS1613168790250","","","null","","","","","<p><img src= images/blank.png width =""200"" height = ""200"" style = ""float:right""></p><p><img src=images/blank.png width =""800"" height = ""200""></p>","","","","","","","","","","","",""
"","560.6699999989942","sequential-stimulus-presentation","21","2658589","0.0-8.0-1.6","SS1613168790250","trial","","40","800","1360.6699999989942","images/stimuli/spore_stims/simple_16_B_c.gif","images/stimuli/spore_stims/simple_16_A_c.gif","","","","","0","simple_similar","images/stimuli/spore_stims/simple_16_A_c.gif","right","","","","",""
"","null","html-keyboard-response","22","2659533","0.0-8.0-0.7","SS1613168790250","","","null","","","","","<p><img src= images/blank.png width =""200"" height = ""200"" style = ""float:right""></p><p><img src=images/blank.png width =""800"" height = ""200""></p>","","","","","","","","","","","",""
"","553.8850000011735","sequential-stimulus-presentation","23","2660896","0.0-8.0-1.7","SS1613168790250","trial","","40","800","1353.8850000011735","images/stimuli/spore_stims/simple_16_B_c.gif","images/stimuli/spore_stims/simple_16_A_c.gif","","","","","0","simple_similar","images/stimuli/spore_stims/simple_16_A_c.gif","right","","","","",""
"","1644.8799999998882","html-keyboard-response","24","2662550","0.0-9.0","SS1613168790250","pref_question","","50","","","","","<video width ='960' height = '540' style='padding-top:8%' autoplay muted><source src='images/stimuli/wall_pref.mp4' type='video/mp4'></video>","2","middle","45%","0","","","","","","","",""
"","754.75","sequential-stimulus-presentation","25","2664119","0.0-10.0","SS1613168790250","pref_reveal","","40","800","1554.75","null","null","","","","","0","","","","deviant","","","",""
"","null","html-keyboard-response","26","2665406","0.0-11.0-0.0","SS1613168790250","","","null","","","","","<p><img src= images/blank.png width =""200"" height = ""200"" style = ""float:right""></p><p><img src=images/blank.png width =""800"" height = ""200""></p>","","","","","","","","","","","",""
"","1084.0399999981746","sequential-stimulus-presentation","27","2667301","0.0-11.0-1.0","SS1613168790250","trial","","40","800","1884.0399999981746","images/stimuli/spore_stims/simple_19_B_d.gif","images/stimuli/spore_stims/simple_19_A_d.gif","","","","","1","simple_similar","images/stimuli/spore_stims/simple_19_A_d.gif","right","","","","",""
"","null","html-keyboard-response","28","2668152","0.0-11.0-0.1","SS1613168790250","","","null","","","","","<p><img src= images/blank.png width =""200"" height = ""200"" style = ""float:right""></p><p><img src=images/blank.png width =""800"" height = ""200""></p>","","","","","","","","","","","",""
"","408.6999999997206","sequential-stimulus-presentation","29","2669371","0.0-11.0-1.1","SS1613168790250","trial","","40","800","1208.6999999997206","images/stimuli/spore_stims/simple_19_B_d.gif","images/stimuli/spore_stims/simple_19_A_d.gif","","","","","1","simple_similar","images/stimuli/spore_stims/simple_19_A_d.gif","right","","","","",""
"","null","html-keyboard-response","30","2670417","0.0-11.0-0.2","SS1613168790250","","","null","","","","","<p><img src= images/blank.png width =""200"" height = ""200"" style = ""float:right""></p><p><img src=images/blank.png width =""800"" height = ""200""></p>","","","","","","","","","","","",""
"","369.2799999988638","sequential-stimulus-presentation","31","2671599","0.0-11.0-1.2","SS1613168790250","trial","","40","800","1169.2799999988638","images/stimuli/spore_stims/simple_19_B_d.gif","images/stimuli/spore_stims/simple_19_A_d.gif","","","","","1","simple_similar","images/stimuli/spore_stims/simple_19_A_d.gif","right","","","","",""
"","null","html-keyboard-response","32","2672847","0.0-11.0-0.3","SS1613168790250","","","null","","","","","<p><img src= images/blank.png width =""200"" height = ""200"" style = ""float:right""></p><p><img src=images/blank.png width =""800"" height = ""200""></p>","","","","","","","","","","","",""
"","288.304999998305","sequential-stimulus-presentation","33","2673944","0.0-11.0-1.3","SS1613168790250","trial","","40","800","1088.304999998305","images/stimuli/spore_stims/simple_19_B_d.gif","images/stimuli/spore_stims/simple_19_A_d.gif","","","","","1","simple_similar","images/stimuli/spore_stims/simple_19_A_d.gif","right","","","","",""
"","null","html-keyboard-response","34","2674958","0.0-11.0-0.4","SS1613168790250","","","null","","","","","<p><img src= images/blank.png width =""200"" height = ""200"" style = ""float:right""></p><p><img src=images/blank.png width =""800"" height = ""200""></p>","","","","","","","","","","","",""
"","176.20499999960884","sequential-stimulus-presentation","35","2675948","0.0-11.0-1.4","SS1613168790250","trial","","40","800","976.2049999996088","images/stimuli/spore_stims/simple_19_B_d.gif","images/stimuli/spore_stims/simple_19_A_d.gif","","","","","1","simple_similar","images/stimuli/spore_stims/simple_19_B_d.gif","left","","","","",""
"","null","html-keyboard-response","36","2677219","0.0-11.0-0.5","SS1613168790250","","","null","","","","","<p><img src= images/blank.png width =""200"" height = ""200"" style = ""float:right""></p><p><img src=images/blank.png width =""800"" height = ""200""></p>","","","","","","","","","","","",""
"","564.9550000014715","sequential-stimulus-presentation","37","2678593","0.0-11.0-1.5","SS1613168790250","trial","","40","800","1364.9550000014715","images/stimuli/spore_stims/simple_19_B_d.gif","images/stimuli/spore_stims/simple_19_A_d.gif","","","","","1","simple_similar","images/stimuli/spore_stims/simple_19_A_d.gif","right","","","","",""
"","null","html-keyboard-response","38","2679443","0.0-11.0-0.6","SS1613168790250","","","null","","","","","<p><img src= images/blank.png width =""200"" height = ""200"" style = ""float:right""></p><p><img src=images/blank.png width =""800"" height = ""200""></p>","","","","","","","","","","","",""
"","510.10500000137836","sequential-stimulus-presentation","39","2680769","0.0-11.0-1.6","SS1613168790250","trial","","40","800","1310.1050000013784","images/stimuli/spore_stims/simple_19_B_d.gif","images/stimuli/spore_stims/simple_19_A_d.gif","","","","","1","simple_similar","images/stimuli/spore_stims/simple_19_A_d.gif","right","","","","",""
"","null","html-keyboard-response","40","2681925","0.0-11.0-0.7","SS1613168790250","","","null","","","","","<p><img src= images/blank.png width =""200"" height = ""200"" style = ""float:right""></p><p><img src=images/blank.png width =""800"" height = ""200""></p>","","","","","","","","","","","",""
"","339.15500000165775","sequential-stimulus-presentation","41","2683075","0.0-11.0-1.7","SS1613168790250","trial","","40","800","1139.1550000016578","images/stimuli/spore_stims/simple_19_B_d.gif","images/stimuli/spore_stims/simple_19_A_d.gif","","","","","1","simple_similar","images/stimuli/spore_stims/simple_19_A_d.gif","right","","","","",""
"","1690.5749999969266","html-keyboard-response","42","2684777","0.0-12.0","SS1613168790250","pref_question","","49","","","","","<video width ='960' height = '540' style='padding-top:8%' autoplay muted><source src='images/stimuli/wall_pref.mp4' type='video/mp4'></video>","1","left","25%","1","","","","","","","",""
"","1370.0400000014342","sequential-stimulus-presentation","43","2686962","0.0-13.0","SS1613168790250","pref_reveal","","40","800","2170.0400000014342","null","null","","","","","1","","","","deviant","","","",""
"","null","html-keyboard-response","44","2687991","0.0-14.0-0.0","SS1613168790250","","","null","","","","","<p><img src= images/blank.png width =""200"" height = ""200"" style = ""float:right""></p><p><img src=images/blank.png width =""800"" height = ""200""></p>","","","","","","","","","","","",""
"","901.8649999997579","sequential-stimulus-presentation","45","2689705","0.0-14.0-1.0","SS1613168790250","trial","","40","800","1701.8649999997579","images/stimuli/spore_stims/complex_20_B_a.gif","images/stimuli/spore_stims/complex_20_A_d.gif","","","","","2","complex_dissimilar","images/stimuli/spore_stims/complex_20_A_d.gif","right","","","","",""
"","null","html-keyboard-response","46","2690763","0.0-14.0-0.1","SS1613168790250","","","null","","","","","<p><img src= images/blank.png width =""200"" height = ""200"" style = ""float:right""></p><p><img src=images/blank.png width =""800"" height = ""200""></p>","","","","","","","","","","","",""
"","316.8449999974109","sequential-stimulus-presentation","47","2691893","0.0-14.0-1.1","SS1613168790250","trial","","40","800","1116.844999997411","images/stimuli/spore_stims/complex_20_B_a.gif","images/stimuli/spore_stims/complex_20_A_d.gif","","","","","2","complex_dissimilar","images/stimuli/spore_stims/complex_20_A_d.gif","right","","","","",""
"","null","html-keyboard-response","48","2692916","0.0-14.0-0.2","SS1613168790250","","","null","","","","","<p><img src= images/blank.png width =""200"" height = ""200"" style = ""float:right""></p><p><img src=images/blank.png width =""800"" height = ""200""></p>","","","","","","","","","","","",""
"","374.7799999983981","sequential-stimulus-presentation","49","2694103","0.0-14.0-1.2","SS1613168790250","trial","","40","800","1174.7799999983981","images/stimuli/spore_stims/complex_20_B_a.gif","images/stimuli/spore_stims/complex_20_A_d.gif","","","","","2","complex_dissimilar","images/stimuli/spore_stims/complex_20_A_d.gif","right","","","","",""
"","null","html-keyboard-response","50","2695272","0.0-14.0-0.3","SS1613168790250","","","null","","","","","<p><img src= images/blank.png width =""200"" height = ""200"" style = ""float:right""></p><p><img src=images/blank.png width =""800"" height = ""200""></p>","","","","","","","","","","","",""
"","273.82500000018626","sequential-stimulus-presentation","51","2696357","0.0-14.0-1.3","SS1613168790250","trial","","40","800","1073.8250000001863","images/stimuli/spore_stims/complex_20_B_a.gif","images/stimuli/spore_stims/complex_20_A_d.gif","","","","","2","complex_dissimilar","images/stimuli/spore_stims/complex_20_A_d.gif","right","","","","",""
"","null","html-keyboard-response","52","2697404","0.0-14.0-0.4","SS1613168790250","","","null","","","","","<p><img src= images/blank.png width =""200"" height = ""200"" style = ""float:right""></p><p><img src=images/blank.png width =""800"" height = ""200""></p>","","","","","","","","","","","",""
"","274.35500000137836","sequential-stimulus-presentation","53","2698492","0.0-14.0-1.4","SS1613168790250","trial","","40","800","1074.3550000013784","images/stimuli/spore_stims/complex_20_B_a.gif","images/stimuli/spore_stims/complex_20_A_d.gif","","","","","2","complex_dissimilar","images/stimuli/spore_stims/complex_20_A_d.gif","right","","","","",""
"","null","html-keyboard-response","54","2699647","0.0-14.0-0.5","SS1613168790250","","","null","","","","","<p><img src= images/blank.png width =""200"" height = ""200"" style = ""float:right""></p><p><img src=images/blank.png width =""800"" height = ""200""></p>","","","","","","","","","","","",""
"","463.85000000009313","sequential-stimulus-presentation","55","2700922","0.0-14.0-1.5","SS1613168790250","trial","","40","800","1263.8500000000931","images/stimuli/spore_stims/complex_20_B_a.gif","images/stimuli/spore_stims/complex_20_A_d.gif","","","","","2","complex_dissimilar","images/stimuli/spore_stims/complex_20_B_a.gif","left","","","","",""
"","null","html-keyboard-response","56","2701753","0.0-14.0-0.6","SS1613168790250","","","null","","","","","<p><img src= images/blank.png width =""200"" height = ""200"" style = ""float:right""></p><p><img src=images/blank.png width =""800"" height = ""200""></p>","","","","","","","","","","","",""
"","727.9000000017695","sequential-stimulus-presentation","57","2703295","0.0-14.0-1.6","SS1613168790250","trial","","40","800","1527.9000000017695","images/stimuli/spore_stims/complex_20_B_a.gif","images/stimuli/spore_stims/complex_20_A_d.gif","","","","","2","complex_dissimilar","images/stimuli/spore_stims/complex_20_A_d.gif","right","","","","",""
"","null","html-keyboard-response","58","2704493","0.0-14.0-0.7","SS1613168790250","","","null","","","","","<p><img src= images/blank.png width =""200"" height = ""200"" style = ""float:right""></p><p><img src=images/blank.png width =""800"" height = ""200""></p>","","","","","","","","","","","",""
"","443.59999999869615","sequential-stimulus-presentation","59","2705753","0.0-14.0-1.7","SS1613168790250","trial","","40","800","1243.5999999986961","images/stimuli/spore_stims/complex_20_B_a.gif","images/stimuli/spore_stims/complex_20_A_d.gif","","","","","2","complex_dissimilar","images/stimuli/spore_stims/complex_20_A_d.gif","right","","","","",""
"","1984.5150000001304","html-keyboard-response","60","2707750","0.0-15.0","SS1613168790250","pref_question","","49","","","","","<video width ='960' height = '540' style='padding-top:8%' autoplay muted><source src='images/stimuli/wall_pref.mp4' type='video/mp4'></video>","1","left","25%","2","","","","","","","",""
"","1383.0999999986961","sequential-stimulus-presentation","61","2709947","0.0-16.0","SS1613168790250","pref_reveal","","40","800","2183.099999998696","null","null","","","","","2","","","","deviant","","","",""
"","null","html-keyboard-response","62","2711121","0.0-17.0-0.0","SS1613168790250","","","null","","","","","<p><img src= images/blank.png width =""200"" height = ""200"" style = ""float:right""></p><p><img src=images/blank.png width =""800"" height = ""200""></p>","","","","","","","","","","","",""
"","737.7200000011362","sequential-stimulus-presentation","63","2712673","0.0-17.0-1.0","SS1613168790250","trial","","40","800","1537.7200000011362","images/stimuli/spore_stims/complex_04_A_c.gif","images/stimuli/spore_stims/complex_04_B_c.gif","","","","","3","complex_similar","images/stimuli/spore_stims/complex_04_B_c.gif","middle","","","","",""
"","null","html-keyboard-response","64","2713727","0.0-17.0-0.1","SS1613168790250","","","null","","","","","<p><img src= images/blank.png width =""200"" height = ""200"" style = ""float:right""></p><p><img src=images/blank.png width =""800"" height = ""200""></p>","","","","","","","","","","","",""
"","452.0650000013411","sequential-stimulus-presentation","65","2714993","0.0-17.0-1.1","SS1613168790250","trial","","40","800","1252.065000001341","images/stimuli/spore_stims/complex_04_A_c.gif","images/stimuli/spore_stims/complex_04_B_c.gif","","","","","3","complex_similar","images/stimuli/spore_stims/complex_04_B_c.gif","middle","","","","",""
"","null","html-keyboard-response","66","2715801","0.0-17.0-0.2","SS1613168790250","","","null","","","","","<p><img src= images/blank.png width =""200"" height = ""200"" style = ""float:right""></p><p><img src=images/blank.png width =""800"" height = ""200""></p>","","","","","","","","","","","",""
"","244.67500000167638","sequential-stimulus-presentation","67","2716863","0.0-17.0-1.2","SS1613168790250","trial","","40","800","1044.6750000016764","images/stimuli/spore_stims/complex_04_A_c.gif","images/stimuli/spore_stims/complex_04_B_c.gif","","","","","3","complex_similar","images/stimuli/spore_stims/complex_04_B_c.gif","middle","","","","",""
"","null","html-keyboard-response","68","2718143","0.0-17.0-0.3","SS1613168790250","","","null","","","","","<p><img src= images/blank.png width =""200"" height = ""200"" style = ""float:right""></p><p><img src=images/blank.png width =""800"" height = ""200""></p>","","","","","","","","","","","",""
"","362.6000000005588","sequential-stimulus-presentation","69","2719320","0.0-17.0-1.3","SS1613168790250","trial","","40","800","1162.6000000005588","images/stimuli/spore_stims/complex_04_A_c.gif","images/stimuli/spore_stims/complex_04_B_c.gif","","","","","3","complex_similar","images/stimuli/spore_stims/complex_04_B_c.gif","middle","","","","",""
"","null","html-keyboard-response","70","2720316","0.0-17.0-0.4","SS1613168790250","","","null","","","","","<p><img src= images/blank.png width =""200"" height = ""200"" style = ""float:right""></p><p><img src=images/blank.png width =""800"" height = ""200""></p>","","","","","","","","","","","",""
"","139.87500000093132","sequential-stimulus-presentation","71","2721272","0.0-17.0-1.4","SS1613168790250","trial","","40","800","939.8750000009313","images/stimuli/spore_stims/complex_04_A_c.gif","images/stimuli/spore_stims/complex_04_B_c.gif","","","","","3","complex_similar","images/stimuli/spore_stims/complex_04_B_c.gif","middle","","","","",""
"","null","html-keyboard-response","72","2722502","0.0-17.0-0.5","SS1613168790250","","","null","","","","","<p><img src= images/blank.png width =""200"" height = ""200"" style = ""float:right""></p><p><img src=images/blank.png width =""800"" height = ""200""></p>","","","","","","","","","","","",""
"","917.0850000008941","sequential-stimulus-presentation","73","2724227","0.0-17.0-1.5","SS1613168790250","trial","","40","800","1717.085000000894","images/stimuli/spore_stims/complex_04_A_c.gif","images/stimuli/spore_stims/complex_04_B_c.gif","","","","","3","complex_similar","images/stimuli/spore_stims/complex_04_A_c.gif","right","","","","",""
"","null","html-keyboard-response","74","2725528","0.0-17.0-0.6","SS1613168790250","","","null","","","","","<p><img src= images/blank.png width =""200"" height = ""200"" style = ""float:right""></p><p><img src=images/blank.png width =""800"" height = ""200""></p>","","","","","","","","","","","",""
"","402.4149999967776","sequential-stimulus-presentation","75","2726744","0.0-17.0-1.6","SS1613168790250","trial","","40","800","1202.4149999967776","images/stimuli/spore_stims/complex_04_A_c.gif","images/stimuli/spore_stims/complex_04_B_c.gif","","","","","3","complex_similar","images/stimuli/spore_stims/complex_04_B_c.gif","middle","","","","",""
"","null","html-keyboard-response","76","2727789","0.0-17.0-0.7","SS1613168790250","","","null","","","","","<p><img src= images/blank.png width =""200"" height = ""200"" style = ""float:right""></p><p><img src=images/blank.png width =""800"" height = ""200""></p>","","","","","","","","","","","",""
"","335.68000000016764","sequential-stimulus-presentation","77","2728941","0.0-17.0-1.7","SS1613168790250","trial","","40","800","1135.6800000001676","images/stimuli/spore_stims/complex_04_A_c.gif","images/stimuli/spore_stims/complex_04_B_c.gif","","","","","3","complex_similar","images/stimuli/spore_stims/complex_04_B_c.gif","middle","","","","",""
"","1325.284999998752","html-keyboard-response","78","2730281","0.0-18.0","SS1613168790250","pref_question","","50","","","","","<video width ='960' height = '540' style='padding-top:8%' autoplay muted><source src='images/stimuli/wall_pref.mp4' type='video/mp4'></video>","2","middle","45%","3","","","","","","","",""
"","504.2100000027567","sequential-stimulus-presentation","79","2731600","0.0-19.0","SS1613168790250","pref_reveal","","40","800","1304.2100000027567","null","null","","","","","3","","","","background","","","",""
"","null","html-keyboard-response","80","2732716","0.0-20.0-0.0","SS1613168790250","","","null","","","","","<p><img src= images/blank.png width =""200"" height = ""200"" style = ""float:right""></p><p><img src=images/blank.png width =""800"" height = ""200""></p>","","","","","","","","","","","",""
"","625.3150000013411","sequential-stimulus-presentation","81","2734156","0.0-20.0-1.0","SS1613168790250","trial","","40","800","1425.315000001341","images/stimuli/spore_stims/complex_02_A_d.gif","images/stimuli/spore_stims/complex_02_B_d.gif","","","","","4","complex_similar","images/stimuli/spore_stims/complex_02_B_d.gif","middle","","","","",""
"","null","html-keyboard-response","82","2735399","0.0-20.0-0.1","SS1613168790250","","","null","","","","","<p><img src= images/blank.png width =""200"" height = ""200"" style = ""float:right""></p><p><img src=images/blank.png width =""800"" height = ""200""></p>","","","","","","","","","","","",""
"","118.09499999834225","sequential-stimulus-presentation","83","2736332","0.0-20.0-1.1","SS1613168790250","trial","","40","800","918.0949999983422","images/stimuli/spore_stims/complex_02_A_d.gif","images/stimuli/spore_stims/complex_02_B_d.gif","","","","","4","complex_similar","images/stimuli/spore_stims/complex_02_B_d.gif","middle","","","","",""
"","null","html-keyboard-response","84","2737591","0.0-20.0-0.2","SS1613168790250","","","null","","","","","<p><img src= images/blank.png width =""200"" height = ""200"" style = ""float:right""></p><p><img src=images/blank.png width =""800"" height = ""200""></p>","","","","","","","","","","","",""
"","407.25","sequential-stimulus-presentation","85","2738811","0.0-20.0-1.2","SS1613168790250","trial","","40","800","1207.25","images/stimuli/spore_stims/complex_02_A_d.gif","images/stimuli/spore_stims/complex_02_B_d.gif","","","","","4","complex_similar","images/stimuli/spore_stims/complex_02_B_d.gif","middle","","","","",""
"","null","html-keyboard-response","86","2740075","0.0-20.0-0.3","SS1613168790250","","","null","","","","","<p><img src= images/blank.png width =""200"" height = ""200"" style = ""float:right""></p><p><img src=images/blank.png width =""800"" height = ""200""></p>","","","","","","","","","","","",""
"","405.50499999849126","sequential-stimulus-presentation","87","2741294","0.0-20.0-1.3","SS1613168790250","trial","","40","800","1205.5049999984913","images/stimuli/spore_stims/complex_02_A_d.gif","images/stimuli/spore_stims/complex_02_B_d.gif","","","","","4","complex_similar","images/stimuli/spore_stims/complex_02_B_d.gif","middle","","","","",""
"","null","html-keyboard-response","88","2742352","0.0-20.0-0.4","SS1613168790250","","","null","","","","","<p><img src= images/blank.png width =""200"" height = ""200"" style = ""float:right""></p><p><img src=images/blank.png width =""800"" height = ""200""></p>","","","","","","","","","","","",""
"","61.345000001601875","sequential-stimulus-presentation","89","2743227","0.0-20.0-1.4","SS1613168790250","trial","","40","800","861.3450000016019","images/stimuli/spore_stims/complex_02_A_d.gif","images/stimuli/spore_stims/complex_02_B_d.gif","","","","","4","complex_similar","images/stimuli/spore_stims/complex_02_B_d.gif","middle","","","","",""
"","null","html-keyboard-response","90","2744206","0.0-20.0-0.5","SS1613168790250","","","null","","","","","<p><img src= images/blank.png width =""200"" height = ""200"" style = ""float:right""></p><p><img src=images/blank.png width =""800"" height = ""200""></p>","","","","","","","","","","","",""
"","1913.6800000015646","sequential-stimulus-presentation","91","2746936","0.0-20.0-1.5","SS1613168790250","trial","","40","800","2713.6800000015646","images/stimuli/spore_stims/complex_02_A_d.gif","images/stimuli/spore_stims/complex_02_B_d.gif","","","","","4","complex_similar","images/stimuli/spore_stims/complex_02_A_d.gif","right","","","","",""
"","null","html-keyboard-response","92","2747781","0.0-20.0-0.6","SS1613168790250","","","null","","","","","<p><img src= images/blank.png width =""200"" height = ""200"" style = ""float:right""></p><p><img src=images/blank.png width =""800"" height = ""200""></p>","","","","","","","","","","","",""
"","171.99999999860302","sequential-stimulus-presentation","93","2748760","0.0-20.0-1.6","SS1613168790250","trial","","40","800","971.999999998603","images/stimuli/spore_stims/complex_02_A_d.gif","images/stimuli/spore_stims/complex_02_B_d.gif","","","","","4","complex_similar","images/stimuli/spore_stims/complex_02_B_d.gif","middle","","","","",""
"","null","html-keyboard-response","94","2749736","0.0-20.0-0.7","SS1613168790250","","","null","","","","","<p><img src= images/blank.png width =""200"" height = ""200"" style = ""float:right""></p><p><img src=images/blank.png width =""800"" height = ""200""></p>","","","","","","","","","","","",""
"","610.6249999976717","sequential-stimulus-presentation","95","2751163","0.0-20.0-1.7","SS1613168790250","trial","","40","800","1410.6249999976717","images/stimuli/spore_stims/complex_02_A_d.gif","images/stimuli/spore_stims/complex_02_B_d.gif","","","","","4","complex_similar","images/stimuli/spore_stims/complex_02_B_d.gif","middle","","","","",""
"","2258.4950000019744","html-keyboard-response","96","2753437","0.0-21.0","SS1613168790250","pref_question","","50","","","","","<video width ='960' height = '540' style='padding-top:8%' autoplay muted><source src='images/stimuli/wall_pref.mp4' type='video/mp4'></video>","2","middle","45%","4","","","","","","","",""
"","85.82499999832362","sequential-stimulus-presentation","97","2754341","0.0-22.0","SS1613168790250","pref_reveal","","40","800","885.8249999983236","null","null","","","","","4","","","","background","","","",""
"","null","html-keyboard-response","98","2755522","0.0-23.0-0.0","SS1613168790250","","","null","","","","","<p><img src= images/blank.png width =""200"" height = ""200"" style = ""float:right""></p><p><img src=images/blank.png width =""800"" height = ""200""></p>","","","","","","","","","","","",""
"","1068.480000001844","sequential-stimulus-presentation","99","2757407","0.0-23.0-1.0","SS1613168790250","trial","","40","800","1868.480000001844","images/stimuli/spore_stims/simple_13_A_b.gif","images/stimuli/spore_stims/simple_13_B_b.gif","","","","","5","simple_similar","images/stimuli/spore_stims/simple_13_B_b.gif","right","","","","",""
"","null","html-keyboard-response","100","2758406","0.0-23.0-0.1","SS1613168790250","","","null","","","","","<p><img src= images/blank.png width =""200"" height = ""200"" style = ""float:right""></p><p><img src=images/blank.png width =""800"" height = ""200""></p>","","","","","","","","","","","",""
"","86.33000000193715","sequential-stimulus-presentation","101","2759307","0.0-23.0-1.1","SS1613168790250","trial","","40","800","886.3300000019372","images/stimuli/spore_stims/simple_13_A_b.gif","images/stimuli/spore_stims/simple_13_B_b.gif","","","","","5","simple_similar","images/stimuli/spore_stims/simple_13_B_b.gif","right","","","","",""
"","null","html-keyboard-response","102","2760338","0.0-23.0-0.2","SS1613168790250","","","null","","","","","<p><img src= images/blank.png width =""200"" height = ""200"" style = ""float:right""></p><p><img src=images/blank.png width =""800"" height = ""200""></p>","","","","","","","","","","","",""
"","198.23499999986961","sequential-stimulus-presentation","103","2761353","0.0-23.0-1.2","SS1613168790250","trial","","40","800","998.2349999998696","images/stimuli/spore_stims/simple_13_A_b.gif","images/stimuli/spore_stims/simple_13_B_b.gif","","","","","5","simple_similar","images/stimuli/spore_stims/simple_13_B_b.gif","right","","","","",""
"","null","html-keyboard-response","104","2762292","0.0-23.0-0.3","SS1613168790250","","","null","","","","","<p><img src= images/blank.png width =""200"" height = ""200"" style = ""float:right""></p><p><img src=images/blank.png width =""800"" height = ""200""></p>","","","","","","","","","","","",""
"","51.60999999893829","sequential-stimulus-presentation","105","2763158","0.0-23.0-1.3","SS1613168790250","trial","","40","800","851.6099999989383","images/stimuli/spore_stims/simple_13_A_b.gif","images/stimuli/spore_stims/simple_13_B_b.gif","","","","","5","simple_similar","images/stimuli/spore_stims/simple_13_B_b.gif","right","","","","",""
"","null","html-keyboard-response","106","2764145","0.0-23.0-0.4","SS1613168790250","","","null","","","","","<p><img src= images/blank.png width =""200"" height = ""200"" style = ""float:right""></p><p><img src=images/blank.png width =""800"" height = ""200""></p>","","","","","","","","","","","",""
"","96.09999999869615","sequential-stimulus-presentation","107","2765057","0.0-23.0-1.4","SS1613168790250","trial","","40","800","896.0999999986961","images/stimuli/spore_stims/simple_13_A_b.gif","images/stimuli/spore_stims/simple_13_B_b.gif","","","","","5","simple_similar","images/stimuli/spore_stims/simple_13_B_b.gif","right","","","","",""
"","null","html-keyboard-response","108","2765951","0.0-23.0-0.5","SS1613168790250","","","null","","","","","<p><img src= images/blank.png width =""200"" height = ""200"" style = ""float:right""></p><p><img src=images/blank.png width =""800"" height = ""200""></p>","","","","","","","","","","","",""
"","61.735000003129244","sequential-stimulus-presentation","109","2766829","0.0-23.0-1.5","SS1613168790250","trial","","40","800","861.7350000031292","images/stimuli/spore_stims/simple_13_A_b.gif","images/stimuli/spore_stims/simple_13_B_b.gif","","","","","5","simple_similar","images/stimuli/spore_stims/simple_13_B_b.gif","right","","","","",""
"","null","html-keyboard-response","110","2767764","0.0-23.0-0.6","SS1613168790250","","","null","","","","","<p><img src= images/blank.png width =""200"" height = ""200"" style = ""float:right""></p><p><img src=images/blank.png width =""800"" height = ""200""></p>","","","","","","","","","","","",""
"","43.82000000262633","sequential-stimulus-presentation","111","2768624","0.0-23.0-1.6","SS1613168790250","trial","","40","800","843.8200000026263","images/stimuli/spore_stims/simple_13_A_b.gif","images/stimuli/spore_stims/simple_13_B_b.gif","","","","","5","simple_similar","images/stimuli/spore_stims/simple_13_A_b.gif","middle","","","","",""
"","null","html-keyboard-response","112","2769466","0.0-23.0-0.7","SS1613168790250","","","null","","","","","<p><img src= images/blank.png width =""200"" height = ""200"" style = ""float:right""></p><p><img src=images/blank.png width =""800"" height = ""200""></p>","","","","","","","","","","","",""
"","72.8449999988079","sequential-stimulus-presentation","113","2770355","0.0-23.0-1.7","SS1613168790250","trial","","40","800","872.8449999988079","images/stimuli/spore_stims/simple_13_A_b.gif","images/stimuli/spore_stims/simple_13_B_b.gif","","","","","5","simple_similar","images/stimuli/spore_stims/simple_13_B_b.gif","right","","","","",""
"","1762.549999999348","html-keyboard-response","114","2772134","0.0-24.0","SS1613168790250","pref_question","","51","","","","","<video width ='960' height = '540' style='padding-top:8%' autoplay muted><source src='images/stimuli/wall_pref.mp4' type='video/mp4'></video>","3","right","66%","5","","","","","","","",""
"","20.140000000596046","sequential-stimulus-presentation","115","2772972","0.0-25.0","SS1613168790250","pref_reveal","","40","800","820.140000000596","null","null","","","","","5","","","","background","","","",""
"","null","html-keyboard-response","116","2773986","0.0-26.0-0.0","SS1613168790250","","","null","","","","","<p><img src= images/blank.png width =""200"" height = ""200"" style = ""float:right""></p><p><img src=images/blank.png width =""800"" height = ""200""></p>","","","","","","","","","","","",""
"","426.19499999983236","sequential-stimulus-presentation","117","2775228","0.0-26.0-1.0","SS1613168790250","trial","","40","800","1226.1949999998324","images/stimuli/spore_stims/complex_08_A_b.gif","images/stimuli/spore_stims/complex_16_A_b.gif","","","","","6","complex_dissimilar","images/stimuli/spore_stims/complex_16_A_b.gif","left","","","","",""
"","null","html-keyboard-response","118","2776276","0.0-26.0-0.1","SS1613168790250","","","null","","","","","<p><img src= images/blank.png width =""200"" height = ""200"" style = ""float:right""></p><p><img src=images/blank.png width =""800"" height = ""200""></p>","","","","","","","","","","","",""
"","6.249999998603016","sequential-stimulus-presentation","119","2777095","0.0-26.0-1.1","SS1613168790250","trial","","40","800","806.249999998603","images/stimuli/spore_stims/complex_08_A_b.gif","images/stimuli/spore_stims/complex_16_A_b.gif","","","","","6","complex_dissimilar","images/stimuli/spore_stims/complex_16_A_b.gif","left","","","","",""
"","null","html-keyboard-response","120","2778026","0.0-26.0-0.2","SS1613168790250","","","null","","","","","<p><img src= images/blank.png width =""200"" height = ""200"" style = ""float:right""></p><p><img src=images/blank.png width =""800"" height = ""200""></p>","","","","","","","","","","","",""
"","164.13000000128523","sequential-stimulus-presentation","121","2779007","0.0-26.0-1.2","SS1613168790250","trial","","40","800","964.1300000012852","images/stimuli/spore_stims/complex_08_A_b.gif","images/stimuli/spore_stims/complex_16_A_b.gif","","","","","6","complex_dissimilar","images/stimuli/spore_stims/complex_16_A_b.gif","left","","","","",""
"","null","html-keyboard-response","122","2779980","0.0-26.0-0.3","SS1613168790250","","","null","","","","","<p><img src= images/blank.png width =""200"" height = ""200"" style = ""float:right""></p><p><img src=images/blank.png width =""800"" height = ""200""></p>","","","","","","","","","","","",""
"","857.1899999990128","sequential-stimulus-presentation","123","2781658","0.0-26.0-1.3","SS1613168790250","trial","","40","800","1657.1899999990128","images/stimuli/spore_stims/complex_08_A_b.gif","images/stimuli/spore_stims/complex_16_A_b.gif","","","","","6","complex_dissimilar","images/stimuli/spore_stims/complex_08_A_b.gif","middle","","","","",""
"","null","html-keyboard-response","124","2782867","0.0-26.0-0.4","SS1613168790250","","","null","","","","","<p><img src= images/blank.png width =""200"" height = ""200"" style = ""float:right""></p><p><img src=images/blank.png width =""800"" height = ""200""></p>","","","","","","","","","","","",""
"","194.94500000262633","sequential-stimulus-presentation","125","2783882","0.0-26.0-1.4","SS1613168790250","trial","","40","800","994.9450000026263","images/stimuli/spore_stims/complex_08_A_b.gif","images/stimuli/spore_stims/complex_16_A_b.gif","","","","","6","complex_dissimilar","images/stimuli/spore_stims/complex_16_A_b.gif","left","","","","",""
"","null","html-keyboard-response","126","2784780","0.0-26.0-0.5","SS1613168790250","","","null","","","","","<p><img src= images/blank.png width =""200"" height = ""200"" style = ""float:right""></p><p><img src=images/blank.png width =""800"" height = ""200""></p>","","","","","","","","","","","",""
"","152.98499999707565","sequential-stimulus-presentation","127","2785748","0.0-26.0-1.5","SS1613168790250","trial","","40","800","952.9849999970756","images/stimuli/spore_stims/complex_08_A_b.gif","images/stimuli/spore_stims/complex_16_A_b.gif","","","","","6","complex_dissimilar","images/stimuli/spore_stims/complex_16_A_b.gif","left","","","","",""
"","null","html-keyboard-response","128","2786655","0.0-26.0-0.6","SS1613168790250","","","null","","","","","<p><img src= images/blank.png width =""200"" height = ""200"" style = ""float:right""></p><p><img src=images/blank.png width =""800"" height = ""200""></p>","","","","","","","","","","","",""
"","140.1750000002794","sequential-stimulus-presentation","129","2787643","0.0-26.0-1.6","SS1613168790250","trial","","40","800","940.1750000002794","images/stimuli/spore_stims/complex_08_A_b.gif","images/stimuli/spore_stims/complex_16_A_b.gif","","","","","6","complex_dissimilar","images/stimuli/spore_stims/complex_16_A_b.gif","left","","","","",""
"","null","html-keyboard-response","130","2788526","0.0-26.0-0.7","SS1613168790250","","","null","","","","","<p><img src= images/blank.png width =""200"" height = ""200"" style = ""float:right""></p><p><img src=images/blank.png width =""800"" height = ""200""></p>","","","","","","","","","","","",""
"","149.87499999906868","sequential-stimulus-presentation","131","2789492","0.0-26.0-1.7","SS1613168790250","trial","","40","800","949.8749999990687","images/stimuli/spore_stims/complex_08_A_b.gif","images/stimuli/spore_stims/complex_16_A_b.gif","","","","","6","complex_dissimilar","images/stimuli/spore_stims/complex_16_A_b.gif","left","","","","",""
"","3874.9900000002235","html-keyboard-response","132","2793387","0.0-27.0","SS1613168790250","pref_question","","50","","","","","<video width ='960' height = '540' style='padding-top:8%' autoplay muted><source src='images/stimuli/wall_pref.mp4' type='video/mp4'></video>","2","middle","45%","6","","","","","","","",""
"","126.93500000052154","sequential-stimulus-presentation","133","2794335","0.0-28.0","SS1613168790250","pref_reveal","","40","800","926.9350000005215","null","null","","","","","6","","","","deviant","","","",""
"","null","html-keyboard-response","134","2795285","0.0-29.0-0.0","SS1613168790250","","","null","","","","","<p><img src= images/blank.png width =""200"" height = ""200"" style = ""float:right""></p><p><img src=images/blank.png width =""800"" height = ""200""></p>","","","","","","","","","","","",""
"","63.9499999997206","sequential-stimulus-presentation","135","2796168","0.0-29.0-1.0","SS1613168790250","trial","","40","800","863.9499999997206","images/stimuli/spore_stims/simple_20_A_d.gif","images/stimuli/spore_stims/simple_01_A_b.gif","","","","","7","simple_dissimilar","images/stimuli/spore_stims/simple_01_A_b.gif","right","","","","",""
"","null","html-keyboard-response","136","2797036","0.0-29.0-0.1","SS1613168790250","","","null","","","","","<p><img src= images/blank.png width =""200"" height = ""200"" style = ""float:right""></p><p><img src=images/blank.png width =""800"" height = ""200""></p>","","","","","","","","","","","",""
"","301.964999998454","sequential-stimulus-presentation","137","2798155","0.0-29.0-1.1","SS1613168790250","trial","","40","800","1101.964999998454","images/stimuli/spore_stims/simple_20_A_d.gif","images/stimuli/spore_stims/simple_01_A_b.gif","","","","","7","simple_dissimilar","images/stimuli/spore_stims/simple_01_A_b.gif","right","","","","",""
"","null","html-keyboard-response","138","2799209","0.0-29.0-0.2","SS1613168790250","","","null","","","","","<p><img src= images/blank.png width =""200"" height = ""200"" style = ""float:right""></p><p><img src=images/blank.png width =""800"" height = ""200""></p>","","","","","","","","","","","",""
"","129.77500000130385","sequential-stimulus-presentation","139","2800157","0.0-29.0-1.2","SS1613168790250","trial","","40","800","929.7750000013039","images/stimuli/spore_stims/simple_20_A_d.gif","images/stimuli/spore_stims/simple_01_A_b.gif","","","","","7","simple_dissimilar","images/stimuli/spore_stims/simple_01_A_b.gif","right","","","","",""
"","null","html-keyboard-response","140","2801469","0.0-29.0-0.3","SS1613168790250","","","null","","","","","<p><img src= images/blank.png width =""200"" height = ""200"" style = ""float:right""></p><p><img src=images/blank.png width =""800"" height = ""200""></p>","","","","","","","","","","","",""
"","141.9950000019744","sequential-stimulus-presentation","141","2802428","0.0-29.0-1.3","SS1613168790250","trial","","40","800","941.9950000019744","images/stimuli/spore_stims/simple_20_A_d.gif","images/stimuli/spore_stims/simple_01_A_b.gif","","","","","7","simple_dissimilar","images/stimuli/spore_stims/simple_01_A_b.gif","right","","","","",""
"","null","html-keyboard-response","142","2803255","0.0-29.0-0.4","SS1613168790250","","","null","","","","","<p><img src= images/blank.png width =""200"" height = ""200"" style = ""float:right""></p><p><img src=images/blank.png width =""800"" height = ""200""></p>","","","","","","","","","","","",""
"","112.35999999893829","sequential-stimulus-presentation","143","2804183","0.0-29.0-1.4","SS1613168790250","trial","","40","800","912.3599999989383","images/stimuli/spore_stims/simple_20_A_d.gif","images/stimuli/spore_stims/simple_01_A_b.gif","","","","","7","simple_dissimilar","images/stimuli/spore_stims/simple_20_A_d.gif","left","","","","",""
"","null","html-keyboard-response","144","2805421","0.0-29.0-0.5","SS1613168790250","","","null","","","","","<p><img src= images/blank.png width =""200"" height = ""200"" style = ""float:right""></p><p><img src=images/blank.png width =""800"" height = ""200""></p>","","","","","","","","","","","",""
"","191.10999999986961","sequential-stimulus-presentation","145","2806437","0.0-29.0-1.5","SS1613168790250","trial","","40","800","991.1099999998696","images/stimuli/spore_stims/simple_20_A_d.gif","images/stimuli/spore_stims/simple_01_A_b.gif","","","","","7","simple_dissimilar","images/stimuli/spore_stims/simple_01_A_b.gif","right","","","","",""
"","null","html-keyboard-response","146","2807252","0.0-29.0-0.6","SS1613168790250","","","null","","","","","<p><img src= images/blank.png width =""200"" height = ""200"" style = ""float:right""></p><p><img src=images/blank.png width =""800"" height = ""200""></p>","","","","","","","","","","","",""
"","197.5800000000745","sequential-stimulus-presentation","147","2808271","0.0-29.0-1.6","SS1613168790250","trial","","40","800","997.5800000000745","images/stimuli/spore_stims/simple_20_A_d.gif","images/stimuli/spore_stims/simple_01_A_b.gif","","","","","7","simple_dissimilar","images/stimuli/spore_stims/simple_01_A_b.gif","right","","","","",""
"","null","html-keyboard-response","148","2809399","0.0-29.0-0.7","SS1613168790250","","","null","","","","","<p><img src= images/blank.png width =""200"" height = ""200"" style = ""float:right""></p><p><img src=images/blank.png width =""800"" height = ""200""></p>","","","","","","","","","","","",""
"","102.42500000074506","sequential-stimulus-presentation","149","2810319","0.0-29.0-1.7","SS1613168790250","trial","","40","800","902.4250000007451","images/stimuli/spore_stims/simple_20_A_d.gif","images/stimuli/spore_stims/simple_01_A_b.gif","","","","","7","simple_dissimilar","images/stimuli/spore_stims/simple_01_A_b.gif","right","","","","",""
"","1881.5499999984168","html-keyboard-response","150","2812221","0.0-30.0","SS1613168790250","pref_question","","51","","","","","<video width ='960' height = '540' style='padding-top:8%' autoplay muted><source src='images/stimuli/wall_pref.mp4' type='video/mp4'></video>","3","right","66%","7","","","","","","","",""
"","140.05499999970198","sequential-stimulus-presentation","151","2813183","0.0-31.0","SS1613168790250","pref_reveal","","40","800","940.054999999702","null","null","","","","","7","","","","background","","","",""
"","null","html-keyboard-response","152","2814416","0.0-32.0-0.0","SS1613168790250","","","null","","","","","<p><img src= images/blank.png width =""200"" height = ""200"" style = ""float:right""></p><p><img src=images/blank.png width =""800"" height = ""200""></p>","","","","","","","","","","","",""
"","108.2499999976717","sequential-stimulus-presentation","153","2815343","0.0-32.0-1.0","SS1613168790250","trial","","40","800","908.2499999976717","images/stimuli/spore_stims/simple_20_B_c.gif","images/stimuli/spore_stims/simple_12_A_b.gif","","","","","8","simple_dissimilar","images/stimuli/spore_stims/simple_12_A_b.gif","left","","","","",""
"","null","html-keyboard-response","154","2816392","0.0-32.0-0.1","SS1613168790250","","","null","","","","","<p><img src= images/blank.png width =""200"" height = ""200"" style = ""float:right""></p><p><img src=images/blank.png width =""800"" height = ""200""></p>","","","","","","","","","","","",""
"","175.06500000320375","sequential-stimulus-presentation","155","2817385","0.0-32.0-1.1","SS1613168790250","trial","","40","800","975.0650000032037","images/stimuli/spore_stims/simple_20_B_c.gif","images/stimuli/spore_stims/simple_12_A_b.gif","","","","","8","simple_dissimilar","images/stimuli/spore_stims/simple_12_A_b.gif","left","","","","",""
"","null","html-keyboard-response","156","2818590","0.0-32.0-0.2","SS1613168790250","","","null","","","","","<p><img src= images/blank.png width =""200"" height = ""200"" style = ""float:right""></p><p><img src=images/blank.png width =""800"" height = ""200""></p>","","","","","","","","","","","",""
"","185.72000000160187","sequential-stimulus-presentation","157","2819595","0.0-32.0-1.2","SS1613168790250","trial","","40","800","985.7200000016019","images/stimuli/spore_stims/simple_20_B_c.gif","images/stimuli/spore_stims/simple_12_A_b.gif","","","","","8","simple_dissimilar","images/stimuli/spore_stims/simple_12_A_b.gif","left","","","","",""
"","null","html-keyboard-response","158","2821238","0.0-32.0-0.3","SS1613168790250","","","null","","","","","<p><img src= images/blank.png width =""200"" height = ""200"" style = ""float:right""></p><p><img src=images/blank.png width =""800"" height = ""200""></p>","","","","","","","","","","","",""
"","197.8999999994412","sequential-stimulus-presentation","159","2822254","0.0-32.0-1.3","SS1613168790250","trial","","40","800","997.8999999994412","images/stimuli/spore_stims/simple_20_B_c.gif","images/stimuli/spore_stims/simple_12_A_b.gif","","","","","8","simple_dissimilar","images/stimuli/spore_stims/simple_12_A_b.gif","left","","","","",""
"","null","html-keyboard-response","160","2823100","0.0-32.0-0.4","SS1613168790250","","","null","","","","","<p><img src= images/blank.png width =""200"" height = ""200"" style = ""float:right""></p><p><img src=images/blank.png width =""800"" height = ""200""></p>","","","","","","","","","","","",""
"","192.37499999860302","sequential-stimulus-presentation","161","2824111","0.0-32.0-1.4","SS1613168790250","trial","","40","800","992.374999998603","images/stimuli/spore_stims/simple_20_B_c.gif","images/stimuli/spore_stims/simple_12_A_b.gif","","","","","8","simple_dissimilar","images/stimuli/spore_stims/simple_20_B_c.gif","right","","","","",""
"","null","html-keyboard-response","162","2825068","0.0-32.0-0.5","SS1613168790250","","","null","","","","","<p><img src= images/blank.png width =""200"" height = ""200"" style = ""float:right""></p><p><img src=images/blank.png width =""800"" height = ""200""></p>","","","","","","","","","","","",""
"","25.304999998770654","sequential-stimulus-presentation","163","2825912","0.0-32.0-1.5","SS1613168790250","trial","","40","800","825.3049999987707","images/stimuli/spore_stims/simple_20_B_c.gif","images/stimuli/spore_stims/simple_12_A_b.gif","","","","","8","simple_dissimilar","images/stimuli/spore_stims/simple_12_A_b.gif","left","","","","",""
"","null","html-keyboard-response","164","2826788","0.0-32.0-0.6","SS1613168790250","","","null","","","","","<p><img src= images/blank.png width =""200"" height = ""200"" style = ""float:right""></p><p><img src=images/blank.png width =""800"" height = ""200""></p>","","","","","","","","","","","",""
"","279.4150000009686","sequential-stimulus-presentation","165","2827919","0.0-32.0-1.6","SS1613168790250","trial","","40","800","1079.4150000009686","images/stimuli/spore_stims/simple_20_B_c.gif","images/stimuli/spore_stims/simple_12_A_b.gif","","","","","8","simple_dissimilar","images/stimuli/spore_stims/simple_12_A_b.gif","left","","","","",""
"","null","html-keyboard-response","166","2828895","0.0-32.0-0.7","SS1613168790250","","","null","","","","","<p><img src= images/blank.png width =""200"" height = ""200"" style = ""float:right""></p><p><img src=images/blank.png width =""800"" height = ""200""></p>","","","","","","","","","","","",""
"","155.48499999940395","sequential-stimulus-presentation","167","2829867","0.0-32.0-1.7","SS1613168790250","trial","","40","800","955.484999999404","images/stimuli/spore_stims/simple_20_B_c.gif","images/stimuli/spore_stims/simple_12_A_b.gif","","","","","8","simple_dissimilar","images/stimuli/spore_stims/simple_12_A_b.gif","left","","","","",""
"","1806.6099999998696","html-keyboard-response","168","2831694","0.0-33.0","SS1613168790250","pref_question","","49","","","","","<video width ='960' height = '540' style='padding-top:8%' autoplay muted><source src='images/stimuli/wall_pref.mp4' type='video/mp4'></video>","1","left","25%","8","","","","","","","",""
"","54.514999999664724","sequential-stimulus-presentation","169","2832571","0.0-34.0","SS1613168790250","pref_reveal","","40","800","854.5149999996647","null","null","","","","","8","","","","background","","","",""
"","null","html-keyboard-response","170","2833484","0.0-35.0-0.0","SS1613168790250","","","null","","","","","<p><img src= images/blank.png width =""200"" height = ""200"" style = ""float:right""></p><p><img src=images/blank.png width =""800"" height = ""200""></p>","","","","","","","","","","","",""
"","99.45000000158325","sequential-stimulus-presentation","171","2834403","0.0-35.0-1.0","SS1613168790250","trial","","40","800","899.4500000015832","images/stimuli/spore_stims/simple_08_B_c.gif","images/stimuli/spore_stims/simple_10_B_b.gif","","","","","9","simple_dissimilar","images/stimuli/spore_stims/simple_10_B_b.gif","right","","","","",""
"","null","html-keyboard-response","172","2835610","0.0-35.0-0.1","SS1613168790250","","","null","","","","","<p><img src= images/blank.png width =""200"" height = ""200"" style = ""float:right""></p><p><img src=images/blank.png width =""800"" height = ""200""></p>","","","","","","","","","","","",""
"","159.0000000037253","sequential-stimulus-presentation","173","2836587","0.0-35.0-1.1","SS1613168790250","trial","","40","800","959.0000000037253","images/stimuli/spore_stims/simple_08_B_c.gif","images/stimuli/spore_stims/simple_10_B_b.gif","","","","","9","simple_dissimilar","images/stimuli/spore_stims/simple_10_B_b.gif","right","","","","",""
"","null","html-keyboard-response","174","2837724","0.0-35.0-0.2","SS1613168790250","","","null","","","","","<p><img src= images/blank.png width =""200"" height = ""200"" style = ""float:right""></p><p><img src=images/blank.png width =""800"" height = ""200""></p>","","","","","","","","","","","",""
"","89.31499999761581","sequential-stimulus-presentation","175","2838630","0.0-35.0-1.2","SS1613168790250","trial","","40","800","889.3149999976158","images/stimuli/spore_stims/simple_08_B_c.gif","images/stimuli/spore_stims/simple_10_B_b.gif","","","","","9","simple_dissimilar","images/stimuli/spore_stims/simple_08_B_c.gif","middle","","","","",""
"","null","html-keyboard-response","176","2839882","0.0-35.0-0.3","SS1613168790250","","","null","","","","","<p><img src= images/blank.png width =""200"" height = ""200"" style = ""float:right""></p><p><img src=images/blank.png width =""800"" height = ""200""></p>","","","","","","","","","","","",""
"","74.87499999813735","sequential-stimulus-presentation","177","2840774","0.0-35.0-1.3","SS1613168790250","trial","","40","800","874.8749999981374","images/stimuli/spore_stims/simple_08_B_c.gif","images/stimuli/spore_stims/simple_10_B_b.gif","","","","","9","simple_dissimilar","images/stimuli/spore_stims/simple_10_B_b.gif","right","","","","",""
"","null","html-keyboard-response","178","2841652","0.0-35.0-0.4","SS1613168790250","","","null","","","","","<p><img src= images/blank.png width =""200"" height = ""200"" style = ""float:right""></p><p><img src=images/blank.png width =""800"" height = ""200""></p>","","","","","","","","","","","",""
"","24.50000000325963","sequential-stimulus-presentation","179","2842497","0.0-35.0-1.4","SS1613168790250","trial","","40","800","824.5000000032596","images/stimuli/spore_stims/simple_08_B_c.gif","images/stimuli/spore_stims/simple_10_B_b.gif","","","","","9","simple_dissimilar","images/stimuli/spore_stims/simple_10_B_b.gif","right","","","","",""
"","null","html-keyboard-response","180","2843701","0.0-35.0-0.5","SS1613168790250","","","null","","","","","<p><img src= images/blank.png width =""200"" height = ""200"" style = ""float:right""></p><p><img src=images/blank.png width =""800"" height = ""200""></p>","","","","","","","","","","","",""
"","331.2049999986775","sequential-stimulus-presentation","181","2844851","0.0-35.0-1.5","SS1613168790250","trial","","40","800","1131.2049999986775","images/stimuli/spore_stims/simple_08_B_c.gif","images/stimuli/spore_stims/simple_10_B_b.gif","","","","","9","simple_dissimilar","images/stimuli/spore_stims/simple_10_B_b.gif","right","","","","",""
"","null","html-keyboard-response","182","2845970","0.0-35.0-0.6","SS1613168790250","","","null","","","","","<p><img src= images/blank.png width =""200"" height = ""200"" style = ""float:right""></p><p><img src=images/blank.png width =""800"" height = ""200""></p>","","","","","","","","","","","",""
"","230.12999999988824","sequential-stimulus-presentation","183","2847020","0.0-35.0-1.6","SS1613168790250","trial","","40","800","1030.1299999998882","images/stimuli/spore_stims/simple_08_B_c.gif","images/stimuli/spore_stims/simple_10_B_b.gif","","","","","9","simple_dissimilar","images/stimuli/spore_stims/simple_10_B_b.gif","right","","","","",""
"","null","html-keyboard-response","184","2847906","0.0-35.0-0.7","SS1613168790250","","","null","","","","","<p><img src= images/blank.png width =""200"" height = ""200"" style = ""float:right""></p><p><img src=images/blank.png width =""800"" height = ""200""></p>","","","","","","","","","","","",""
"","297.26999999955297","sequential-stimulus-presentation","185","2849024","0.0-35.0-1.7","SS1613168790250","trial","","40","800","1097.269999999553","images/stimuli/spore_stims/simple_08_B_c.gif","images/stimuli/spore_stims/simple_10_B_b.gif","","","","","9","simple_dissimilar","images/stimuli/spore_stims/simple_10_B_b.gif","right","","","","",""
"","907.625","html-keyboard-response","186","2849951","0.0-36.0","SS1613168790250","pref_question","","50","","","","","<video width ='960' height = '540' style='padding-top:8%' autoplay muted><source src='images/stimuli/wall_pref.mp4' type='video/mp4'></video>","2","middle","45%","9","","","","","","","",""
"","74.79999999888241","sequential-stimulus-presentation","187","2850851","0.0-37.0","SS1613168790250","pref_reveal","","40","800","874.7999999988824","null","null","","","","","9","","","","deviant","","","",""
"","null","html-keyboard-response","188","2851768","0.0-38.0-0.0","SS1613168790250","","","null","","","","","<p><img src= images/blank.png width =""200"" height = ""200"" style = ""float:right""></p><p><img src=images/blank.png width =""800"" height = ""200""></p>","","","","","","","","","","","",""
"","17.510000001639128","sequential-stimulus-presentation","189","2852608","0.0-38.0-1.0","SS1613168790250","trial","","40","800","817.5100000016391","images/stimuli/spore_stims/complex_18_A_d.gif","images/stimuli/spore_stims/complex_17_A_a.gif","","","","","10","complex_dissimilar","images/stimuli/spore_stims/complex_17_A_a.gif","left","","","","",""
"","null","html-keyboard-response","190","2853510","0.0-38.0-0.1","SS1613168790250","","","null","","","","","<p><img src= images/blank.png width =""200"" height = ""200"" style = ""float:right""></p><p><img src=images/blank.png width =""800"" height = ""200""></p>","","","","","","","","","","","",""
"","191.7799999974668","sequential-stimulus-presentation","191","2854524","0.0-38.0-1.1","SS1613168790250","trial","","40","800","991.7799999974668","images/stimuli/spore_stims/complex_18_A_d.gif","images/stimuli/spore_stims/complex_17_A_a.gif","","","","","10","complex_dissimilar","images/stimuli/spore_stims/complex_17_A_a.gif","left","","","","",""
"","null","html-keyboard-response","192","2855751","0.0-38.0-0.2","SS1613168790250","","","null","","","","","<p><img src= images/blank.png width =""200"" height = ""200"" style = ""float:right""></p><p><img src=images/blank.png width =""800"" height = ""200""></p>","","","","","","","","","","","",""
"","554.7999999979511","sequential-stimulus-presentation","193","2857124","0.0-38.0-1.2","SS1613168790250","trial","","40","800","1354.799999997951","images/stimuli/spore_stims/complex_18_A_d.gif","images/stimuli/spore_stims/complex_17_A_a.gif","","","","","10","complex_dissimilar","images/stimuli/spore_stims/complex_17_A_a.gif","left","","","","",""
"","null","html-keyboard-response","194","2858141","0.0-38.0-0.3","SS1613168790250","","","null","","","","","<p><img src= images/blank.png width =""200"" height = ""200"" style = ""float:right""></p><p><img src=images/blank.png width =""800"" height = ""200""></p>","","","","","","","","","","","",""
"","565.9350000023842","sequential-stimulus-presentation","195","2859528","0.0-38.0-1.3","SS1613168790250","trial","","40","800","1365.9350000023842","images/stimuli/spore_stims/complex_18_A_d.gif","images/stimuli/spore_stims/complex_17_A_a.gif","","","","","10","complex_dissimilar","images/stimuli/spore_stims/complex_17_A_a.gif","left","","","","",""
"","null","html-keyboard-response","196","2860500","0.0-38.0-0.4","SS1613168790250","","","null","","","","","<p><img src= images/blank.png width =""200"" height = ""200"" style = ""float:right""></p><p><img src=images/blank.png width =""800"" height = ""200""></p>","","","","","","","","","","","",""
"","119.39000000013039","sequential-stimulus-presentation","197","2861441","0.0-38.0-1.4","SS1613168790250","trial","","40","800","919.3900000001304","images/stimuli/spore_stims/complex_18_A_d.gif","images/stimuli/spore_stims/complex_17_A_a.gif","","","","","10","complex_dissimilar","images/stimuli/spore_stims/complex_17_A_a.gif","left","","","","",""
"","null","html-keyboard-response","198","2862358","0.0-38.0-0.5","SS1613168790250","","","null","","","","","<p><img src= images/blank.png width =""200"" height = ""200"" style = ""float:right""></p><p><img src=images/blank.png width =""800"" height = ""200""></p>","","","","","","","","","","","",""
"","236.7999999988824","sequential-stimulus-presentation","199","2863419","0.0-38.0-1.5","SS1613168790250","trial","","40","800","1036.7999999988824","images/stimuli/spore_stims/complex_18_A_d.gif","images/stimuli/spore_stims/complex_17_A_a.gif","","","","","10","complex_dissimilar","images/stimuli/spore_stims/complex_18_A_d.gif","middle","","","","",""
"","null","html-keyboard-response","200","2864443","0.0-38.0-0.6","SS1613168790250","","","null","","","","","<p><img src= images/blank.png width =""200"" height = ""200"" style = ""float:right""></p><p><img src=images/blank.png width =""800"" height = ""200""></p>","","","","","","","","","","","",""
"","307.4400000004098","sequential-stimulus-presentation","201","2865572","0.0-38.0-1.6","SS1613168790250","trial","","40","800","1107.4400000004098","images/stimuli/spore_stims/complex_18_A_d.gif","images/stimuli/spore_stims/complex_17_A_a.gif","","","","","10","complex_dissimilar","images/stimuli/spore_stims/complex_17_A_a.gif","left","","","","",""
"","null","html-keyboard-response","202","2866810","0.0-38.0-0.7","SS1613168790250","","","null","","","","","<p><img src= images/blank.png width =""200"" height = ""200"" style = ""float:right""></p><p><img src=images/blank.png width =""800"" height = ""200""></p>","","","","","","","","","","","",""
"","1242.9249999988824","sequential-stimulus-presentation","203","2868874","0.0-38.0-1.7","SS1613168790250","trial","","40","800","2042.9249999988824","images/stimuli/spore_stims/complex_18_A_d.gif","images/stimuli/spore_stims/complex_17_A_a.gif","","","","","10","complex_dissimilar","images/stimuli/spore_stims/complex_17_A_a.gif","left","","","","",""
"","1361.3450000011362","html-keyboard-response","204","2870254","0.0-39.0","SS1613168790250","pref_question","","51","","","","","<video width ='960' height = '540' style='padding-top:8%' autoplay muted><source src='images/stimuli/wall_pref.mp4' type='video/mp4'></video>","3","right","66%","10","","","","","","","",""
"","329.78000000026077","sequential-stimulus-presentation","205","2871398","0.0-40.0","SS1613168790250","pref_reveal","","40","800","1129.7800000002608","null","null","","","","","10","","","","novel","","","",""
"","null","html-keyboard-response","206","2872313","0.0-41.0-0.0","SS1613168790250","","","null","","","","","<p><img src= images/blank.png width =""200"" height = ""200"" style = ""float:right""></p><p><img src=images/blank.png width =""800"" height = ""200""></p>","","","","","","","","","","","",""
"","51.85499999765307","sequential-stimulus-presentation","207","2873175","0.0-41.0-1.0","SS1613168790250","trial","","40","800","851.8549999976531","images/stimuli/spore_stims/simple_06_A_b.gif","images/stimuli/spore_stims/simple_06_B_b.gif","","","","","11","simple_similar","images/stimuli/spore_stims/simple_06_B_b.gif","left","","","","",""
"","null","html-keyboard-response","208","2874313","0.0-41.0-0.1","SS1613168790250","","","null","","","","","<p><img src= images/blank.png width =""200"" height = ""200"" style = ""float:right""></p><p><img src=images/blank.png width =""800"" height = ""200""></p>","","","","","","","","","","","",""
"","68.3050000006333","sequential-stimulus-presentation","209","2875201","0.0-41.0-1.1","SS1613168790250","trial","","40","800","868.3050000006333","images/stimuli/spore_stims/simple_06_A_b.gif","images/stimuli/spore_stims/simple_06_B_b.gif","","","","","11","simple_similar","images/stimuli/spore_stims/simple_06_B_b.gif","left","","","","",""
"","null","html-keyboard-response","210","2876304","0.0-41.0-0.2","SS1613168790250","","","null","","","","","<p><img src= images/blank.png width =""200"" height = ""200"" style = ""float:right""></p><p><img src=images/blank.png width =""800"" height = ""200""></p>","","","","","","","","","","","",""
"","137.87500000046566","sequential-stimulus-presentation","211","2877265","0.0-41.0-1.2","SS1613168790250","trial","","40","800","937.8750000004657","images/stimuli/spore_stims/simple_06_A_b.gif","images/stimuli/spore_stims/simple_06_B_b.gif","","","","","11","simple_similar","images/stimuli/spore_stims/simple_06_B_b.gif","left","","","","",""
"","null","html-keyboard-response","212","2878222","0.0-41.0-0.3","SS1613168790250","","","null","","","","","<p><img src= images/blank.png width =""200"" height = ""200"" style = ""float:right""></p><p><img src=images/blank.png width =""800"" height = ""200""></p>","","","","","","","","","","","",""
"","166.2849999992177","sequential-stimulus-presentation","213","2879209","0.0-41.0-1.3","SS1613168790250","trial","","40","800","966.2849999992177","images/stimuli/spore_stims/simple_06_A_b.gif","images/stimuli/spore_stims/simple_06_B_b.gif","","","","","11","simple_similar","images/stimuli/spore_stims/simple_06_A_b.gif","right","","","","",""
"","null","html-keyboard-response","214","2880345","0.0-41.0-0.4","SS1613168790250","","","null","","","","","<p><img src= images/blank.png width =""200"" height = ""200"" style = ""float:right""></p><p><img src=images/blank.png width =""800"" height = ""200""></p>","","","","","","","","","","","",""
"","45.15000000130385","sequential-stimulus-presentation","215","2881212","0.0-41.0-1.4","SS1613168790250","trial","","40","800","845.1500000013039","images/stimuli/spore_stims/simple_06_A_b.gif","images/stimuli/spore_stims/simple_06_B_b.gif","","","","","11","simple_similar","images/stimuli/spore_stims/simple_06_B_b.gif","left","","","","",""
"","null","html-keyboard-response","216","2882448","0.0-41.0-0.5","SS1613168790250","","","null","","","","","<p><img src= images/blank.png width =""200"" height = ""200"" style = ""float:right""></p><p><img src=images/blank.png width =""800"" height = ""200""></p>","","","","","","","","","","","",""
"","58.82000000216067","sequential-stimulus-presentation","217","2883328","0.0-41.0-1.5","SS1613168790250","trial","","40","800","858.8200000021607","images/stimuli/spore_stims/simple_06_A_b.gif","images/stimuli/spore_stims/simple_06_B_b.gif","","","","","11","simple_similar","images/stimuli/spore_stims/simple_06_B_b.gif","left","","","","",""
"","null","html-keyboard-response","218","2884611","0.0-41.0-0.6","SS1613168790250","","","null","","","","","<p><img src= images/blank.png width =""200"" height = ""200"" style = ""float:right""></p><p><img src=images/blank.png width =""800"" height = ""200""></p>","","","","","","","","","","","",""
"","71.8650000016205","sequential-stimulus-presentation","219","2885503","0.0-41.0-1.6","SS1613168790250","trial","","40","800","871.8650000016205","images/stimuli/spore_stims/simple_06_A_b.gif","images/stimuli/spore_stims/simple_06_B_b.gif","","","","","11","simple_similar","images/stimuli/spore_stims/simple_06_B_b.gif","left","","","","",""
"","null","html-keyboard-response","220","2886758","0.0-41.0-0.7","SS1613168790250","","","null","","","","","<p><img src= images/blank.png width =""200"" height = ""200"" style = ""float:right""></p><p><img src=images/blank.png width =""800"" height = ""200""></p>","","","","","","","","","","","",""
"","175.11000000033528","sequential-stimulus-presentation","221","2887751","0.0-41.0-1.7","SS1613168790250","trial","","40","800","975.1100000003353","images/stimuli/spore_stims/simple_06_A_b.gif","images/stimuli/spore_stims/simple_06_B_b.gif","","","","","11","simple_similar","images/stimuli/spore_stims/simple_06_B_b.gif","left","","","","",""
"","2667.0600000033155","html-keyboard-response","222","2890440","0.0-42.0","SS1613168790250","pref_question","","49","","","","","<video width ='960' height = '540' style='padding-top:8%' autoplay muted><source src='images/stimuli/wall_pref.mp4' type='video/mp4'></video>","1","left","25%","11","","","","","","","",""
"","99.49000000068918","sequential-stimulus-presentation","223","2891366","0.0-43.0","SS1613168790250","pref_reveal","","40","800","899.4900000006892","null","null","","","","","11","","","","background","","","",""
"","null","html-keyboard-response","224","2892671","0.0-44.0-0.0","SS1613168790250","","","null","","","","","<p><img src= images/blank.png width =""200"" height = ""200"" style = ""float:right""></p><p><img src=images/blank.png width =""800"" height = ""200""></p>","","","","","","","","","","","",""
"","146.39500000001863","sequential-stimulus-presentation","225","2893638","0.0-44.0-1.0","SS1613168790250","trial","","40","800","946.3950000000186","images/stimuli/spore_stims/complex_13_A_b.gif","images/stimuli/spore_stims/complex_14_A_a.gif","","","","","12","complex_dissimilar","images/stimuli/spore_stims/complex_14_A_a.gif","middle","","","","",""
"","null","html-keyboard-response","226","2894606","0.0-44.0-0.1","SS1613168790250","","","null","","","","","<p><img src= images/blank.png width =""200"" height = ""200"" style = ""float:right""></p><p><img src=images/blank.png width =""800"" height = ""200""></p>","","","","","","","","","","","",""
"","168.8300000024028","sequential-stimulus-presentation","227","2895596","0.0-44.0-1.1","SS1613168790250","trial","","40","800","968.8300000024028","images/stimuli/spore_stims/complex_13_A_b.gif","images/stimuli/spore_stims/complex_14_A_a.gif","","","","","12","complex_dissimilar","images/stimuli/spore_stims/complex_14_A_a.gif","middle","","","","",""
"","null","html-keyboard-response","228","2896583","0.0-44.0-0.2","SS1613168790250","","","null","","","","","<p><img src= images/blank.png width =""200"" height = ""200"" style = ""float:right""></p><p><img src=images/blank.png width =""800"" height = ""200""></p>","","","","","","","","","","","",""
"","102.57999999867752","sequential-stimulus-presentation","229","2897508","0.0-44.0-1.2","SS1613168790250","trial","","40","800","902.5799999986775","images/stimuli/spore_stims/complex_13_A_b.gif","images/stimuli/spore_stims/complex_14_A_a.gif","","","","","12","complex_dissimilar","images/stimuli/spore_stims/complex_14_A_a.gif","middle","","","","",""
"","null","html-keyboard-response","230","2898478","0.0-44.0-0.3","SS1613168790250","","","null","","","","","<p><img src= images/blank.png width =""200"" height = ""200"" style = ""float:right""></p><p><img src=images/blank.png width =""800"" height = ""200""></p>","","","","","","","","","","","",""
"","828.3000000007451","sequential-stimulus-presentation","231","2900131","0.0-44.0-1.3","SS1613168790250","trial","","40","800","1628.300000000745","images/stimuli/spore_stims/complex_13_A_b.gif","images/stimuli/spore_stims/complex_14_A_a.gif","","","","","12","complex_dissimilar","images/stimuli/spore_stims/complex_14_A_a.gif","middle","","","","",""
"","null","html-keyboard-response","232","2901166","0.0-44.0-0.4","SS1613168790250","","","null","","","","","<p><img src= images/blank.png width =""200"" height = ""200"" style = ""float:right""></p><p><img src=images/blank.png width =""800"" height = ""200""></p>","","","","","","","","","","","",""
"","121.16999999852851","sequential-stimulus-presentation","233","2902110","0.0-44.0-1.4","SS1613168790250","trial","","40","800","921.1699999985285","images/stimuli/spore_stims/complex_13_A_b.gif","images/stimuli/spore_stims/complex_14_A_a.gif","","","","","12","complex_dissimilar","images/stimuli/spore_stims/complex_14_A_a.gif","middle","","","","",""
"","null","html-keyboard-response","234","2903142","0.0-44.0-0.5","SS1613168790250","","","null","","","","","<p><img src= images/blank.png width =""200"" height = ""200"" style = ""float:right""></p><p><img src=images/blank.png width =""800"" height = ""200""></p>","","","","","","","","","","","",""
"","14.394999998621643","sequential-stimulus-presentation","235","2903979","0.0-44.0-1.5","SS1613168790250","trial","","40","800","814.3949999986216","images/stimuli/spore_stims/complex_13_A_b.gif","images/stimuli/spore_stims/complex_14_A_a.gif","","","","","12","complex_dissimilar","images/stimuli/spore_stims/complex_14_A_a.gif","middle","","","","",""
"","null","html-keyboard-response","236","2905055","0.0-44.0-0.6","SS1613168790250","","","null","","","","","<p><img src= images/blank.png width =""200"" height = ""200"" style = ""float:right""></p><p><img src=images/blank.png width =""800"" height = ""200""></p>","","","","","","","","","","","",""
"","3.7249999986961484","sequential-stimulus-presentation","237","2905885","0.0-44.0-1.6","SS1613168790250","trial","","40","800","803.7249999986961","images/stimuli/spore_stims/complex_13_A_b.gif","images/stimuli/spore_stims/complex_14_A_a.gif","","","","","12","complex_dissimilar","images/stimuli/spore_stims/complex_14_A_a.gif","middle","","","","",""
"","null","html-keyboard-response","238","2907186","0.0-44.0-0.7","SS1613168790250","","","null","","","","","<p><img src= images/blank.png width =""200"" height = ""200"" style = ""float:right""></p><p><img src=images/blank.png width =""800"" height = ""200""></p>","","","","","","","","","","","",""
"","159.2849999978207","sequential-stimulus-presentation","239","2908164","0.0-44.0-1.7","SS1613168790250","trial","","40","800","959.2849999978207","images/stimuli/spore_stims/complex_13_A_b.gif","images/stimuli/spore_stims/complex_14_A_a.gif","","","","","12","complex_dissimilar","images/stimuli/spore_stims/complex_13_A_b.gif","right","","","","",""
"","793.3300000005402","html-keyboard-response","240","2908978","0.0-45.0","SS1613168790250","pref_question","","49","","","","","<video width ='960' height = '540' style='padding-top:8%' autoplay muted><source src='images/stimuli/wall_pref.mp4' type='video/mp4'></video>","1","left","25%","12","","","","","","","",""
"","19.565000002272427","sequential-stimulus-presentation","241","2909833","0.0-46.0","SS1613168790250","pref_reveal","","40","800","819.5650000022724","null","null","","","","","12","","","","novel","","","",""
"","null","html-keyboard-response","242","2910839","0.0-47.0-0.0","SS1613168790250","","","null","","","","","<p><img src= images/blank.png width =""200"" height = ""200"" style = ""float:right""></p><p><img src=images/blank.png width =""800"" height = ""200""></p>","","","","","","","","","","","",""
"","153.80999999959022","sequential-stimulus-presentation","243","2911814","0.0-47.0-1.0","SS1613168790250","trial","","40","800","953.8099999995902","images/stimuli/spore_stims/complex_12_B_d.gif","images/stimuli/spore_stims/complex_01_A_c.gif","","","","","13","complex_dissimilar","images/stimuli/spore_stims/complex_01_A_c.gif","right","","","","",""
"","null","html-keyboard-response","244","2912645","0.0-47.0-0.1","SS1613168790250","","","null","","","","","<p><img src= images/blank.png width =""200"" height = ""200"" style = ""float:right""></p><p><img src=images/blank.png width =""800"" height = ""200""></p>","","","","","","","","","","","",""
"","145.07000000216067","sequential-stimulus-presentation","245","2913616","0.0-47.0-1.1","SS1613168790250","trial","","40","800","945.0700000021607","images/stimuli/spore_stims/complex_12_B_d.gif","images/stimuli/spore_stims/complex_01_A_c.gif","","","","","13","complex_dissimilar","images/stimuli/spore_stims/complex_01_A_c.gif","right","","","","",""
"","null","html-keyboard-response","246","2915237","0.0-47.0-0.2","SS1613168790250","","","null","","","","","<p><img src= images/blank.png width =""200"" height = ""200"" style = ""float:right""></p><p><img src=images/blank.png width =""800"" height = ""200""></p>","","","","","","","","","","","",""
"","560.125","sequential-stimulus-presentation","247","2916798","0.0-47.0-1.2","SS1613168790250","trial","","40","800","1360.125","images/stimuli/spore_stims/complex_12_B_d.gif","images/stimuli/spore_stims/complex_01_A_c.gif","","","","","13","complex_dissimilar","images/stimuli/spore_stims/complex_01_A_c.gif","right","","","","",""
"","null","html-keyboard-response","248","2917832","0.0-47.0-0.3","SS1613168790250","","","null","","","","","<p><img src= images/blank.png width =""200"" height = ""200"" style = ""float:right""></p><p><img src=images/blank.png width =""800"" height = ""200""></p>","","","","","","","","","","","",""
"","333.5499999993481","sequential-stimulus-presentation","249","2918989","0.0-47.0-1.3","SS1613168790250","trial","","40","800","1133.549999999348","images/stimuli/spore_stims/complex_12_B_d.gif","images/stimuli/spore_stims/complex_01_A_c.gif","","","","","13","complex_dissimilar","images/stimuli/spore_stims/complex_01_A_c.gif","right","","","","",""
"","null","html-keyboard-response","250","2920181","0.0-47.0-0.4","SS1613168790250","","","null","","","","","<p><img src= images/blank.png width =""200"" height = ""200"" style = ""float:right""></p><p><img src=images/blank.png width =""800"" height = ""200""></p>","","","","","","","","","","","",""
"","477.47499999962747","sequential-stimulus-presentation","251","2921716","0.0-47.0-1.4","SS1613168790250","trial","","40","800","1277.4749999996275","images/stimuli/spore_stims/complex_12_B_d.gif","images/stimuli/spore_stims/complex_01_A_c.gif","","","","","13","complex_dissimilar","images/stimuli/spore_stims/complex_12_B_d.gif","middle","","","","",""
"","null","html-keyboard-response","252","2922994","0.0-47.0-0.5","SS1613168790250","","","null","","","","","<p><img src= images/blank.png width =""200"" height = ""200"" style = ""float:right""></p><p><img src=images/blank.png width =""800"" height = ""200""></p>","","","","","","","","","","","",""
"","215","sequential-stimulus-presentation","253","2924035","0.0-47.0-1.5","SS1613168790250","trial","","40","800","1015","images/stimuli/spore_stims/complex_12_B_d.gif","images/stimuli/spore_stims/complex_01_A_c.gif","","","","","13","complex_dissimilar","images/stimuli/spore_stims/complex_01_A_c.gif","right","","","","",""
"","null","html-keyboard-response","254","2925056","0.0-47.0-0.6","SS1613168790250","","","null","","","","","<p><img src= images/blank.png width =""200"" height = ""200"" style = ""float:right""></p><p><img src=images/blank.png width =""800"" height = ""200""></p>","","","","","","","","","","","",""
"","117.04000000096858","sequential-stimulus-presentation","255","2925998","0.0-47.0-1.6","SS1613168790250","trial","","40","800","917.0400000009686","images/stimuli/spore_stims/complex_12_B_d.gif","images/stimuli/spore_stims/complex_01_A_c.gif","","","","","13","complex_dissimilar","images/stimuli/spore_stims/complex_01_A_c.gif","right","","","","",""
"","null","html-keyboard-response","256","2926914","0.0-47.0-0.7","SS1613168790250","","","null","","","","","<p><img src= images/blank.png width =""200"" height = ""200"" style = ""float:right""></p><p><img src=images/blank.png width =""800"" height = ""200""></p>","","","","","","","","","","","",""
"","182.40500000305474","sequential-stimulus-presentation","257","2927921","0.0-47.0-1.7","SS1613168790250","trial","","40","800","982.4050000030547","images/stimuli/spore_stims/complex_12_B_d.gif","images/stimuli/spore_stims/complex_01_A_c.gif","","","","","13","complex_dissimilar","images/stimuli/spore_stims/complex_01_A_c.gif","right","","","","",""
"","1708.1450000004843","html-keyboard-response","258","2929653","0.0-48.0","SS1613168790250","pref_question","","49","","","","","<video width ='960' height = '540' style='padding-top:8%' autoplay muted><source src='images/stimuli/wall_pref.mp4' type='video/mp4'></video>","1","left","25%","13","","","","","","","",""
"","23.08500000089407","sequential-stimulus-presentation","259","2930502","0.0-49.0","SS1613168790250","pref_reveal","","40","800","823.0850000008941","null","null","","","","","13","","","","novel","","","",""
"","null","html-keyboard-response","260","2931471","0.0-50.0-0.0","SS1613168790250","","","null","","","","","<p><img src= images/blank.png width =""200"" height = ""200"" style = ""float:right""></p><p><img src=images/blank.png width =""800"" height = ""200""></p>","","","","","","","","","","","",""
"","21.33500000135973","sequential-stimulus-presentation","261","2932311","0.0-50.0-1.0","SS1613168790250","trial","","40","800","821.3350000013597","images/stimuli/spore_stims/simple_02_A_b.gif","images/stimuli/spore_stims/simple_02_B_b.gif","","","","","14","simple_similar","images/stimuli/spore_stims/simple_02_B_b.gif","left","","","","",""
"","null","html-keyboard-response","262","2933254","0.0-50.0-0.1","SS1613168790250","","","null","","","","","<p><img src= images/blank.png width =""200"" height = ""200"" style = ""float:right""></p><p><img src=images/blank.png width =""800"" height = ""200""></p>","","","","","","","","","","","",""
"","144.34500000067055","sequential-stimulus-presentation","263","2934220","0.0-50.0-1.1","SS1613168790250","trial","","40","800","944.3450000006706","images/stimuli/spore_stims/simple_02_A_b.gif","images/stimuli/spore_stims/simple_02_B_b.gif","","","","","14","simple_similar","images/stimuli/spore_stims/simple_02_B_b.gif","left","","","","",""
"","null","html-keyboard-response","264","2935097","0.0-50.0-0.2","SS1613168790250","","","null","","","","","<p><img src= images/blank.png width =""200"" height = ""200"" style = ""float:right""></p><p><img src=images/blank.png width =""800"" height = ""200""></p>","","","","","","","","","","","",""
"","97.07499999785796","sequential-stimulus-presentation","265","2936016","0.0-50.0-1.2","SS1613168790250","trial","","40","800","897.074999997858","images/stimuli/spore_stims/simple_02_A_b.gif","images/stimuli/spore_stims/simple_02_B_b.gif","","","","","14","simple_similar","images/stimuli/spore_stims/simple_02_B_b.gif","left","","","","",""
"","null","html-keyboard-response","266","2937257","0.0-50.0-0.3","SS1613168790250","","","null","","","","","<p><img src= images/blank.png width =""200"" height = ""200"" style = ""float:right""></p><p><img src=images/blank.png width =""800"" height = ""200""></p>","","","","","","","","","","","",""
"","356.05999999819323","sequential-stimulus-presentation","267","2938431","0.0-50.0-1.3","SS1613168790250","trial","","40","800","1156.0599999981932","images/stimuli/spore_stims/simple_02_A_b.gif","images/stimuli/spore_stims/simple_02_B_b.gif","","","","","14","simple_similar","images/stimuli/spore_stims/simple_02_B_b.gif","left","","","","",""
"","null","html-keyboard-response","268","2939703","0.0-50.0-0.4","SS1613168790250","","","null","","","","","<p><img src= images/blank.png width =""200"" height = ""200"" style = ""float:right""></p><p><img src=images/blank.png width =""800"" height = ""200""></p>","","","","","","","","","","","",""
"","80.64499999815598","sequential-stimulus-presentation","269","2940604","0.0-50.0-1.4","SS1613168790250","trial","","40","800","880.644999998156","images/stimuli/spore_stims/simple_02_A_b.gif","images/stimuli/spore_stims/simple_02_B_b.gif","","","","","14","simple_similar","images/stimuli/spore_stims/simple_02_B_b.gif","left","","","","",""
"","null","html-keyboard-response","270","2941563","0.0-50.0-0.5","SS1613168790250","","","null","","","","","<p><img src= images/blank.png width =""200"" height = ""200"" style = ""float:right""></p><p><img src=images/blank.png width =""800"" height = ""200""></p>","","","","","","","","","","","",""
"","144.70000000065193","sequential-stimulus-presentation","271","2942530","0.0-50.0-1.5","SS1613168790250","trial","","40","800","944.7000000006519","images/stimuli/spore_stims/simple_02_A_b.gif","images/stimuli/spore_stims/simple_02_B_b.gif","","","","","14","simple_similar","images/stimuli/spore_stims/simple_02_A_b.gif","right","","","","",""
"","null","html-keyboard-response","272","2943831","0.0-50.0-0.6","SS1613168790250","","","null","","","","","<p><img src= images/blank.png width =""200"" height = ""200"" style = ""float:right""></p><p><img src=images/blank.png width =""800"" height = ""200""></p>","","","","","","","","","","","",""
"","182.84000000124797","sequential-stimulus-presentation","273","2944834","0.0-50.0-1.6","SS1613168790250","trial","","40","800","982.840000001248","images/stimuli/spore_stims/simple_02_A_b.gif","images/stimuli/spore_stims/simple_02_B_b.gif","","","","","14","simple_similar","images/stimuli/spore_stims/simple_02_B_b.gif","left","","","","",""
"","null","html-keyboard-response","274","2945971","0.0-50.0-0.7","SS1613168790250","","","null","","","","","<p><img src= images/blank.png width =""200"" height = ""200"" style = ""float:right""></p><p><img src=images/blank.png width =""800"" height = ""200""></p>","","","","","","","","","","","",""
"","105.45999999903142","sequential-stimulus-presentation","275","2946902","0.0-50.0-1.7","SS1613168790250","trial","","40","800","905.4599999990314","images/stimuli/spore_stims/simple_02_A_b.gif","images/stimuli/spore_stims/simple_02_B_b.gif","","","","","14","simple_similar","images/stimuli/spore_stims/simple_02_B_b.gif","left","","","","",""
"","1590.9900000006892","html-keyboard-response","276","2948513","0.0-51.0","SS1613168790250","pref_question","","50","","","","","<video width ='960' height = '540' style='padding-top:8%' autoplay muted><source src='images/stimuli/wall_pref.mp4' type='video/mp4'></video>","2","middle","45%","14","","","","","","","",""
"","170.4849999989383","sequential-stimulus-presentation","277","2949507","0.0-52.0","SS1613168790250","pref_reveal","","40","800","970.4849999989383","null","null","","","","","14","","","","novel","","","",""
"","null","html-keyboard-response","278","2950790","0.0-53.0-0.0","SS1613168790250","","","null","","","","","<p><img src= images/blank.png width =""200"" height = ""200"" style = ""float:right""></p><p><img src=images/blank.png width =""800"" height = ""200""></p>","","","","","","","","","","","",""
"","146.73999999975786","sequential-stimulus-presentation","279","2951762","0.0-53.0-1.0","SS1613168790250","trial","","40","800","946.7399999997579","images/stimuli/spore_stims/complex_15_B_a.gif","images/stimuli/spore_stims/complex_15_A_a.gif","","","","","15","complex_similar","images/stimuli/spore_stims/complex_15_A_a.gif","middle","","","","",""
"","null","html-keyboard-response","280","2953044","0.0-53.0-0.1","SS1613168790250","","","null","","","","","<p><img src= images/blank.png width =""200"" height = ""200"" style = ""float:right""></p><p><img src=images/blank.png width =""800"" height = ""200""></p>","","","","","","","","","","","",""
"","137.67000000039116","sequential-stimulus-presentation","281","2954006","0.0-53.0-1.1","SS1613168790250","trial","","40","800","937.6700000003912","images/stimuli/spore_stims/complex_15_B_a.gif","images/stimuli/spore_stims/complex_15_A_a.gif","","","","","15","complex_similar","images/stimuli/spore_stims/complex_15_A_a.gif","middle","","","","",""
"","null","html-keyboard-response","282","2954889","0.0-53.0-0.2","SS1613168790250","","","null","","","","","<p><img src= images/blank.png width =""200"" height = ""200"" style = ""float:right""></p><p><img src=images/blank.png width =""800"" height = ""200""></p>","","","","","","","","","","","",""
"","181.32500000158325","sequential-stimulus-presentation","283","2955899","0.0-53.0-1.2","SS1613168790250","trial","","40","800","981.3250000015832","images/stimuli/spore_stims/complex_15_B_a.gif","images/stimuli/spore_stims/complex_15_A_a.gif","","","","","15","complex_similar","images/stimuli/spore_stims/complex_15_B_a.gif","left","","","","",""
"","null","html-keyboard-response","284","2956803","0.0-53.0-0.3","SS1613168790250","","","null","","","","","<p><img src= images/blank.png width =""200"" height = ""200"" style = ""float:right""></p><p><img src=images/blank.png width =""800"" height = ""200""></p>","","","","","","","","","","","",""
"","210.6449999990873","sequential-stimulus-presentation","285","2957837","0.0-53.0-1.3","SS1613168790250","trial","","40","800","1010.6449999990873","images/stimuli/spore_stims/complex_15_B_a.gif","images/stimuli/spore_stims/complex_15_A_a.gif","","","","","15","complex_similar","images/stimuli/spore_stims/complex_15_A_a.gif","middle","","","","",""
"","null","html-keyboard-response","286","2958939","0.0-53.0-0.4","SS1613168790250","","","null","","","","","<p><img src= images/blank.png width =""200"" height = ""200"" style = ""float:right""></p><p><img src=images/blank.png width =""800"" height = ""200""></p>","","","","","","","","","","","",""
"","223.29000000143424","sequential-stimulus-presentation","287","2959982","0.0-53.0-1.4","SS1613168790250","trial","","40","800","1023.2900000014342","images/stimuli/spore_stims/complex_15_B_a.gif","images/stimuli/spore_stims/complex_15_A_a.gif","","","","","15","complex_similar","images/stimuli/spore_stims/complex_15_A_a.gif","middle","","","","",""
"","null","html-keyboard-response","288","2961227","0.0-53.0-0.5","SS1613168790250","","","null","","","","","<p><img src= images/blank.png width =""200"" height = ""200"" style = ""float:right""></p><p><img src=images/blank.png width =""800"" height = ""200""></p>","","","","","","","","","","","",""
"","80.71999999834225","sequential-stimulus-presentation","289","2962135","0.0-53.0-1.5","SS1613168790250","trial","","40","800","880.7199999983422","images/stimuli/spore_stims/complex_15_B_a.gif","images/stimuli/spore_stims/complex_15_A_a.gif","","","","","15","complex_similar","images/stimuli/spore_stims/complex_15_A_a.gif","middle","","","","",""
"","null","html-keyboard-response","290","2962970","0.0-53.0-0.6","SS1613168790250","","","null","","","","","<p><img src= images/blank.png width =""200"" height = ""200"" style = ""float:right""></p><p><img src=images/blank.png width =""800"" height = ""200""></p>","","","","","","","","","","","",""
"","81.6850000009872","sequential-stimulus-presentation","291","2963875","0.0-53.0-1.6","SS1613168790250","trial","","40","800","881.6850000009872","images/stimuli/spore_stims/complex_15_B_a.gif","images/stimuli/spore_stims/complex_15_A_a.gif","","","","","15","complex_similar","images/stimuli/spore_stims/complex_15_A_a.gif","middle","","","","",""
"","null","html-keyboard-response","292","2965030","0.0-53.0-0.7","SS1613168790250","","","null","","","","","<p><img src= images/blank.png width =""200"" height = ""200"" style = ""float:right""></p><p><img src=images/blank.png width =""800"" height = ""200""></p>","","","","","","","","","","","",""
"","571.464999997057","sequential-stimulus-presentation","293","2966425","0.0-53.0-1.7","SS1613168790250","trial","","40","800","1371.464999997057","images/stimuli/spore_stims/complex_15_B_a.gif","images/stimuli/spore_stims/complex_15_A_a.gif","","","","","15","complex_similar","images/stimuli/spore_stims/complex_15_A_a.gif","middle","","","","",""
"","5428.880000003148","html-keyboard-response","294","2971877","0.0-54.0","SS1613168790250","pref_question","","51","","","","","<video width ='960' height = '540' style='padding-top:8%' autoplay muted><source src='images/stimuli/wall_pref.mp4' type='video/mp4'></video>","3","right","66%","15","","","","","","","",""
"","32.1750000002794","sequential-stimulus-presentation","295","2972737","0.0-55.0","SS1613168790250","pref_reveal","","40","800","832.1750000002794","null","null","","","","","15","","","","novel","","","",""
"","null","html-keyboard-response","296","2974038","0.0-56.0-0.0","SS1613168790250","","","null","","","","","<p><img src= images/blank.png width =""200"" height = ""200"" style = ""float:right""></p><p><img src=images/blank.png width =""800"" height = ""200""></p>","","","","","","","","","","","",""
"","299.49000000115484","sequential-stimulus-presentation","297","2975159","0.0-56.0-1.0","SS1613168790250","trial","","40","800","1099.4900000011548","images/stimuli/spore_stims/complex_06_B_c.gif","images/stimuli/spore_stims/complex_06_A_c.gif","","","","","16","complex_similar","images/stimuli/spore_stims/complex_06_A_c.gif","left","","","","",""
"","null","html-keyboard-response","298","2976289","0.0-56.0-0.1","SS1613168790250","","","null","","","","","<p><img src= images/blank.png width =""200"" height = ""200"" style = ""float:right""></p><p><img src=images/blank.png width =""800"" height = ""200""></p>","","","","","","","","","","","",""
"","90.42500000214204","sequential-stimulus-presentation","299","2977204","0.0-56.0-1.1","SS1613168790250","trial","","40","800","890.425000002142","images/stimuli/spore_stims/complex_06_B_c.gif","images/stimuli/spore_stims/complex_06_A_c.gif","","","","","16","complex_similar","images/stimuli/spore_stims/complex_06_A_c.gif","left","","","","",""
"","null","html-keyboard-response","300","2978089","0.0-56.0-0.2","SS1613168790250","","","null","","","","","<p><img src= images/blank.png width =""200"" height = ""200"" style = ""float:right""></p><p><img src=images/blank.png width =""800"" height = ""200""></p>","","","","","","","","","","","",""
"","432.304999998305","sequential-stimulus-presentation","301","2979370","0.0-56.0-1.2","SS1613168790250","trial","","40","800","1232.304999998305","images/stimuli/spore_stims/complex_06_B_c.gif","images/stimuli/spore_stims/complex_06_A_c.gif","","","","","16","complex_similar","images/stimuli/spore_stims/complex_06_A_c.gif","left","","","","",""
"","null","html-keyboard-response","302","2980575","0.0-56.0-0.3","SS1613168790250","","","null","","","","","<p><img src= images/blank.png width =""200"" height = ""200"" style = ""float:right""></p><p><img src=images/blank.png width =""800"" height = ""200""></p>","","","","","","","","","","","",""
"","284.44500000122935","sequential-stimulus-presentation","303","2981682","0.0-56.0-1.3","SS1613168790250","trial","","40","800","1084.4450000012293","images/stimuli/spore_stims/complex_06_B_c.gif","images/stimuli/spore_stims/complex_06_A_c.gif","","","","","16","complex_similar","images/stimuli/spore_stims/complex_06_A_c.gif","left","","","","",""
"","null","html-keyboard-response","304","2982824","0.0-56.0-0.4","SS1613168790250","","","null","","","","","<p><img src= images/blank.png width =""200"" height = ""200"" style = ""float:right""></p><p><img src=images/blank.png width =""800"" height = ""200""></p>","","","","","","","","","","","",""
"","169.2299999995157","sequential-stimulus-presentation","305","2983816","0.0-56.0-1.4","SS1613168790250","trial","","40","800","969.2299999995157","images/stimuli/spore_stims/complex_06_B_c.gif","images/stimuli/spore_stims/complex_06_A_c.gif","","","","","16","complex_similar","images/stimuli/spore_stims/complex_06_A_c.gif","left","","","","",""
"","null","html-keyboard-response","306","2985129","0.0-56.0-0.5","SS1613168790250","","","null","","","","","<p><img src= images/blank.png width =""200"" height = ""200"" style = ""float:right""></p><p><img src=images/blank.png width =""800"" height = ""200""></p>","","","","","","","","","","","",""
"","23.529999998398125","sequential-stimulus-presentation","307","2985976","0.0-56.0-1.5","SS1613168790250","trial","","40","800","823.5299999983981","images/stimuli/spore_stims/complex_06_B_c.gif","images/stimuli/spore_stims/complex_06_A_c.gif","","","","","16","complex_similar","images/stimuli/spore_stims/complex_06_A_c.gif","left","","","","",""
"","null","html-keyboard-response","308","2986952","0.0-56.0-0.6","SS1613168790250","","","null","","","","","<p><img src= images/blank.png width =""200"" height = ""200"" style = ""float:right""></p><p><img src=images/blank.png width =""800"" height = ""200""></p>","","","","","","","","","","","",""
"","213.5300000011921","sequential-stimulus-presentation","309","2987993","0.0-56.0-1.6","SS1613168790250","trial","","40","800","1013.5300000011921","images/stimuli/spore_stims/complex_06_B_c.gif","images/stimuli/spore_stims/complex_06_A_c.gif","","","","","16","complex_similar","images/stimuli/spore_stims/complex_06_A_c.gif","left","","","","",""
"","null","html-keyboard-response","310","2989084","0.0-56.0-0.7","SS1613168790250","","","null","","","","","<p><img src= images/blank.png width =""200"" height = ""200"" style = ""float:right""></p><p><img src=images/blank.png width =""800"" height = ""200""></p>","","","","","","","","","","","",""
"","1204.7099999985658","sequential-stimulus-presentation","311","2991112","0.0-56.0-1.7","SS1613168790250","trial","","40","800","2004.7099999985658","images/stimuli/spore_stims/complex_06_B_c.gif","images/stimuli/spore_stims/complex_06_A_c.gif","","","","","16","complex_similar","images/stimuli/spore_stims/complex_06_B_c.gif","right","","","","",""
