"view_history","rt","trial_type","trial_index","time_elapsed","internal_node_id","subject","stimulus_type","trial_stimulus","key_press","minimum_viewing_duration","trial_looking_time","block_deviant","block_background","stimulus","wall_pref","location","location_percent","block_number","block_type","stimulus_displayed","position_displayed","stim_type_selected","responses","question_order","stimulus_left","stimulus_right"
"[{""page_index"":0,""viewing_time"":6206.384999997681}]","6206.574999996519","instructions","0","6207","0.0-0.0","SS1613100759658","","","","","","","","","","","","","","","","","","","",""
"[{""page_index"":0,""viewing_time"":12441.220000000612},{""page_index"":1,""viewing_time"":108060.45500000619}]","120501.80499999988","instructions","1","128713","0.0-1.0","SS1613100759658","instructions","","","","","","","","","","","","","","","","","","",""
"","15313.909999997122","sequential-stimulus-presentation","2","144833","0.0-2.0","SS1613100759658","","","40","800","16113.909999997122","null","null","","","","","","","","","","","","",""
"","2550.330000005488","sequential-stimulus-presentation","3","148200","0.0-3.0","SS1613100759658","","","40","800","3350.330000005488","null","null","","","","","","","","","","","","",""
"[{""page_index"":0,""viewing_time"":2733.4800000026007}]","2733.5999999995693","instructions","4","150934","0.0-4.0","SS1613100759658","instructions","","","","","","","","","","","","","","","","","","",""
"","11388.565000001108","html-keyboard-response","5","162324","0.0-5.0","SS1613100759658","instructions","","49","","","","","<video width ='960' height = '540' autoplay muted><source src='images/stimuli/wall_pref.mp4' type='video/mp4'></video>","1","left","25%","","","","","","","","",""
"","20943.46499999665","sequential-stimulus-presentation","6","184070","0.0-6.0","SS1613100759658","pref_reveal","","40","800","21743.46499999665","null","null","","","","","","","","","","","","",""
"[{""page_index"":0,""viewing_time"":1931.1299999972107},{""page_index"":1,""viewing_time"":434.29000000469387},{""page_index"":2,""viewing_time"":737.9349999973783},{""page_index"":3,""viewing_time"":1786.7299999998068}]","4890.2149999994435","instructions","7","188960","0.0-7.0","SS1613100759658","instructions","","","","","","","","","","","","","","","","","","",""
"","null","html-keyboard-response","8","190254","0.0-8.0-0.0","SS1613100759658","","","null","","","","","<p><img src= images/blank.png width =""200"" height = ""200"" style = ""float:right""></p><p><img src=images/blank.png width =""800"" height = ""200""></p>","","","","","","","","","","","",""
"","39.90000000339933","sequential-stimulus-presentation","9","191097","0.0-8.0-1.0","SS1613100759658","trial","","40","800","839.9000000033993","images/stimuli/spore_stims/complex_08_A_c.gif","images/stimuli/spore_stims/complex_08_B_c.gif","","","","","0","complex_similar","images/stimuli/spore_stims/complex_08_B_c.gif","left","","","","",""
"","null","html-keyboard-response","10","192147","0.0-8.0-0.1","SS1613100759658","","","null","","","","","<p><img src= images/blank.png width =""200"" height = ""200"" style = ""float:right""></p><p><img src=images/blank.png width =""800"" height = ""200""></p>","","","","","","","","","","","",""
"","88.6049999971874","sequential-stimulus-presentation","11","193039","0.0-8.0-1.1","SS1613100759658","trial","","40","800","888.6049999971874","images/stimuli/spore_stims/complex_08_A_c.gif","images/stimuli/spore_stims/complex_08_B_c.gif","","","","","0","complex_similar","images/stimuli/spore_stims/complex_08_B_c.gif","left","","","","",""
"","null","html-keyboard-response","12","194159","0.0-8.0-0.2","SS1613100759658","","","null","","","","","<p><img src= images/blank.png width =""200"" height = ""200"" style = ""float:right""></p><p><img src=images/blank.png width =""800"" height = ""200""></p>","","","","","","","","","","","",""
"","66.52500000200234","sequential-stimulus-presentation","13","195031","0.0-8.0-1.2","SS1613100759658","trial","","40","800","866.5250000020023","images/stimuli/spore_stims/complex_08_A_c.gif","images/stimuli/spore_stims/complex_08_B_c.gif","","","","","0","complex_similar","images/stimuli/spore_stims/complex_08_B_c.gif","left","","","","",""
"","null","html-keyboard-response","14","196203","0.0-8.0-0.3","SS1613100759658","","","null","","","","","<p><img src= images/blank.png width =""200"" height = ""200"" style = ""float:right""></p><p><img src=images/blank.png width =""800"" height = ""200""></p>","","","","","","","","","","","",""
"","163.70499999902677","sequential-stimulus-presentation","15","197170","0.0-8.0-1.3","SS1613100759658","trial","","40","800","963.7049999990268","images/stimuli/spore_stims/complex_08_A_c.gif","images/stimuli/spore_stims/complex_08_B_c.gif","","","","","0","complex_similar","images/stimuli/spore_stims/complex_08_B_c.gif","left","","","","",""
"","null","html-keyboard-response","16","198328","0.0-8.0-0.4","SS1613100759658","","","null","","","","","<p><img src= images/blank.png width =""200"" height = ""200"" style = ""float:right""></p><p><img src=images/blank.png width =""800"" height = ""200""></p>","","","","","","","","","","","",""
"","139.51000000088243","sequential-stimulus-presentation","17","199274","0.0-8.0-1.4","SS1613100759658","trial","","40","800","939.5100000008824","images/stimuli/spore_stims/complex_08_A_c.gif","images/stimuli/spore_stims/complex_08_B_c.gif","","","","","0","complex_similar","images/stimuli/spore_stims/complex_08_B_c.gif","left","","","","",""
"","null","html-keyboard-response","18","200461","0.0-8.0-0.5","SS1613100759658","","","null","","","","","<p><img src= images/blank.png width =""200"" height = ""200"" style = ""float:right""></p><p><img src=images/blank.png width =""800"" height = ""200""></p>","","","","","","","","","","","",""
"","110.69500000303378","sequential-stimulus-presentation","19","201378","0.0-8.0-1.5","SS1613100759658","trial","","40","800","910.6950000030338","images/stimuli/spore_stims/complex_08_A_c.gif","images/stimuli/spore_stims/complex_08_B_c.gif","","","","","0","complex_similar","images/stimuli/spore_stims/complex_08_B_c.gif","left","","","","",""
"","null","html-keyboard-response","20","202197","0.0-8.0-0.6","SS1613100759658","","","null","","","","","<p><img src= images/blank.png width =""200"" height = ""200"" style = ""float:right""></p><p><img src=images/blank.png width =""800"" height = ""200""></p>","","","","","","","","","","","",""
"","109.19499999727122","sequential-stimulus-presentation","21","203113","0.0-8.0-1.6","SS1613100759658","trial","","40","800","909.1949999972712","images/stimuli/spore_stims/complex_08_A_c.gif","images/stimuli/spore_stims/complex_08_B_c.gif","","","","","0","complex_similar","images/stimuli/spore_stims/complex_08_B_c.gif","left","","","","",""
"","null","html-keyboard-response","22","204215","0.0-8.0-0.7","SS1613100759658","","","null","","","","","<p><img src= images/blank.png width =""200"" height = ""200"" style = ""float:right""></p><p><img src=images/blank.png width =""800"" height = ""200""></p>","","","","","","","","","","","",""
"","119.80000000039581","sequential-stimulus-presentation","23","205144","0.0-8.0-1.7","SS1613100759658","trial","","40","800","919.8000000003958","images/stimuli/spore_stims/complex_08_A_c.gif","images/stimuli/spore_stims/complex_08_B_c.gif","","","","","0","complex_similar","images/stimuli/spore_stims/complex_08_A_c.gif","middle","","","","",""
"","1698.8450000062585","html-keyboard-response","24","206844","0.0-9.0","SS1613100759658","pref_question","","50","","","","","<video width ='960' height = '540' style='padding-top:8%' autoplay muted><source src='images/stimuli/wall_pref.mp4' type='video/mp4'></video>","2","middle","45%","0","","","","","","","",""
"","2625.6849999990663","sequential-stimulus-presentation","25","210272","0.0-10.0","SS1613100759658","pref_reveal","","40","800","3425.6849999990663","null","null","","","","","0","","","","deviant","","","",""
"","null","html-keyboard-response","26","211480","0.0-11.0-0.0","SS1613100759658","","","null","","","","","<p><img src= images/blank.png width =""200"" height = ""200"" style = ""float:right""></p><p><img src=images/blank.png width =""800"" height = ""200""></p>","","","","","","","","","","","",""
"","22372.815000002447","sequential-stimulus-presentation","27","234656","0.0-11.0-1.0","SS1613100759658","trial","","40","800","23172.815000002447","images/stimuli/spore_stims/simple_03_B_a.gif","images/stimuli/spore_stims/simple_19_A_a.gif","","","","","1","simple_dissimilar","images/stimuli/spore_stims/simple_19_A_a.gif","left","","","","",""
"","null","html-keyboard-response","28","235627","0.0-11.0-0.1","SS1613100759658","","","null","","","","","<p><img src= images/blank.png width =""200"" height = ""200"" style = ""float:right""></p><p><img src=images/blank.png width =""800"" height = ""200""></p>","","","","","","","","","","","",""
"","16.709999996237457","sequential-stimulus-presentation","29","236446","0.0-11.0-1.1","SS1613100759658","trial","","40","800","816.7099999962375","images/stimuli/spore_stims/simple_03_B_a.gif","images/stimuli/spore_stims/simple_19_A_a.gif","","","","","1","simple_dissimilar","images/stimuli/spore_stims/simple_19_A_a.gif","left","","","","",""
"","null","html-keyboard-response","30","237729","0.0-11.0-0.2","SS1613100759658","","","null","","","","","<p><img src= images/blank.png width =""200"" height = ""200"" style = ""float:right""></p><p><img src=images/blank.png width =""800"" height = ""200""></p>","","","","","","","","","","","",""
"","20.51000000210479","sequential-stimulus-presentation","31","238553","0.0-11.0-1.2","SS1613100759658","trial","","40","800","820.5100000021048","images/stimuli/spore_stims/simple_03_B_a.gif","images/stimuli/spore_stims/simple_19_A_a.gif","","","","","1","simple_dissimilar","images/stimuli/spore_stims/simple_19_A_a.gif","left","","","","",""
"","null","html-keyboard-response","32","239572","0.0-11.0-0.3","SS1613100759658","","","null","","","","","<p><img src= images/blank.png width =""200"" height = ""200"" style = ""float:right""></p><p><img src=images/blank.png width =""800"" height = ""200""></p>","","","","","","","","","","","",""
"","6.370000002789311","sequential-stimulus-presentation","33","240380","0.0-11.0-1.3","SS1613100759658","trial","","40","800","806.3700000027893","images/stimuli/spore_stims/simple_03_B_a.gif","images/stimuli/spore_stims/simple_19_A_a.gif","","","","","1","simple_dissimilar","images/stimuli/spore_stims/simple_19_A_a.gif","left","","","","",""
"","null","html-keyboard-response","34","241520","0.0-11.0-0.4","SS1613100759658","","","null","","","","","<p><img src= images/blank.png width =""200"" height = ""200"" style = ""float:right""></p><p><img src=images/blank.png width =""800"" height = ""200""></p>","","","","","","","","","","","",""
"","7.779999999911524","sequential-stimulus-presentation","35","242329","0.0-11.0-1.4","SS1613100759658","trial","","40","800","807.7799999999115","images/stimuli/spore_stims/simple_03_B_a.gif","images/stimuli/spore_stims/simple_19_A_a.gif","","","","","1","simple_dissimilar","images/stimuli/spore_stims/simple_19_A_a.gif","left","","","","",""
"","null","html-keyboard-response","36","243298","0.0-11.0-0.5","SS1613100759658","","","null","","","","","<p><img src= images/blank.png width =""200"" height = ""200"" style = ""float:right""></p><p><img src=images/blank.png width =""800"" height = ""200""></p>","","","","","","","","","","","",""
"","13.814999998430721","sequential-stimulus-presentation","37","244114","0.0-11.0-1.5","SS1613100759658","trial","","40","800","813.8149999984307","images/stimuli/spore_stims/simple_03_B_a.gif","images/stimuli/spore_stims/simple_19_A_a.gif","","","","","1","simple_dissimilar","images/stimuli/spore_stims/simple_19_A_a.gif","left","","","","",""
"","null","html-keyboard-response","38","245183","0.0-11.0-0.6","SS1613100759658","","","null","","","","","<p><img src= images/blank.png width =""200"" height = ""200"" style = ""float:right""></p><p><img src=images/blank.png width =""800"" height = ""200""></p>","","","","","","","","","","","",""
"","7.949999999254942","sequential-stimulus-presentation","39","245994","0.0-11.0-1.6","SS1613100759658","trial","","40","800","807.9499999992549","images/stimuli/spore_stims/simple_03_B_a.gif","images/stimuli/spore_stims/simple_19_A_a.gif","","","","","1","simple_dissimilar","images/stimuli/spore_stims/simple_03_B_a.gif","middle","","","","",""
"","null","html-keyboard-response","40","247176","0.0-11.0-0.7","SS1613100759658","","","null","","","","","<p><img src= images/blank.png width =""200"" height = ""200"" style = ""float:right""></p><p><img src=images/blank.png width =""800"" height = ""200""></p>","","","","","","","","","","","",""
"","2.3099999962141737","sequential-stimulus-presentation","41","247981","0.0-11.0-1.7","SS1613100759658","trial","","40","800","802.3099999962142","images/stimuli/spore_stims/simple_03_B_a.gif","images/stimuli/spore_stims/simple_19_A_a.gif","","","","","1","simple_dissimilar","images/stimuli/spore_stims/simple_19_A_a.gif","left","","","","",""
"","4.115000003366731","html-keyboard-response","42","247987","0.0-12.0","SS1613100759658","pref_question","","49","","","","","<video width ='960' height = '540' style='padding-top:8%' autoplay muted><source src='images/stimuli/wall_pref.mp4' type='video/mp4'></video>","1","left","25%","1","","","","","","","",""
"","8.054999998421408","sequential-stimulus-presentation","43","248797","0.0-13.0","SS1613100759658","pref_reveal","","40","800","808.0549999984214","null","null","","","","","1","","","","background","","","",""
"","null","html-keyboard-response","44","249848","0.0-14.0-0.0","SS1613100759658","","","null","","","","","<p><img src= images/blank.png width =""200"" height = ""200"" style = ""float:right""></p><p><img src=images/blank.png width =""800"" height = ""200""></p>","","","","","","","","","","","",""
"","4.43000000086613","sequential-stimulus-presentation","45","250655","0.0-14.0-1.0","SS1613100759658","trial","","40","800","804.4300000008661","images/stimuli/spore_stims/simple_17_B_c.gif","images/stimuli/spore_stims/simple_17_A_c.gif","","","","","2","simple_similar","images/stimuli/spore_stims/simple_17_A_c.gif","left","","","","",""
"","null","html-keyboard-response","46","251918","0.0-14.0-0.1","SS1613100759658","","","null","","","","","<p><img src= images/blank.png width =""200"" height = ""200"" style = ""float:right""></p><p><img src=images/blank.png width =""800"" height = ""200""></p>","","","","","","","","","","","",""
"","16.329999998561107","sequential-stimulus-presentation","47","252737","0.0-14.0-1.1","SS1613100759658","trial","","40","800","816.3299999985611","images/stimuli/spore_stims/simple_17_B_c.gif","images/stimuli/spore_stims/simple_17_A_c.gif","","","","","2","simple_similar","images/stimuli/spore_stims/simple_17_A_c.gif","left","","","","",""
"","null","html-keyboard-response","48","253682","0.0-14.0-0.2","SS1613100759658","","","null","","","","","<p><img src= images/blank.png width =""200"" height = ""200"" style = ""float:right""></p><p><img src=images/blank.png width =""800"" height = ""200""></p>","","","","","","","","","","","",""
"","0.9399999980814755","sequential-stimulus-presentation","49","254485","0.0-14.0-1.2","SS1613100759658","trial","","40","800","800.9399999980815","images/stimuli/spore_stims/simple_17_B_c.gif","images/stimuli/spore_stims/simple_17_A_c.gif","","","","","2","simple_similar","images/stimuli/spore_stims/simple_17_A_c.gif","left","","","","",""
"","null","html-keyboard-response","50","255728","0.0-14.0-0.3","SS1613100759658","","","null","","","","","<p><img src= images/blank.png width =""200"" height = ""200"" style = ""float:right""></p><p><img src=images/blank.png width =""800"" height = ""200""></p>","","","","","","","","","","","",""
"","15.795000006619375","sequential-stimulus-presentation","51","256546","0.0-14.0-1.3","SS1613100759658","trial","","40","800","815.7950000066194","images/stimuli/spore_stims/simple_17_B_c.gif","images/stimuli/spore_stims/simple_17_A_c.gif","","","","","2","simple_similar","images/stimuli/spore_stims/simple_17_A_c.gif","left","","","","",""
"","null","html-keyboard-response","52","257760","0.0-14.0-0.4","SS1613100759658","","","null","","","","","<p><img src= images/blank.png width =""200"" height = ""200"" style = ""float:right""></p><p><img src=images/blank.png width =""800"" height = ""200""></p>","","","","","","","","","","","",""
"","14.159999998810235","sequential-stimulus-presentation","53","258577","0.0-14.0-1.4","SS1613100759658","trial","","40","800","814.1599999988102","images/stimuli/spore_stims/simple_17_B_c.gif","images/stimuli/spore_stims/simple_17_A_c.gif","","","","","2","simple_similar","images/stimuli/spore_stims/simple_17_A_c.gif","left","","","","",""
"","null","html-keyboard-response","54","259571","0.0-14.0-0.5","SS1613100759658","","","null","","","","","<p><img src= images/blank.png width =""200"" height = ""200"" style = ""float:right""></p><p><img src=images/blank.png width =""800"" height = ""200""></p>","","","","","","","","","","","",""
"","3.1149999995250255","sequential-stimulus-presentation","55","260376","0.0-14.0-1.5","SS1613100759658","trial","","40","800","803.114999999525","images/stimuli/spore_stims/simple_17_B_c.gif","images/stimuli/spore_stims/simple_17_A_c.gif","","","","","2","simple_similar","images/stimuli/spore_stims/simple_17_A_c.gif","left","","","","",""
"","null","html-keyboard-response","56","261651","0.0-14.0-0.6","SS1613100759658","","","null","","","","","<p><img src= images/blank.png width =""200"" height = ""200"" style = ""float:right""></p><p><img src=images/blank.png width =""800"" height = ""200""></p>","","","","","","","","","","","",""
"","0.9649999992689118","sequential-stimulus-presentation","57","262460","0.0-14.0-1.6","SS1613100759658","trial","","40","800","800.9649999992689","images/stimuli/spore_stims/simple_17_B_c.gif","images/stimuli/spore_stims/simple_17_A_c.gif","","","","","2","simple_similar","images/stimuli/spore_stims/simple_17_B_c.gif","right","","","","",""
"","null","html-keyboard-response","58","263651","0.0-14.0-0.7","SS1613100759658","","","null","","","","","<p><img src= images/blank.png width =""200"" height = ""200"" style = ""float:right""></p><p><img src=images/blank.png width =""800"" height = ""200""></p>","","","","","","","","","","","",""
"","1.600000003236346","sequential-stimulus-presentation","59","264455","0.0-14.0-1.7","SS1613100759658","trial","","40","800","801.6000000032363","images/stimuli/spore_stims/simple_17_B_c.gif","images/stimuli/spore_stims/simple_17_A_c.gif","","","","","2","simple_similar","images/stimuli/spore_stims/simple_17_A_c.gif","left","","","","",""
"","1.0850000035134144","html-keyboard-response","60","264458","0.0-15.0","SS1613100759658","pref_question","","49","","","","","<video width ='960' height = '540' style='padding-top:8%' autoplay muted><source src='images/stimuli/wall_pref.mp4' type='video/mp4'></video>","1","left","25%","2","","","","","","","",""
"","9.290000001783483","sequential-stimulus-presentation","61","265270","0.0-16.0","SS1613100759658","pref_reveal","","40","800","809.2900000017835","null","null","","","","","2","","","","background","","","",""
"","null","html-keyboard-response","62","266555","0.0-17.0-0.0","SS1613100759658","","","null","","","","","<p><img src= images/blank.png width =""200"" height = ""200"" style = ""float:right""></p><p><img src=images/blank.png width =""800"" height = ""200""></p>","","","","","","","","","","","",""
"","18.9200000022538","sequential-stimulus-presentation","63","267377","0.0-17.0-1.0","SS1613100759658","trial","","40","800","818.9200000022538","images/stimuli/spore_stims/simple_13_A_c.gif","images/stimuli/spore_stims/simple_13_B_c.gif","","","","","3","simple_similar","images/stimuli/spore_stims/simple_13_B_c.gif","left","","","","",""
"","null","html-keyboard-response","64","268625","0.0-17.0-0.1","SS1613100759658","","","null","","","","","<p><img src= images/blank.png width =""200"" height = ""200"" style = ""float:right""></p><p><img src=images/blank.png width =""800"" height = ""200""></p>","","","","","","","","","","","",""
"","13.989999999466818","sequential-stimulus-presentation","65","269442","0.0-17.0-1.1","SS1613100759658","trial","","40","800","813.9899999994668","images/stimuli/spore_stims/simple_13_A_c.gif","images/stimuli/spore_stims/simple_13_B_c.gif","","","","","3","simple_similar","images/stimuli/spore_stims/simple_13_B_c.gif","left","","","","",""
"","null","html-keyboard-response","66","270470","0.0-17.0-0.2","SS1613100759658","","","null","","","","","<p><img src= images/blank.png width =""200"" height = ""200"" style = ""float:right""></p><p><img src=images/blank.png width =""800"" height = ""200""></p>","","","","","","","","","","","",""
"","2.8049999964423478","sequential-stimulus-presentation","67","271276","0.0-17.0-1.2","SS1613100759658","trial","","40","800","802.8049999964423","images/stimuli/spore_stims/simple_13_A_c.gif","images/stimuli/spore_stims/simple_13_B_c.gif","","","","","3","simple_similar","images/stimuli/spore_stims/simple_13_B_c.gif","left","","","","",""
"","null","html-keyboard-response","68","272339","0.0-17.0-0.3","SS1613100759658","","","null","","","","","<p><img src= images/blank.png width =""200"" height = ""200"" style = ""float:right""></p><p><img src=images/blank.png width =""800"" height = ""200""></p>","","","","","","","","","","","",""
"","9.84500000049593","sequential-stimulus-presentation","69","273151","0.0-17.0-1.3","SS1613100759658","trial","","40","800","809.8450000004959","images/stimuli/spore_stims/simple_13_A_c.gif","images/stimuli/spore_stims/simple_13_B_c.gif","","","","","3","simple_similar","images/stimuli/spore_stims/simple_13_B_c.gif","left","","","","",""
"","null","html-keyboard-response","70","274208","0.0-17.0-0.4","SS1613100759658","","","null","","","","","<p><img src= images/blank.png width =""200"" height = ""200"" style = ""float:right""></p><p><img src=images/blank.png width =""800"" height = ""200""></p>","","","","","","","","","","","",""
"","14.484999999694992","sequential-stimulus-presentation","71","275026","0.0-17.0-1.4","SS1613100759658","trial","","40","800","814.484999999695","images/stimuli/spore_stims/simple_13_A_c.gif","images/stimuli/spore_stims/simple_13_B_c.gif","","","","","3","simple_similar","images/stimuli/spore_stims/simple_13_B_c.gif","left","","","","",""
"","null","html-keyboard-response","72","276283","0.0-17.0-0.5","SS1613100759658","","","null","","","","","<p><img src= images/blank.png width =""200"" height = ""200"" style = ""float:right""></p><p><img src=images/blank.png width =""800"" height = ""200""></p>","","","","","","","","","","","",""
"","18.70999999664491","sequential-stimulus-presentation","73","277105","0.0-17.0-1.5","SS1613100759658","trial","","40","800","818.7099999966449","images/stimuli/spore_stims/simple_13_A_c.gif","images/stimuli/spore_stims/simple_13_B_c.gif","","","","","3","simple_similar","images/stimuli/spore_stims/simple_13_B_c.gif","left","","","","",""
"","null","html-keyboard-response","74","278305","0.0-17.0-0.6","SS1613100759658","","","null","","","","","<p><img src= images/blank.png width =""200"" height = ""200"" style = ""float:right""></p><p><img src=images/blank.png width =""800"" height = ""200""></p>","","","","","","","","","","","",""
"","17.119999996793922","sequential-stimulus-presentation","75","279125","0.0-17.0-1.6","SS1613100759658","trial","","40","800","817.1199999967939","images/stimuli/spore_stims/simple_13_A_c.gif","images/stimuli/spore_stims/simple_13_B_c.gif","","","","","3","simple_similar","images/stimuli/spore_stims/simple_13_A_c.gif","middle","","","","",""
"","null","html-keyboard-response","76","279980","0.0-17.0-0.7","SS1613100759658","","","null","","","","","<p><img src= images/blank.png width =""200"" height = ""200"" style = ""float:right""></p><p><img src=images/blank.png width =""800"" height = ""200""></p>","","","","","","","","","","","",""
"","4.7950000007404014","sequential-stimulus-presentation","77","280787","0.0-17.0-1.7","SS1613100759658","trial","","40","800","804.7950000007404","images/stimuli/spore_stims/simple_13_A_c.gif","images/stimuli/spore_stims/simple_13_B_c.gif","","","","","3","simple_similar","images/stimuli/spore_stims/simple_13_B_c.gif","left","","","","",""
"","3.444999994826503","html-keyboard-response","78","280792","0.0-18.0","SS1613100759658","pref_question","","49","","","","","<video width ='960' height = '540' style='padding-top:8%' autoplay muted><source src='images/stimuli/wall_pref.mp4' type='video/mp4'></video>","1","left","25%","3","","","","","","","",""
"","2.0399999993969686","sequential-stimulus-presentation","79","281597","0.0-19.0","SS1613100759658","pref_reveal","","40","800","802.039999999397","null","null","","","","","3","","","","background","","","",""
"","null","html-keyboard-response","80","282693","0.0-20.0-0.0","SS1613100759658","","","null","","","","","<p><img src= images/blank.png width =""200"" height = ""200"" style = ""float:right""></p><p><img src=images/blank.png width =""800"" height = ""200""></p>","","","","","","","","","","","",""
"","11.190000004717149","sequential-stimulus-presentation","81","283508","0.0-20.0-1.0","SS1613100759658","trial","","40","800","811.1900000047171","images/stimuli/spore_stims/simple_02_B_c.gif","images/stimuli/spore_stims/simple_03_A_d.gif","","","","","4","simple_dissimilar","images/stimuli/spore_stims/simple_03_A_d.gif","middle","","","","",""
"","null","html-keyboard-response","82","284668","0.0-20.0-0.1","SS1613100759658","","","null","","","","","<p><img src= images/blank.png width =""200"" height = ""200"" style = ""float:right""></p><p><img src=images/blank.png width =""800"" height = ""200""></p>","","","","","","","","","","","",""
"","11.360000004060566","sequential-stimulus-presentation","83","285482","0.0-20.0-1.1","SS1613100759658","trial","","40","800","811.3600000040606","images/stimuli/spore_stims/simple_02_B_c.gif","images/stimuli/spore_stims/simple_03_A_d.gif","","","","","4","simple_dissimilar","images/stimuli/spore_stims/simple_03_A_d.gif","middle","","","","",""
"","null","html-keyboard-response","84","286737","0.0-20.0-0.2","SS1613100759658","","","null","","","","","<p><img src= images/blank.png width =""200"" height = ""200"" style = ""float:right""></p><p><img src=images/blank.png width =""800"" height = ""200""></p>","","","","","","","","","","","",""
"","18.790000001899898","sequential-stimulus-presentation","85","287559","0.0-20.0-1.2","SS1613100759658","trial","","40","800","818.7900000018999","images/stimuli/spore_stims/simple_02_B_c.gif","images/stimuli/spore_stims/simple_03_A_d.gif","","","","","4","simple_dissimilar","images/stimuli/spore_stims/simple_03_A_d.gif","middle","","","","",""
"","null","html-keyboard-response","86","288461","0.0-20.0-0.3","SS1613100759658","","","null","","","","","<p><img src= images/blank.png width =""200"" height = ""200"" style = ""float:right""></p><p><img src=images/blank.png width =""800"" height = ""200""></p>","","","","","","","","","","","",""
"","19.509999998263083","sequential-stimulus-presentation","87","289283","0.0-20.0-1.3","SS1613100759658","trial","","40","800","819.5099999982631","images/stimuli/spore_stims/simple_02_B_c.gif","images/stimuli/spore_stims/simple_03_A_d.gif","","","","","4","simple_dissimilar","images/stimuli/spore_stims/simple_03_A_d.gif","middle","","","","",""
"","null","html-keyboard-response","88","290195","0.0-20.0-0.4","SS1613100759658","","","null","","","","","<p><img src= images/blank.png width =""200"" height = ""200"" style = ""float:right""></p><p><img src=images/blank.png width =""800"" height = ""200""></p>","","","","","","","","","","","",""
"","10.484999998880085","sequential-stimulus-presentation","89","291009","0.0-20.0-1.4","SS1613100759658","trial","","40","800","810.4849999988801","images/stimuli/spore_stims/simple_02_B_c.gif","images/stimuli/spore_stims/simple_03_A_d.gif","","","","","4","simple_dissimilar","images/stimuli/spore_stims/simple_03_A_d.gif","middle","","","","",""
"","null","html-keyboard-response","90","292181","0.0-20.0-0.5","SS1613100759658","","","null","","","","","<p><img src= images/blank.png width =""200"" height = ""200"" style = ""float:right""></p><p><img src=images/blank.png width =""800"" height = ""200""></p>","","","","","","","","","","","",""
"","1.8550000022514723","sequential-stimulus-presentation","91","292986","0.0-20.0-1.5","SS1613100759658","trial","","40","800","801.8550000022515","images/stimuli/spore_stims/simple_02_B_c.gif","images/stimuli/spore_stims/simple_03_A_d.gif","","","","","4","simple_dissimilar","images/stimuli/spore_stims/simple_03_A_d.gif","middle","","","","",""
"","null","html-keyboard-response","92","294211","0.0-20.0-0.6","SS1613100759658","","","null","","","","","<p><img src= images/blank.png width =""200"" height = ""200"" style = ""float:right""></p><p><img src=images/blank.png width =""800"" height = ""200""></p>","","","","","","","","","","","",""
"","15.305000000807922","sequential-stimulus-presentation","93","295029","0.0-20.0-1.6","SS1613100759658","trial","","40","800","815.3050000008079","images/stimuli/spore_stims/simple_02_B_c.gif","images/stimuli/spore_stims/simple_03_A_d.gif","","","","","4","simple_dissimilar","images/stimuli/spore_stims/simple_02_B_c.gif","left","","","","",""
"","null","html-keyboard-response","94","295877","0.0-20.0-0.7","SS1613100759658","","","null","","","","","<p><img src= images/blank.png width =""200"" height = ""200"" style = ""float:right""></p><p><img src=images/blank.png width =""800"" height = ""200""></p>","","","","","","","","","","","",""
"","2.379999998083804","sequential-stimulus-presentation","95","296688","0.0-20.0-1.7","SS1613100759658","trial","","40","800","802.3799999980838","images/stimuli/spore_stims/simple_02_B_c.gif","images/stimuli/spore_stims/simple_03_A_d.gif","","","","","4","simple_dissimilar","images/stimuli/spore_stims/simple_03_A_d.gif","middle","","","","",""
"","2.3199999995995313","html-keyboard-response","96","296692","0.0-21.0","SS1613100759658","pref_question","","49","","","","","<video width ='960' height = '540' style='padding-top:8%' autoplay muted><source src='images/stimuli/wall_pref.mp4' type='video/mp4'></video>","1","left","25%","4","","","","","","","",""
"","14.605000003939494","sequential-stimulus-presentation","97","297510","0.0-22.0","SS1613100759658","pref_reveal","","40","800","814.6050000039395","null","null","","","","","4","","","","deviant","","","",""
"","null","html-keyboard-response","98","298553","0.0-23.0-0.0","SS1613100759658","","","null","","","","","<p><img src= images/blank.png width =""200"" height = ""200"" style = ""float:right""></p><p><img src=images/blank.png width =""800"" height = ""200""></p>","","","","","","","","","","","",""
"","9.565000000293367","sequential-stimulus-presentation","99","299365","0.0-23.0-1.0","SS1613100759658","trial","","40","800","809.5650000002934","images/stimuli/spore_stims/complex_18_A_d.gif","images/stimuli/spore_stims/complex_11_A_a.gif","","","","","5","complex_dissimilar","images/stimuli/spore_stims/complex_11_A_a.gif","middle","","","","",""
"","null","html-keyboard-response","100","300206","0.0-23.0-0.1","SS1613100759658","","","null","","","","","<p><img src= images/blank.png width =""200"" height = ""200"" style = ""float:right""></p><p><img src=images/blank.png width =""800"" height = ""200""></p>","","","","","","","","","","","",""
"","2.2849999950267375","sequential-stimulus-presentation","101","301013","0.0-23.0-1.1","SS1613100759658","trial","","40","800","802.2849999950267","images/stimuli/spore_stims/complex_18_A_d.gif","images/stimuli/spore_stims/complex_11_A_a.gif","","","","","5","complex_dissimilar","images/stimuli/spore_stims/complex_11_A_a.gif","middle","","","","",""
"","null","html-keyboard-response","102","302150","0.0-23.0-0.2","SS1613100759658","","","null","","","","","<p><img src= images/blank.png width =""200"" height = ""200"" style = ""float:right""></p><p><img src=images/blank.png width =""800"" height = ""200""></p>","","","","","","","","","","","",""
"","2.3099999962141737","sequential-stimulus-presentation","103","302961","0.0-23.0-1.2","SS1613100759658","trial","","40","800","802.3099999962142","images/stimuli/spore_stims/complex_18_A_d.gif","images/stimuli/spore_stims/complex_11_A_a.gif","","","","","5","complex_dissimilar","images/stimuli/spore_stims/complex_11_A_a.gif","middle","","","","",""
"","null","html-keyboard-response","104","303934","0.0-23.0-0.3","SS1613100759658","","","null","","","","","<p><img src= images/blank.png width =""200"" height = ""200"" style = ""float:right""></p><p><img src=images/blank.png width =""800"" height = ""200""></p>","","","","","","","","","","","",""
"","10.764999999082647","sequential-stimulus-presentation","105","304747","0.0-23.0-1.3","SS1613100759658","trial","","40","800","810.7649999990826","images/stimuli/spore_stims/complex_18_A_d.gif","images/stimuli/spore_stims/complex_11_A_a.gif","","","","","5","complex_dissimilar","images/stimuli/spore_stims/complex_11_A_a.gif","middle","","","","",""
"","null","html-keyboard-response","106","305741","0.0-23.0-0.4","SS1613100759658","","","null","","","","","<p><img src= images/blank.png width =""200"" height = ""200"" style = ""float:right""></p><p><img src=images/blank.png width =""800"" height = ""200""></p>","","","","","","","","","","","",""
"","16.779999998107087","sequential-stimulus-presentation","107","306561","0.0-23.0-1.4","SS1613100759658","trial","","40","800","816.7799999981071","images/stimuli/spore_stims/complex_18_A_d.gif","images/stimuli/spore_stims/complex_11_A_a.gif","","","","","5","complex_dissimilar","images/stimuli/spore_stims/complex_11_A_a.gif","middle","","","","",""
"","null","html-keyboard-response","108","307556","0.0-23.0-0.5","SS1613100759658","","","null","","","","","<p><img src= images/blank.png width =""200"" height = ""200"" style = ""float:right""></p><p><img src=images/blank.png width =""800"" height = ""200""></p>","","","","","","","","","","","",""
"","2.1500000002561137","sequential-stimulus-presentation","109","308362","0.0-23.0-1.5","SS1613100759658","trial","","40","800","802.1500000002561","images/stimuli/spore_stims/complex_18_A_d.gif","images/stimuli/spore_stims/complex_11_A_a.gif","","","","","5","complex_dissimilar","images/stimuli/spore_stims/complex_11_A_a.gif","middle","","","","",""
"","null","html-keyboard-response","110","309621","0.0-23.0-0.6","SS1613100759658","","","null","","","","","<p><img src= images/blank.png width =""200"" height = ""200"" style = ""float:right""></p><p><img src=images/blank.png width =""800"" height = ""200""></p>","","","","","","","","","","","",""
"","11.995000000752043","sequential-stimulus-presentation","111","310437","0.0-23.0-1.6","SS1613100759658","trial","","40","800","811.995000000752","images/stimuli/spore_stims/complex_18_A_d.gif","images/stimuli/spore_stims/complex_11_A_a.gif","","","","","5","complex_dissimilar","images/stimuli/spore_stims/complex_11_A_a.gif","middle","","","","",""
"","null","html-keyboard-response","112","311393","0.0-23.0-0.7","SS1613100759658","","","null","","","","","<p><img src= images/blank.png width =""200"" height = ""200"" style = ""float:right""></p><p><img src=images/blank.png width =""800"" height = ""200""></p>","","","","","","","","","","","",""
"","1.5750000020489097","sequential-stimulus-presentation","113","312197","0.0-23.0-1.7","SS1613100759658","trial","","40","800","801.5750000020489","images/stimuli/spore_stims/complex_18_A_d.gif","images/stimuli/spore_stims/complex_11_A_a.gif","","","","","5","complex_dissimilar","images/stimuli/spore_stims/complex_18_A_d.gif","right","","","","",""
"","3.324999997857958","html-keyboard-response","114","312202","0.0-24.0","SS1613100759658","pref_question","","49","","","","","<video width ='960' height = '540' style='padding-top:8%' autoplay muted><source src='images/stimuli/wall_pref.mp4' type='video/mp4'></video>","1","left","25%","5","","","","","","","",""
"","12.39999999961583","sequential-stimulus-presentation","115","313017","0.0-25.0","SS1613100759658","pref_reveal","","40","800","812.3999999996158","null","null","","","","","5","","","","novel","","","",""
"","null","html-keyboard-response","116","314313","0.0-26.0-0.0","SS1613100759658","","","null","","","","","<p><img src= images/blank.png width =""200"" height = ""200"" style = ""float:right""></p><p><img src=images/blank.png width =""800"" height = ""200""></p>","","","","","","","","","","","",""
"","11.020000005373731","sequential-stimulus-presentation","117","315127","0.0-26.0-1.0","SS1613100759658","trial","","40","800","811.0200000053737","images/stimuli/spore_stims/complex_01_B_d.gif","images/stimuli/spore_stims/complex_18_B_a.gif","","","","","6","complex_dissimilar","images/stimuli/spore_stims/complex_18_B_a.gif","right","","","","",""
"","null","html-keyboard-response","118","315983","0.0-26.0-0.1","SS1613100759658","","","null","","","","","<p><img src= images/blank.png width =""200"" height = ""200"" style = ""float:right""></p><p><img src=images/blank.png width =""800"" height = ""200""></p>","","","","","","","","","","","",""
"","2.7399999962653965","sequential-stimulus-presentation","119","316789","0.0-26.0-1.1","SS1613100759658","trial","","40","800","802.7399999962654","images/stimuli/spore_stims/complex_01_B_d.gif","images/stimuli/spore_stims/complex_18_B_a.gif","","","","","6","complex_dissimilar","images/stimuli/spore_stims/complex_18_B_a.gif","right","","","","",""
"","null","html-keyboard-response","120","317776","0.0-26.0-0.2","SS1613100759658","","","null","","","","","<p><img src= images/blank.png width =""200"" height = ""200"" style = ""float:right""></p><p><img src=images/blank.png width =""800"" height = ""200""></p>","","","","","","","","","","","",""
"","0.04999999509891495","sequential-stimulus-presentation","121","318579","0.0-26.0-1.2","SS1613100759658","trial","","40","800","800.0499999950989","images/stimuli/spore_stims/complex_01_B_d.gif","images/stimuli/spore_stims/complex_18_B_a.gif","","","","","6","complex_dissimilar","images/stimuli/spore_stims/complex_18_B_a.gif","right","","","","",""
"","null","html-keyboard-response","122","319557","0.0-26.0-0.3","SS1613100759658","","","null","","","","","<p><img src= images/blank.png width =""200"" height = ""200"" style = ""float:right""></p><p><img src=images/blank.png width =""800"" height = ""200""></p>","","","","","","","","","","","",""
"","0.6900000007590279","sequential-stimulus-presentation","123","320361","0.0-26.0-1.3","SS1613100759658","trial","","40","800","800.690000000759","images/stimuli/spore_stims/complex_01_B_d.gif","images/stimuli/spore_stims/complex_18_B_a.gif","","","","","6","complex_dissimilar","images/stimuli/spore_stims/complex_18_B_a.gif","right","","","","",""
"","null","html-keyboard-response","124","321543","0.0-26.0-0.4","SS1613100759658","","","null","","","","","<p><img src= images/blank.png width =""200"" height = ""200"" style = ""float:right""></p><p><img src=images/blank.png width =""800"" height = ""200""></p>","","","","","","","","","","","",""
"","20.145000002230518","sequential-stimulus-presentation","125","322366","0.0-26.0-1.4","SS1613100759658","trial","","40","800","820.1450000022305","images/stimuli/spore_stims/complex_01_B_d.gif","images/stimuli/spore_stims/complex_18_B_a.gif","","","","","6","complex_dissimilar","images/stimuli/spore_stims/complex_01_B_d.gif","left","","","","",""
"","null","html-keyboard-response","126","323530","0.0-26.0-0.5","SS1613100759658","","","null","","","","","<p><img src= images/blank.png width =""200"" height = ""200"" style = ""float:right""></p><p><img src=images/blank.png width =""800"" height = ""200""></p>","","","","","","","","","","","",""
"","19.789999998465646","sequential-stimulus-presentation","127","324353","0.0-26.0-1.5","SS1613100759658","trial","","40","800","819.7899999984656","images/stimuli/spore_stims/complex_01_B_d.gif","images/stimuli/spore_stims/complex_18_B_a.gif","","","","","6","complex_dissimilar","images/stimuli/spore_stims/complex_18_B_a.gif","right","","","","",""
"","null","html-keyboard-response","128","325371","0.0-26.0-0.6","SS1613100759658","","","null","","","","","<p><img src= images/blank.png width =""200"" height = ""200"" style = ""float:right""></p><p><img src=images/blank.png width =""800"" height = ""200""></p>","","","","","","","","","","","",""
"","20.264999999199063","sequential-stimulus-presentation","129","326195","0.0-26.0-1.6","SS1613100759658","trial","","40","800","820.2649999991991","images/stimuli/spore_stims/complex_01_B_d.gif","images/stimuli/spore_stims/complex_18_B_a.gif","","","","","6","complex_dissimilar","images/stimuli/spore_stims/complex_18_B_a.gif","right","","","","",""
"","null","html-keyboard-response","130","327096","0.0-26.0-0.7","SS1613100759658","","","null","","","","","<p><img src= images/blank.png width =""200"" height = ""200"" style = ""float:right""></p><p><img src=images/blank.png width =""800"" height = ""200""></p>","","","","","","","","","","","",""
"","0.6999999968684278","sequential-stimulus-presentation","131","327900","0.0-26.0-1.7","SS1613100759658","trial","","40","800","800.6999999968684","images/stimuli/spore_stims/complex_01_B_d.gif","images/stimuli/spore_stims/complex_18_B_a.gif","","","","","6","complex_dissimilar","images/stimuli/spore_stims/complex_18_B_a.gif","right","","","","",""
"","3.169999996316619","html-keyboard-response","132","327905","0.0-27.0","SS1613100759658","pref_question","","49","","","","","<video width ='960' height = '540' style='padding-top:8%' autoplay muted><source src='images/stimuli/wall_pref.mp4' type='video/mp4'></video>","1","left","25%","6","","","","","","","",""
"","6.224999997357372","sequential-stimulus-presentation","133","328714","0.0-28.0","SS1613100759658","pref_reveal","","40","800","806.2249999973574","null","null","","","","","6","","","","deviant","","","",""
"","null","html-keyboard-response","134","329672","0.0-29.0-0.0","SS1613100759658","","","null","","","","","<p><img src= images/blank.png width =""200"" height = ""200"" style = ""float:right""></p><p><img src=images/blank.png width =""800"" height = ""200""></p>","","","","","","","","","","","",""
"","10.204999998677522","sequential-stimulus-presentation","135","330486","0.0-29.0-1.0","SS1613100759658","trial","","40","800","810.2049999986775","images/stimuli/spore_stims/simple_12_A_b.gif","images/stimuli/spore_stims/simple_12_B_b.gif","","","","","7","simple_similar","images/stimuli/spore_stims/simple_12_B_b.gif","right","","","","",""
"","null","html-keyboard-response","136","331297","0.0-29.0-0.1","SS1613100759658","","","null","","","","","<p><img src= images/blank.png width =""200"" height = ""200"" style = ""float:right""></p><p><img src=images/blank.png width =""800"" height = ""200""></p>","","","","","","","","","","","",""
"","6.430000001273584","sequential-stimulus-presentation","137","332107","0.0-29.0-1.1","SS1613100759658","trial","","40","800","806.4300000012736","images/stimuli/spore_stims/simple_12_A_b.gif","images/stimuli/spore_stims/simple_12_B_b.gif","","","","","7","simple_similar","images/stimuli/spore_stims/simple_12_B_b.gif","right","","","","",""
"","null","html-keyboard-response","138","333237","0.0-29.0-0.2","SS1613100759658","","","null","","","","","<p><img src= images/blank.png width =""200"" height = ""200"" style = ""float:right""></p><p><img src=images/blank.png width =""800"" height = ""200""></p>","","","","","","","","","","","",""
"","1.1299999969196506","sequential-stimulus-presentation","139","334042","0.0-29.0-1.2","SS1613100759658","trial","","40","800","801.1299999969197","images/stimuli/spore_stims/simple_12_A_b.gif","images/stimuli/spore_stims/simple_12_B_b.gif","","","","","7","simple_similar","images/stimuli/spore_stims/simple_12_B_b.gif","right","","","","",""
"","null","html-keyboard-response","140","335037","0.0-29.0-0.3","SS1613100759658","","","null","","","","","<p><img src= images/blank.png width =""200"" height = ""200"" style = ""float:right""></p><p><img src=images/blank.png width =""800"" height = ""200""></p>","","","","","","","","","","","",""
"","18.370000005234033","sequential-stimulus-presentation","141","335858","0.0-29.0-1.3","SS1613100759658","trial","","40","800","818.370000005234","images/stimuli/spore_stims/simple_12_A_b.gif","images/stimuli/spore_stims/simple_12_B_b.gif","","","","","7","simple_similar","images/stimuli/spore_stims/simple_12_B_b.gif","right","","","","",""
"","null","html-keyboard-response","142","336743","0.0-29.0-0.4","SS1613100759658","","","null","","","","","<p><img src= images/blank.png width =""200"" height = ""200"" style = ""float:right""></p><p><img src=images/blank.png width =""800"" height = ""200""></p>","","","","","","","","","","","",""
"","3.169999996316619","sequential-stimulus-presentation","143","337550","0.0-29.0-1.4","SS1613100759658","trial","","40","800","803.1699999963166","images/stimuli/spore_stims/simple_12_A_b.gif","images/stimuli/spore_stims/simple_12_B_b.gif","","","","","7","simple_similar","images/stimuli/spore_stims/simple_12_A_b.gif","left","","","","",""
"","null","html-keyboard-response","144","338560","0.0-29.0-0.5","SS1613100759658","","","null","","","","","<p><img src= images/blank.png width =""200"" height = ""200"" style = ""float:right""></p><p><img src=images/blank.png width =""800"" height = ""200""></p>","","","","","","","","","","","",""
"","7.969999998749699","sequential-stimulus-presentation","145","339370","0.0-29.0-1.5","SS1613100759658","trial","","40","800","807.9699999987497","images/stimuli/spore_stims/simple_12_A_b.gif","images/stimuli/spore_stims/simple_12_B_b.gif","","","","","7","simple_similar","images/stimuli/spore_stims/simple_12_B_b.gif","right","","","","",""
"","null","html-keyboard-response","146","340670","0.0-29.0-0.6","SS1613100759658","","","null","","","","","<p><img src= images/blank.png width =""200"" height = ""200"" style = ""float:right""></p><p><img src=images/blank.png width =""800"" height = ""200""></p>","","","","","","","","","","","",""
"","0.8850000012898818","sequential-stimulus-presentation","147","341474","0.0-29.0-1.6","SS1613100759658","trial","","40","800","800.8850000012899","images/stimuli/spore_stims/simple_12_A_b.gif","images/stimuli/spore_stims/simple_12_B_b.gif","","","","","7","simple_similar","images/stimuli/spore_stims/simple_12_B_b.gif","right","","","","",""
"","null","html-keyboard-response","148","342466","0.0-29.0-0.7","SS1613100759658","","","null","","","","","<p><img src= images/blank.png width =""200"" height = ""200"" style = ""float:right""></p><p><img src=images/blank.png width =""800"" height = ""200""></p>","","","","","","","","","","","",""
"","7.675000000745058","sequential-stimulus-presentation","149","343277","0.0-29.0-1.7","SS1613100759658","trial","","40","800","807.6750000007451","images/stimuli/spore_stims/simple_12_A_b.gif","images/stimuli/spore_stims/simple_12_B_b.gif","","","","","7","simple_similar","images/stimuli/spore_stims/simple_12_B_b.gif","right","","","","",""
"","2.0399999993969686","html-keyboard-response","150","343281","0.0-30.0","SS1613100759658","pref_question","","49","","","","","<video width ='960' height = '540' style='padding-top:8%' autoplay muted><source src='images/stimuli/wall_pref.mp4' type='video/mp4'></video>","1","left","25%","7","","","","","","","",""
"","14.5699999993667","sequential-stimulus-presentation","151","344099","0.0-31.0","SS1613100759658","pref_reveal","","40","800","814.5699999993667","null","null","","","","","7","","","","deviant","","","",""
"","null","html-keyboard-response","152","345107","0.0-32.0-0.0","SS1613100759658","","","null","","","","","<p><img src= images/blank.png width =""200"" height = ""200"" style = ""float:right""></p><p><img src=images/blank.png width =""800"" height = ""200""></p>","","","","","","","","","","","",""
"","13.930000000982545","sequential-stimulus-presentation","153","345924","0.0-32.0-1.0","SS1613100759658","trial","","40","800","813.9300000009825","images/stimuli/spore_stims/simple_15_A_a.gif","images/stimuli/spore_stims/simple_15_B_a.gif","","","","","8","simple_similar","images/stimuli/spore_stims/simple_15_B_a.gif","right","","","","",""
"","null","html-keyboard-response","154","346939","0.0-32.0-0.1","SS1613100759658","","","null","","","","","<p><img src= images/blank.png width =""200"" height = ""200"" style = ""float:right""></p><p><img src=images/blank.png width =""800"" height = ""200""></p>","","","","","","","","","","","",""
"","12.195000002975576","sequential-stimulus-presentation","155","347755","0.0-32.0-1.1","SS1613100759658","trial","","40","800","812.1950000029756","images/stimuli/spore_stims/simple_15_A_a.gif","images/stimuli/spore_stims/simple_15_B_a.gif","","","","","8","simple_similar","images/stimuli/spore_stims/simple_15_B_a.gif","right","","","","",""
"","null","html-keyboard-response","156","348978","0.0-32.0-0.2","SS1613100759658","","","null","","","","","<p><img src= images/blank.png width =""200"" height = ""200"" style = ""float:right""></p><p><img src=images/blank.png width =""800"" height = ""200""></p>","","","","","","","","","","","",""
"","11.595000003580935","sequential-stimulus-presentation","157","349792","0.0-32.0-1.2","SS1613100759658","trial","","40","800","811.5950000035809","images/stimuli/spore_stims/simple_15_A_a.gif","images/stimuli/spore_stims/simple_15_B_a.gif","","","","","8","simple_similar","images/stimuli/spore_stims/simple_15_B_a.gif","right","","","","",""
"","null","html-keyboard-response","158","350732","0.0-32.0-0.3","SS1613100759658","","","null","","","","","<p><img src= images/blank.png width =""200"" height = ""200"" style = ""float:right""></p><p><img src=images/blank.png width =""800"" height = ""200""></p>","","","","","","","","","","","",""
"","0.9950000021490268","sequential-stimulus-presentation","159","351536","0.0-32.0-1.3","SS1613100759658","trial","","40","800","800.995000002149","images/stimuli/spore_stims/simple_15_A_a.gif","images/stimuli/spore_stims/simple_15_B_a.gif","","","","","8","simple_similar","images/stimuli/spore_stims/simple_15_B_a.gif","right","","","","",""
"","null","html-keyboard-response","160","352601","0.0-32.0-0.4","SS1613100759658","","","null","","","","","<p><img src= images/blank.png width =""200"" height = ""200"" style = ""float:right""></p><p><img src=images/blank.png width =""800"" height = ""200""></p>","","","","","","","","","","","",""
"","14.914999999746215","sequential-stimulus-presentation","161","353419","0.0-32.0-1.4","SS1613100759658","trial","","40","800","814.9149999997462","images/stimuli/spore_stims/simple_15_A_a.gif","images/stimuli/spore_stims/simple_15_B_a.gif","","","","","8","simple_similar","images/stimuli/spore_stims/simple_15_B_a.gif","right","","","","",""
"","null","html-keyboard-response","162","354671","0.0-32.0-0.5","SS1613100759658","","","null","","","","","<p><img src= images/blank.png width =""200"" height = ""200"" style = ""float:right""></p><p><img src=images/blank.png width =""800"" height = ""200""></p>","","","","","","","","","","","",""
"","0.8499999967170879","sequential-stimulus-presentation","163","355476","0.0-32.0-1.5","SS1613100759658","trial","","40","800","800.8499999967171","images/stimuli/spore_stims/simple_15_A_a.gif","images/stimuli/spore_stims/simple_15_B_a.gif","","","","","8","simple_similar","images/stimuli/spore_stims/simple_15_A_a.gif","left","","","","",""
"","null","html-keyboard-response","164","356318","0.0-32.0-0.6","SS1613100759658","","","null","","","","","<p><img src= images/blank.png width =""200"" height = ""200"" style = ""float:right""></p><p><img src=images/blank.png width =""800"" height = ""200""></p>","","","","","","","","","","","",""
"","10.549999999057036","sequential-stimulus-presentation","165","357132","0.0-32.0-1.6","SS1613100759658","trial","","40","800","810.549999999057","images/stimuli/spore_stims/simple_15_A_a.gif","images/stimuli/spore_stims/simple_15_B_a.gif","","","","","8","simple_similar","images/stimuli/spore_stims/simple_15_B_a.gif","right","","","","",""
"","null","html-keyboard-response","166","358276","0.0-32.0-0.7","SS1613100759658","","","null","","","","","<p><img src= images/blank.png width =""200"" height = ""200"" style = ""float:right""></p><p><img src=images/blank.png width =""800"" height = ""200""></p>","","","","","","","","","","","",""
"","13.684999998076819","sequential-stimulus-presentation","167","359093","0.0-32.0-1.7","SS1613100759658","trial","","40","800","813.6849999980768","images/stimuli/spore_stims/simple_15_A_a.gif","images/stimuli/spore_stims/simple_15_B_a.gif","","","","","8","simple_similar","images/stimuli/spore_stims/simple_15_B_a.gif","right","","","","",""
"","2.5000000023283064","html-keyboard-response","168","359098","0.0-33.0","SS1613100759658","pref_question","","49","","","","","<video width ='960' height = '540' style='padding-top:8%' autoplay muted><source src='images/stimuli/wall_pref.mp4' type='video/mp4'></video>","1","left","25%","8","","","","","","","",""
"","8.835000000544824","sequential-stimulus-presentation","169","359911","0.0-34.0","SS1613100759658","pref_reveal","","40","800","808.8350000005448","null","null","","","","","8","","","","deviant","","","",""
"","null","html-keyboard-response","170","360873","0.0-35.0-0.0","SS1613100759658","","","null","","","","","<p><img src= images/blank.png width =""200"" height = ""200"" style = ""float:right""></p><p><img src=images/blank.png width =""800"" height = ""200""></p>","","","","","","","","","","","",""
"","0.9950000021490268","sequential-stimulus-presentation","171","361678","0.0-35.0-1.0","SS1613100759658","trial","","40","800","800.995000002149","images/stimuli/spore_stims/complex_04_A_b.gif","images/stimuli/spore_stims/complex_20_B_d.gif","","","","","9","complex_dissimilar","images/stimuli/spore_stims/complex_20_B_d.gif","right","","","","",""
"","null","html-keyboard-response","172","362770","0.0-35.0-0.1","SS1613100759658","","","null","","","","","<p><img src= images/blank.png width =""200"" height = ""200"" style = ""float:right""></p><p><img src=images/blank.png width =""800"" height = ""200""></p>","","","","","","","","","","","",""
"","21.10499999980675","sequential-stimulus-presentation","173","363594","0.0-35.0-1.1","SS1613100759658","trial","","40","800","821.1049999998068","images/stimuli/spore_stims/complex_04_A_b.gif","images/stimuli/spore_stims/complex_20_B_d.gif","","","","","9","complex_dissimilar","images/stimuli/spore_stims/complex_20_B_d.gif","right","","","","",""
"","null","html-keyboard-response","174","364748","0.0-35.0-0.2","SS1613100759658","","","null","","","","","<p><img src= images/blank.png width =""200"" height = ""200"" style = ""float:right""></p><p><img src=images/blank.png width =""800"" height = ""200""></p>","","","","","","","","","","","",""
"","1.4650000011897646","sequential-stimulus-presentation","175","365553","0.0-35.0-1.2","SS1613100759658","trial","","40","800","801.4650000011898","images/stimuli/spore_stims/complex_04_A_b.gif","images/stimuli/spore_stims/complex_20_B_d.gif","","","","","9","complex_dissimilar","images/stimuli/spore_stims/complex_20_B_d.gif","right","","","","",""
"","null","html-keyboard-response","176","366654","0.0-35.0-0.3","SS1613100759658","","","null","","","","","<p><img src= images/blank.png width =""200"" height = ""200"" style = ""float:right""></p><p><img src=images/blank.png width =""800"" height = ""200""></p>","","","","","","","","","","","",""
"","16.064999996160623","sequential-stimulus-presentation","177","367474","0.0-35.0-1.3","SS1613100759658","trial","","40","800","816.0649999961606","images/stimuli/spore_stims/complex_04_A_b.gif","images/stimuli/spore_stims/complex_20_B_d.gif","","","","","9","complex_dissimilar","images/stimuli/spore_stims/complex_04_A_b.gif","middle","","","","",""
"","null","html-keyboard-response","178","368586","0.0-35.0-0.4","SS1613100759658","","","null","","","","","<p><img src= images/blank.png width =""200"" height = ""200"" style = ""float:right""></p><p><img src=images/blank.png width =""800"" height = ""200""></p>","","","","","","","","","","","",""
"","2.489999998942949","sequential-stimulus-presentation","179","369391","0.0-35.0-1.4","SS1613100759658","trial","","40","800","802.489999998943","images/stimuli/spore_stims/complex_04_A_b.gif","images/stimuli/spore_stims/complex_20_B_d.gif","","","","","9","complex_dissimilar","images/stimuli/spore_stims/complex_20_B_d.gif","right","","","","",""
"","null","html-keyboard-response","180","370244","0.0-35.0-0.5","SS1613100759658","","","null","","","","","<p><img src= images/blank.png width =""200"" height = ""200"" style = ""float:right""></p><p><img src=images/blank.png width =""800"" height = ""200""></p>","","","","","","","","","","","",""
"","1.9600000014179386","sequential-stimulus-presentation","181","371050","0.0-35.0-1.5","SS1613100759658","trial","","40","800","801.9600000014179","images/stimuli/spore_stims/complex_04_A_b.gif","images/stimuli/spore_stims/complex_20_B_d.gif","","","","","9","complex_dissimilar","images/stimuli/spore_stims/complex_20_B_d.gif","right","","","","",""
"","null","html-keyboard-response","182","372085","0.0-35.0-0.6","SS1613100759658","","","null","","","","","<p><img src= images/blank.png width =""200"" height = ""200"" style = ""float:right""></p><p><img src=images/blank.png width =""800"" height = ""200""></p>","","","","","","","","","","","",""
"","11.339999997289851","sequential-stimulus-presentation","183","372900","0.0-35.0-1.6","SS1613100759658","trial","","40","800","811.3399999972899","images/stimuli/spore_stims/complex_04_A_b.gif","images/stimuli/spore_stims/complex_20_B_d.gif","","","","","9","complex_dissimilar","images/stimuli/spore_stims/complex_20_B_d.gif","right","","","","",""
"","null","html-keyboard-response","184","373932","0.0-35.0-0.7","SS1613100759658","","","null","","","","","<p><img src= images/blank.png width =""200"" height = ""200"" style = ""float:right""></p><p><img src=images/blank.png width =""800"" height = ""200""></p>","","","","","","","","","","","",""
"","0.9849999987636693","sequential-stimulus-presentation","185","374736","0.0-35.0-1.7","SS1613100759658","trial","","40","800","800.9849999987637","images/stimuli/spore_stims/complex_04_A_b.gif","images/stimuli/spore_stims/complex_20_B_d.gif","","","","","9","complex_dissimilar","images/stimuli/spore_stims/complex_20_B_d.gif","right","","","","",""
"","0.11000000085914508","html-keyboard-response","186","374739","0.0-36.0","SS1613100759658","pref_question","","49","","","","","<video width ='960' height = '540' style='padding-top:8%' autoplay muted><source src='images/stimuli/wall_pref.mp4' type='video/mp4'></video>","1","left","25%","9","","","","","","","",""
"","3.0800000022281893","sequential-stimulus-presentation","187","375546","0.0-37.0","SS1613100759658","pref_reveal","","40","800","803.0800000022282","null","null","","","","","9","","","","novel","","","",""
"","null","html-keyboard-response","188","376416","0.0-38.0-0.0","SS1613100759658","","","null","","","","","<p><img src= images/blank.png width =""200"" height = ""200"" style = ""float:right""></p><p><img src=images/blank.png width =""800"" height = ""200""></p>","","","","","","","","","","","",""
"","14.934999999240972","sequential-stimulus-presentation","189","377234","0.0-38.0-1.0","SS1613100759658","trial","","40","800","814.934999999241","images/stimuli/spore_stims/simple_04_B_c.gif","images/stimuli/spore_stims/simple_04_A_c.gif","","","","","10","simple_similar","images/stimuli/spore_stims/simple_04_A_c.gif","right","","","","",""
"","null","html-keyboard-response","190","378448","0.0-38.0-0.1","SS1613100759658","","","null","","","","","<p><img src= images/blank.png width =""200"" height = ""200"" style = ""float:right""></p><p><img src=images/blank.png width =""800"" height = ""200""></p>","","","","","","","","","","","",""
"","20.114999999350403","sequential-stimulus-presentation","191","379271","0.0-38.0-1.1","SS1613100759658","trial","","40","800","820.1149999993504","images/stimuli/spore_stims/simple_04_B_c.gif","images/stimuli/spore_stims/simple_04_A_c.gif","","","","","10","simple_similar","images/stimuli/spore_stims/simple_04_A_c.gif","right","","","","",""
"","null","html-keyboard-response","192","380294","0.0-38.0-0.2","SS1613100759658","","","null","","","","","<p><img src= images/blank.png width =""200"" height = ""200"" style = ""float:right""></p><p><img src=images/blank.png width =""800"" height = ""200""></p>","","","","","","","","","","","",""
"","16.685000002325978","sequential-stimulus-presentation","193","381115","0.0-38.0-1.2","SS1613100759658","trial","","40","800","816.685000002326","images/stimuli/spore_stims/simple_04_B_c.gif","images/stimuli/spore_stims/simple_04_A_c.gif","","","","","10","simple_similar","images/stimuli/spore_stims/simple_04_B_c.gif","left","","","","",""
"","null","html-keyboard-response","194","382137","0.0-38.0-0.3","SS1613100759658","","","null","","","","","<p><img src= images/blank.png width =""200"" height = ""200"" style = ""float:right""></p><p><img src=images/blank.png width =""800"" height = ""200""></p>","","","","","","","","","","","",""
"","5.375000000640284","sequential-stimulus-presentation","195","382946","0.0-38.0-1.3","SS1613100759658","trial","","40","800","805.3750000006403","images/stimuli/spore_stims/simple_04_B_c.gif","images/stimuli/spore_stims/simple_04_A_c.gif","","","","","10","simple_similar","images/stimuli/spore_stims/simple_04_A_c.gif","right","","","","",""
"","null","html-keyboard-response","196","383772","0.0-38.0-0.4","SS1613100759658","","","null","","","","","<p><img src= images/blank.png width =""200"" height = ""200"" style = ""float:right""></p><p><img src=images/blank.png width =""800"" height = ""200""></p>","","","","","","","","","","","",""
"","18.22500000707805","sequential-stimulus-presentation","197","384593","0.0-38.0-1.4","SS1613100759658","trial","","40","800","818.225000007078","images/stimuli/spore_stims/simple_04_B_c.gif","images/stimuli/spore_stims/simple_04_A_c.gif","","","","","10","simple_similar","images/stimuli/spore_stims/simple_04_A_c.gif","right","","","","",""
"","null","html-keyboard-response","198","385889","0.0-38.0-0.5","SS1613100759658","","","null","","","","","<p><img src= images/blank.png width =""200"" height = ""200"" style = ""float:right""></p><p><img src=images/blank.png width =""800"" height = ""200""></p>","","","","","","","","","","","",""
"","6.9049999947310425","sequential-stimulus-presentation","199","386700","0.0-38.0-1.5","SS1613100759658","trial","","40","800","806.904999994731","images/stimuli/spore_stims/simple_04_B_c.gif","images/stimuli/spore_stims/simple_04_A_c.gif","","","","","10","simple_similar","images/stimuli/spore_stims/simple_04_A_c.gif","right","","","","",""
"","null","html-keyboard-response","200","387674","0.0-38.0-0.6","SS1613100759658","","","null","","","","","<p><img src= images/blank.png width =""200"" height = ""200"" style = ""float:right""></p><p><img src=images/blank.png width =""800"" height = ""200""></p>","","","","","","","","","","","",""
"","9.584999999788124","sequential-stimulus-presentation","201","388487","0.0-38.0-1.6","SS1613100759658","trial","","40","800","809.5849999997881","images/stimuli/spore_stims/simple_04_B_c.gif","images/stimuli/spore_stims/simple_04_A_c.gif","","","","","10","simple_similar","images/stimuli/spore_stims/simple_04_A_c.gif","right","","","","",""
"","null","html-keyboard-response","202","389439","0.0-38.0-0.7","SS1613100759658","","","null","","","","","<p><img src= images/blank.png width =""200"" height = ""200"" style = ""float:right""></p><p><img src=images/blank.png width =""800"" height = ""200""></p>","","","","","","","","","","","",""
"","12.795000002370216","sequential-stimulus-presentation","203","390255","0.0-38.0-1.7","SS1613100759658","trial","","40","800","812.7950000023702","images/stimuli/spore_stims/simple_04_B_c.gif","images/stimuli/spore_stims/simple_04_A_c.gif","","","","","10","simple_similar","images/stimuli/spore_stims/simple_04_A_c.gif","right","","","","",""
"","1.7050000024028122","html-keyboard-response","204","390260","0.0-39.0","SS1613100759658","pref_question","","49","","","","","<video width ='960' height = '540' style='padding-top:8%' autoplay muted><source src='images/stimuli/wall_pref.mp4' type='video/mp4'></video>","1","left","25%","10","","","","","","","",""
"","3.2499999942956492","sequential-stimulus-presentation","205","391067","0.0-40.0","SS1613100759658","pref_reveal","","40","800","803.2499999942956","null","null","","","","","10","","","","deviant","","","",""
"","null","html-keyboard-response","206","392244","0.0-41.0-0.0","SS1613100759658","","","null","","","","","<p><img src= images/blank.png width =""200"" height = ""200"" style = ""float:right""></p><p><img src=images/blank.png width =""800"" height = ""200""></p>","","","","","","","","","","","",""
"","6210.075000002689","sequential-stimulus-presentation","207","399990","0.0-41.0-1.0","SS1613100759658","trial","","40","800","7010.075000002689","images/stimuli/spore_stims/complex_12_B_b.gif","images/stimuli/spore_stims/complex_03_B_c.gif","","","","","11","complex_dissimilar","images/stimuli/spore_stims/complex_03_B_c.gif","middle","","","","",""
"","null","html-keyboard-response","208","401277","0.0-41.0-0.1","SS1613100759658","","","null","","","","","<p><img src= images/blank.png width =""200"" height = ""200"" style = ""float:right""></p><p><img src=images/blank.png width =""800"" height = ""200""></p>","","","","","","","","","","","",""
"","19.325000001117587","sequential-stimulus-presentation","209","402101","0.0-41.0-1.1","SS1613100759658","trial","","40","800","819.3250000011176","images/stimuli/spore_stims/complex_12_B_b.gif","images/stimuli/spore_stims/complex_03_B_c.gif","","","","","11","complex_dissimilar","images/stimuli/spore_stims/complex_03_B_c.gif","middle","","","","",""
"","null","html-keyboard-response","210","403330","0.0-41.0-0.2","SS1613100759658","","","null","","","","","<p><img src= images/blank.png width =""200"" height = ""200"" style = ""float:right""></p><p><img src=images/blank.png width =""800"" height = ""200""></p>","","","","","","","","","","","",""
"","19.92999999492895","sequential-stimulus-presentation","211","404153","0.0-41.0-1.2","SS1613100759658","trial","","40","800","819.929999994929","images/stimuli/spore_stims/complex_12_B_b.gif","images/stimuli/spore_stims/complex_03_B_c.gif","","","","","11","complex_dissimilar","images/stimuli/spore_stims/complex_12_B_b.gif","left","","","","",""
"","null","html-keyboard-response","212","405216","0.0-41.0-0.3","SS1613100759658","","","null","","","","","<p><img src= images/blank.png width =""200"" height = ""200"" style = ""float:right""></p><p><img src=images/blank.png width =""800"" height = ""200""></p>","","","","","","","","","","","",""
"","19.860000000335276","sequential-stimulus-presentation","213","406040","0.0-41.0-1.3","SS1613100759658","trial","","40","800","819.8600000003353","images/stimuli/spore_stims/complex_12_B_b.gif","images/stimuli/spore_stims/complex_03_B_c.gif","","","","","11","complex_dissimilar","images/stimuli/spore_stims/complex_03_B_c.gif","middle","","","","",""
"","null","html-keyboard-response","214","407323","0.0-41.0-0.4","SS1613100759658","","","null","","","","","<p><img src= images/blank.png width =""200"" height = ""200"" style = ""float:right""></p><p><img src=images/blank.png width =""800"" height = ""200""></p>","","","","","","","","","","","",""
"","1.949999998032581","sequential-stimulus-presentation","215","408131","0.0-41.0-1.4","SS1613100759658","trial","","40","800","801.9499999980326","images/stimuli/spore_stims/complex_12_B_b.gif","images/stimuli/spore_stims/complex_03_B_c.gif","","","","","11","complex_dissimilar","images/stimuli/spore_stims/complex_03_B_c.gif","middle","","","","",""
"","null","html-keyboard-response","216","409158","0.0-41.0-0.5","SS1613100759658","","","null","","","","","<p><img src= images/blank.png width =""200"" height = ""200"" style = ""float:right""></p><p><img src=images/blank.png width =""800"" height = ""200""></p>","","","","","","","","","","","",""
"","2.074999996693805","sequential-stimulus-presentation","217","409965","0.0-41.0-1.5","SS1613100759658","trial","","40","800","802.0749999966938","images/stimuli/spore_stims/complex_12_B_b.gif","images/stimuli/spore_stims/complex_03_B_c.gif","","","","","11","complex_dissimilar","images/stimuli/spore_stims/complex_03_B_c.gif","middle","","","","",""
"","null","html-keyboard-response","218","410768","0.0-41.0-0.6","SS1613100759658","","","null","","","","","<p><img src= images/blank.png width =""200"" height = ""200"" style = ""float:right""></p><p><img src=images/blank.png width =""800"" height = ""200""></p>","","","","","","","","","","","",""
"","15.110000000277068","sequential-stimulus-presentation","219","411587","0.0-41.0-1.6","SS1613100759658","trial","","40","800","815.1100000002771","images/stimuli/spore_stims/complex_12_B_b.gif","images/stimuli/spore_stims/complex_03_B_c.gif","","","","","11","complex_dissimilar","images/stimuli/spore_stims/complex_03_B_c.gif","middle","","","","",""
"","null","html-keyboard-response","220","412804","0.0-41.0-0.7","SS1613100759658","","","null","","","","","<p><img src= images/blank.png width =""200"" height = ""200"" style = ""float:right""></p><p><img src=images/blank.png width =""800"" height = ""200""></p>","","","","","","","","","","","",""
"","1.264999998966232","sequential-stimulus-presentation","221","413609","0.0-41.0-1.7","SS1613100759658","trial","","40","800","801.2649999989662","images/stimuli/spore_stims/complex_12_B_b.gif","images/stimuli/spore_stims/complex_03_B_c.gif","","","","","11","complex_dissimilar","images/stimuli/spore_stims/complex_03_B_c.gif","middle","","","","",""
"","0.33999999868683517","html-keyboard-response","222","413611","0.0-42.0","SS1613100759658","pref_question","","49","","","","","<video width ='960' height = '540' style='padding-top:8%' autoplay muted><source src='images/stimuli/wall_pref.mp4' type='video/mp4'></video>","1","left","25%","11","","","","","","","",""
"","14.979999999923166","sequential-stimulus-presentation","223","414430","0.0-43.0","SS1613100759658","pref_reveal","","40","800","814.9799999999232","null","null","","","","","11","","","","deviant","","","",""
"","null","html-keyboard-response","224","415339","0.0-44.0-0.0","SS1613100759658","","","null","","","","","<p><img src= images/blank.png width =""200"" height = ""200"" style = ""float:right""></p><p><img src=images/blank.png width =""800"" height = ""200""></p>","","","","","","","","","","","",""
"","1.524999999674037","sequential-stimulus-presentation","225","416144","0.0-44.0-1.0","SS1613100759658","trial","","40","800","801.524999999674","images/stimuli/spore_stims/simple_09_A_c.gif","images/stimuli/spore_stims/simple_10_B_a.gif","","","","","12","simple_dissimilar","images/stimuli/spore_stims/simple_10_B_a.gif","right","","","","",""
"","null","html-keyboard-response","226","417250","0.0-44.0-0.1","SS1613100759658","","","null","","","","","<p><img src= images/blank.png width =""200"" height = ""200"" style = ""float:right""></p><p><img src=images/blank.png width =""800"" height = ""200""></p>","","","","","","","","","","","",""
"","4.510000006121118","sequential-stimulus-presentation","227","418058","0.0-44.0-1.1","SS1613100759658","trial","","40","800","804.5100000061211","images/stimuli/spore_stims/simple_09_A_c.gif","images/stimuli/spore_stims/simple_10_B_a.gif","","","","","12","simple_dissimilar","images/stimuli/spore_stims/simple_10_B_a.gif","right","","","","",""
"","null","html-keyboard-response","228","419209","0.0-44.0-0.2","SS1613100759658","","","null","","","","","<p><img src= images/blank.png width =""200"" height = ""200"" style = ""float:right""></p><p><img src=images/blank.png width =""800"" height = ""200""></p>","","","","","","","","","","","",""
"","20.990000004530884","sequential-stimulus-presentation","229","420034","0.0-44.0-1.2","SS1613100759658","trial","","40","800","820.9900000045309","images/stimuli/spore_stims/simple_09_A_c.gif","images/stimuli/spore_stims/simple_10_B_a.gif","","","","","12","simple_dissimilar","images/stimuli/spore_stims/simple_10_B_a.gif","right","","","","",""
"","null","html-keyboard-response","230","421006","0.0-44.0-0.3","SS1613100759658","","","null","","","","","<p><img src= images/blank.png width =""200"" height = ""200"" style = ""float:right""></p><p><img src=images/blank.png width =""800"" height = ""200""></p>","","","","","","","","","","","",""
"","1.4100000043981709","sequential-stimulus-presentation","231","421811","0.0-44.0-1.3","SS1613100759658","trial","","40","800","801.4100000043982","images/stimuli/spore_stims/simple_09_A_c.gif","images/stimuli/spore_stims/simple_10_B_a.gif","","","","","12","simple_dissimilar","images/stimuli/spore_stims/simple_10_B_a.gif","right","","","","",""
"","null","html-keyboard-response","232","422874","0.0-44.0-0.4","SS1613100759658","","","null","","","","","<p><img src= images/blank.png width =""200"" height = ""200"" style = ""float:right""></p><p><img src=images/blank.png width =""800"" height = ""200""></p>","","","","","","","","","","","",""
"","11.520000000018626","sequential-stimulus-presentation","233","423689","0.0-44.0-1.4","SS1613100759658","trial","","40","800","811.5200000000186","images/stimuli/spore_stims/simple_09_A_c.gif","images/stimuli/spore_stims/simple_10_B_a.gif","","","","","12","simple_dissimilar","images/stimuli/spore_stims/simple_10_B_a.gif","right","","","","",""
"","null","html-keyboard-response","234","424948","0.0-44.0-0.5","SS1613100759658","","","null","","","","","<p><img src= images/blank.png width =""200"" height = ""200"" style = ""float:right""></p><p><img src=images/blank.png width =""800"" height = ""200""></p>","","","","","","","","","","","",""
"","24316.21499999892","sequential-stimulus-presentation","235","450068","0.0-44.0-1.5","SS1613100759658","trial","","40","800","25116.21499999892","images/stimuli/spore_stims/simple_09_A_c.gif","images/stimuli/spore_stims/simple_10_B_a.gif","","","","","12","simple_dissimilar","images/stimuli/spore_stims/simple_10_B_a.gif","right","","","","",""
"","null","html-keyboard-response","236","451100","0.0-44.0-0.6","SS1613100759658","","","null","","","","","<p><img src= images/blank.png width =""200"" height = ""200"" style = ""float:right""></p><p><img src=images/blank.png width =""800"" height = ""200""></p>","","","","","","","","","","","",""
"","1.8750000017462298","sequential-stimulus-presentation","237","451906","0.0-44.0-1.6","SS1613100759658","trial","","40","800","801.8750000017462","images/stimuli/spore_stims/simple_09_A_c.gif","images/stimuli/spore_stims/simple_10_B_a.gif","","","","","12","simple_dissimilar","images/stimuli/spore_stims/simple_09_A_c.gif","left","","","","",""
"","null","html-keyboard-response","238","452761","0.0-44.0-0.7","SS1613100759658","","","null","","","","","<p><img src= images/blank.png width =""200"" height = ""200"" style = ""float:right""></p><p><img src=images/blank.png width =""800"" height = ""200""></p>","","","","","","","","","","","",""
"","16.83000000048196","sequential-stimulus-presentation","239","453582","0.0-44.0-1.7","SS1613100759658","trial","","40","800","816.830000000482","images/stimuli/spore_stims/simple_09_A_c.gif","images/stimuli/spore_stims/simple_10_B_a.gif","","","","","12","simple_dissimilar","images/stimuli/spore_stims/simple_10_B_a.gif","right","","","","",""
"","1.830000001064036","html-keyboard-response","240","453587","0.0-45.0","SS1613100759658","pref_question","","49","","","","","<video width ='960' height = '540' style='padding-top:8%' autoplay muted><source src='images/stimuli/wall_pref.mp4' type='video/mp4'></video>","1","left","25%","12","","","","","","","",""
"","7.019999997282866","sequential-stimulus-presentation","241","454397","0.0-46.0","SS1613100759658","pref_reveal","","40","800","807.0199999972829","null","null","","","","","12","","","","deviant","","","",""
"","null","html-keyboard-response","242","455682","0.0-47.0-0.0","SS1613100759658","","","null","","","","","<p><img src= images/blank.png width =""200"" height = ""200"" style = ""float:right""></p><p><img src=images/blank.png width =""800"" height = ""200""></p>","","","","","","","","","","","",""
"","2.7249999984633178","sequential-stimulus-presentation","243","456490","0.0-47.0-1.0","SS1613100759658","trial","","40","800","802.7249999984633","images/stimuli/spore_stims/complex_06_B_a.gif","images/stimuli/spore_stims/complex_06_A_a.gif","","","","","13","complex_similar","images/stimuli/spore_stims/complex_06_A_a.gif","right","","","","",""
"","null","html-keyboard-response","244","457398","0.0-47.0-0.1","SS1613100759658","","","null","","","","","<p><img src= images/blank.png width =""200"" height = ""200"" style = ""float:right""></p><p><img src=images/blank.png width =""800"" height = ""200""></p>","","","","","","","","","","","",""
"","8.685000000696164","sequential-stimulus-presentation","245","458210","0.0-47.0-1.1","SS1613100759658","trial","","40","800","808.6850000006962","images/stimuli/spore_stims/complex_06_B_a.gif","images/stimuli/spore_stims/complex_06_A_a.gif","","","","","13","complex_similar","images/stimuli/spore_stims/complex_06_A_a.gif","right","","","","",""
"","null","html-keyboard-response","246","459383","0.0-47.0-0.2","SS1613100759658","","","null","","","","","<p><img src= images/blank.png width =""200"" height = ""200"" style = ""float:right""></p><p><img src=images/blank.png width =""800"" height = ""200""></p>","","","","","","","","","","","",""
"","21.385000000009313","sequential-stimulus-presentation","247","460209","0.0-47.0-1.2","SS1613100759658","trial","","40","800","821.3850000000093","images/stimuli/spore_stims/complex_06_B_a.gif","images/stimuli/spore_stims/complex_06_A_a.gif","","","","","13","complex_similar","images/stimuli/spore_stims/complex_06_A_a.gif","right","","","","",""
"","null","html-keyboard-response","248","461150","0.0-47.0-0.3","SS1613100759658","","","null","","","","","<p><img src= images/blank.png width =""200"" height = ""200"" style = ""float:right""></p><p><img src=images/blank.png width =""800"" height = ""200""></p>","","","","","","","","","","","",""
"","10.204999998677522","sequential-stimulus-presentation","249","461964","0.0-47.0-1.3","SS1613100759658","trial","","40","800","810.2049999986775","images/stimuli/spore_stims/complex_06_B_a.gif","images/stimuli/spore_stims/complex_06_A_a.gif","","","","","13","complex_similar","images/stimuli/spore_stims/complex_06_A_a.gif","right","","","","",""
"","null","html-keyboard-response","250","463211","0.0-47.0-0.4","SS1613100759658","","","null","","","","","<p><img src= images/blank.png width =""200"" height = ""200"" style = ""float:right""></p><p><img src=images/blank.png width =""800"" height = ""200""></p>","","","","","","","","","","","",""
"","12.190000001282897","sequential-stimulus-presentation","251","464028","0.0-47.0-1.4","SS1613100759658","trial","","40","800","812.1900000012829","images/stimuli/spore_stims/complex_06_B_a.gif","images/stimuli/spore_stims/complex_06_A_a.gif","","","","","13","complex_similar","images/stimuli/spore_stims/complex_06_A_a.gif","right","","","","",""
"","null","html-keyboard-response","252","465313","0.0-47.0-0.5","SS1613100759658","","","null","","","","","<p><img src= images/blank.png width =""200"" height = ""200"" style = ""float:right""></p><p><img src=images/blank.png width =""800"" height = ""200""></p>","","","","","","","","","","","",""
"","0.2749999985098839","sequential-stimulus-presentation","253","466117","0.0-47.0-1.5","SS1613100759658","trial","","40","800","800.2749999985099","images/stimuli/spore_stims/complex_06_B_a.gif","images/stimuli/spore_stims/complex_06_A_a.gif","","","","","13","complex_similar","images/stimuli/spore_stims/complex_06_A_a.gif","right","","","","",""
"","null","html-keyboard-response","254","467055","0.0-47.0-0.6","SS1613100759658","","","null","","","","","<p><img src= images/blank.png width =""200"" height = ""200"" style = ""float:right""></p><p><img src=images/blank.png width =""800"" height = ""200""></p>","","","","","","","","","","","",""
"","18.410000004223548","sequential-stimulus-presentation","255","467877","0.0-47.0-1.6","SS1613100759658","trial","","40","800","818.4100000042235","images/stimuli/spore_stims/complex_06_B_a.gif","images/stimuli/spore_stims/complex_06_A_a.gif","","","","","13","complex_similar","images/stimuli/spore_stims/complex_06_B_a.gif","left","","","","",""
"","null","html-keyboard-response","256","469057","0.0-47.0-0.7","SS1613100759658","","","null","","","","","<p><img src= images/blank.png width =""200"" height = ""200"" style = ""float:right""></p><p><img src=images/blank.png width =""800"" height = ""200""></p>","","","","","","","","","","","",""
"","5.490000003192108","sequential-stimulus-presentation","257","469866","0.0-47.0-1.7","SS1613100759658","trial","","40","800","805.4900000031921","images/stimuli/spore_stims/complex_06_B_a.gif","images/stimuli/spore_stims/complex_06_A_a.gif","","","","","13","complex_similar","images/stimuli/spore_stims/complex_06_A_a.gif","right","","","","",""
"","2.6950000028591603","html-keyboard-response","258","469872","0.0-48.0","SS1613100759658","pref_question","","49","","","","","<video width ='960' height = '540' style='padding-top:8%' autoplay muted><source src='images/stimuli/wall_pref.mp4' type='video/mp4'></video>","1","left","25%","13","","","","","","","",""
"","14.04500000353437","sequential-stimulus-presentation","259","470691","0.0-49.0","SS1613100759658","pref_reveal","","40","800","814.0450000035344","null","null","","","","","13","","","","deviant","","","",""
"","null","html-keyboard-response","260","471847","0.0-50.0-0.0","SS1613100759658","","","null","","","","","<p><img src= images/blank.png width =""200"" height = ""200"" style = ""float:right""></p><p><img src=images/blank.png width =""800"" height = ""200""></p>","","","","","","","","","","","",""
"","0.28500000189524144","sequential-stimulus-presentation","261","472652","0.0-50.0-1.0","SS1613100759658","trial","","40","800","800.2850000018952","images/stimuli/spore_stims/simple_08_B_c.gif","images/stimuli/spore_stims/simple_01_B_a.gif","","","","","14","simple_dissimilar","images/stimuli/spore_stims/simple_01_B_a.gif","left","","","","",""
"","null","html-keyboard-response","262","473905","0.0-50.0-0.1","SS1613100759658","","","null","","","","","<p><img src= images/blank.png width =""200"" height = ""200"" style = ""float:right""></p><p><img src=images/blank.png width =""800"" height = ""200""></p>","","","","","","","","","","","",""
"","8.990000002086163","sequential-stimulus-presentation","263","474717","0.0-50.0-1.1","SS1613100759658","trial","","40","800","808.9900000020862","images/stimuli/spore_stims/simple_08_B_c.gif","images/stimuli/spore_stims/simple_01_B_a.gif","","","","","14","simple_dissimilar","images/stimuli/spore_stims/simple_01_B_a.gif","left","","","","",""
"","null","html-keyboard-response","264","475868","0.0-50.0-0.2","SS1613100759658","","","null","","","","","<p><img src= images/blank.png width =""200"" height = ""200"" style = ""float:right""></p><p><img src=images/blank.png width =""800"" height = ""200""></p>","","","","","","","","","","","",""
"","17.995000001974404","sequential-stimulus-presentation","265","476689","0.0-50.0-1.2","SS1613100759658","trial","","40","800","817.9950000019744","images/stimuli/spore_stims/simple_08_B_c.gif","images/stimuli/spore_stims/simple_01_B_a.gif","","","","","14","simple_dissimilar","images/stimuli/spore_stims/simple_01_B_a.gif","left","","","","",""
"","null","html-keyboard-response","266","477659","0.0-50.0-0.3","SS1613100759658","","","null","","","","","<p><img src= images/blank.png width =""200"" height = ""200"" style = ""float:right""></p><p><img src=images/blank.png width =""800"" height = ""200""></p>","","","","","","","","","","","",""
"","12.190000001282897","sequential-stimulus-presentation","267","478475","0.0-50.0-1.3","SS1613100759658","trial","","40","800","812.1900000012829","images/stimuli/spore_stims/simple_08_B_c.gif","images/stimuli/spore_stims/simple_01_B_a.gif","","","","","14","simple_dissimilar","images/stimuli/spore_stims/simple_01_B_a.gif","left","","","","",""
"","null","html-keyboard-response","268","479375","0.0-50.0-0.4","SS1613100759658","","","null","","","","","<p><img src= images/blank.png width =""200"" height = ""200"" style = ""float:right""></p><p><img src=images/blank.png width =""800"" height = ""200""></p>","","","","","","","","","","","",""
"","5.525000000488944","sequential-stimulus-presentation","269","480185","0.0-50.0-1.4","SS1613100759658","trial","","40","800","805.525000000489","images/stimuli/spore_stims/simple_08_B_c.gif","images/stimuli/spore_stims/simple_01_B_a.gif","","","","","14","simple_dissimilar","images/stimuli/spore_stims/simple_01_B_a.gif","left","","","","",""
"","null","html-keyboard-response","270","481287","0.0-50.0-0.5","SS1613100759658","","","null","","","","","<p><img src= images/blank.png width =""200"" height = ""200"" style = ""float:right""></p><p><img src=images/blank.png width =""800"" height = ""200""></p>","","","","","","","","","","","",""
"","17.175000000861473","sequential-stimulus-presentation","271","482108","0.0-50.0-1.5","SS1613100759658","trial","","40","800","817.1750000008615","images/stimuli/spore_stims/simple_08_B_c.gif","images/stimuli/spore_stims/simple_01_B_a.gif","","","","","14","simple_dissimilar","images/stimuli/spore_stims/simple_08_B_c.gif","middle","","","","",""
"","null","html-keyboard-response","272","482913","0.0-50.0-0.6","SS1613100759658","","","null","","","","","<p><img src= images/blank.png width =""200"" height = ""200"" style = ""float:right""></p><p><img src=images/blank.png width =""800"" height = ""200""></p>","","","","","","","","","","","",""
"","21.220000002358574","sequential-stimulus-presentation","273","483738","0.0-50.0-1.6","SS1613100759658","trial","","40","800","821.2200000023586","images/stimuli/spore_stims/simple_08_B_c.gif","images/stimuli/spore_stims/simple_01_B_a.gif","","","","","14","simple_dissimilar","images/stimuli/spore_stims/simple_01_B_a.gif","left","","","","",""
"","null","html-keyboard-response","274","484935","0.0-50.0-0.7","SS1613100759658","","","null","","","","","<p><img src= images/blank.png width =""200"" height = ""200"" style = ""float:right""></p><p><img src=images/blank.png width =""800"" height = ""200""></p>","","","","","","","","","","","",""
"","1.5099999945960008","sequential-stimulus-presentation","275","485740","0.0-50.0-1.7","SS1613100759658","trial","","40","800","801.509999994596","images/stimuli/spore_stims/simple_08_B_c.gif","images/stimuli/spore_stims/simple_01_B_a.gif","","","","","14","simple_dissimilar","images/stimuli/spore_stims/simple_01_B_a.gif","left","","","","",""
"","0.6199999988893978","html-keyboard-response","276","485743","0.0-51.0","SS1613100759658","pref_question","","49","","","","","<video width ='960' height = '540' style='padding-top:8%' autoplay muted><source src='images/stimuli/wall_pref.mp4' type='video/mp4'></video>","1","left","25%","14","","","","","","","",""
"","4.919999999401625","sequential-stimulus-presentation","277","486552","0.0-52.0","SS1613100759658","pref_reveal","","40","800","804.9199999994016","null","null","","","","","14","","","","background","","","",""
"","null","html-keyboard-response","278","487391","0.0-53.0-0.0","SS1613100759658","","","null","","","","","<p><img src= images/blank.png width =""200"" height = ""200"" style = ""float:right""></p><p><img src=images/blank.png width =""800"" height = ""200""></p>","","","","","","","","","","","",""
"","1.3099999996484257","sequential-stimulus-presentation","279","488197","0.0-53.0-1.0","SS1613100759658","trial","","40","800","801.3099999996484","images/stimuli/spore_stims/complex_02_B_c.gif","images/stimuli/spore_stims/complex_02_A_c.gif","","","","","15","complex_similar","images/stimuli/spore_stims/complex_02_A_c.gif","right","","","","",""
"","null","html-keyboard-response","280","489042","0.0-53.0-0.1","SS1613100759658","","","null","","","","","<p><img src= images/blank.png width =""200"" height = ""200"" style = ""float:right""></p><p><img src=images/blank.png width =""800"" height = ""200""></p>","","","","","","","","","","","",""
"","17.534999999043066","sequential-stimulus-presentation","281","489864","0.0-53.0-1.1","SS1613100759658","trial","","40","800","817.5349999990431","images/stimuli/spore_stims/complex_02_B_c.gif","images/stimuli/spore_stims/complex_02_A_c.gif","","","","","15","complex_similar","images/stimuli/spore_stims/complex_02_A_c.gif","right","","","","",""
"","null","html-keyboard-response","282","490861","0.0-53.0-0.2","SS1613100759658","","","null","","","","","<p><img src= images/blank.png width =""200"" height = ""200"" style = ""float:right""></p><p><img src=images/blank.png width =""800"" height = ""200""></p>","","","","","","","","","","","",""
"","2.9749999957857653","sequential-stimulus-presentation","283","491668","0.0-53.0-1.2","SS1613100759658","trial","","40","800","802.9749999957858","images/stimuli/spore_stims/complex_02_B_c.gif","images/stimuli/spore_stims/complex_02_A_c.gif","","","","","15","complex_similar","images/stimuli/spore_stims/complex_02_A_c.gif","right","","","","",""
"","null","html-keyboard-response","284","492476","0.0-53.0-0.3","SS1613100759658","","","null","","","","","<p><img src= images/blank.png width =""200"" height = ""200"" style = ""float:right""></p><p><img src=images/blank.png width =""800"" height = ""200""></p>","","","","","","","","","","","",""
"","0.9649999992689118","sequential-stimulus-presentation","285","493281","0.0-53.0-1.3","SS1613100759658","trial","","40","800","800.9649999992689","images/stimuli/spore_stims/complex_02_B_c.gif","images/stimuli/spore_stims/complex_02_A_c.gif","","","","","15","complex_similar","images/stimuli/spore_stims/complex_02_B_c.gif","left","","","","",""
"","null","html-keyboard-response","286","494271","0.0-53.0-0.4","SS1613100759658","","","null","","","","","<p><img src= images/blank.png width =""200"" height = ""200"" style = ""float:right""></p><p><img src=images/blank.png width =""800"" height = ""200""></p>","","","","","","","","","","","",""
"","18.885000004956964","sequential-stimulus-presentation","287","495093","0.0-53.0-1.4","SS1613100759658","trial","","40","800","818.885000004957","images/stimuli/spore_stims/complex_02_B_c.gif","images/stimuli/spore_stims/complex_02_A_c.gif","","","","","15","complex_similar","images/stimuli/spore_stims/complex_02_A_c.gif","right","","","","",""
"","null","html-keyboard-response","288","495945","0.0-53.0-0.5","SS1613100759658","","","null","","","","","<p><img src= images/blank.png width =""200"" height = ""200"" style = ""float:right""></p><p><img src=images/blank.png width =""800"" height = ""200""></p>","","","","","","","","","","","",""
"","16.040000002249144","sequential-stimulus-presentation","289","496765","0.0-53.0-1.5","SS1613100759658","trial","","40","800","816.0400000022491","images/stimuli/spore_stims/complex_02_B_c.gif","images/stimuli/spore_stims/complex_02_A_c.gif","","","","","15","complex_similar","images/stimuli/spore_stims/complex_02_A_c.gif","right","","","","",""
"","null","html-keyboard-response","290","498021","0.0-53.0-0.6","SS1613100759658","","","null","","","","","<p><img src= images/blank.png width =""200"" height = ""200"" style = ""float:right""></p><p><img src=images/blank.png width =""800"" height = ""200""></p>","","","","","","","","","","","",""
"","13.180000001739245","sequential-stimulus-presentation","291","498837","0.0-53.0-1.6","SS1613100759658","trial","","40","800","813.1800000017392","images/stimuli/spore_stims/complex_02_B_c.gif","images/stimuli/spore_stims/complex_02_A_c.gif","","","","","15","complex_similar","images/stimuli/spore_stims/complex_02_A_c.gif","right","","","","",""
"","null","html-keyboard-response","292","500139","0.0-53.0-0.7","SS1613100759658","","","null","","","","","<p><img src= images/blank.png width =""200"" height = ""200"" style = ""float:right""></p><p><img src=images/blank.png width =""800"" height = ""200""></p>","","","","","","","","","","","",""
"","2.0450000010896474","sequential-stimulus-presentation","293","500945","0.0-53.0-1.7","SS1613100759658","trial","","40","800","802.0450000010896","images/stimuli/spore_stims/complex_02_B_c.gif","images/stimuli/spore_stims/complex_02_A_c.gif","","","","","15","complex_similar","images/stimuli/spore_stims/complex_02_A_c.gif","right","","","","",""
"","2.5450000030105002","html-keyboard-response","294","500951","0.0-54.0","SS1613100759658","pref_question","","49","","","","","<video width ='960' height = '540' style='padding-top:8%' autoplay muted><source src='images/stimuli/wall_pref.mp4' type='video/mp4'></video>","1","left","25%","15","","","","","","","",""
"","9.579999998095445","sequential-stimulus-presentation","295","501765","0.0-55.0","SS1613100759658","pref_reveal","","40","800","809.5799999980954","null","null","","","","","15","","","","deviant","","","",""
"","null","html-keyboard-response","296","502675","0.0-56.0-0.0","SS1613100759658","","","null","","","","","<p><img src= images/blank.png width =""200"" height = ""200"" style = ""float:right""></p><p><img src=images/blank.png width =""800"" height = ""200""></p>","","","","","","","","","","","",""
"","18.15500000520842","sequential-stimulus-presentation","297","503498","0.0-56.0-1.0","SS1613100759658","trial","","40","800","818.1550000052084","images/stimuli/spore_stims/complex_15_B_b.gif","images/stimuli/spore_stims/complex_15_A_b.gif","","","","","16","complex_similar","images/stimuli/spore_stims/complex_15_A_b.gif","left","","","","",""
"","null","html-keyboard-response","298","504595","0.0-56.0-0.1","SS1613100759658","","","null","","","","","<p><img src= images/blank.png width =""200"" height = ""200"" style = ""float:right""></p><p><img src=images/blank.png width =""800"" height = ""200""></p>","","","","","","","","","","","",""
"","12.52500000555301","sequential-stimulus-presentation","299","505411","0.0-56.0-1.1","SS1613100759658","trial","","40","800","812.525000005553","images/stimuli/spore_stims/complex_15_B_b.gif","images/stimuli/spore_stims/complex_15_A_b.gif","","","","","16","complex_similar","images/stimuli/spore_stims/complex_15_A_b.gif","left","","","","",""
"","null","html-keyboard-response","300","506367","0.0-56.0-0.2","SS1613100759658","","","null","","","","","<p><img src= images/blank.png width =""200"" height = ""200"" style = ""float:right""></p><p><img src=images/blank.png width =""800"" height = ""200""></p>","","","","","","","","","","","",""
"","14.445000000705477","sequential-stimulus-presentation","301","507185","0.0-56.0-1.2","SS1613100759658","trial","","40","800","814.4450000007055","images/stimuli/spore_stims/complex_15_B_b.gif","images/stimuli/spore_stims/complex_15_A_b.gif","","","","","16","complex_similar","images/stimuli/spore_stims/complex_15_A_b.gif","left","","","","",""
"","null","html-keyboard-response","302","508254","0.0-56.0-0.3","SS1613100759658","","","null","","","","","<p><img src= images/blank.png width =""200"" height = ""200"" style = ""float:right""></p><p><img src=images/blank.png width =""800"" height = ""200""></p>","","","","","","","","","","","",""
"","18.710000003920868","sequential-stimulus-presentation","303","509077","0.0-56.0-1.3","SS1613100759658","trial","","40","800","818.7100000039209","images/stimuli/spore_stims/complex_15_B_b.gif","images/stimuli/spore_stims/complex_15_A_b.gif","","","","","16","complex_similar","images/stimuli/spore_stims/complex_15_A_b.gif","left","","","","",""
"","null","html-keyboard-response","304","510034","0.0-56.0-0.4","SS1613100759658","","","null","","","","","<p><img src= images/blank.png width =""200"" height = ""200"" style = ""float:right""></p><p><img src=images/blank.png width =""800"" height = ""200""></p>","","","","","","","","","","","",""
"","15.870000002905726","sequential-stimulus-presentation","305","510853","0.0-56.0-1.4","SS1613100759658","trial","","40","800","815.8700000029057","images/stimuli/spore_stims/complex_15_B_b.gif","images/stimuli/spore_stims/complex_15_A_b.gif","","","","","16","complex_similar","images/stimuli/spore_stims/complex_15_A_b.gif","left","","","","",""
"","null","html-keyboard-response","306","512126","0.0-56.0-0.5","SS1613100759658","","","null","","","","","<p><img src= images/blank.png width =""200"" height = ""200"" style = ""float:right""></p><p><img src=images/blank.png width =""800"" height = ""200""></p>","","","","","","","","","","","",""
"","13.415000001259614","sequential-stimulus-presentation","307","512943","0.0-56.0-1.5","SS1613100759658","trial","","40","800","813.4150000012596","images/stimuli/spore_stims/complex_15_B_b.gif","images/stimuli/spore_stims/complex_15_A_b.gif","","","","","16","complex_similar","images/stimuli/spore_stims/complex_15_B_b.gif","right","","","","",""
"","null","html-keyboard-response","308","513871","0.0-56.0-0.6","SS1613100759658","","","null","","","","","<p><img src= images/blank.png width =""200"" height = ""200"" style = ""float:right""></p><p><img src=images/blank.png width =""800"" height = ""200""></p>","","","","","","","","","","","",""
"","1.0099999999511056","sequential-stimulus-presentation","309","514676","0.0-56.0-1.6","SS1613100759658","trial","","40","800","801.0099999999511","images/stimuli/spore_stims/complex_15_B_b.gif","images/stimuli/spore_stims/complex_15_A_b.gif","","","","","16","complex_similar","images/stimuli/spore_stims/complex_15_A_b.gif","left","","","","",""
"","null","html-keyboard-response","310","515741","0.0-56.0-0.7","SS1613100759658","","","null","","","","","<p><img src= images/blank.png width =""200"" height = ""200"" style = ""float:right""></p><p><img src=images/blank.png width =""800"" height = ""200""></p>","","","","","","","","","","","",""
"","2.005000001983717","sequential-stimulus-presentation","311","516547","0.0-56.0-1.7","SS1613100759658","trial","","40","800","802.0050000019837","images/stimuli/spore_stims/complex_15_B_b.gif","images/stimuli/spore_stims/complex_15_A_b.gif","","","","","16","complex_similar","images/stimuli/spore_stims/complex_15_A_b.gif","left","","","","",""
"","1.815000003320165","html-keyboard-response","312","516552","0.0-57.0","SS1613100759658","pref_question","","49","","","","","<video width ='960' height = '540' style='padding-top:8%' autoplay muted><source src='images/stimuli/wall_pref.mp4' type='video/mp4'></video>","1","left","25%","16","","","","","","","",""
