"view_history","rt","trial_type","trial_index","time_elapsed","internal_node_id","subject","stimulus_type","trial_stimulus","key_press","minimum_viewing_duration","trial_looking_time","block_deviant","block_background","stimulus","wall_pref","location","location_percent","block_number","block_type","stimulus_displayed","position_displayed","stim_type_selected"
"[{""page_index"":0,""viewing_time"":99719.21000000293}]","99719.94000000268","instructions","0","99723","0.0-0.0","SS1613085421547","","","","","","","","","","","","","","","",""
"[{""page_index"":0,""viewing_time"":2415.695000003325},{""page_index"":1,""viewing_time"":3886.964999997872}]","6303.110000000743","instructions","1","108033","0.0-1.0","SS1613085421547","instructions","","","","","","","","","","","","","","",""
"","33270.55500000279","sequential-stimulus-presentation","2","142118","0.0-2.0","SS1613085421547","","","40","800","34070.55500000279","null","null","","","","","","","","",""
"","24176.234999998996","sequential-stimulus-presentation","3","167105","0.0-3.0","SS1613085421547","","","40","800","24976.234999998996","null","null","","","","","","","","",""
"[{""page_index"":0,""viewing_time"":1115.5699999944773}]","1116.1399999982677","instructions","4","168225","0.0-4.0","SS1613085421547","instructions","","","","","","","","","","","","","","",""
"","4975.164999996196","html-keyboard-response","5","173210","0.0-5.0","SS1613085421547","instructions","","99","","","","","<video width ='960' height = '540' autoplay muted><source src='images/stimuli/wall_pref.mp4' type='video/mp4'></video>","3","right","66%","","","","",""
"","218.03499999805354","sequential-stimulus-presentation","6","174240","0.0-6.0","SS1613085421547","pref_reveal","","40","800","1018.0349999980535","null","null","","","","","","","","",""
"[{""page_index"":0,""viewing_time"":1842.8750000020955},{""page_index"":1,""viewing_time"":1071.830000000773},{""page_index"":2,""viewing_time"":528.0500000008033},{""page_index"":3,""viewing_time"":208.0050000004121}]","3651.190000004135","instructions","7","177895","0.0-7.0","SS1613085421547","instructions","","","","","","","","","","","","","","",""
"","null","html-keyboard-response","8","178726","0.0-8.0-0.0","SS1613085421547","","","null","","","","","<p><img src= images/blank.png width =""200"" height = ""200"" style = ""float:right""></p><p><img src=images/blank.png width =""800"" height = ""200""></p>","","","","","","","",""
"","411.2249999961932","sequential-stimulus-presentation","9","179977","0.0-8.0-1.0","SS1613085421547","trial","","40","800","1211.2249999961932","images/stimuli/spore_stims/simple_14_B_d.gif","images/stimuli/spore_stims/simple_03_A_b.gif","","","","","0","simple_dissimilar","images/stimuli/spore_stims/simple_03_A_b.gif","right",""
"","null","html-keyboard-response","10","181243","0.0-8.0-0.1","SS1613085421547","","","null","","","","","<p><img src= images/blank.png width =""200"" height = ""200"" style = ""float:right""></p><p><img src=images/blank.png width =""800"" height = ""200""></p>","","","","","","","",""
"","1476.9149999992806","sequential-stimulus-presentation","11","183527","0.0-8.0-1.1","SS1613085421547","trial","","40","800","2276.9149999992806","images/stimuli/spore_stims/simple_14_B_d.gif","images/stimuli/spore_stims/simple_03_A_b.gif","","","","","0","simple_dissimilar","images/stimuli/spore_stims/simple_03_A_b.gif","right",""
"","null","html-keyboard-response","12","184507","0.0-8.0-0.2","SS1613085421547","","","null","","","","","<p><img src= images/blank.png width =""200"" height = ""200"" style = ""float:right""></p><p><img src=images/blank.png width =""800"" height = ""200""></p>","","","","","","","",""
"","254.91000000329223","sequential-stimulus-presentation","13","185574","0.0-8.0-1.2","SS1613085421547","trial","","40","800","1054.9100000032922","images/stimuli/spore_stims/simple_14_B_d.gif","images/stimuli/spore_stims/simple_03_A_b.gif","","","","","0","simple_dissimilar","images/stimuli/spore_stims/simple_03_A_b.gif","right",""
"","null","html-keyboard-response","14","186847","0.0-8.0-0.3","SS1613085421547","","","null","","","","","<p><img src= images/blank.png width =""200"" height = ""200"" style = ""float:right""></p><p><img src=images/blank.png width =""800"" height = ""200""></p>","","","","","","","",""
"","115.59500000294065","sequential-stimulus-presentation","15","187775","0.0-8.0-1.3","SS1613085421547","trial","","40","800","915.5950000029407","images/stimuli/spore_stims/simple_14_B_d.gif","images/stimuli/spore_stims/simple_03_A_b.gif","","","","","0","simple_dissimilar","images/stimuli/spore_stims/simple_03_A_b.gif","right",""
"","null","html-keyboard-response","16","188974","0.0-8.0-0.4","SS1613085421547","","","null","","","","","<p><img src= images/blank.png width =""200"" height = ""200"" style = ""float:right""></p><p><img src=images/blank.png width =""800"" height = ""200""></p>","","","","","","","",""
"","396.2649999957648","sequential-stimulus-presentation","17","190182","0.0-8.0-1.4","SS1613085421547","trial","","40","800","1196.2649999957648","images/stimuli/spore_stims/simple_14_B_d.gif","images/stimuli/spore_stims/simple_03_A_b.gif","","","","","0","simple_dissimilar","images/stimuli/spore_stims/simple_03_A_b.gif","right",""
"","null","html-keyboard-response","18","191281","0.0-8.0-0.5","SS1613085421547","","","null","","","","","<p><img src= images/blank.png width =""200"" height = ""200"" style = ""float:right""></p><p><img src=images/blank.png width =""800"" height = ""200""></p>","","","","","","","",""
"","1409.3950000024051","sequential-stimulus-presentation","19","193502","0.0-8.0-1.5","SS1613085421547","trial","","40","800","2209.395000002405","images/stimuli/spore_stims/simple_14_B_d.gif","images/stimuli/spore_stims/simple_03_A_b.gif","","","","","0","simple_dissimilar","images/stimuli/spore_stims/simple_14_B_d.gif","middle",""
"","null","html-keyboard-response","20","194622","0.0-8.0-0.6","SS1613085421547","","","null","","","","","<p><img src= images/blank.png width =""200"" height = ""200"" style = ""float:right""></p><p><img src=images/blank.png width =""800"" height = ""200""></p>","","","","","","","",""
"","633.0799999996088","sequential-stimulus-presentation","21","196084","0.0-8.0-1.6","SS1613085421547","trial","","40","800","1433.0799999996088","images/stimuli/spore_stims/simple_14_B_d.gif","images/stimuli/spore_stims/simple_03_A_b.gif","","","","","0","simple_dissimilar","images/stimuli/spore_stims/simple_03_A_b.gif","right",""
"","null","html-keyboard-response","22","197103","0.0-8.0-0.7","SS1613085421547","","","null","","","","","<p><img src= images/blank.png width =""200"" height = ""200"" style = ""float:right""></p><p><img src=images/blank.png width =""800"" height = ""200""></p>","","","","","","","",""
"","251.19500000437256","sequential-stimulus-presentation","23","198164","0.0-8.0-1.7","SS1613085421547","trial","","40","800","1051.1950000043726","images/stimuli/spore_stims/simple_14_B_d.gif","images/stimuli/spore_stims/simple_03_A_b.gif","","","","","0","simple_dissimilar","images/stimuli/spore_stims/simple_03_A_b.gif","right",""
"","6280.265000001236","html-keyboard-response","24","204452","0.0-9.0","SS1613085421547","pref_question","","98","","","","","<video width ='960' height = '540' style='padding-top:8%' autoplay muted><source src='images/stimuli/wall_pref.mp4' type='video/mp4'></video>","2","middle","45%","0","","","",""
"","621.8100000041886","sequential-stimulus-presentation","25","205884","0.0-10.0","SS1613085421547","pref_reveal","","40","800","1421.8100000041886","null","null","","","","","0","","","","deviant"
"","null","html-keyboard-response","26","206748","0.0-11.0-0.0","SS1613085421547","","","null","","","","","<p><img src= images/blank.png width =""200"" height = ""200"" style = ""float:right""></p><p><img src=images/blank.png width =""800"" height = ""200""></p>","","","","","","","",""
"","1363.9800000019022","sequential-stimulus-presentation","27","208924","0.0-11.0-1.0","SS1613085421547","trial","","40","800","2163.980000001902","images/stimuli/spore_stims/complex_10_A_c.gif","images/stimuli/spore_stims/complex_10_B_c.gif","","","","","1","complex_similar","images/stimuli/spore_stims/complex_10_B_c.gif","middle",""
"","null","html-keyboard-response","28","209934","0.0-11.0-0.1","SS1613085421547","","","null","","","","","<p><img src= images/blank.png width =""200"" height = ""200"" style = ""float:right""></p><p><img src=images/blank.png width =""800"" height = ""200""></p>","","","","","","","",""
"","160.97499999887077","sequential-stimulus-presentation","29","210910","0.0-11.0-1.1","SS1613085421547","trial","","40","800","960.9749999988708","images/stimuli/spore_stims/complex_10_A_c.gif","images/stimuli/spore_stims/complex_10_B_c.gif","","","","","1","complex_similar","images/stimuli/spore_stims/complex_10_B_c.gif","middle",""
"","null","html-keyboard-response","30","212210","0.0-11.0-0.2","SS1613085421547","","","null","","","","","<p><img src= images/blank.png width =""200"" height = ""200"" style = ""float:right""></p><p><img src=images/blank.png width =""800"" height = ""200""></p>","","","","","","","",""
"","691.5249999947264","sequential-stimulus-presentation","31","213714","0.0-11.0-1.2","SS1613085421547","trial","","40","800","1491.5249999947264","images/stimuli/spore_stims/complex_10_A_c.gif","images/stimuli/spore_stims/complex_10_B_c.gif","","","","","1","complex_similar","images/stimuli/spore_stims/complex_10_B_c.gif","middle",""
"","null","html-keyboard-response","32","214688","0.0-11.0-0.3","SS1613085421547","","","null","","","","","<p><img src= images/blank.png width =""200"" height = ""200"" style = ""float:right""></p><p><img src=images/blank.png width =""800"" height = ""200""></p>","","","","","","","",""
"","222.37499999755528","sequential-stimulus-presentation","33","215723","0.0-11.0-1.3","SS1613085421547","trial","","40","800","1022.3749999975553","images/stimuli/spore_stims/complex_10_A_c.gif","images/stimuli/spore_stims/complex_10_B_c.gif","","","","","1","complex_similar","images/stimuli/spore_stims/complex_10_A_c.gif","right",""
"","null","html-keyboard-response","34","216606","0.0-11.0-0.4","SS1613085421547","","","null","","","","","<p><img src= images/blank.png width =""200"" height = ""200"" style = ""float:right""></p><p><img src=images/blank.png width =""800"" height = ""200""></p>","","","","","","","",""
"","224.49500000220723","sequential-stimulus-presentation","35","217643","0.0-11.0-1.4","SS1613085421547","trial","","40","800","1024.4950000022072","images/stimuli/spore_stims/complex_10_A_c.gif","images/stimuli/spore_stims/complex_10_B_c.gif","","","","","1","complex_similar","images/stimuli/spore_stims/complex_10_B_c.gif","middle",""
"","null","html-keyboard-response","36","218637","0.0-11.0-0.5","SS1613085421547","","","null","","","","","<p><img src= images/blank.png width =""200"" height = ""200"" style = ""float:right""></p><p><img src=images/blank.png width =""800"" height = ""200""></p>","","","","","","","",""
"","193.05999999778578","sequential-stimulus-presentation","37","219641","0.0-11.0-1.5","SS1613085421547","trial","","40","800","993.0599999977858","images/stimuli/spore_stims/complex_10_A_c.gif","images/stimuli/spore_stims/complex_10_B_c.gif","","","","","1","complex_similar","images/stimuli/spore_stims/complex_10_B_c.gif","middle",""
"","null","html-keyboard-response","38","220816","0.0-11.0-0.6","SS1613085421547","","","null","","","","","<p><img src= images/blank.png width =""200"" height = ""200"" style = ""float:right""></p><p><img src=images/blank.png width =""800"" height = ""200""></p>","","","","","","","",""
"","397.1049999963725","sequential-stimulus-presentation","39","222025","0.0-11.0-1.6","SS1613085421547","trial","","40","800","1197.1049999963725","images/stimuli/spore_stims/complex_10_A_c.gif","images/stimuli/spore_stims/complex_10_B_c.gif","","","","","1","complex_similar","images/stimuli/spore_stims/complex_10_B_c.gif","middle",""
"","null","html-keyboard-response","40","222898","0.0-11.0-0.7","SS1613085421547","","","null","","","","","<p><img src= images/blank.png width =""200"" height = ""200"" style = ""float:right""></p><p><img src=images/blank.png width =""800"" height = ""200""></p>","","","","","","","",""
"","593.4249999991152","sequential-stimulus-presentation","41","224304","0.0-11.0-1.7","SS1613085421547","trial","","40","800","1393.4249999991152","images/stimuli/spore_stims/complex_10_A_c.gif","images/stimuli/spore_stims/complex_10_B_c.gif","","","","","1","complex_similar","images/stimuli/spore_stims/complex_10_B_c.gif","middle",""
"","4151.399999995192","html-keyboard-response","42","228466","0.0-12.0","SS1613085421547","pref_question","","97","","","","","<video width ='960' height = '540' style='padding-top:8%' autoplay muted><source src='images/stimuli/wall_pref.mp4' type='video/mp4'></video>","1","left","25%","1","","","",""
"","112.8099999987171","sequential-stimulus-presentation","43","229393","0.0-13.0","SS1613085421547","pref_reveal","","40","800","912.8099999987171","null","null","","","","","1","","","","novel"
"","null","html-keyboard-response","44","230695","0.0-14.0-0.0","SS1613085421547","","","null","","","","","<p><img src= images/blank.png width =""200"" height = ""200"" style = ""float:right""></p><p><img src=images/blank.png width =""800"" height = ""200""></p>","","","","","","","",""
"","45.185000002675224","sequential-stimulus-presentation","45","231553","0.0-14.0-1.0","SS1613085421547","trial","","40","800","845.1850000026752","images/stimuli/spore_stims/complex_13_A_d.gif","images/stimuli/spore_stims/complex_14_B_d.gif","","","","","2","complex_dissimilar","images/stimuli/spore_stims/complex_14_B_d.gif","middle",""
"","null","html-keyboard-response","46","232583","0.0-14.0-0.1","SS1613085421547","","","null","","","","","<p><img src= images/blank.png width =""200"" height = ""200"" style = ""float:right""></p><p><img src=images/blank.png width =""800"" height = ""200""></p>","","","","","","","",""
"","981.0599999982514","sequential-stimulus-presentation","47","234377","0.0-14.0-1.1","SS1613085421547","trial","","40","800","1781.0599999982514","images/stimuli/spore_stims/complex_13_A_d.gif","images/stimuli/spore_stims/complex_14_B_d.gif","","","","","2","complex_dissimilar","images/stimuli/spore_stims/complex_14_B_d.gif","middle",""
"","null","html-keyboard-response","48","235536","0.0-14.0-0.2","SS1613085421547","","","null","","","","","<p><img src= images/blank.png width =""200"" height = ""200"" style = ""float:right""></p><p><img src=images/blank.png width =""800"" height = ""200""></p>","","","","","","","",""
"","979.7400000024936","sequential-stimulus-presentation","49","237329","0.0-14.0-1.2","SS1613085421547","trial","","40","800","1779.7400000024936","images/stimuli/spore_stims/complex_13_A_d.gif","images/stimuli/spore_stims/complex_14_B_d.gif","","","","","2","complex_dissimilar","images/stimuli/spore_stims/complex_14_B_d.gif","middle",""
"","null","html-keyboard-response","50","238521","0.0-14.0-0.3","SS1613085421547","","","null","","","","","<p><img src= images/blank.png width =""200"" height = ""200"" style = ""float:right""></p><p><img src=images/blank.png width =""800"" height = ""200""></p>","","","","","","","",""
"","182.33999999938533","sequential-stimulus-presentation","51","239511","0.0-14.0-1.3","SS1613085421547","trial","","40","800","982.3399999993853","images/stimuli/spore_stims/complex_13_A_d.gif","images/stimuli/spore_stims/complex_14_B_d.gif","","","","","2","complex_dissimilar","images/stimuli/spore_stims/complex_14_B_d.gif","middle",""
"","null","html-keyboard-response","52","240780","0.0-14.0-0.4","SS1613085421547","","","null","","","","","<p><img src= images/blank.png width =""200"" height = ""200"" style = ""float:right""></p><p><img src=images/blank.png width =""800"" height = ""200""></p>","","","","","","","",""
"","1750.6950000024517","sequential-stimulus-presentation","53","243344","0.0-14.0-1.4","SS1613085421547","trial","","40","800","2550.6950000024517","images/stimuli/spore_stims/complex_13_A_d.gif","images/stimuli/spore_stims/complex_14_B_d.gif","","","","","2","complex_dissimilar","images/stimuli/spore_stims/complex_14_B_d.gif","middle",""
"","null","html-keyboard-response","54","244535","0.0-14.0-0.5","SS1613085421547","","","null","","","","","<p><img src= images/blank.png width =""200"" height = ""200"" style = ""float:right""></p><p><img src=images/blank.png width =""800"" height = ""200""></p>","","","","","","","",""
"","457.72500000020955","sequential-stimulus-presentation","55","245807","0.0-14.0-1.5","SS1613085421547","trial","","40","800","1257.7250000002095","images/stimuli/spore_stims/complex_13_A_d.gif","images/stimuli/spore_stims/complex_14_B_d.gif","","","","","2","complex_dissimilar","images/stimuli/spore_stims/complex_13_A_d.gif","left",""
"","null","html-keyboard-response","56","246902","0.0-14.0-0.6","SS1613085421547","","","null","","","","","<p><img src= images/blank.png width =""200"" height = ""200"" style = ""float:right""></p><p><img src=images/blank.png width =""800"" height = ""200""></p>","","","","","","","",""
"","3036.7850000038743","sequential-stimulus-presentation","57","250750","0.0-14.0-1.6","SS1613085421547","trial","","40","800","3836.7850000038743","images/stimuli/spore_stims/complex_13_A_d.gif","images/stimuli/spore_stims/complex_14_B_d.gif","","","","","2","complex_dissimilar","images/stimuli/spore_stims/complex_14_B_d.gif","middle",""
"","null","html-keyboard-response","58","251780","0.0-14.0-0.7","SS1613085421547","","","null","","","","","<p><img src= images/blank.png width =""200"" height = ""200"" style = ""float:right""></p><p><img src=images/blank.png width =""800"" height = ""200""></p>","","","","","","","",""
"","72.35999999829801","sequential-stimulus-presentation","59","252694","0.0-14.0-1.7","SS1613085421547","trial","","40","800","872.359999998298","images/stimuli/spore_stims/complex_13_A_d.gif","images/stimuli/spore_stims/complex_14_B_d.gif","","","","","2","complex_dissimilar","images/stimuli/spore_stims/complex_14_B_d.gif","middle",""
"","4276.785000001837","html-keyboard-response","60","256982","0.0-15.0","SS1613085421547","pref_question","","97","","","","","<video width ='960' height = '540' style='padding-top:8%' autoplay muted><source src='images/stimuli/wall_pref.mp4' type='video/mp4'></video>","1","left","25%","2","","","",""
"","504.43999999697553","sequential-stimulus-presentation","61","258301","0.0-16.0","SS1613085421547","pref_reveal","","40","800","1304.4399999969755","null","null","","","","","2","","","","deviant"
"","null","html-keyboard-response","62","259478","0.0-17.0-0.0","SS1613085421547","","","null","","","","","<p><img src= images/blank.png width =""200"" height = ""200"" style = ""float:right""></p><p><img src=images/blank.png width =""800"" height = ""200""></p>","","","","","","","",""
"","853.1700000021374","sequential-stimulus-presentation","63","261141","0.0-17.0-1.0","SS1613085421547","trial","","40","800","1653.1700000021374","images/stimuli/spore_stims/complex_01_A_b.gif","images/stimuli/spore_stims/complex_04_A_a.gif","","","","","3","complex_dissimilar","images/stimuli/spore_stims/complex_04_A_a.gif","middle",""
"","null","html-keyboard-response","64","262278","0.0-17.0-0.1","SS1613085421547","","","null","","","","","<p><img src= images/blank.png width =""200"" height = ""200"" style = ""float:right""></p><p><img src=images/blank.png width =""800"" height = ""200""></p>","","","","","","","",""
"","1662.544999999227","sequential-stimulus-presentation","65","264772","0.0-17.0-1.1","SS1613085421547","trial","","40","800","2462.544999999227","images/stimuli/spore_stims/complex_01_A_b.gif","images/stimuli/spore_stims/complex_04_A_a.gif","","","","","3","complex_dissimilar","images/stimuli/spore_stims/complex_04_A_a.gif","middle",""
"","null","html-keyboard-response","66","265765","0.0-17.0-0.2","SS1613085421547","","","null","","","","","<p><img src= images/blank.png width =""200"" height = ""200"" style = ""float:right""></p><p><img src=images/blank.png width =""800"" height = ""200""></p>","","","","","","","",""
"","89.19500000047265","sequential-stimulus-presentation","67","266668","0.0-17.0-1.2","SS1613085421547","trial","","40","800","889.1950000004726","images/stimuli/spore_stims/complex_01_A_b.gif","images/stimuli/spore_stims/complex_04_A_a.gif","","","","","3","complex_dissimilar","images/stimuli/spore_stims/complex_01_A_b.gif","left",""
"","null","html-keyboard-response","68","267756","0.0-17.0-0.3","SS1613085421547","","","null","","","","","<p><img src= images/blank.png width =""200"" height = ""200"" style = ""float:right""></p><p><img src=images/blank.png width =""800"" height = ""200""></p>","","","","","","","",""
"","210.3900000001886","sequential-stimulus-presentation","69","268779","0.0-17.0-1.3","SS1613085421547","trial","","40","800","1010.3900000001886","images/stimuli/spore_stims/complex_01_A_b.gif","images/stimuli/spore_stims/complex_04_A_a.gif","","","","","3","complex_dissimilar","images/stimuli/spore_stims/complex_04_A_a.gif","middle",""
"","null","html-keyboard-response","70","269711","0.0-17.0-0.4","SS1613085421547","","","null","","","","","<p><img src= images/blank.png width =""200"" height = ""200"" style = ""float:right""></p><p><img src=images/blank.png width =""800"" height = ""200""></p>","","","","","","","",""
"","1767.3549999963143","sequential-stimulus-presentation","71","272291","0.0-17.0-1.4","SS1613085421547","trial","","40","800","2567.3549999963143","images/stimuli/spore_stims/complex_01_A_b.gif","images/stimuli/spore_stims/complex_04_A_a.gif","","","","","3","complex_dissimilar","images/stimuli/spore_stims/complex_04_A_a.gif","middle",""
"","null","html-keyboard-response","72","273464","0.0-17.0-0.5","SS1613085421547","","","null","","","","","<p><img src= images/blank.png width =""200"" height = ""200"" style = ""float:right""></p><p><img src=images/blank.png width =""800"" height = ""200""></p>","","","","","","","",""
"","429.2100000020582","sequential-stimulus-presentation","73","274707","0.0-17.0-1.5","SS1613085421547","trial","","40","800","1229.2100000020582","images/stimuli/spore_stims/complex_01_A_b.gif","images/stimuli/spore_stims/complex_04_A_a.gif","","","","","3","complex_dissimilar","images/stimuli/spore_stims/complex_04_A_a.gif","middle",""
"","null","html-keyboard-response","74","275875","0.0-17.0-0.6","SS1613085421547","","","null","","","","","<p><img src= images/blank.png width =""200"" height = ""200"" style = ""float:right""></p><p><img src=images/blank.png width =""800"" height = ""200""></p>","","","","","","","",""
"","197.29999999981374","sequential-stimulus-presentation","75","276906","0.0-17.0-1.6","SS1613085421547","trial","","40","800","997.2999999998137","images/stimuli/spore_stims/complex_01_A_b.gif","images/stimuli/spore_stims/complex_04_A_a.gif","","","","","3","complex_dissimilar","images/stimuli/spore_stims/complex_04_A_a.gif","middle",""
"","null","html-keyboard-response","76","278133","0.0-17.0-0.7","SS1613085421547","","","null","","","","","<p><img src= images/blank.png width =""200"" height = ""200"" style = ""float:right""></p><p><img src=images/blank.png width =""800"" height = ""200""></p>","","","","","","","",""
"","519.2800000004354","sequential-stimulus-presentation","77","279465","0.0-17.0-1.7","SS1613085421547","trial","","40","800","1319.2800000004354","images/stimuli/spore_stims/complex_01_A_b.gif","images/stimuli/spore_stims/complex_04_A_a.gif","","","","","3","complex_dissimilar","images/stimuli/spore_stims/complex_04_A_a.gif","middle",""
"","2099.629999996978","html-keyboard-response","78","281578","0.0-18.0","SS1613085421547","pref_question","","98","","","","","<video width ='960' height = '540' style='padding-top:8%' autoplay muted><source src='images/stimuli/wall_pref.mp4' type='video/mp4'></video>","2","middle","45%","3","","","",""
"","1809.2149999938556","sequential-stimulus-presentation","79","284202","0.0-19.0","SS1613085421547","pref_reveal","","40","800","2609.2149999938556","null","null","","","","","3","","","","background"
"","null","html-keyboard-response","80","285152","0.0-20.0-0.0","SS1613085421547","","","null","","","","","<p><img src= images/blank.png width =""200"" height = ""200"" style = ""float:right""></p><p><img src=images/blank.png width =""800"" height = ""200""></p>","","","","","","","",""
"","865.91000000044","sequential-stimulus-presentation","81","286850","0.0-20.0-1.0","SS1613085421547","trial","","40","800","1665.91000000044","images/stimuli/spore_stims/complex_20_B_a.gif","images/stimuli/spore_stims/complex_20_A_a.gif","","","","","4","complex_similar","images/stimuli/spore_stims/complex_20_A_a.gif","left",""
"","null","html-keyboard-response","82","288025","0.0-20.0-0.1","SS1613085421547","","","null","","","","","<p><img src= images/blank.png width =""200"" height = ""200"" style = ""float:right""></p><p><img src=images/blank.png width =""800"" height = ""200""></p>","","","","","","","",""
"","242.67500000132713","sequential-stimulus-presentation","83","289081","0.0-20.0-1.1","SS1613085421547","trial","","40","800","1042.6750000013271","images/stimuli/spore_stims/complex_20_B_a.gif","images/stimuli/spore_stims/complex_20_A_a.gif","","","","","4","complex_similar","images/stimuli/spore_stims/complex_20_A_a.gif","left",""
"","null","html-keyboard-response","84","290089","0.0-20.0-0.2","SS1613085421547","","","null","","","","","<p><img src= images/blank.png width =""200"" height = ""200"" style = ""float:right""></p><p><img src=images/blank.png width =""800"" height = ""200""></p>","","","","","","","",""
"","255.2300000024843","sequential-stimulus-presentation","85","291185","0.0-20.0-1.2","SS1613085421547","trial","","40","800","1055.2300000024843","images/stimuli/spore_stims/complex_20_B_a.gif","images/stimuli/spore_stims/complex_20_A_a.gif","","","","","4","complex_similar","images/stimuli/spore_stims/complex_20_A_a.gif","left",""
"","null","html-keyboard-response","86","292161","0.0-20.0-0.3","SS1613085421547","","","null","","","","","<p><img src= images/blank.png width =""200"" height = ""200"" style = ""float:right""></p><p><img src=images/blank.png width =""800"" height = ""200""></p>","","","","","","","",""
"","262.3800000001211","sequential-stimulus-presentation","87","293233","0.0-20.0-1.3","SS1613085421547","trial","","40","800","1062.380000000121","images/stimuli/spore_stims/complex_20_B_a.gif","images/stimuli/spore_stims/complex_20_A_a.gif","","","","","4","complex_similar","images/stimuli/spore_stims/complex_20_A_a.gif","left",""
"","null","html-keyboard-response","88","294294","0.0-20.0-0.4","SS1613085421547","","","null","","","","","<p><img src= images/blank.png width =""200"" height = ""200"" style = ""float:right""></p><p><img src=images/blank.png width =""800"" height = ""200""></p>","","","","","","","",""
"","412.9850000026636","sequential-stimulus-presentation","89","295520","0.0-20.0-1.4","SS1613085421547","trial","","40","800","1212.9850000026636","images/stimuli/spore_stims/complex_20_B_a.gif","images/stimuli/spore_stims/complex_20_A_a.gif","","","","","4","complex_similar","images/stimuli/spore_stims/complex_20_A_a.gif","left",""
"","null","html-keyboard-response","90","296748","0.0-20.0-0.5","SS1613085421547","","","null","","","","","<p><img src= images/blank.png width =""200"" height = ""200"" style = ""float:right""></p><p><img src=images/blank.png width =""800"" height = ""200""></p>","","","","","","","",""
"","92.85499999532476","sequential-stimulus-presentation","91","297656","0.0-20.0-1.5","SS1613085421547","trial","","40","800","892.8549999953248","images/stimuli/spore_stims/complex_20_B_a.gif","images/stimuli/spore_stims/complex_20_A_a.gif","","","","","4","complex_similar","images/stimuli/spore_stims/complex_20_B_a.gif","right",""
"","null","html-keyboard-response","92","298947","0.0-20.0-0.6","SS1613085421547","","","null","","","","","<p><img src= images/blank.png width =""200"" height = ""200"" style = ""float:right""></p><p><img src=images/blank.png width =""800"" height = ""200""></p>","","","","","","","",""
"","344.0050000062911","sequential-stimulus-presentation","93","300104","0.0-20.0-1.6","SS1613085421547","trial","","40","800","1144.005000006291","images/stimuli/spore_stims/complex_20_B_a.gif","images/stimuli/spore_stims/complex_20_A_a.gif","","","","","4","complex_similar","images/stimuli/spore_stims/complex_20_A_a.gif","left",""
"","null","html-keyboard-response","94","301224","0.0-20.0-0.7","SS1613085421547","","","null","","","","","<p><img src= images/blank.png width =""200"" height = ""200"" style = ""float:right""></p><p><img src=images/blank.png width =""800"" height = ""200""></p>","","","","","","","",""
"","83.70999999897322","sequential-stimulus-presentation","95","302175","0.0-20.0-1.7","SS1613085421547","trial","","40","800","883.7099999989732","images/stimuli/spore_stims/complex_20_B_a.gif","images/stimuli/spore_stims/complex_20_A_a.gif","","","","","4","complex_similar","images/stimuli/spore_stims/complex_20_A_a.gif","left",""
"","10783.500000005006","html-keyboard-response","96","312967","0.0-21.0","SS1613085421547","pref_question","","98","","","","","<video width ='960' height = '540' style='padding-top:8%' autoplay muted><source src='images/stimuli/wall_pref.mp4' type='video/mp4'></video>","2","middle","45%","4","","","",""
"","1255.859999997483","sequential-stimulus-presentation","97","315056","0.0-22.0","SS1613085421547","pref_reveal","","40","800","2055.859999997483","null","null","","","","","4","","","","novel"
"","null","html-keyboard-response","98","316223","0.0-23.0-0.0","SS1613085421547","","","null","","","","","<p><img src= images/blank.png width =""200"" height = ""200"" style = ""float:right""></p><p><img src=images/blank.png width =""800"" height = ""200""></p>","","","","","","","",""
"","729.1850000037812","sequential-stimulus-presentation","99","317766","0.0-23.0-1.0","SS1613085421547","trial","","40","800","1529.1850000037812","images/stimuli/spore_stims/simple_12_B_c.gif","images/stimuli/spore_stims/simple_12_A_c.gif","","","","","5","simple_similar","images/stimuli/spore_stims/simple_12_A_c.gif","right",""
"","null","html-keyboard-response","100","318775","0.0-23.0-0.1","SS1613085421547","","","null","","","","","<p><img src= images/blank.png width =""200"" height = ""200"" style = ""float:right""></p><p><img src=images/blank.png width =""800"" height = ""200""></p>","","","","","","","",""
"","23.475000001781154","sequential-stimulus-presentation","101","319613","0.0-23.0-1.1","SS1613085421547","trial","","40","800","823.4750000017812","images/stimuli/spore_stims/simple_12_B_c.gif","images/stimuli/spore_stims/simple_12_A_c.gif","","","","","5","simple_similar","images/stimuli/spore_stims/simple_12_A_c.gif","right",""
"","null","html-keyboard-response","102","320470","0.0-23.0-0.2","SS1613085421547","","","null","","","","","<p><img src= images/blank.png width =""200"" height = ""200"" style = ""float:right""></p><p><img src=images/blank.png width =""800"" height = ""200""></p>","","","","","","","",""
"","198.33500000095228","sequential-stimulus-presentation","103","321503","0.0-23.0-1.2","SS1613085421547","trial","","40","800","998.3350000009523","images/stimuli/spore_stims/simple_12_B_c.gif","images/stimuli/spore_stims/simple_12_A_c.gif","","","","","5","simple_similar","images/stimuli/spore_stims/simple_12_A_c.gif","right",""
"","null","html-keyboard-response","104","322617","0.0-23.0-0.3","SS1613085421547","","","null","","","","","<p><img src= images/blank.png width =""200"" height = ""200"" style = ""float:right""></p><p><img src=images/blank.png width =""800"" height = ""200""></p>","","","","","","","",""
"","396.86000000074273","sequential-stimulus-presentation","105","323828","0.0-23.0-1.3","SS1613085421547","trial","","40","800","1196.8600000007427","images/stimuli/spore_stims/simple_12_B_c.gif","images/stimuli/spore_stims/simple_12_A_c.gif","","","","","5","simple_similar","images/stimuli/spore_stims/simple_12_A_c.gif","right",""
"","null","html-keyboard-response","106","325101","0.0-23.0-0.4","SS1613085421547","","","null","","","","","<p><img src= images/blank.png width =""200"" height = ""200"" style = ""float:right""></p><p><img src=images/blank.png width =""800"" height = ""200""></p>","","","","","","","",""
"","14126.774999996996","sequential-stimulus-presentation","107","340042","0.0-23.0-1.4","SS1613085421547","trial","","40","800","14926.774999996996","images/stimuli/spore_stims/simple_12_B_c.gif","images/stimuli/spore_stims/simple_12_A_c.gif","","","","","5","simple_similar","images/stimuli/spore_stims/simple_12_A_c.gif","right",""
"","null","html-keyboard-response","108","340987","0.0-23.0-0.5","SS1613085421547","","","null","","","","","<p><img src= images/blank.png width =""200"" height = ""200"" style = ""float:right""></p><p><img src=images/blank.png width =""800"" height = ""200""></p>","","","","","","","",""
"","381.0650000013993","sequential-stimulus-presentation","109","342185","0.0-23.0-1.5","SS1613085421547","trial","","40","800","1181.0650000013993","images/stimuli/spore_stims/simple_12_B_c.gif","images/stimuli/spore_stims/simple_12_A_c.gif","","","","","5","simple_similar","images/stimuli/spore_stims/simple_12_A_c.gif","right",""
"","null","html-keyboard-response","110","343448","0.0-23.0-0.6","SS1613085421547","","","null","","","","","<p><img src= images/blank.png width =""200"" height = ""200"" style = ""float:right""></p><p><img src=images/blank.png width =""800"" height = ""200""></p>","","","","","","","",""
"","928.8299999971059","sequential-stimulus-presentation","111","345193","0.0-23.0-1.6","SS1613085421547","trial","","40","800","1728.829999997106","images/stimuli/spore_stims/simple_12_B_c.gif","images/stimuli/spore_stims/simple_12_A_c.gif","","","","","5","simple_similar","images/stimuli/spore_stims/simple_12_A_c.gif","right",""
"","null","html-keyboard-response","112","346108","0.0-23.0-0.7","SS1613085421547","","","null","","","","","<p><img src= images/blank.png width =""200"" height = ""200"" style = ""float:right""></p><p><img src=images/blank.png width =""800"" height = ""200""></p>","","","","","","","",""
"","885.2599999954691","sequential-stimulus-presentation","113","347808","0.0-23.0-1.7","SS1613085421547","trial","","40","800","1685.2599999954691","images/stimuli/spore_stims/simple_12_B_c.gif","images/stimuli/spore_stims/simple_12_A_c.gif","","","","","5","simple_similar","images/stimuli/spore_stims/simple_12_B_c.gif","left",""
"","3715.010000007169","html-keyboard-response","114","351537","0.0-24.0","SS1613085421547","pref_question","","98","","","","","<video width ='960' height = '540' style='padding-top:8%' autoplay muted><source src='images/stimuli/wall_pref.mp4' type='video/mp4'></video>","2","middle","45%","5","","","",""
"","1096.014999995532","sequential-stimulus-presentation","115","353449","0.0-25.0","SS1613085421547","pref_reveal","","40","800","1896.014999995532","null","null","","","","","5","","","","novel"
"","null","html-keyboard-response","116","354350","0.0-26.0-0.0","SS1613085421547","","","null","","","","","<p><img src= images/blank.png width =""200"" height = ""200"" style = ""float:right""></p><p><img src=images/blank.png width =""800"" height = ""200""></p>","","","","","","","",""
"","87.03000000241445","sequential-stimulus-presentation","117","355271","0.0-26.0-1.0","SS1613085421547","trial","","40","800","887.0300000024145","images/stimuli/spore_stims/simple_19_B_b.gif","images/stimuli/spore_stims/simple_19_A_b.gif","","","","","6","simple_similar","images/stimuli/spore_stims/simple_19_A_b.gif","middle",""
"","null","html-keyboard-response","118","356357","0.0-26.0-0.1","SS1613085421547","","","null","","","","","<p><img src= images/blank.png width =""200"" height = ""200"" style = ""float:right""></p><p><img src=images/blank.png width =""800"" height = ""200""></p>","","","","","","","",""
"","219.02499999850988","sequential-stimulus-presentation","119","357392","0.0-26.0-1.1","SS1613085421547","trial","","40","800","1019.0249999985099","images/stimuli/spore_stims/simple_19_B_b.gif","images/stimuli/spore_stims/simple_19_A_b.gif","","","","","6","simple_similar","images/stimuli/spore_stims/simple_19_A_b.gif","middle",""
"","null","html-keyboard-response","120","358659","0.0-26.0-0.2","SS1613085421547","","","null","","","","","<p><img src= images/blank.png width =""200"" height = ""200"" style = ""float:right""></p><p><img src=images/blank.png width =""800"" height = ""200""></p>","","","","","","","",""
"","651.770000004035","sequential-stimulus-presentation","121","360126","0.0-26.0-1.2","SS1613085421547","trial","","40","800","1451.770000004035","images/stimuli/spore_stims/simple_19_B_b.gif","images/stimuli/spore_stims/simple_19_A_b.gif","","","","","6","simple_similar","images/stimuli/spore_stims/simple_19_A_b.gif","middle",""
"","null","html-keyboard-response","122","361218","0.0-26.0-0.3","SS1613085421547","","","null","","","","","<p><img src= images/blank.png width =""200"" height = ""200"" style = ""float:right""></p><p><img src=images/blank.png width =""800"" height = ""200""></p>","","","","","","","",""
"","230.86999999941327","sequential-stimulus-presentation","123","362264","0.0-26.0-1.3","SS1613085421547","trial","","40","800","1030.8699999994133","images/stimuli/spore_stims/simple_19_B_b.gif","images/stimuli/spore_stims/simple_19_A_b.gif","","","","","6","simple_similar","images/stimuli/spore_stims/simple_19_A_b.gif","middle",""
"","null","html-keyboard-response","124","363165","0.0-26.0-0.4","SS1613085421547","","","null","","","","","<p><img src= images/blank.png width =""200"" height = ""200"" style = ""float:right""></p><p><img src=images/blank.png width =""800"" height = ""200""></p>","","","","","","","",""
"","692.1749999964959","sequential-stimulus-presentation","125","364672","0.0-26.0-1.4","SS1613085421547","trial","","40","800","1492.174999996496","images/stimuli/spore_stims/simple_19_B_b.gif","images/stimuli/spore_stims/simple_19_A_b.gif","","","","","6","simple_similar","images/stimuli/spore_stims/simple_19_A_b.gif","middle",""
"","null","html-keyboard-response","126","365963","0.0-26.0-0.5","SS1613085421547","","","null","","","","","<p><img src= images/blank.png width =""200"" height = ""200"" style = ""float:right""></p><p><img src=images/blank.png width =""800"" height = ""200""></p>","","","","","","","",""
"","242.65500000183238","sequential-stimulus-presentation","127","367021","0.0-26.0-1.5","SS1613085421547","trial","","40","800","1042.6550000018324","images/stimuli/spore_stims/simple_19_B_b.gif","images/stimuli/spore_stims/simple_19_A_b.gif","","","","","6","simple_similar","images/stimuli/spore_stims/simple_19_B_b.gif","right",""
"","null","html-keyboard-response","128","368141","0.0-26.0-0.6","SS1613085421547","","","null","","","","","<p><img src= images/blank.png width =""200"" height = ""200"" style = ""float:right""></p><p><img src=images/blank.png width =""800"" height = ""200""></p>","","","","","","","",""
"","745.3650000024936","sequential-stimulus-presentation","129","369702","0.0-26.0-1.6","SS1613085421547","trial","","40","800","1545.3650000024936","images/stimuli/spore_stims/simple_19_B_b.gif","images/stimuli/spore_stims/simple_19_A_b.gif","","","","","6","simple_similar","images/stimuli/spore_stims/simple_19_A_b.gif","middle",""
"","null","html-keyboard-response","130","370555","0.0-26.0-0.7","SS1613085421547","","","null","","","","","<p><img src= images/blank.png width =""200"" height = ""200"" style = ""float:right""></p><p><img src=images/blank.png width =""800"" height = ""200""></p>","","","","","","","",""
"","1936.6900000022724","sequential-stimulus-presentation","131","373309","0.0-26.0-1.7","SS1613085421547","trial","","40","800","2736.6900000022724","images/stimuli/spore_stims/simple_19_B_b.gif","images/stimuli/spore_stims/simple_19_A_b.gif","","","","","6","simple_similar","images/stimuli/spore_stims/simple_19_A_b.gif","middle",""
"","1608.7600000028033","html-keyboard-response","132","374933","0.0-27.0","SS1613085421547","pref_question","","97","","","","","<video width ='960' height = '540' style='padding-top:8%' autoplay muted><source src='images/stimuli/wall_pref.mp4' type='video/mp4'></video>","1","left","25%","6","","","",""
"","878.8149999963935","sequential-stimulus-presentation","133","376628","0.0-28.0","SS1613085421547","pref_reveal","","40","800","1678.8149999963935","null","null","","","","","6","","","","novel"
"","null","html-keyboard-response","134","377916","0.0-29.0-0.0","SS1613085421547","","","null","","","","","<p><img src= images/blank.png width =""200"" height = ""200"" style = ""float:right""></p><p><img src=images/blank.png width =""800"" height = ""200""></p>","","","","","","","",""
"","876.444999994419","sequential-stimulus-presentation","135","379603","0.0-29.0-1.0","SS1613085421547","trial","","40","800","1676.444999994419","images/stimuli/spore_stims/complex_18_A_c.gif","images/stimuli/spore_stims/complex_18_B_c.gif","","","","","7","complex_similar","images/stimuli/spore_stims/complex_18_B_c.gif","right",""
"","null","html-keyboard-response","136","380435","0.0-29.0-0.1","SS1613085421547","","","null","","","","","<p><img src= images/blank.png width =""200"" height = ""200"" style = ""float:right""></p><p><img src=images/blank.png width =""800"" height = ""200""></p>","","","","","","","",""
"","530.640000004496","sequential-stimulus-presentation","137","381782","0.0-29.0-1.1","SS1613085421547","trial","","40","800","1330.640000004496","images/stimuli/spore_stims/complex_18_A_c.gif","images/stimuli/spore_stims/complex_18_B_c.gif","","","","","7","complex_similar","images/stimuli/spore_stims/complex_18_B_c.gif","right",""
"","null","html-keyboard-response","138","382627","0.0-29.0-0.2","SS1613085421547","","","null","","","","","<p><img src= images/blank.png width =""200"" height = ""200"" style = ""float:right""></p><p><img src=images/blank.png width =""800"" height = ""200""></p>","","","","","","","",""
"","260.00000000203727","sequential-stimulus-presentation","139","383701","0.0-29.0-1.2","SS1613085421547","trial","","40","800","1060.0000000020373","images/stimuli/spore_stims/complex_18_A_c.gif","images/stimuli/spore_stims/complex_18_B_c.gif","","","","","7","complex_similar","images/stimuli/spore_stims/complex_18_B_c.gif","right",""
"","null","html-keyboard-response","140","384829","0.0-29.0-0.3","SS1613085421547","","","null","","","","","<p><img src= images/blank.png width =""200"" height = ""200"" style = ""float:right""></p><p><img src=images/blank.png width =""800"" height = ""200""></p>","","","","","","","",""
"","191.40999999945052","sequential-stimulus-presentation","141","385858","0.0-29.0-1.3","SS1613085421547","trial","","40","800","991.4099999994505","images/stimuli/spore_stims/complex_18_A_c.gif","images/stimuli/spore_stims/complex_18_B_c.gif","","","","","7","complex_similar","images/stimuli/spore_stims/complex_18_B_c.gif","right",""
"","null","html-keyboard-response","142","387073","0.0-29.0-0.4","SS1613085421547","","","null","","","","","<p><img src= images/blank.png width =""200"" height = ""200"" style = ""float:right""></p><p><img src=images/blank.png width =""800"" height = ""200""></p>","","","","","","","",""
"","1493.6200000011013","sequential-stimulus-presentation","143","389386","0.0-29.0-1.4","SS1613085421547","trial","","40","800","2293.6200000011013","images/stimuli/spore_stims/complex_18_A_c.gif","images/stimuli/spore_stims/complex_18_B_c.gif","","","","","7","complex_similar","images/stimuli/spore_stims/complex_18_A_c.gif","middle",""
"","null","html-keyboard-response","144","390483","0.0-29.0-0.5","SS1613085421547","","","null","","","","","<p><img src= images/blank.png width =""200"" height = ""200"" style = ""float:right""></p><p><img src=images/blank.png width =""800"" height = ""200""></p>","","","","","","","",""
"","4301.240000000689","sequential-stimulus-presentation","145","395600","0.0-29.0-1.5","SS1613085421547","trial","","40","800","5101.240000000689","images/stimuli/spore_stims/complex_18_A_c.gif","images/stimuli/spore_stims/complex_18_B_c.gif","","","","","7","complex_similar","images/stimuli/spore_stims/complex_18_B_c.gif","right",""
"","null","html-keyboard-response","146","396423","0.0-29.0-0.6","SS1613085421547","","","null","","","","","<p><img src= images/blank.png width =""200"" height = ""200"" style = ""float:right""></p><p><img src=images/blank.png width =""800"" height = ""200""></p>","","","","","","","",""
"","38.795000000391155","sequential-stimulus-presentation","147","397272","0.0-29.0-1.6","SS1613085421547","trial","","40","800","838.7950000003912","images/stimuli/spore_stims/complex_18_A_c.gif","images/stimuli/spore_stims/complex_18_B_c.gif","","","","","7","complex_similar","images/stimuli/spore_stims/complex_18_B_c.gif","right",""
"","null","html-keyboard-response","148","398620","0.0-29.0-0.7","SS1613085421547","","","null","","","","","<p><img src= images/blank.png width =""200"" height = ""200"" style = ""float:right""></p><p><img src=images/blank.png width =""800"" height = ""200""></p>","","","","","","","",""
"","1381.4199999978882","sequential-stimulus-presentation","149","400816","0.0-29.0-1.7","SS1613085421547","trial","","40","800","2181.419999997888","images/stimuli/spore_stims/complex_18_A_c.gif","images/stimuli/spore_stims/complex_18_B_c.gif","","","","","7","complex_similar","images/stimuli/spore_stims/complex_18_B_c.gif","right",""
"","3416.9650000039837","html-keyboard-response","150","404248","0.0-30.0","SS1613085421547","pref_question","","99","","","","","<video width ='960' height = '540' style='padding-top:8%' autoplay muted><source src='images/stimuli/wall_pref.mp4' type='video/mp4'></video>","3","right","66%","7","","","",""
"","671.8400000027032","sequential-stimulus-presentation","151","405737","0.0-31.0","SS1613085421547","pref_reveal","","40","800","1471.8400000027032","null","null","","","","","7","","","","background"
"","null","html-keyboard-response","152","406592","0.0-32.0-0.0","SS1613085421547","","","null","","","","","<p><img src= images/blank.png width =""200"" height = ""200"" style = ""float:right""></p><p><img src=images/blank.png width =""800"" height = ""200""></p>","","","","","","","",""
"","688.9150000060908","sequential-stimulus-presentation","153","408098","0.0-32.0-1.0","SS1613085421547","trial","","40","800","1488.9150000060908","images/stimuli/spore_stims/simple_08_B_a.gif","images/stimuli/spore_stims/simple_08_A_a.gif","","","","","8","simple_similar","images/stimuli/spore_stims/simple_08_A_a.gif","middle",""
"","null","html-keyboard-response","154","409181","0.0-32.0-0.1","SS1613085421547","","","null","","","","","<p><img src= images/blank.png width =""200"" height = ""200"" style = ""float:right""></p><p><img src=images/blank.png width =""800"" height = ""200""></p>","","","","","","","",""
"","1290.3850000002421","sequential-stimulus-presentation","155","411288","0.0-32.0-1.1","SS1613085421547","trial","","40","800","2090.385000000242","images/stimuli/spore_stims/simple_08_B_a.gif","images/stimuli/spore_stims/simple_08_A_a.gif","","","","","8","simple_similar","images/stimuli/spore_stims/simple_08_A_a.gif","middle",""
"","null","html-keyboard-response","156","412345","0.0-32.0-0.2","SS1613085421547","","","null","","","","","<p><img src= images/blank.png width =""200"" height = ""200"" style = ""float:right""></p><p><img src=images/blank.png width =""800"" height = ""200""></p>","","","","","","","",""
"","277.39999999903375","sequential-stimulus-presentation","157","413439","0.0-32.0-1.2","SS1613085421547","trial","","40","800","1077.3999999990338","images/stimuli/spore_stims/simple_08_B_a.gif","images/stimuli/spore_stims/simple_08_A_a.gif","","","","","8","simple_similar","images/stimuli/spore_stims/simple_08_A_a.gif","middle",""
"","null","html-keyboard-response","158","414739","0.0-32.0-0.3","SS1613085421547","","","null","","","","","<p><img src= images/blank.png width =""200"" height = ""200"" style = ""float:right""></p><p><img src=images/blank.png width =""800"" height = ""200""></p>","","","","","","","",""
"","1876.7100000040955","sequential-stimulus-presentation","159","417433","0.0-32.0-1.3","SS1613085421547","trial","","40","800","2676.7100000040955","images/stimuli/spore_stims/simple_08_B_a.gif","images/stimuli/spore_stims/simple_08_A_a.gif","","","","","8","simple_similar","images/stimuli/spore_stims/simple_08_A_a.gif","middle",""
"","null","html-keyboard-response","160","418296","0.0-32.0-0.4","SS1613085421547","","","null","","","","","<p><img src= images/blank.png width =""200"" height = ""200"" style = ""float:right""></p><p><img src=images/blank.png width =""800"" height = ""200""></p>","","","","","","","",""
"","270.1450000022305","sequential-stimulus-presentation","161","419383","0.0-32.0-1.4","SS1613085421547","trial","","40","800","1070.1450000022305","images/stimuli/spore_stims/simple_08_B_a.gif","images/stimuli/spore_stims/simple_08_A_a.gif","","","","","8","simple_similar","images/stimuli/spore_stims/simple_08_B_a.gif","right",""
"","null","html-keyboard-response","162","420338","0.0-32.0-0.5","SS1613085421547","","","null","","","","","<p><img src= images/blank.png width =""200"" height = ""200"" style = ""float:right""></p><p><img src=images/blank.png width =""800"" height = ""200""></p>","","","","","","","",""
"","3631.9950000033714","sequential-stimulus-presentation","163","424782","0.0-32.0-1.5","SS1613085421547","trial","","40","800","4431.995000003371","images/stimuli/spore_stims/simple_08_B_a.gif","images/stimuli/spore_stims/simple_08_A_a.gif","","","","","8","simple_similar","images/stimuli/spore_stims/simple_08_A_a.gif","middle",""
"","null","html-keyboard-response","164","425616","0.0-32.0-0.6","SS1613085421547","","","null","","","","","<p><img src= images/blank.png width =""200"" height = ""200"" style = ""float:right""></p><p><img src=images/blank.png width =""800"" height = ""200""></p>","","","","","","","",""
"","147.77500000491273","sequential-stimulus-presentation","165","426583","0.0-32.0-1.6","SS1613085421547","trial","","40","800","947.7750000049127","images/stimuli/spore_stims/simple_08_B_a.gif","images/stimuli/spore_stims/simple_08_A_a.gif","","","","","8","simple_similar","images/stimuli/spore_stims/simple_08_A_a.gif","middle",""
"","null","html-keyboard-response","166","427774","0.0-32.0-0.7","SS1613085421547","","","null","","","","","<p><img src= images/blank.png width =""200"" height = ""200"" style = ""float:right""></p><p><img src=images/blank.png width =""800"" height = ""200""></p>","","","","","","","",""
"","1613.5700000013458","sequential-stimulus-presentation","167","430205","0.0-32.0-1.7","SS1613085421547","trial","","40","800","2413.5700000013458","images/stimuli/spore_stims/simple_08_B_a.gif","images/stimuli/spore_stims/simple_08_A_a.gif","","","","","8","simple_similar","images/stimuli/spore_stims/simple_08_A_a.gif","middle",""
"","8652.799999996205","html-keyboard-response","168","438870","0.0-33.0","SS1613085421547","pref_question","","99","","","","","<video width ='960' height = '540' style='padding-top:8%' autoplay muted><source src='images/stimuli/wall_pref.mp4' type='video/mp4'></video>","3","right","66%","8","","","",""
"","307.85499999910826","sequential-stimulus-presentation","169","439996","0.0-34.0","SS1613085421547","pref_reveal","","40","800","1107.8549999991083","null","null","","","","","8","","","","deviant"
"","null","html-keyboard-response","170","440943","0.0-35.0-0.0","SS1613085421547","","","null","","","","","<p><img src= images/blank.png width =""200"" height = ""200"" style = ""float:right""></p><p><img src=images/blank.png width =""800"" height = ""200""></p>","","","","","","","",""
"","707.0149999999558","sequential-stimulus-presentation","171","442467","0.0-35.0-1.0","SS1613085421547","trial","","40","800","1507.0149999999558","images/stimuli/spore_stims/simple_18_A_a.gif","images/stimuli/spore_stims/simple_18_B_a.gif","","","","","9","simple_similar","images/stimuli/spore_stims/simple_18_B_a.gif","middle",""
"","null","html-keyboard-response","172","443354","0.0-35.0-0.1","SS1613085421547","","","null","","","","","<p><img src= images/blank.png width =""200"" height = ""200"" style = ""float:right""></p><p><img src=images/blank.png width =""800"" height = ""200""></p>","","","","","","","",""
"","239.1399999978603","sequential-stimulus-presentation","173","444482","0.0-35.0-1.1","SS1613085421547","trial","","40","800","1039.1399999978603","images/stimuli/spore_stims/simple_18_A_a.gif","images/stimuli/spore_stims/simple_18_B_a.gif","","","","","9","simple_similar","images/stimuli/spore_stims/simple_18_B_a.gif","middle",""
"","null","html-keyboard-response","174","445653","0.0-35.0-0.2","SS1613085421547","","","null","","","","","<p><img src= images/blank.png width =""200"" height = ""200"" style = ""float:right""></p><p><img src=images/blank.png width =""800"" height = ""200""></p>","","","","","","","",""
"","1061.7800000036368","sequential-stimulus-presentation","175","447531","0.0-35.0-1.2","SS1613085421547","trial","","40","800","1861.7800000036368","images/stimuli/spore_stims/simple_18_A_a.gif","images/stimuli/spore_stims/simple_18_B_a.gif","","","","","9","simple_similar","images/stimuli/spore_stims/simple_18_B_a.gif","middle",""
"","null","html-keyboard-response","176","448492","0.0-35.0-0.3","SS1613085421547","","","null","","","","","<p><img src= images/blank.png width =""200"" height = ""200"" style = ""float:right""></p><p><img src=images/blank.png width =""800"" height = ""200""></p>","","","","","","","",""
"","21.740000003774185","sequential-stimulus-presentation","177","449331","0.0-35.0-1.3","SS1613085421547","trial","","40","800","821.7400000037742","images/stimuli/spore_stims/simple_18_A_a.gif","images/stimuli/spore_stims/simple_18_B_a.gif","","","","","9","simple_similar","images/stimuli/spore_stims/simple_18_B_a.gif","middle",""
"","null","html-keyboard-response","178","450198","0.0-35.0-0.4","SS1613085421547","","","null","","","","","<p><img src= images/blank.png width =""200"" height = ""200"" style = ""float:right""></p><p><img src=images/blank.png width =""800"" height = ""200""></p>","","","","","","","",""
"","373.5400000005029","sequential-stimulus-presentation","179","451466","0.0-35.0-1.4","SS1613085421547","trial","","40","800","1173.540000000503","images/stimuli/spore_stims/simple_18_A_a.gif","images/stimuli/spore_stims/simple_18_B_a.gif","","","","","9","simple_similar","images/stimuli/spore_stims/simple_18_B_a.gif","middle",""
"","null","html-keyboard-response","180","452590","0.0-35.0-0.5","SS1613085421547","","","null","","","","","<p><img src= images/blank.png width =""200"" height = ""200"" style = ""float:right""></p><p><img src=images/blank.png width =""800"" height = ""200""></p>","","","","","","","",""
"","1666.864999999234","sequential-stimulus-presentation","181","455074","0.0-35.0-1.5","SS1613085421547","trial","","40","800","2466.864999999234","images/stimuli/spore_stims/simple_18_A_a.gif","images/stimuli/spore_stims/simple_18_B_a.gif","","","","","9","simple_similar","images/stimuli/spore_stims/simple_18_B_a.gif","middle",""
"","null","html-keyboard-response","182","456120","0.0-35.0-0.6","SS1613085421547","","","null","","","","","<p><img src= images/blank.png width =""200"" height = ""200"" style = ""float:right""></p><p><img src=images/blank.png width =""800"" height = ""200""></p>","","","","","","","",""
"","280.0950000018929","sequential-stimulus-presentation","183","457218","0.0-35.0-1.6","SS1613085421547","trial","","40","800","1080.095000001893","images/stimuli/spore_stims/simple_18_A_a.gif","images/stimuli/spore_stims/simple_18_B_a.gif","","","","","9","simple_similar","images/stimuli/spore_stims/simple_18_B_a.gif","middle",""
"","null","html-keyboard-response","184","458273","0.0-35.0-0.7","SS1613085421547","","","null","","","","","<p><img src= images/blank.png width =""200"" height = ""200"" style = ""float:right""></p><p><img src=images/blank.png width =""800"" height = ""200""></p>","","","","","","","",""
"","1208.3549999952083","sequential-stimulus-presentation","185","460297","0.0-35.0-1.7","SS1613085421547","trial","","40","800","2008.3549999952083","images/stimuli/spore_stims/simple_18_A_a.gif","images/stimuli/spore_stims/simple_18_B_a.gif","","","","","9","simple_similar","images/stimuli/spore_stims/simple_18_A_a.gif","right",""
"","6721.2149999977555","html-keyboard-response","186","467033","0.0-36.0","SS1613085421547","pref_question","","98","","","","","<video width ='960' height = '540' style='padding-top:8%' autoplay muted><source src='images/stimuli/wall_pref.mp4' type='video/mp4'></video>","2","middle","45%","9","","","",""
"","323.96000000153435","sequential-stimulus-presentation","187","468176","0.0-37.0","SS1613085421547","pref_reveal","","40","800","1123.9600000015344","null","null","","","","","9","","","","background"
"","null","html-keyboard-response","188","469269","0.0-38.0-0.0","SS1613085421547","","","null","","","","","<p><img src= images/blank.png width =""200"" height = ""200"" style = ""float:right""></p><p><img src=images/blank.png width =""800"" height = ""200""></p>","","","","","","","",""
"","728.3499999975902","sequential-stimulus-presentation","189","470808","0.0-38.0-1.0","SS1613085421547","trial","","40","800","1528.3499999975902","images/stimuli/spore_stims/complex_15_A_a.gif","images/stimuli/spore_stims/complex_05_B_d.gif","","","","","10","complex_dissimilar","images/stimuli/spore_stims/complex_05_B_d.gif","right",""
"","null","html-keyboard-response","190","471865","0.0-38.0-0.1","SS1613085421547","","","null","","","","","<p><img src= images/blank.png width =""200"" height = ""200"" style = ""float:right""></p><p><img src=images/blank.png width =""800"" height = ""200""></p>","","","","","","","",""
"","915.5600000012782","sequential-stimulus-presentation","191","473599","0.0-38.0-1.1","SS1613085421547","trial","","40","800","1715.5600000012782","images/stimuli/spore_stims/complex_15_A_a.gif","images/stimuli/spore_stims/complex_05_B_d.gif","","","","","10","complex_dissimilar","images/stimuli/spore_stims/complex_05_B_d.gif","right",""
"","null","html-keyboard-response","192","474433","0.0-38.0-0.2","SS1613085421547","","","null","","","","","<p><img src= images/blank.png width =""200"" height = ""200"" style = ""float:right""></p><p><img src=images/blank.png width =""800"" height = ""200""></p>","","","","","","","",""
"","537.1400000003632","sequential-stimulus-presentation","193","475790","0.0-38.0-1.2","SS1613085421547","trial","","40","800","1337.1400000003632","images/stimuli/spore_stims/complex_15_A_a.gif","images/stimuli/spore_stims/complex_05_B_d.gif","","","","","10","complex_dissimilar","images/stimuli/spore_stims/complex_05_B_d.gif","right",""
"","null","html-keyboard-response","194","476849","0.0-38.0-0.3","SS1613085421547","","","null","","","","","<p><img src= images/blank.png width =""200"" height = ""200"" style = ""float:right""></p><p><img src=images/blank.png width =""800"" height = ""200""></p>","","","","","","","",""
"","1986.3849999965169","sequential-stimulus-presentation","195","479646","0.0-38.0-1.3","SS1613085421547","trial","","40","800","2786.384999996517","images/stimuli/spore_stims/complex_15_A_a.gif","images/stimuli/spore_stims/complex_05_B_d.gif","","","","","10","complex_dissimilar","images/stimuli/spore_stims/complex_05_B_d.gif","right",""
"","null","html-keyboard-response","196","480887","0.0-38.0-0.4","SS1613085421547","","","null","","","","","<p><img src= images/blank.png width =""200"" height = ""200"" style = ""float:right""></p><p><img src=images/blank.png width =""800"" height = ""200""></p>","","","","","","","",""
"","2771.0750000042026","sequential-stimulus-presentation","197","484478","0.0-38.0-1.4","SS1613085421547","trial","","40","800","3571.0750000042026","images/stimuli/spore_stims/complex_15_A_a.gif","images/stimuli/spore_stims/complex_05_B_d.gif","","","","","10","complex_dissimilar","images/stimuli/spore_stims/complex_05_B_d.gif","right",""
"","null","html-keyboard-response","198","485396","0.0-38.0-0.5","SS1613085421547","","","null","","","","","<p><img src= images/blank.png width =""200"" height = ""200"" style = ""float:right""></p><p><img src=images/blank.png width =""800"" height = ""200""></p>","","","","","","","",""
"","2122.9650000022957","sequential-stimulus-presentation","199","488341","0.0-38.0-1.5","SS1613085421547","trial","","40","800","2922.9650000022957","images/stimuli/spore_stims/complex_15_A_a.gif","images/stimuli/spore_stims/complex_05_B_d.gif","","","","","10","complex_dissimilar","images/stimuli/spore_stims/complex_15_A_a.gif","left",""
"","null","html-keyboard-response","200","489404","0.0-38.0-0.6","SS1613085421547","","","null","","","","","<p><img src= images/blank.png width =""200"" height = ""200"" style = ""float:right""></p><p><img src=images/blank.png width =""800"" height = ""200""></p>","","","","","","","",""
"","2828.654999997525","sequential-stimulus-presentation","201","493051","0.0-38.0-1.6","SS1613085421547","trial","","40","800","3628.654999997525","images/stimuli/spore_stims/complex_15_A_a.gif","images/stimuli/spore_stims/complex_05_B_d.gif","","","","","10","complex_dissimilar","images/stimuli/spore_stims/complex_05_B_d.gif","right",""
"","null","html-keyboard-response","202","494308","0.0-38.0-0.7","SS1613085421547","","","null","","","","","<p><img src= images/blank.png width =""200"" height = ""200"" style = ""float:right""></p><p><img src=images/blank.png width =""800"" height = ""200""></p>","","","","","","","",""
"","1356.6400000054273","sequential-stimulus-presentation","203","496484","0.0-38.0-1.7","SS1613085421547","trial","","40","800","2156.6400000054273","images/stimuli/spore_stims/complex_15_A_a.gif","images/stimuli/spore_stims/complex_05_B_d.gif","","","","","10","complex_dissimilar","images/stimuli/spore_stims/complex_05_B_d.gif","right",""
"","1630.620000003546","html-keyboard-response","204","498131","0.0-39.0","SS1613085421547","pref_question","","99","","","","","<video width ='960' height = '540' style='padding-top:8%' autoplay muted><source src='images/stimuli/wall_pref.mp4' type='video/mp4'></video>","3","right","66%","10","","","",""
"","388.75499999994645","sequential-stimulus-presentation","205","499339","0.0-40.0","SS1613085421547","pref_reveal","","40","800","1188.7549999999464","null","null","","","","","10","","","","background"
"","null","html-keyboard-response","206","500256","0.0-41.0-0.0","SS1613085421547","","","null","","","","","<p><img src= images/blank.png width =""200"" height = ""200"" style = ""float:right""></p><p><img src=images/blank.png width =""800"" height = ""200""></p>","","","","","","","",""
"","1246.9899999996414","sequential-stimulus-presentation","207","502323","0.0-41.0-1.0","SS1613085421547","trial","","40","800","2046.9899999996414","images/stimuli/spore_stims/simple_02_A_d.gif","images/stimuli/spore_stims/simple_17_A_a.gif","","","","","11","simple_dissimilar","images/stimuli/spore_stims/simple_17_A_a.gif","left",""
"","null","html-keyboard-response","208","503264","0.0-41.0-0.1","SS1613085421547","","","null","","","","","<p><img src= images/blank.png width =""200"" height = ""200"" style = ""float:right""></p><p><img src=images/blank.png width =""800"" height = ""200""></p>","","","","","","","",""
"","1183.9949999994133","sequential-stimulus-presentation","209","505266","0.0-41.0-1.1","SS1613085421547","trial","","40","800","1983.9949999994133","images/stimuli/spore_stims/simple_02_A_d.gif","images/stimuli/spore_stims/simple_17_A_a.gif","","","","","11","simple_dissimilar","images/stimuli/spore_stims/simple_17_A_a.gif","left",""
"","null","html-keyboard-response","210","506235","0.0-41.0-0.2","SS1613085421547","","","null","","","","","<p><img src= images/blank.png width =""200"" height = ""200"" style = ""float:right""></p><p><img src=images/blank.png width =""800"" height = ""200""></p>","","","","","","","",""
"","1043.9800000021933","sequential-stimulus-presentation","211","508098","0.0-41.0-1.2","SS1613085421547","trial","","40","800","1843.9800000021933","images/stimuli/spore_stims/simple_02_A_d.gif","images/stimuli/spore_stims/simple_17_A_a.gif","","","","","11","simple_dissimilar","images/stimuli/spore_stims/simple_17_A_a.gif","left",""
"","null","html-keyboard-response","212","509066","0.0-41.0-0.3","SS1613085421547","","","null","","","","","<p><img src= images/blank.png width =""200"" height = ""200"" style = ""float:right""></p><p><img src=images/blank.png width =""800"" height = ""200""></p>","","","","","","","",""
"","1540.3450000012526","sequential-stimulus-presentation","213","511425","0.0-41.0-1.3","SS1613085421547","trial","","40","800","2340.3450000012526","images/stimuli/spore_stims/simple_02_A_d.gif","images/stimuli/spore_stims/simple_17_A_a.gif","","","","","11","simple_dissimilar","images/stimuli/spore_stims/simple_02_A_d.gif","middle",""
"","null","html-keyboard-response","214","512556","0.0-41.0-0.4","SS1613085421547","","","null","","","","","<p><img src= images/blank.png width =""200"" height = ""200"" style = ""float:right""></p><p><img src=images/blank.png width =""800"" height = ""200""></p>","","","","","","","",""
"","3384.409999998752","sequential-stimulus-presentation","215","516760","0.0-41.0-1.4","SS1613085421547","trial","","40","800","4184.409999998752","images/stimuli/spore_stims/simple_02_A_d.gif","images/stimuli/spore_stims/simple_17_A_a.gif","","","","","11","simple_dissimilar","images/stimuli/spore_stims/simple_17_A_a.gif","left",""
"","null","html-keyboard-response","216","517998","0.0-41.0-0.5","SS1613085421547","","","null","","","","","<p><img src= images/blank.png width =""200"" height = ""200"" style = ""float:right""></p><p><img src=images/blank.png width =""800"" height = ""200""></p>","","","","","","","",""
"","70.1100000005681","sequential-stimulus-presentation","217","518890","0.0-41.0-1.5","SS1613085421547","trial","","40","800","870.1100000005681","images/stimuli/spore_stims/simple_02_A_d.gif","images/stimuli/spore_stims/simple_17_A_a.gif","","","","","11","simple_dissimilar","images/stimuli/spore_stims/simple_17_A_a.gif","left",""
"","null","html-keyboard-response","218","519874","0.0-41.0-0.6","SS1613085421547","","","null","","","","","<p><img src= images/blank.png width =""200"" height = ""200"" style = ""float:right""></p><p><img src=images/blank.png width =""800"" height = ""200""></p>","","","","","","","",""
"","1080.3949999972247","sequential-stimulus-presentation","219","521791","0.0-41.0-1.6","SS1613085421547","trial","","40","800","1880.3949999972247","images/stimuli/spore_stims/simple_02_A_d.gif","images/stimuli/spore_stims/simple_17_A_a.gif","","","","","11","simple_dissimilar","images/stimuli/spore_stims/simple_17_A_a.gif","left",""
"","null","html-keyboard-response","220","522692","0.0-41.0-0.7","SS1613085421547","","","null","","","","","<p><img src= images/blank.png width =""200"" height = ""200"" style = ""float:right""></p><p><img src=images/blank.png width =""800"" height = ""200""></p>","","","","","","","",""
"","3054.520000005141","sequential-stimulus-presentation","221","526568","0.0-41.0-1.7","SS1613085421547","trial","","40","800","3854.520000005141","images/stimuli/spore_stims/simple_02_A_d.gif","images/stimuli/spore_stims/simple_17_A_a.gif","","","","","11","simple_dissimilar","images/stimuli/spore_stims/simple_17_A_a.gif","left",""
"","2783.7149999977555","html-keyboard-response","222","529368","0.0-42.0","SS1613085421547","pref_question","","98","","","","","<video width ='960' height = '540' style='padding-top:8%' autoplay muted><source src='images/stimuli/wall_pref.mp4' type='video/mp4'></video>","2","middle","45%","11","","","",""
"","300.5249999987427","sequential-stimulus-presentation","223","530486","0.0-43.0","SS1613085421547","pref_reveal","","40","800","1100.5249999987427","null","null","","","","","11","","","","deviant"
"","null","html-keyboard-response","224","531679","0.0-44.0-0.0","SS1613085421547","","","null","","","","","<p><img src= images/blank.png width =""200"" height = ""200"" style = ""float:right""></p><p><img src=images/blank.png width =""800"" height = ""200""></p>","","","","","","","",""
"","1162.965000003227","sequential-stimulus-presentation","225","533662","0.0-44.0-1.0","SS1613085421547","trial","","40","800","1962.965000003227","images/stimuli/spore_stims/simple_05_B_b.gif","images/stimuli/spore_stims/simple_09_B_d.gif","","","","","12","simple_dissimilar","images/stimuli/spore_stims/simple_09_B_d.gif","left",""
"","null","html-keyboard-response","226","534812","0.0-44.0-0.1","SS1613085421547","","","null","","","","","<p><img src= images/blank.png width =""200"" height = ""200"" style = ""float:right""></p><p><img src=images/blank.png width =""800"" height = ""200""></p>","","","","","","","",""
"","151.68999999877997","sequential-stimulus-presentation","227","535782","0.0-44.0-1.1","SS1613085421547","trial","","40","800","951.68999999878","images/stimuli/spore_stims/simple_05_B_b.gif","images/stimuli/spore_stims/simple_09_B_d.gif","","","","","12","simple_dissimilar","images/stimuli/spore_stims/simple_09_B_d.gif","left",""
"","null","html-keyboard-response","228","536642","0.0-44.0-0.2","SS1613085421547","","","null","","","","","<p><img src= images/blank.png width =""200"" height = ""200"" style = ""float:right""></p><p><img src=images/blank.png width =""800"" height = ""200""></p>","","","","","","","",""
"","2008.2299999995157","sequential-stimulus-presentation","229","539470","0.0-44.0-1.2","SS1613085421547","trial","","40","800","2808.2299999995157","images/stimuli/spore_stims/simple_05_B_b.gif","images/stimuli/spore_stims/simple_09_B_d.gif","","","","","12","simple_dissimilar","images/stimuli/spore_stims/simple_05_B_b.gif","right",""
"","null","html-keyboard-response","230","540765","0.0-44.0-0.3","SS1613085421547","","","null","","","","","<p><img src= images/blank.png width =""200"" height = ""200"" style = ""float:right""></p><p><img src=images/blank.png width =""800"" height = ""200""></p>","","","","","","","",""
"","1037.4249999950407","sequential-stimulus-presentation","231","542621","0.0-44.0-1.3","SS1613085421547","trial","","40","800","1837.4249999950407","images/stimuli/spore_stims/simple_05_B_b.gif","images/stimuli/spore_stims/simple_09_B_d.gif","","","","","12","simple_dissimilar","images/stimuli/spore_stims/simple_09_B_d.gif","left",""
"","null","html-keyboard-response","232","543900","0.0-44.0-0.4","SS1613085421547","","","null","","","","","<p><img src= images/blank.png width =""200"" height = ""200"" style = ""float:right""></p><p><img src=images/blank.png width =""800"" height = ""200""></p>","","","","","","","",""
"","574.6700000017881","sequential-stimulus-presentation","233","545292","0.0-44.0-1.4","SS1613085421547","trial","","40","800","1374.6700000017881","images/stimuli/spore_stims/simple_05_B_b.gif","images/stimuli/spore_stims/simple_09_B_d.gif","","","","","12","simple_dissimilar","images/stimuli/spore_stims/simple_09_B_d.gif","left",""
"","null","html-keyboard-response","234","546191","0.0-44.0-0.5","SS1613085421547","","","null","","","","","<p><img src= images/blank.png width =""200"" height = ""200"" style = ""float:right""></p><p><img src=images/blank.png width =""800"" height = ""200""></p>","","","","","","","",""
"","338.4399999995949","sequential-stimulus-presentation","235","547348","0.0-44.0-1.5","SS1613085421547","trial","","40","800","1138.4399999995949","images/stimuli/spore_stims/simple_05_B_b.gif","images/stimuli/spore_stims/simple_09_B_d.gif","","","","","12","simple_dissimilar","images/stimuli/spore_stims/simple_09_B_d.gif","left",""
"","null","html-keyboard-response","236","548399","0.0-44.0-0.6","SS1613085421547","","","null","","","","","<p><img src= images/blank.png width =""200"" height = ""200"" style = ""float:right""></p><p><img src=images/blank.png width =""800"" height = ""200""></p>","","","","","","","",""
"","92.86500000604428","sequential-stimulus-presentation","237","549356","0.0-44.0-1.6","SS1613085421547","trial","","40","800","892.8650000060443","images/stimuli/spore_stims/simple_05_B_b.gif","images/stimuli/spore_stims/simple_09_B_d.gif","","","","","12","simple_dissimilar","images/stimuli/spore_stims/simple_09_B_d.gif","left",""
"","null","html-keyboard-response","238","550475","0.0-44.0-0.7","SS1613085421547","","","null","","","","","<p><img src= images/blank.png width =""200"" height = ""200"" style = ""float:right""></p><p><img src=images/blank.png width =""800"" height = ""200""></p>","","","","","","","",""
"","631.7899999993388","sequential-stimulus-presentation","239","551925","0.0-44.0-1.7","SS1613085421547","trial","","40","800","1431.7899999993388","images/stimuli/spore_stims/simple_05_B_b.gif","images/stimuli/spore_stims/simple_09_B_d.gif","","","","","12","simple_dissimilar","images/stimuli/spore_stims/simple_09_B_d.gif","left",""
"","1764.9549999986775","html-keyboard-response","240","553708","0.0-45.0","SS1613085421547","pref_question","","97","","","","","<video width ='960' height = '540' style='padding-top:8%' autoplay muted><source src='images/stimuli/wall_pref.mp4' type='video/mp4'></video>","1","left","25%","12","","","",""
"","209.78000000468455","sequential-stimulus-presentation","241","554739","0.0-46.0","SS1613085421547","pref_reveal","","40","800","1009.7800000046846","null","null","","","","","12","","","","background"
"","null","html-keyboard-response","242","555913","0.0-47.0-0.0","SS1613085421547","","","null","","","","","<p><img src= images/blank.png width =""200"" height = ""200"" style = ""float:right""></p><p><img src=images/blank.png width =""800"" height = ""200""></p>","","","","","","","",""
"","127.64500000048429","sequential-stimulus-presentation","243","556867","0.0-47.0-1.0","SS1613085421547","trial","","40","800","927.6450000004843","images/stimuli/spore_stims/complex_16_B_a.gif","images/stimuli/spore_stims/complex_16_A_a.gif","","","","","13","complex_similar","images/stimuli/spore_stims/complex_16_A_a.gif","left",""
"","null","html-keyboard-response","244","557972","0.0-47.0-0.1","SS1613085421547","","","null","","","","","<p><img src= images/blank.png width =""200"" height = ""200"" style = ""float:right""></p><p><img src=images/blank.png width =""800"" height = ""200""></p>","","","","","","","",""
"","441.4000000033993","sequential-stimulus-presentation","245","559235","0.0-47.0-1.1","SS1613085421547","trial","","40","800","1241.4000000033993","images/stimuli/spore_stims/complex_16_B_a.gif","images/stimuli/spore_stims/complex_16_A_a.gif","","","","","13","complex_similar","images/stimuli/spore_stims/complex_16_A_a.gif","left",""
"","null","html-keyboard-response","246","560299","0.0-47.0-0.2","SS1613085421547","","","null","","","","","<p><img src= images/blank.png width =""200"" height = ""200"" style = ""float:right""></p><p><img src=images/blank.png width =""800"" height = ""200""></p>","","","","","","","",""
"","452.6449999975739","sequential-stimulus-presentation","247","561570","0.0-47.0-1.2","SS1613085421547","trial","","40","800","1252.644999997574","images/stimuli/spore_stims/complex_16_B_a.gif","images/stimuli/spore_stims/complex_16_A_a.gif","","","","","13","complex_similar","images/stimuli/spore_stims/complex_16_A_a.gif","left",""
"","null","html-keyboard-response","248","562646","0.0-47.0-0.3","SS1613085421547","","","null","","","","","<p><img src= images/blank.png width =""200"" height = ""200"" style = ""float:right""></p><p><img src=images/blank.png width =""800"" height = ""200""></p>","","","","","","","",""
"","544.0950000047451","sequential-stimulus-presentation","249","564009","0.0-47.0-1.3","SS1613085421547","trial","","40","800","1344.095000004745","images/stimuli/spore_stims/complex_16_B_a.gif","images/stimuli/spore_stims/complex_16_A_a.gif","","","","","13","complex_similar","images/stimuli/spore_stims/complex_16_A_a.gif","left",""
"","null","html-keyboard-response","250","565123","0.0-47.0-0.4","SS1613085421547","","","null","","","","","<p><img src= images/blank.png width =""200"" height = ""200"" style = ""float:right""></p><p><img src=images/blank.png width =""800"" height = ""200""></p>","","","","","","","",""
"","763.6899999998277","sequential-stimulus-presentation","251","566705","0.0-47.0-1.4","SS1613085421547","trial","","40","800","1563.6899999998277","images/stimuli/spore_stims/complex_16_B_a.gif","images/stimuli/spore_stims/complex_16_A_a.gif","","","","","13","complex_similar","images/stimuli/spore_stims/complex_16_A_a.gif","left",""
"","null","html-keyboard-response","252","567809","0.0-47.0-0.5","SS1613085421547","","","null","","","","","<p><img src= images/blank.png width =""200"" height = ""200"" style = ""float:right""></p><p><img src=images/blank.png width =""800"" height = ""200""></p>","","","","","","","",""
"","84.13499999733176","sequential-stimulus-presentation","253","568713","0.0-47.0-1.5","SS1613085421547","trial","","40","800","884.1349999973318","images/stimuli/spore_stims/complex_16_B_a.gif","images/stimuli/spore_stims/complex_16_A_a.gif","","","","","13","complex_similar","images/stimuli/spore_stims/complex_16_A_a.gif","left",""
"","null","html-keyboard-response","254","569823","0.0-47.0-0.6","SS1613085421547","","","null","","","","","<p><img src= images/blank.png width =""200"" height = ""200"" style = ""float:right""></p><p><img src=images/blank.png width =""800"" height = ""200""></p>","","","","","","","",""
"","420.6750000012107","sequential-stimulus-presentation","255","571064","0.0-47.0-1.6","SS1613085421547","trial","","40","800","1220.6750000012107","images/stimuli/spore_stims/complex_16_B_a.gif","images/stimuli/spore_stims/complex_16_A_a.gif","","","","","13","complex_similar","images/stimuli/spore_stims/complex_16_A_a.gif","left",""
"","null","html-keyboard-response","256","572296","0.0-47.0-0.7","SS1613085421547","","","null","","","","","<p><img src= images/blank.png width =""200"" height = ""200"" style = ""float:right""></p><p><img src=images/blank.png width =""800"" height = ""200""></p>","","","","","","","",""
"","115.57000000181142","sequential-stimulus-presentation","257","573232","0.0-47.0-1.7","SS1613085421547","trial","","40","800","915.5700000018114","images/stimuli/spore_stims/complex_16_B_a.gif","images/stimuli/spore_stims/complex_16_A_a.gif","","","","","13","complex_similar","images/stimuli/spore_stims/complex_16_B_a.gif","middle",""
"","1858.1350000022212","html-keyboard-response","258","575112","0.0-48.0","SS1613085421547","pref_question","","97","","","","","<video width ='960' height = '540' style='padding-top:8%' autoplay muted><source src='images/stimuli/wall_pref.mp4' type='video/mp4'></video>","1","left","25%","13","","","",""
"","490.78000000014435","sequential-stimulus-presentation","259","576424","0.0-49.0","SS1613085421547","pref_reveal","","40","800","1290.7800000001444","null","null","","","","","13","","","","background"
"","null","html-keyboard-response","260","577455","0.0-50.0-0.0","SS1613085421547","","","null","","","","","<p><img src= images/blank.png width =""200"" height = ""200"" style = ""float:right""></p><p><img src=images/blank.png width =""800"" height = ""200""></p>","","","","","","","",""
"","34.56999999610707","sequential-stimulus-presentation","261","578311","0.0-50.0-1.0","SS1613085421547","trial","","40","800","834.5699999961071","images/stimuli/spore_stims/simple_13_B_d.gif","images/stimuli/spore_stims/simple_13_A_d.gif","","","","","14","simple_similar","images/stimuli/spore_stims/simple_13_A_d.gif","right",""
"","null","html-keyboard-response","262","579291","0.0-50.0-0.1","SS1613085421547","","","null","","","","","<p><img src= images/blank.png width =""200"" height = ""200"" style = ""float:right""></p><p><img src=images/blank.png width =""800"" height = ""200""></p>","","","","","","","",""
"","744.0700000006473","sequential-stimulus-presentation","263","580855","0.0-50.0-1.1","SS1613085421547","trial","","40","800","1544.0700000006473","images/stimuli/spore_stims/simple_13_B_d.gif","images/stimuli/spore_stims/simple_13_A_d.gif","","","","","14","simple_similar","images/stimuli/spore_stims/simple_13_A_d.gif","right",""
"","null","html-keyboard-response","264","581890","0.0-50.0-0.2","SS1613085421547","","","null","","","","","<p><img src= images/blank.png width =""200"" height = ""200"" style = ""float:right""></p><p><img src=images/blank.png width =""800"" height = ""200""></p>","","","","","","","",""
"","511.65499999490567","sequential-stimulus-presentation","265","583223","0.0-50.0-1.2","SS1613085421547","trial","","40","800","1311.6549999949057","images/stimuli/spore_stims/simple_13_B_d.gif","images/stimuli/spore_stims/simple_13_A_d.gif","","","","","14","simple_similar","images/stimuli/spore_stims/simple_13_A_d.gif","right",""
"","null","html-keyboard-response","266","584474","0.0-50.0-0.3","SS1613085421547","","","null","","","","","<p><img src= images/blank.png width =""200"" height = ""200"" style = ""float:right""></p><p><img src=images/blank.png width =""800"" height = ""200""></p>","","","","","","","",""
"","1726.7750000027008","sequential-stimulus-presentation","267","587023","0.0-50.0-1.3","SS1613085421547","trial","","40","800","2526.775000002701","images/stimuli/spore_stims/simple_13_B_d.gif","images/stimuli/spore_stims/simple_13_A_d.gif","","","","","14","simple_similar","images/stimuli/spore_stims/simple_13_A_d.gif","right",""
"","null","html-keyboard-response","268","588248","0.0-50.0-0.4","SS1613085421547","","","null","","","","","<p><img src= images/blank.png width =""200"" height = ""200"" style = ""float:right""></p><p><img src=images/blank.png width =""800"" height = ""200""></p>","","","","","","","",""
"","397.8950000018813","sequential-stimulus-presentation","269","589479","0.0-50.0-1.4","SS1613085421547","trial","","40","800","1197.8950000018813","images/stimuli/spore_stims/simple_13_B_d.gif","images/stimuli/spore_stims/simple_13_A_d.gif","","","","","14","simple_similar","images/stimuli/spore_stims/simple_13_B_d.gif","left",""
"","null","html-keyboard-response","270","590514","0.0-50.0-0.5","SS1613085421547","","","null","","","","","<p><img src= images/blank.png width =""200"" height = ""200"" style = ""float:right""></p><p><img src=images/blank.png width =""800"" height = ""200""></p>","","","","","","","",""
"","1759.7549999990733","sequential-stimulus-presentation","271","593094","0.0-50.0-1.5","SS1613085421547","trial","","40","800","2559.7549999990733","images/stimuli/spore_stims/simple_13_B_d.gif","images/stimuli/spore_stims/simple_13_A_d.gif","","","","","14","simple_similar","images/stimuli/spore_stims/simple_13_A_d.gif","right",""
"","null","html-keyboard-response","272","593987","0.0-50.0-0.6","SS1613085421547","","","null","","","","","<p><img src= images/blank.png width =""200"" height = ""200"" style = ""float:right""></p><p><img src=images/blank.png width =""800"" height = ""200""></p>","","","","","","","",""
"","458.07500000228174","sequential-stimulus-presentation","273","595264","0.0-50.0-1.6","SS1613085421547","trial","","40","800","1258.0750000022817","images/stimuli/spore_stims/simple_13_B_d.gif","images/stimuli/spore_stims/simple_13_A_d.gif","","","","","14","simple_similar","images/stimuli/spore_stims/simple_13_A_d.gif","right",""
"","null","html-keyboard-response","274","596294","0.0-50.0-0.7","SS1613085421547","","","null","","","","","<p><img src= images/blank.png width =""200"" height = ""200"" style = ""float:right""></p><p><img src=images/blank.png width =""800"" height = ""200""></p>","","","","","","","",""
"","1499.0099999995437","sequential-stimulus-presentation","275","598614","0.0-50.0-1.7","SS1613085421547","trial","","40","800","2299.0099999995437","images/stimuli/spore_stims/simple_13_B_d.gif","images/stimuli/spore_stims/simple_13_A_d.gif","","","","","14","simple_similar","images/stimuli/spore_stims/simple_13_A_d.gif","right",""
"","6242.934999994817","html-keyboard-response","276","604877","0.0-51.0","SS1613085421547","pref_question","","97","","","","","<video width ='960' height = '540' style='padding-top:8%' autoplay muted><source src='images/stimuli/wall_pref.mp4' type='video/mp4'></video>","1","left","25%","14","","","",""
"","242.83000000286847","sequential-stimulus-presentation","277","605941","0.0-52.0","SS1613085421547","pref_reveal","","40","800","1042.8300000028685","null","null","","","","","14","","","","deviant"
"","null","html-keyboard-response","278","606771","0.0-53.0-0.0","SS1613085421547","","","null","","","","","<p><img src= images/blank.png width =""200"" height = ""200"" style = ""float:right""></p><p><img src=images/blank.png width =""800"" height = ""200""></p>","","","","","","","",""
"","1778.245000001276","sequential-stimulus-presentation","279","609396","0.0-53.0-1.0","SS1613085421547","trial","","40","800","2578.245000001276","images/stimuli/spore_stims/complex_17_A_c.gif","images/stimuli/spore_stims/complex_09_A_c.gif","","","","","15","complex_dissimilar","images/stimuli/spore_stims/complex_09_A_c.gif","left",""
"","null","html-keyboard-response","280","610226","0.0-53.0-0.1","SS1613085421547","","","null","","","","","<p><img src= images/blank.png width =""200"" height = ""200"" style = ""float:right""></p><p><img src=images/blank.png width =""800"" height = ""200""></p>","","","","","","","",""
"","3170.724999996368","sequential-stimulus-presentation","281","614219","0.0-53.0-1.1","SS1613085421547","trial","","40","800","3970.724999996368","images/stimuli/spore_stims/complex_17_A_c.gif","images/stimuli/spore_stims/complex_09_A_c.gif","","","","","15","complex_dissimilar","images/stimuli/spore_stims/complex_09_A_c.gif","left",""
"","null","html-keyboard-response","282","615344","0.0-53.0-0.2","SS1613085421547","","","null","","","","","<p><img src= images/blank.png width =""200"" height = ""200"" style = ""float:right""></p><p><img src=images/blank.png width =""800"" height = ""200""></p>","","","","","","","",""
"","1124.6299999983748","sequential-stimulus-presentation","283","617291","0.0-53.0-1.2","SS1613085421547","trial","","40","800","1924.6299999983748","images/stimuli/spore_stims/complex_17_A_c.gif","images/stimuli/spore_stims/complex_09_A_c.gif","","","","","15","complex_dissimilar","images/stimuli/spore_stims/complex_09_A_c.gif","left",""
"","null","html-keyboard-response","284","618383","0.0-53.0-0.3","SS1613085421547","","","null","","","","","<p><img src= images/blank.png width =""200"" height = ""200"" style = ""float:right""></p><p><img src=images/blank.png width =""800"" height = ""200""></p>","","","","","","","",""
"","1300.6099999983562","sequential-stimulus-presentation","285","620506","0.0-53.0-1.3","SS1613085421547","trial","","40","800","2100.609999998356","images/stimuli/spore_stims/complex_17_A_c.gif","images/stimuli/spore_stims/complex_09_A_c.gif","","","","","15","complex_dissimilar","images/stimuli/spore_stims/complex_09_A_c.gif","left",""
"","null","html-keyboard-response","286","621390","0.0-53.0-0.4","SS1613085421547","","","null","","","","","<p><img src= images/blank.png width =""200"" height = ""200"" style = ""float:right""></p><p><img src=images/blank.png width =""800"" height = ""200""></p>","","","","","","","",""
"","2084.8199999964563","sequential-stimulus-presentation","287","624298","0.0-53.0-1.4","SS1613085421547","trial","","40","800","2884.8199999964563","images/stimuli/spore_stims/complex_17_A_c.gif","images/stimuli/spore_stims/complex_09_A_c.gif","","","","","15","complex_dissimilar","images/stimuli/spore_stims/complex_09_A_c.gif","left",""
"","null","html-keyboard-response","288","625232","0.0-53.0-0.5","SS1613085421547","","","null","","","","","<p><img src= images/blank.png width =""200"" height = ""200"" style = ""float:right""></p><p><img src=images/blank.png width =""800"" height = ""200""></p>","","","","","","","",""
"","825.5050000008196","sequential-stimulus-presentation","289","626874","0.0-53.0-1.5","SS1613085421547","trial","","40","800","1625.5050000008196","images/stimuli/spore_stims/complex_17_A_c.gif","images/stimuli/spore_stims/complex_09_A_c.gif","","","","","15","complex_dissimilar","images/stimuli/spore_stims/complex_09_A_c.gif","left",""
"","null","html-keyboard-response","290","627937","0.0-53.0-0.6","SS1613085421547","","","null","","","","","<p><img src= images/blank.png width =""200"" height = ""200"" style = ""float:right""></p><p><img src=images/blank.png width =""800"" height = ""200""></p>","","","","","","","",""
