"view_history","rt","trial_type","trial_index","time_elapsed","internal_node_id","subject","stimulus_type","trial_stimulus","key_press","minimum_viewing_duration","trial_looking_time","block_deviant","block_background","stimulus","wall_pref","location","location_percent","block_number","block_type","stimulus_displayed","position_displayed","stim_type_selected","responses","question_order","stimulus_left","stimulus_right"
"[{""page_index"":0,""viewing_time"":4490.5500000022585}]","4491.905000002589","instructions","0","4495","0.0-0.0","SS1613138526391","","","","","","","","","","","","","","","","","","","",""
"[{""page_index"":0,""viewing_time"":10313.399999999092},{""page_index"":1,""viewing_time"":4288.119999997434}]","14601.894999999786","instructions","1","21102","0.0-1.0","SS1613138526391","instructions","","","","","","","","","","","","","","","","","","",""
"","8192.030000005616","sequential-stimulus-presentation","2","30105","0.0-2.0","SS1613138526391","","","40","800","8992.030000005616","null","null","","","","","","","","","","","","",""
"","1953.9700000023004","sequential-stimulus-presentation","3","32871","0.0-3.0","SS1613138526391","","","40","800","2753.9700000023004","null","null","","","","","","","","","","","","",""
"[{""page_index"":0,""viewing_time"":1266.4300000033109}]","1266.8350000021746","instructions","4","34142","0.0-4.0","SS1613138526391","instructions","","","","","","","","","","","","","","","","","","",""
"","3465.4799999989336","html-keyboard-response","5","37613","0.0-5.0","SS1613138526391","instructions","","98","","","","","<video width ='960' height = '540' autoplay muted><source src='images/stimuli/wall_pref.mp4' type='video/mp4'></video>","2","middle","45%","","","","","","","","",""
"","5561.539999995148","sequential-stimulus-presentation","6","43988","0.0-6.0","SS1613138526391","pref_reveal","","40","800","6361.539999995148","null","null","","","","","","","","","","","","",""
"[{""page_index"":0,""viewing_time"":2309.3150000058813},{""page_index"":1,""viewing_time"":2567.9999999993015},{""page_index"":2,""viewing_time"":1399.7899999958463},{""page_index"":3,""viewing_time"":1024.0900000062538}]","7301.585000008345","instructions","7","51293","0.0-7.0","SS1613138526391","instructions","","","","","","","","","","","","","","","","","","",""
"","null","html-keyboard-response","8","52508","0.0-8.0-0.0","SS1613138526391","","","null","","","","","<p><img src= images/blank.png width =""200"" height = ""200"" style = ""float:right""></p><p><img src=images/blank.png width =""800"" height = ""200""></p>","","","","","","","","","","","",""
"","8926.364999992074","sequential-stimulus-presentation","9","62247","0.0-8.0-1.0","SS1613138526391","trial","","40","800","9726.364999992074","images/stimuli/spore_stims/simple_18_A_a.gif","images/stimuli/spore_stims/simple_05_A_b.gif","","","","","0","simple_dissimilar","images/stimuli/spore_stims/simple_05_A_b.gif","middle","","","","",""
"","null","html-keyboard-response","10","63450","0.0-8.0-0.1","SS1613138526391","","","null","","","","","<p><img src= images/blank.png width =""200"" height = ""200"" style = ""float:right""></p><p><img src=images/blank.png width =""800"" height = ""200""></p>","","","","","","","","","","","",""
"","5038.515000007465","sequential-stimulus-presentation","11","69299","0.0-8.0-1.1","SS1613138526391","trial","","40","800","5838.515000007465","images/stimuli/spore_stims/simple_18_A_a.gif","images/stimuli/spore_stims/simple_05_A_b.gif","","","","","0","simple_dissimilar","images/stimuli/spore_stims/simple_05_A_b.gif","middle","","","","",""
"","null","html-keyboard-response","12","70448","0.0-8.0-0.2","SS1613138526391","","","null","","","","","<p><img src= images/blank.png width =""200"" height = ""200"" style = ""float:right""></p><p><img src=images/blank.png width =""800"" height = ""200""></p>","","","","","","","","","","","",""
"","4364.789999992354","sequential-stimulus-presentation","13","75628","0.0-8.0-1.2","SS1613138526391","trial","","40","800","5164.789999992354","images/stimuli/spore_stims/simple_18_A_a.gif","images/stimuli/spore_stims/simple_05_A_b.gif","","","","","0","simple_dissimilar","images/stimuli/spore_stims/simple_05_A_b.gif","middle","","","","",""
"","null","html-keyboard-response","14","76653","0.0-8.0-0.3","SS1613138526391","","","null","","","","","<p><img src= images/blank.png width =""200"" height = ""200"" style = ""float:right""></p><p><img src=images/blank.png width =""800"" height = ""200""></p>","","","","","","","","","","","",""
"","809.9050000018906","sequential-stimulus-presentation","15","78277","0.0-8.0-1.3","SS1613138526391","trial","","40","800","1609.9050000018906","images/stimuli/spore_stims/simple_18_A_a.gif","images/stimuli/spore_stims/simple_05_A_b.gif","","","","","0","simple_dissimilar","images/stimuli/spore_stims/simple_05_A_b.gif","middle","","","","",""
"","null","html-keyboard-response","16","79116","0.0-8.0-0.4","SS1613138526391","","","null","","","","","<p><img src= images/blank.png width =""200"" height = ""200"" style = ""float:right""></p><p><img src=images/blank.png width =""800"" height = ""200""></p>","","","","","","","","","","","",""
"","2486.9349999935366","sequential-stimulus-presentation","17","82451","0.0-8.0-1.4","SS1613138526391","trial","","40","800","3286.9349999935366","images/stimuli/spore_stims/simple_18_A_a.gif","images/stimuli/spore_stims/simple_05_A_b.gif","","","","","0","simple_dissimilar","images/stimuli/spore_stims/simple_05_A_b.gif","middle","","","","",""
"","null","html-keyboard-response","18","83346","0.0-8.0-0.5","SS1613138526391","","","null","","","","","<p><img src= images/blank.png width =""200"" height = ""200"" style = ""float:right""></p><p><img src=images/blank.png width =""800"" height = ""200""></p>","","","","","","","","","","","",""
"","764.5300000003772","sequential-stimulus-presentation","19","84923","0.0-8.0-1.5","SS1613138526391","trial","","40","800","1564.5300000003772","images/stimuli/spore_stims/simple_18_A_a.gif","images/stimuli/spore_stims/simple_05_A_b.gif","","","","","0","simple_dissimilar","images/stimuli/spore_stims/simple_05_A_b.gif","middle","","","","",""
"","null","html-keyboard-response","20","85858","0.0-8.0-0.6","SS1613138526391","","","null","","","","","<p><img src= images/blank.png width =""200"" height = ""200"" style = ""float:right""></p><p><img src=images/blank.png width =""800"" height = ""200""></p>","","","","","","","","","","","",""
"","2696.3850000029197","sequential-stimulus-presentation","21","89371","0.0-8.0-1.6","SS1613138526391","trial","","40","800","3496.3850000029197","images/stimuli/spore_stims/simple_18_A_a.gif","images/stimuli/spore_stims/simple_05_A_b.gif","","","","","0","simple_dissimilar","images/stimuli/spore_stims/simple_05_A_b.gif","middle","","","","",""
"","null","html-keyboard-response","22","90368","0.0-8.0-0.7","SS1613138526391","","","null","","","","","<p><img src= images/blank.png width =""200"" height = ""200"" style = ""float:right""></p><p><img src=images/blank.png width =""800"" height = ""200""></p>","","","","","","","","","","","",""
"","1189.78000000061","sequential-stimulus-presentation","23","92370","0.0-8.0-1.7","SS1613138526391","trial","","40","800","1989.78000000061","images/stimuli/spore_stims/simple_18_A_a.gif","images/stimuli/spore_stims/simple_05_A_b.gif","","","","","0","simple_dissimilar","images/stimuli/spore_stims/simple_18_A_a.gif","right","","","","",""
"","1921.1300000024494","html-keyboard-response","24","94302","0.0-9.0","SS1613138526391","pref_question","","98","","","","","<video width ='960' height = '540' style='padding-top:8%' autoplay muted><source src='images/stimuli/wall_pref.mp4' type='video/mp4'></video>","2","middle","45%","0","","","","","","","",""
"","848.8250000082189","sequential-stimulus-presentation","25","95966","0.0-10.0","SS1613138526391","pref_reveal","","40","800","1648.825000008219","null","null","","","","","0","","","","background","","","",""
"","null","html-keyboard-response","26","97165","0.0-11.0-0.0","SS1613138526391","","","null","","","","","<p><img src= images/blank.png width =""200"" height = ""200"" style = ""float:right""></p><p><img src=images/blank.png width =""800"" height = ""200""></p>","","","","","","","","","","","",""
"","1022.2700000012992","sequential-stimulus-presentation","27","99003","0.0-11.0-1.0","SS1613138526391","trial","","40","800","1822.2700000012992","images/stimuli/spore_stims/complex_11_B_c.gif","images/stimuli/spore_stims/complex_11_A_c.gif","","","","","1","complex_similar","images/stimuli/spore_stims/complex_11_A_c.gif","middle","","","","",""
"","null","html-keyboard-response","28","100230","0.0-11.0-0.1","SS1613138526391","","","null","","","","","<p><img src= images/blank.png width =""200"" height = ""200"" style = ""float:right""></p><p><img src=images/blank.png width =""800"" height = ""200""></p>","","","","","","","","","","","",""
"","528.0499999935273","sequential-stimulus-presentation","29","101570","0.0-11.0-1.1","SS1613138526391","trial","","40","800","1328.0499999935273","images/stimuli/spore_stims/complex_11_B_c.gif","images/stimuli/spore_stims/complex_11_A_c.gif","","","","","1","complex_similar","images/stimuli/spore_stims/complex_11_A_c.gif","middle","","","","",""
"","null","html-keyboard-response","30","102783","0.0-11.0-0.2","SS1613138526391","","","null","","","","","<p><img src= images/blank.png width =""200"" height = ""200"" style = ""float:right""></p><p><img src=images/blank.png width =""800"" height = ""200""></p>","","","","","","","","","","","",""
"","44.85999999451451","sequential-stimulus-presentation","31","103680","0.0-11.0-1.2","SS1613138526391","trial","","40","800","844.8599999945145","images/stimuli/spore_stims/complex_11_B_c.gif","images/stimuli/spore_stims/complex_11_A_c.gif","","","","","1","complex_similar","images/stimuli/spore_stims/complex_11_A_c.gif","middle","","","","",""
"","null","html-keyboard-response","32","104805","0.0-11.0-0.3","SS1613138526391","","","null","","","","","<p><img src= images/blank.png width =""200"" height = ""200"" style = ""float:right""></p><p><img src=images/blank.png width =""800"" height = ""200""></p>","","","","","","","","","","","",""
"","656.2399999966146","sequential-stimulus-presentation","33","106274","0.0-11.0-1.3","SS1613138526391","trial","","40","800","1456.2399999966146","images/stimuli/spore_stims/complex_11_B_c.gif","images/stimuli/spore_stims/complex_11_A_c.gif","","","","","1","complex_similar","images/stimuli/spore_stims/complex_11_A_c.gif","middle","","","","",""
"","null","html-keyboard-response","34","107574","0.0-11.0-0.4","SS1613138526391","","","null","","","","","<p><img src= images/blank.png width =""200"" height = ""200"" style = ""float:right""></p><p><img src=images/blank.png width =""800"" height = ""200""></p>","","","","","","","","","","","",""
"","175.23000000801403","sequential-stimulus-presentation","35","108562","0.0-11.0-1.4","SS1613138526391","trial","","40","800","975.230000008014","images/stimuli/spore_stims/complex_11_B_c.gif","images/stimuli/spore_stims/complex_11_A_c.gif","","","","","1","complex_similar","images/stimuli/spore_stims/complex_11_A_c.gif","middle","","","","",""
"","null","html-keyboard-response","36","109848","0.0-11.0-0.5","SS1613138526391","","","null","","","","","<p><img src= images/blank.png width =""200"" height = ""200"" style = ""float:right""></p><p><img src=images/blank.png width =""800"" height = ""200""></p>","","","","","","","","","","","",""
"","74.05999999900814","sequential-stimulus-presentation","37","110738","0.0-11.0-1.5","SS1613138526391","trial","","40","800","874.0599999990081","images/stimuli/spore_stims/complex_11_B_c.gif","images/stimuli/spore_stims/complex_11_A_c.gif","","","","","1","complex_similar","images/stimuli/spore_stims/complex_11_B_c.gif","right","","","","",""
"","null","html-keyboard-response","38","111920","0.0-11.0-0.6","SS1613138526391","","","null","","","","","<p><img src= images/blank.png width =""200"" height = ""200"" style = ""float:right""></p><p><img src=images/blank.png width =""800"" height = ""200""></p>","","","","","","","","","","","",""
"","1445.9449999994831","sequential-stimulus-presentation","39","114178","0.0-11.0-1.6","SS1613138526391","trial","","40","800","2245.944999999483","images/stimuli/spore_stims/complex_11_B_c.gif","images/stimuli/spore_stims/complex_11_A_c.gif","","","","","1","complex_similar","images/stimuli/spore_stims/complex_11_A_c.gif","middle","","","","",""
"","null","html-keyboard-response","40","115269","0.0-11.0-0.7","SS1613138526391","","","null","","","","","<p><img src= images/blank.png width =""200"" height = ""200"" style = ""float:right""></p><p><img src=images/blank.png width =""800"" height = ""200""></p>","","","","","","","","","","","",""
"","1271.020000000135","sequential-stimulus-presentation","41","117354","0.0-11.0-1.7","SS1613138526391","trial","","40","800","2071.020000000135","images/stimuli/spore_stims/complex_11_B_c.gif","images/stimuli/spore_stims/complex_11_A_c.gif","","","","","1","complex_similar","images/stimuli/spore_stims/complex_11_A_c.gif","middle","","","","",""
"","1526.030000008177","html-keyboard-response","42","118892","0.0-12.0","SS1613138526391","pref_question","","97","","","","","<video width ='960' height = '540' style='padding-top:8%' autoplay muted><source src='images/stimuli/wall_pref.mp4' type='video/mp4'></video>","1","left","25%","1","","","","","","","",""
"","3298.725000000559","sequential-stimulus-presentation","43","123002","0.0-13.0","SS1613138526391","pref_reveal","","40","800","4098.725000000559","null","null","","","","","1","","","","novel","","","",""
"","null","html-keyboard-response","44","124159","0.0-14.0-0.0","SS1613138526391","","","null","","","","","<p><img src= images/blank.png width =""200"" height = ""200"" style = ""float:right""></p><p><img src=images/blank.png width =""800"" height = ""200""></p>","","","","","","","","","","","",""
"","2988.4600000077626","sequential-stimulus-presentation","45","127970","0.0-14.0-1.0","SS1613138526391","trial","","40","800","3788.4600000077626","images/stimuli/spore_stims/simple_06_A_a.gif","images/stimuli/spore_stims/simple_06_B_a.gif","","","","","2","simple_similar","images/stimuli/spore_stims/simple_06_B_a.gif","right","","","","",""
"","null","html-keyboard-response","46","129005","0.0-14.0-0.1","SS1613138526391","","","null","","","","","<p><img src= images/blank.png width =""200"" height = ""200"" style = ""float:right""></p><p><img src=images/blank.png width =""800"" height = ""200""></p>","","","","","","","","","","","",""
"","1628.2500000088476","sequential-stimulus-presentation","47","131483","0.0-14.0-1.1","SS1613138526391","trial","","40","800","2428.2500000088476","images/stimuli/spore_stims/simple_06_A_a.gif","images/stimuli/spore_stims/simple_06_B_a.gif","","","","","2","simple_similar","images/stimuli/spore_stims/simple_06_B_a.gif","right","","","","",""
"","null","html-keyboard-response","48","132762","0.0-14.0-0.2","SS1613138526391","","","null","","","","","<p><img src= images/blank.png width =""200"" height = ""200"" style = ""float:right""></p><p><img src=images/blank.png width =""800"" height = ""200""></p>","","","","","","","","","","","",""
"","762.975000005099","sequential-stimulus-presentation","49","134339","0.0-14.0-1.2","SS1613138526391","trial","","40","800","1562.975000005099","images/stimuli/spore_stims/simple_06_A_a.gif","images/stimuli/spore_stims/simple_06_B_a.gif","","","","","2","simple_similar","images/stimuli/spore_stims/simple_06_A_a.gif","left","","","","",""
"","null","html-keyboard-response","50","135251","0.0-14.0-0.3","SS1613138526391","","","null","","","","","<p><img src= images/blank.png width =""200"" height = ""200"" style = ""float:right""></p><p><img src=images/blank.png width =""800"" height = ""200""></p>","","","","","","","","","","","",""
"","1042.394999996759","sequential-stimulus-presentation","51","137107","0.0-14.0-1.3","SS1613138526391","trial","","40","800","1842.394999996759","images/stimuli/spore_stims/simple_06_A_a.gif","images/stimuli/spore_stims/simple_06_B_a.gif","","","","","2","simple_similar","images/stimuli/spore_stims/simple_06_B_a.gif","right","","","","",""
"","null","html-keyboard-response","52","138365","0.0-14.0-0.4","SS1613138526391","","","null","","","","","<p><img src= images/blank.png width =""200"" height = ""200"" style = ""float:right""></p><p><img src=images/blank.png width =""800"" height = ""200""></p>","","","","","","","","","","","",""
"","860.5700000043726","sequential-stimulus-presentation","53","140043","0.0-14.0-1.4","SS1613138526391","trial","","40","800","1660.5700000043726","images/stimuli/spore_stims/simple_06_A_a.gif","images/stimuli/spore_stims/simple_06_B_a.gif","","","","","2","simple_similar","images/stimuli/spore_stims/simple_06_B_a.gif","right","","","","",""
"","null","html-keyboard-response","54","140855","0.0-14.0-0.5","SS1613138526391","","","null","","","","","<p><img src= images/blank.png width =""200"" height = ""200"" style = ""float:right""></p><p><img src=images/blank.png width =""800"" height = ""200""></p>","","","","","","","","","","","",""
"","1550.9999999922002","sequential-stimulus-presentation","55","143219","0.0-14.0-1.5","SS1613138526391","trial","","40","800","2350.9999999922","images/stimuli/spore_stims/simple_06_A_a.gif","images/stimuli/spore_stims/simple_06_B_a.gif","","","","","2","simple_similar","images/stimuli/spore_stims/simple_06_B_a.gif","right","","","","",""
"","null","html-keyboard-response","56","144320","0.0-14.0-0.6","SS1613138526391","","","null","","","","","<p><img src= images/blank.png width =""200"" height = ""200"" style = ""float:right""></p><p><img src=images/blank.png width =""800"" height = ""200""></p>","","","","","","","","","","","",""
"","2800.7349999970756","sequential-stimulus-presentation","57","147934","0.0-14.0-1.6","SS1613138526391","trial","","40","800","3600.7349999970756","images/stimuli/spore_stims/simple_06_A_a.gif","images/stimuli/spore_stims/simple_06_B_a.gif","","","","","2","simple_similar","images/stimuli/spore_stims/simple_06_B_a.gif","right","","","","",""
"","null","html-keyboard-response","58","149173","0.0-14.0-0.7","SS1613138526391","","","null","","","","","<p><img src= images/blank.png width =""200"" height = ""200"" style = ""float:right""></p><p><img src=images/blank.png width =""800"" height = ""200""></p>","","","","","","","","","","","",""
"","1019.8850000015227","sequential-stimulus-presentation","59","151011","0.0-14.0-1.7","SS1613138526391","trial","","40","800","1819.8850000015227","images/stimuli/spore_stims/simple_06_A_a.gif","images/stimuli/spore_stims/simple_06_B_a.gif","","","","","2","simple_similar","images/stimuli/spore_stims/simple_06_B_a.gif","right","","","","",""
"","8192.515000002459","html-keyboard-response","60","159215","0.0-15.0","SS1613138526391","pref_question","","98","","","","","<video width ='960' height = '540' style='padding-top:8%' autoplay muted><source src='images/stimuli/wall_pref.mp4' type='video/mp4'></video>","2","middle","45%","2","","","","","","","",""
"","2395.8399999974063","sequential-stimulus-presentation","61","162426","0.0-16.0","SS1613138526391","pref_reveal","","40","800","3195.8399999974063","null","null","","","","","2","","","","novel","","","",""
"","null","html-keyboard-response","62","163252","0.0-17.0-0.0","SS1613138526391","","","null","","","","","<p><img src= images/blank.png width =""200"" height = ""200"" style = ""float:right""></p><p><img src=images/blank.png width =""800"" height = ""200""></p>","","","","","","","","","","","",""
"","3168.344999998226","sequential-stimulus-presentation","63","167234","0.0-17.0-1.0","SS1613138526391","trial","","40","800","3968.344999998226","images/stimuli/spore_stims/simple_13_B_c.gif","images/stimuli/spore_stims/simple_18_B_d.gif","","","","","3","simple_dissimilar","images/stimuli/spore_stims/simple_18_B_d.gif","middle","","","","",""
"","null","html-keyboard-response","64","168185","0.0-17.0-0.1","SS1613138526391","","","null","","","","","<p><img src= images/blank.png width =""200"" height = ""200"" style = ""float:right""></p><p><img src=images/blank.png width =""800"" height = ""200""></p>","","","","","","","","","","","",""
"","5533.87999998813","sequential-stimulus-presentation","65","174538","0.0-17.0-1.1","SS1613138526391","trial","","40","800","6333.87999998813","images/stimuli/spore_stims/simple_13_B_c.gif","images/stimuli/spore_stims/simple_18_B_d.gif","","","","","3","simple_dissimilar","images/stimuli/spore_stims/simple_18_B_d.gif","middle","","","","",""
"","null","html-keyboard-response","66","175482","0.0-17.0-0.2","SS1613138526391","","","null","","","","","<p><img src= images/blank.png width =""200"" height = ""200"" style = ""float:right""></p><p><img src=images/blank.png width =""800"" height = ""200""></p>","","","","","","","","","","","",""
"","954.7050000110175","sequential-stimulus-presentation","67","177250","0.0-17.0-1.2","SS1613138526391","trial","","40","800","1754.7050000110175","images/stimuli/spore_stims/simple_13_B_c.gif","images/stimuli/spore_stims/simple_18_B_d.gif","","","","","3","simple_dissimilar","images/stimuli/spore_stims/simple_18_B_d.gif","middle","","","","",""
"","null","html-keyboard-response","68","178543","0.0-17.0-0.3","SS1613138526391","","","null","","","","","<p><img src= images/blank.png width =""200"" height = ""200"" style = ""float:right""></p><p><img src=images/blank.png width =""800"" height = ""200""></p>","","","","","","","","","","","",""
"","5713.260000004084","sequential-stimulus-presentation","69","185074","0.0-17.0-1.3","SS1613138526391","trial","","40","800","6513.260000004084","images/stimuli/spore_stims/simple_13_B_c.gif","images/stimuli/spore_stims/simple_18_B_d.gif","","","","","3","simple_dissimilar","images/stimuli/spore_stims/simple_18_B_d.gif","middle","","","","",""
"","null","html-keyboard-response","70","185920","0.0-17.0-0.4","SS1613138526391","","","null","","","","","<p><img src= images/blank.png width =""200"" height = ""200"" style = ""float:right""></p><p><img src=images/blank.png width =""800"" height = ""200""></p>","","","","","","","","","","","",""
"","3971.369999999297","sequential-stimulus-presentation","71","190706","0.0-17.0-1.4","SS1613138526391","trial","","40","800","4771.369999999297","images/stimuli/spore_stims/simple_13_B_c.gif","images/stimuli/spore_stims/simple_18_B_d.gif","","","","","3","simple_dissimilar","images/stimuli/spore_stims/simple_13_B_c.gif","left","","","","",""
"","null","html-keyboard-response","72","191963","0.0-17.0-0.5","SS1613138526391","","","null","","","","","<p><img src= images/blank.png width =""200"" height = ""200"" style = ""float:right""></p><p><img src=images/blank.png width =""800"" height = ""200""></p>","","","","","","","","","","","",""
"","2001.8200000049546","sequential-stimulus-presentation","73","194781","0.0-17.0-1.5","SS1613138526391","trial","","40","800","2801.8200000049546","images/stimuli/spore_stims/simple_13_B_c.gif","images/stimuli/spore_stims/simple_18_B_d.gif","","","","","3","simple_dissimilar","images/stimuli/spore_stims/simple_18_B_d.gif","middle","","","","",""
"","null","html-keyboard-response","74","196059","0.0-17.0-0.6","SS1613138526391","","","null","","","","","<p><img src= images/blank.png width =""200"" height = ""200"" style = ""float:right""></p><p><img src=images/blank.png width =""800"" height = ""200""></p>","","","","","","","","","","","",""
"","102.16499998932704","sequential-stimulus-presentation","75","196977","0.0-17.0-1.6","SS1613138526391","trial","","40","800","902.164999989327","images/stimuli/spore_stims/simple_13_B_c.gif","images/stimuli/spore_stims/simple_18_B_d.gif","","","","","3","simple_dissimilar","images/stimuli/spore_stims/simple_18_B_d.gif","middle","","","","",""
"","null","html-keyboard-response","76","198102","0.0-17.0-0.7","SS1613138526391","","","null","","","","","<p><img src= images/blank.png width =""200"" height = ""200"" style = ""float:right""></p><p><img src=images/blank.png width =""800"" height = ""200""></p>","","","","","","","","","","","",""
"","1982.2349999885773","sequential-stimulus-presentation","77","200897","0.0-17.0-1.7","SS1613138526391","trial","","40","800","2782.2349999885773","images/stimuli/spore_stims/simple_13_B_c.gif","images/stimuli/spore_stims/simple_18_B_d.gif","","","","","3","simple_dissimilar","images/stimuli/spore_stims/simple_18_B_d.gif","middle","","","","",""
"","2819.904999996652","html-keyboard-response","78","203731","0.0-18.0","SS1613138526391","pref_question","","97","","","","","<video width ='960' height = '540' style='padding-top:8%' autoplay muted><source src='images/stimuli/wall_pref.mp4' type='video/mp4'></video>","1","left","25%","3","","","","","","","",""
"","214.98999999312218","sequential-stimulus-presentation","79","204762","0.0-19.0","SS1613138526391","pref_reveal","","40","800","1014.9899999931222","null","null","","","","","3","","","","deviant","","","",""
"","null","html-keyboard-response","80","205847","0.0-20.0-0.0","SS1613138526391","","","null","","","","","<p><img src= images/blank.png width =""200"" height = ""200"" style = ""float:right""></p><p><img src=images/blank.png width =""800"" height = ""200""></p>","","","","","","","","","","","",""
"","1347.330000004149","sequential-stimulus-presentation","81","208012","0.0-20.0-1.0","SS1613138526391","trial","","40","800","2147.330000004149","images/stimuli/spore_stims/simple_09_A_d.gif","images/stimuli/spore_stims/simple_20_B_c.gif","","","","","4","simple_dissimilar","images/stimuli/spore_stims/simple_20_B_c.gif","middle","","","","",""
"","null","html-keyboard-response","82","208872","0.0-20.0-0.1","SS1613138526391","","","null","","","","","<p><img src= images/blank.png width =""200"" height = ""200"" style = ""float:right""></p><p><img src=images/blank.png width =""800"" height = ""200""></p>","","","","","","","","","","","",""
"","1340.5349999957252","sequential-stimulus-presentation","83","211027","0.0-20.0-1.1","SS1613138526391","trial","","40","800","2140.5349999957252","images/stimuli/spore_stims/simple_09_A_d.gif","images/stimuli/spore_stims/simple_20_B_c.gif","","","","","4","simple_dissimilar","images/stimuli/spore_stims/simple_20_B_c.gif","middle","","","","",""
"","null","html-keyboard-response","84","211912","0.0-20.0-0.2","SS1613138526391","","","null","","","","","<p><img src= images/blank.png width =""200"" height = ""200"" style = ""float:right""></p><p><img src=images/blank.png width =""800"" height = ""200""></p>","","","","","","","","","","","",""
"","579.7100000054343","sequential-stimulus-presentation","85","213306","0.0-20.0-1.2","SS1613138526391","trial","","40","800","1379.7100000054343","images/stimuli/spore_stims/simple_09_A_d.gif","images/stimuli/spore_stims/simple_20_B_c.gif","","","","","4","simple_dissimilar","images/stimuli/spore_stims/simple_20_B_c.gif","middle","","","","",""
"","null","html-keyboard-response","86","214494","0.0-20.0-0.3","SS1613138526391","","","null","","","","","<p><img src= images/blank.png width =""200"" height = ""200"" style = ""float:right""></p><p><img src=images/blank.png width =""800"" height = ""200""></p>","","","","","","","","","","","",""
"","2409.8349999985658","sequential-stimulus-presentation","87","217723","0.0-20.0-1.3","SS1613138526391","trial","","40","800","3209.8349999985658","images/stimuli/spore_stims/simple_09_A_d.gif","images/stimuli/spore_stims/simple_20_B_c.gif","","","","","4","simple_dissimilar","images/stimuli/spore_stims/simple_20_B_c.gif","middle","","","","",""
"","null","html-keyboard-response","88","218605","0.0-20.0-0.4","SS1613138526391","","","null","","","","","<p><img src= images/blank.png width =""200"" height = ""200"" style = ""float:right""></p><p><img src=images/blank.png width =""800"" height = ""200""></p>","","","","","","","","","","","",""
"","661.7650000116555","sequential-stimulus-presentation","89","220081","0.0-20.0-1.4","SS1613138526391","trial","","40","800","1461.7650000116555","images/stimuli/spore_stims/simple_09_A_d.gif","images/stimuli/spore_stims/simple_20_B_c.gif","","","","","4","simple_dissimilar","images/stimuli/spore_stims/simple_20_B_c.gif","middle","","","","",""
"","null","html-keyboard-response","90","221198","0.0-20.0-0.5","SS1613138526391","","","null","","","","","<p><img src= images/blank.png width =""200"" height = ""200"" style = ""float:right""></p><p><img src=images/blank.png width =""800"" height = ""200""></p>","","","","","","","","","","","",""
"","3087.2899999958463","sequential-stimulus-presentation","91","225105","0.0-20.0-1.5","SS1613138526391","trial","","40","800","3887.2899999958463","images/stimuli/spore_stims/simple_09_A_d.gif","images/stimuli/spore_stims/simple_20_B_c.gif","","","","","4","simple_dissimilar","images/stimuli/spore_stims/simple_20_B_c.gif","middle","","","","",""
"","null","html-keyboard-response","92","226061","0.0-20.0-0.6","SS1613138526391","","","null","","","","","<p><img src= images/blank.png width =""200"" height = ""200"" style = ""float:right""></p><p><img src=images/blank.png width =""800"" height = ""200""></p>","","","","","","","","","","","",""
"","447.43000000016764","sequential-stimulus-presentation","93","227324","0.0-20.0-1.6","SS1613138526391","trial","","40","800","1247.4300000001676","images/stimuli/spore_stims/simple_09_A_d.gif","images/stimuli/spore_stims/simple_20_B_c.gif","","","","","4","simple_dissimilar","images/stimuli/spore_stims/simple_09_A_d.gif","right","","","","",""
"","null","html-keyboard-response","94","228381","0.0-20.0-0.7","SS1613138526391","","","null","","","","","<p><img src= images/blank.png width =""200"" height = ""200"" style = ""float:right""></p><p><img src=images/blank.png width =""800"" height = ""200""></p>","","","","","","","","","","","",""
"","1707.7399999980116","sequential-stimulus-presentation","95","230905","0.0-20.0-1.7","SS1613138526391","trial","","40","800","2507.7399999980116","images/stimuli/spore_stims/simple_09_A_d.gif","images/stimuli/spore_stims/simple_20_B_c.gif","","","","","4","simple_dissimilar","images/stimuli/spore_stims/simple_20_B_c.gif","middle","","","","",""
"","2614.4599999970524","html-keyboard-response","96","233531","0.0-21.0","SS1613138526391","pref_question","","98","","","","","<video width ='960' height = '540' style='padding-top:8%' autoplay muted><source src='images/stimuli/wall_pref.mp4' type='video/mp4'></video>","2","middle","45%","4","","","","","","","",""
"","2943.264999994426","sequential-stimulus-presentation","97","237289","0.0-22.0","SS1613138526391","pref_reveal","","40","800","3743.264999994426","null","null","","","","","4","","","","background","","","",""
"","null","html-keyboard-response","98","238451","0.0-23.0-0.0","SS1613138526391","","","null","","","","","<p><img src= images/blank.png width =""200"" height = ""200"" style = ""float:right""></p><p><img src=images/blank.png width =""800"" height = ""200""></p>","","","","","","","","","","","",""
"","558.9450000115903","sequential-stimulus-presentation","99","239826","0.0-23.0-1.0","SS1613138526391","trial","","40","800","1358.9450000115903","images/stimuli/spore_stims/complex_06_A_c.gif","images/stimuli/spore_stims/complex_04_A_c.gif","","","","","5","complex_dissimilar","images/stimuli/spore_stims/complex_04_A_c.gif","left","","","","",""
"","null","html-keyboard-response","100","240742","0.0-23.0-0.1","SS1613138526391","","","null","","","","","<p><img src= images/blank.png width =""200"" height = ""200"" style = ""float:right""></p><p><img src=images/blank.png width =""800"" height = ""200""></p>","","","","","","","","","","","",""
"","1172.0099999947706","sequential-stimulus-presentation","101","242729","0.0-23.0-1.1","SS1613138526391","trial","","40","800","1972.0099999947706","images/stimuli/spore_stims/complex_06_A_c.gif","images/stimuli/spore_stims/complex_04_A_c.gif","","","","","5","complex_dissimilar","images/stimuli/spore_stims/complex_04_A_c.gif","left","","","","",""
"","null","html-keyboard-response","102","243672","0.0-23.0-0.2","SS1613138526391","","","null","","","","","<p><img src= images/blank.png width =""200"" height = ""200"" style = ""float:right""></p><p><img src=images/blank.png width =""800"" height = ""200""></p>","","","","","","","","","","","",""
"","858.5050000110641","sequential-stimulus-presentation","103","245345","0.0-23.0-1.2","SS1613138526391","trial","","40","800","1658.505000011064","images/stimuli/spore_stims/complex_06_A_c.gif","images/stimuli/spore_stims/complex_04_A_c.gif","","","","","5","complex_dissimilar","images/stimuli/spore_stims/complex_06_A_c.gif","right","","","","",""
"","null","html-keyboard-response","104","246533","0.0-23.0-0.3","SS1613138526391","","","null","","","","","<p><img src= images/blank.png width =""200"" height = ""200"" style = ""float:right""></p><p><img src=images/blank.png width =""800"" height = ""200""></p>","","","","","","","","","","","",""
"","1350.8200000069337","sequential-stimulus-presentation","105","248700","0.0-23.0-1.3","SS1613138526391","trial","","40","800","2150.8200000069337","images/stimuli/spore_stims/complex_06_A_c.gif","images/stimuli/spore_stims/complex_04_A_c.gif","","","","","5","complex_dissimilar","images/stimuli/spore_stims/complex_04_A_c.gif","left","","","","",""
"","null","html-keyboard-response","106","249983","0.0-23.0-0.4","SS1613138526391","","","null","","","","","<p><img src= images/blank.png width =""200"" height = ""200"" style = ""float:right""></p><p><img src=images/blank.png width =""800"" height = ""200""></p>","","","","","","","","","","","",""
"","667.6850000076229","sequential-stimulus-presentation","107","251464","0.0-23.0-1.4","SS1613138526391","trial","","40","800","1467.6850000076229","images/stimuli/spore_stims/complex_06_A_c.gif","images/stimuli/spore_stims/complex_04_A_c.gif","","","","","5","complex_dissimilar","images/stimuli/spore_stims/complex_04_A_c.gif","left","","","","",""
"","null","html-keyboard-response","108","252602","0.0-23.0-0.5","SS1613138526391","","","null","","","","","<p><img src= images/blank.png width =""200"" height = ""200"" style = ""float:right""></p><p><img src=images/blank.png width =""800"" height = ""200""></p>","","","","","","","","","","","",""
"","288.59499999089167","sequential-stimulus-presentation","109","253705","0.0-23.0-1.5","SS1613138526391","trial","","40","800","1088.5949999908917","images/stimuli/spore_stims/complex_06_A_c.gif","images/stimuli/spore_stims/complex_04_A_c.gif","","","","","5","complex_dissimilar","images/stimuli/spore_stims/complex_04_A_c.gif","left","","","","",""
"","null","html-keyboard-response","110","254897","0.0-23.0-0.6","SS1613138526391","","","null","","","","","<p><img src= images/blank.png width =""200"" height = ""200"" style = ""float:right""></p><p><img src=images/blank.png width =""800"" height = ""200""></p>","","","","","","","","","","","",""
"","1319.870000006631","sequential-stimulus-presentation","111","257033","0.0-23.0-1.6","SS1613138526391","trial","","40","800","2119.870000006631","images/stimuli/spore_stims/complex_06_A_c.gif","images/stimuli/spore_stims/complex_04_A_c.gif","","","","","5","complex_dissimilar","images/stimuli/spore_stims/complex_04_A_c.gif","left","","","","",""
"","null","html-keyboard-response","112","258051","0.0-23.0-0.7","SS1613138526391","","","null","","","","","<p><img src= images/blank.png width =""200"" height = ""200"" style = ""float:right""></p><p><img src=images/blank.png width =""800"" height = ""200""></p>","","","","","","","","","","","",""
"","415.580000000773","sequential-stimulus-presentation","113","259281","0.0-23.0-1.7","SS1613138526391","trial","","40","800","1215.580000000773","images/stimuli/spore_stims/complex_06_A_c.gif","images/stimuli/spore_stims/complex_04_A_c.gif","","","","","5","complex_dissimilar","images/stimuli/spore_stims/complex_04_A_c.gif","left","","","","",""
"","1211.939999993774","html-keyboard-response","114","260506","0.0-24.0","SS1613138526391","pref_question","","98","","","","","<video width ='960' height = '540' style='padding-top:8%' autoplay muted><source src='images/stimuli/wall_pref.mp4' type='video/mp4'></video>","2","middle","45%","5","","","","","","","",""
"","1147.675000000163","sequential-stimulus-presentation","115","262473","0.0-25.0","SS1613138526391","pref_reveal","","40","800","1947.675000000163","null","null","","","","","5","","","","novel","","","",""
"","null","html-keyboard-response","116","263436","0.0-26.0-0.0","SS1613138526391","","","null","","","","","<p><img src= images/blank.png width =""200"" height = ""200"" style = ""float:right""></p><p><img src=images/blank.png width =""800"" height = ""200""></p>","","","","","","","","","","","",""
"","4092.7149999915855","sequential-stimulus-presentation","117","268345","0.0-26.0-1.0","SS1613138526391","trial","","40","800","4892.7149999915855","images/stimuli/spore_stims/complex_18_A_b.gif","images/stimuli/spore_stims/complex_18_B_b.gif","","","","","6","complex_similar","images/stimuli/spore_stims/complex_18_B_b.gif","left","","","","",""
"","null","html-keyboard-response","118","269481","0.0-26.0-0.1","SS1613138526391","","","null","","","","","<p><img src= images/blank.png width =""200"" height = ""200"" style = ""float:right""></p><p><img src=images/blank.png width =""800"" height = ""200""></p>","","","","","","","","","","","",""
"","708.4900000045309","sequential-stimulus-presentation","119","271009","0.0-26.0-1.1","SS1613138526391","trial","","40","800","1508.4900000045309","images/stimuli/spore_stims/complex_18_A_b.gif","images/stimuli/spore_stims/complex_18_B_b.gif","","","","","6","complex_similar","images/stimuli/spore_stims/complex_18_B_b.gif","left","","","","",""
"","null","html-keyboard-response","120","271974","0.0-26.0-0.2","SS1613138526391","","","null","","","","","<p><img src= images/blank.png width =""200"" height = ""200"" style = ""float:right""></p><p><img src=images/blank.png width =""800"" height = ""200""></p>","","","","","","","","","","","",""
"","1780.929999993532","sequential-stimulus-presentation","121","274569","0.0-26.0-1.2","SS1613138526391","trial","","40","800","2580.929999993532","images/stimuli/spore_stims/complex_18_A_b.gif","images/stimuli/spore_stims/complex_18_B_b.gif","","","","","6","complex_similar","images/stimuli/spore_stims/complex_18_B_b.gif","left","","","","",""
"","null","html-keyboard-response","122","275520","0.0-26.0-0.3","SS1613138526391","","","null","","","","","<p><img src= images/blank.png width =""200"" height = ""200"" style = ""float:right""></p><p><img src=images/blank.png width =""800"" height = ""200""></p>","","","","","","","","","","","",""
"","1001.1150000063935","sequential-stimulus-presentation","123","277340","0.0-26.0-1.3","SS1613138526391","trial","","40","800","1801.1150000063935","images/stimuli/spore_stims/complex_18_A_b.gif","images/stimuli/spore_stims/complex_18_B_b.gif","","","","","6","complex_similar","images/stimuli/spore_stims/complex_18_A_b.gif","middle","","","","",""
"","null","html-keyboard-response","124","278216","0.0-26.0-0.4","SS1613138526391","","","null","","","","","<p><img src= images/blank.png width =""200"" height = ""200"" style = ""float:right""></p><p><img src=images/blank.png width =""800"" height = ""200""></p>","","","","","","","","","","","",""
"","1081.1499999981606","sequential-stimulus-presentation","125","280113","0.0-26.0-1.4","SS1613138526391","trial","","40","800","1881.1499999981606","images/stimuli/spore_stims/complex_18_A_b.gif","images/stimuli/spore_stims/complex_18_B_b.gif","","","","","6","complex_similar","images/stimuli/spore_stims/complex_18_B_b.gif","left","","","","",""
"","null","html-keyboard-response","126","281037","0.0-26.0-0.5","SS1613138526391","","","null","","","","","<p><img src= images/blank.png width =""200"" height = ""200"" style = ""float:right""></p><p><img src=images/blank.png width =""800"" height = ""200""></p>","","","","","","","","","","","",""
"","764.8250000056578","sequential-stimulus-presentation","127","282617","0.0-26.0-1.5","SS1613138526391","trial","","40","800","1564.8250000056578","images/stimuli/spore_stims/complex_18_A_b.gif","images/stimuli/spore_stims/complex_18_B_b.gif","","","","","6","complex_similar","images/stimuli/spore_stims/complex_18_B_b.gif","left","","","","",""
"","null","html-keyboard-response","128","283617","0.0-26.0-0.6","SS1613138526391","","","null","","","","","<p><img src= images/blank.png width =""200"" height = ""200"" style = ""float:right""></p><p><img src=images/blank.png width =""800"" height = ""200""></p>","","","","","","","","","","","",""
"","1169.2650000040885","sequential-stimulus-presentation","129","285601","0.0-26.0-1.6","SS1613138526391","trial","","40","800","1969.2650000040885","images/stimuli/spore_stims/complex_18_A_b.gif","images/stimuli/spore_stims/complex_18_B_b.gif","","","","","6","complex_similar","images/stimuli/spore_stims/complex_18_B_b.gif","left","","","","",""
"","null","html-keyboard-response","130","286825","0.0-26.0-0.7","SS1613138526391","","","null","","","","","<p><img src= images/blank.png width =""200"" height = ""200"" style = ""float:right""></p><p><img src=images/blank.png width =""800"" height = ""200""></p>","","","","","","","","","","","",""
"","630.4499999969266","sequential-stimulus-presentation","131","288273","0.0-26.0-1.7","SS1613138526391","trial","","40","800","1430.4499999969266","images/stimuli/spore_stims/complex_18_A_b.gif","images/stimuli/spore_stims/complex_18_B_b.gif","","","","","6","complex_similar","images/stimuli/spore_stims/complex_18_B_b.gif","left","","","","",""
"","732.0349999936298","html-keyboard-response","132","289018","0.0-27.0","SS1613138526391","pref_question","","98","","","","","<video width ='960' height = '540' style='padding-top:8%' autoplay muted><source src='images/stimuli/wall_pref.mp4' type='video/mp4'></video>","2","middle","45%","6","","","","","","","",""
"","2476.0499999974854","sequential-stimulus-presentation","133","292313","0.0-28.0","SS1613138526391","pref_reveal","","40","800","3276.0499999974854","null","null","","","","","6","","","","deviant","","","",""
"","null","html-keyboard-response","134","293571","0.0-29.0-0.0","SS1613138526391","","","null","","","","","<p><img src= images/blank.png width =""200"" height = ""200"" style = ""float:right""></p><p><img src=images/blank.png width =""800"" height = ""200""></p>","","","","","","","","","","","",""
"","3007.339999996475","sequential-stimulus-presentation","135","297393","0.0-29.0-1.0","SS1613138526391","trial","","40","800","3807.339999996475","images/stimuli/spore_stims/complex_14_A_a.gif","images/stimuli/spore_stims/complex_05_A_b.gif","","","","","7","complex_dissimilar","images/stimuli/spore_stims/complex_05_A_b.gif","left","","","","",""
"","null","html-keyboard-response","136","298591","0.0-29.0-0.1","SS1613138526391","","","null","","","","","<p><img src= images/blank.png width =""200"" height = ""200"" style = ""float:right""></p><p><img src=images/blank.png width =""800"" height = ""200""></p>","","","","","","","","","","","",""
"","721.2450000079116","sequential-stimulus-presentation","137","300128","0.0-29.0-1.1","SS1613138526391","trial","","40","800","1521.2450000079116","images/stimuli/spore_stims/complex_14_A_a.gif","images/stimuli/spore_stims/complex_05_A_b.gif","","","","","7","complex_dissimilar","images/stimuli/spore_stims/complex_05_A_b.gif","left","","","","",""
"","null","html-keyboard-response","138","300983","0.0-29.0-0.2","SS1613138526391","","","null","","","","","<p><img src= images/blank.png width =""200"" height = ""200"" style = ""float:right""></p><p><img src=images/blank.png width =""800"" height = ""200""></p>","","","","","","","","","","","",""
"","874.920000002021","sequential-stimulus-presentation","139","302676","0.0-29.0-1.2","SS1613138526391","trial","","40","800","1674.920000002021","images/stimuli/spore_stims/complex_14_A_a.gif","images/stimuli/spore_stims/complex_05_A_b.gif","","","","","7","complex_dissimilar","images/stimuli/spore_stims/complex_05_A_b.gif","left","","","","",""
"","null","html-keyboard-response","140","303581","0.0-29.0-0.3","SS1613138526391","","","null","","","","","<p><img src= images/blank.png width =""200"" height = ""200"" style = ""float:right""></p><p><img src=images/blank.png width =""800"" height = ""200""></p>","","","","","","","","","","","",""
"","946.6350000002421","sequential-stimulus-presentation","141","305345","0.0-29.0-1.3","SS1613138526391","trial","","40","800","1746.6350000002421","images/stimuli/spore_stims/complex_14_A_a.gif","images/stimuli/spore_stims/complex_05_A_b.gif","","","","","7","complex_dissimilar","images/stimuli/spore_stims/complex_05_A_b.gif","left","","","","",""
"","null","html-keyboard-response","142","306656","0.0-29.0-0.4","SS1613138526391","","","null","","","","","<p><img src= images/blank.png width =""200"" height = ""200"" style = ""float:right""></p><p><img src=images/blank.png width =""800"" height = ""200""></p>","","","","","","","","","","","",""
"","6472.584999995888","sequential-stimulus-presentation","143","313945","0.0-29.0-1.4","SS1613138526391","trial","","40","800","7272.584999995888","images/stimuli/spore_stims/complex_14_A_a.gif","images/stimuli/spore_stims/complex_05_A_b.gif","","","","","7","complex_dissimilar","images/stimuli/spore_stims/complex_05_A_b.gif","left","","","","",""
"","null","html-keyboard-response","144","315166","0.0-29.0-0.5","SS1613138526391","","","null","","","","","<p><img src= images/blank.png width =""200"" height = ""200"" style = ""float:right""></p><p><img src=images/blank.png width =""800"" height = ""200""></p>","","","","","","","","","","","",""
"","1122.285000004922","sequential-stimulus-presentation","145","317105","0.0-29.0-1.5","SS1613138526391","trial","","40","800","1922.285000004922","images/stimuli/spore_stims/complex_14_A_a.gif","images/stimuli/spore_stims/complex_05_A_b.gif","","","","","7","complex_dissimilar","images/stimuli/spore_stims/complex_05_A_b.gif","left","","","","",""
"","null","html-keyboard-response","146","318016","0.0-29.0-0.6","SS1613138526391","","","null","","","","","<p><img src= images/blank.png width =""200"" height = ""200"" style = ""float:right""></p><p><img src=images/blank.png width =""800"" height = ""200""></p>","","","","","","","","","","","",""
"","1618.2000000117114","sequential-stimulus-presentation","147","320449","0.0-29.0-1.6","SS1613138526391","trial","","40","800","2418.2000000117114","images/stimuli/spore_stims/complex_14_A_a.gif","images/stimuli/spore_stims/complex_05_A_b.gif","","","","","7","complex_dissimilar","images/stimuli/spore_stims/complex_05_A_b.gif","left","","","","",""
"","null","html-keyboard-response","148","321303","0.0-29.0-0.7","SS1613138526391","","","null","","","","","<p><img src= images/blank.png width =""200"" height = ""200"" style = ""float:right""></p><p><img src=images/blank.png width =""800"" height = ""200""></p>","","","","","","","","","","","",""
"","768.8650000054622","sequential-stimulus-presentation","149","322889","0.0-29.0-1.7","SS1613138526391","trial","","40","800","1568.8650000054622","images/stimuli/spore_stims/complex_14_A_a.gif","images/stimuli/spore_stims/complex_05_A_b.gif","","","","","7","complex_dissimilar","images/stimuli/spore_stims/complex_14_A_a.gif","right","","","","",""
"","1380.5049999937182","html-keyboard-response","150","324284","0.0-30.0","SS1613138526391","pref_question","","98","","","","","<video width ='960' height = '540' style='padding-top:8%' autoplay muted><source src='images/stimuli/wall_pref.mp4' type='video/mp4'></video>","2","middle","45%","7","","","","","","","",""
"","4419.645000001765","sequential-stimulus-presentation","151","329569","0.0-31.0","SS1613138526391","pref_reveal","","40","800","5219.645000001765","null","null","","","","","7","","","","novel","","","",""
"","null","html-keyboard-response","152","330792","0.0-32.0-0.0","SS1613138526391","","","null","","","","","<p><img src= images/blank.png width =""200"" height = ""200"" style = ""float:right""></p><p><img src=images/blank.png width =""800"" height = ""200""></p>","","","","","","","","","","","",""
"","12681.284999998752","sequential-stimulus-presentation","153","344289","0.0-32.0-1.0","SS1613138526391","trial","","40","800","13481.284999998752","images/stimuli/spore_stims/simple_16_B_c.gif","images/stimuli/spore_stims/simple_16_A_c.gif","","","","","8","simple_similar","images/stimuli/spore_stims/simple_16_A_c.gif","middle","","","","",""
"","null","html-keyboard-response","154","345418","0.0-32.0-0.1","SS1613138526391","","","null","","","","","<p><img src= images/blank.png width =""200"" height = ""200"" style = ""float:right""></p><p><img src=images/blank.png width =""800"" height = ""200""></p>","","","","","","","","","","","",""
"","532.2799999994459","sequential-stimulus-presentation","155","346769","0.0-32.0-1.1","SS1613138526391","trial","","40","800","1332.2799999994459","images/stimuli/spore_stims/simple_16_B_c.gif","images/stimuli/spore_stims/simple_16_A_c.gif","","","","","8","simple_similar","images/stimuli/spore_stims/simple_16_A_c.gif","middle","","","","",""
"","null","html-keyboard-response","156","347672","0.0-32.0-0.2","SS1613138526391","","","null","","","","","<p><img src= images/blank.png width =""200"" height = ""200"" style = ""float:right""></p><p><img src=images/blank.png width =""800"" height = ""200""></p>","","","","","","","","","","","",""
"","2503.7649999867426","sequential-stimulus-presentation","157","350993","0.0-32.0-1.2","SS1613138526391","trial","","40","800","3303.7649999867426","images/stimuli/spore_stims/simple_16_B_c.gif","images/stimuli/spore_stims/simple_16_A_c.gif","","","","","8","simple_similar","images/stimuli/spore_stims/simple_16_B_c.gif","right","","","","",""
"","null","html-keyboard-response","158","352258","0.0-32.0-0.3","SS1613138526391","","","null","","","","","<p><img src= images/blank.png width =""200"" height = ""200"" style = ""float:right""></p><p><img src=images/blank.png width =""800"" height = ""200""></p>","","","","","","","","","","","",""
"","589.5549999986542","sequential-stimulus-presentation","159","353664","0.0-32.0-1.3","SS1613138526391","trial","","40","800","1389.5549999986542","images/stimuli/spore_stims/simple_16_B_c.gif","images/stimuli/spore_stims/simple_16_A_c.gif","","","","","8","simple_similar","images/stimuli/spore_stims/simple_16_A_c.gif","middle","","","","",""
"","null","html-keyboard-response","160","354775","0.0-32.0-0.4","SS1613138526391","","","null","","","","","<p><img src= images/blank.png width =""200"" height = ""200"" style = ""float:right""></p><p><img src=images/blank.png width =""800"" height = ""200""></p>","","","","","","","","","","","",""
"","1206.0849999979837","sequential-stimulus-presentation","161","356798","0.0-32.0-1.4","SS1613138526391","trial","","40","800","2006.0849999979837","images/stimuli/spore_stims/simple_16_B_c.gif","images/stimuli/spore_stims/simple_16_A_c.gif","","","","","8","simple_similar","images/stimuli/spore_stims/simple_16_A_c.gif","middle","","","","",""
"","null","html-keyboard-response","162","357899","0.0-32.0-0.5","SS1613138526391","","","null","","","","","<p><img src= images/blank.png width =""200"" height = ""200"" style = ""float:right""></p><p><img src=images/blank.png width =""800"" height = ""200""></p>","","","","","","","","","","","",""
"","398.3399999997346","sequential-stimulus-presentation","163","359113","0.0-32.0-1.5","SS1613138526391","trial","","40","800","1198.3399999997346","images/stimuli/spore_stims/simple_16_B_c.gif","images/stimuli/spore_stims/simple_16_A_c.gif","","","","","8","simple_similar","images/stimuli/spore_stims/simple_16_A_c.gif","middle","","","","",""
"","null","html-keyboard-response","164","360299","0.0-32.0-0.6","SS1613138526391","","","null","","","","","<p><img src= images/blank.png width =""200"" height = ""200"" style = ""float:right""></p><p><img src=images/blank.png width =""800"" height = ""200""></p>","","","","","","","","","","","",""
"","1565.7199999986915","sequential-stimulus-presentation","165","362681","0.0-32.0-1.6","SS1613138526391","trial","","40","800","2365.7199999986915","images/stimuli/spore_stims/simple_16_B_c.gif","images/stimuli/spore_stims/simple_16_A_c.gif","","","","","8","simple_similar","images/stimuli/spore_stims/simple_16_A_c.gif","middle","","","","",""
"","null","html-keyboard-response","166","363725","0.0-32.0-0.7","SS1613138526391","","","null","","","","","<p><img src= images/blank.png width =""200"" height = ""200"" style = ""float:right""></p><p><img src=images/blank.png width =""800"" height = ""200""></p>","","","","","","","","","","","",""
"","3427.654999992228","sequential-stimulus-presentation","167","367969","0.0-32.0-1.7","SS1613138526391","trial","","40","800","4227.654999992228","images/stimuli/spore_stims/simple_16_B_c.gif","images/stimuli/spore_stims/simple_16_A_c.gif","","","","","8","simple_similar","images/stimuli/spore_stims/simple_16_A_c.gif","middle","","","","",""
"","877.3800000053598","html-keyboard-response","168","368865","0.0-33.0","SS1613138526391","pref_question","","98","","","","","<video width ='960' height = '540' style='padding-top:8%' autoplay muted><source src='images/stimuli/wall_pref.mp4' type='video/mp4'></video>","2","middle","45%","8","","","","","","","",""
"","4.075000004377216","sequential-stimulus-presentation","169","369682","0.0-34.0","SS1613138526391","pref_reveal","","40","800","804.0750000043772","null","null","","","","","8","","","","background","","","",""
"","null","html-keyboard-response","170","370499","0.0-35.0-0.0","SS1613138526391","","","null","","","","","<p><img src= images/blank.png width =""200"" height = ""200"" style = ""float:right""></p><p><img src=images/blank.png width =""800"" height = ""200""></p>","","","","","","","","","","","",""
"","852.0850000058999","sequential-stimulus-presentation","171","372168","0.0-35.0-1.0","SS1613138526391","trial","","40","800","1652.0850000059","images/stimuli/spore_stims/simple_04_A_a.gif","images/stimuli/spore_stims/simple_04_B_a.gif","","","","","9","simple_similar","images/stimuli/spore_stims/simple_04_B_a.gif","right","","","","",""
"","null","html-keyboard-response","172","373110","0.0-35.0-0.1","SS1613138526391","","","null","","","","","<p><img src= images/blank.png width =""200"" height = ""200"" style = ""float:right""></p><p><img src=images/blank.png width =""800"" height = ""200""></p>","","","","","","","","","","","",""
"","395.85499999520835","sequential-stimulus-presentation","173","374321","0.0-35.0-1.1","SS1613138526391","trial","","40","800","1195.8549999952083","images/stimuli/spore_stims/simple_04_A_a.gif","images/stimuli/spore_stims/simple_04_B_a.gif","","","","","9","simple_similar","images/stimuli/spore_stims/simple_04_B_a.gif","right","","","","",""
"","null","html-keyboard-response","174","375540","0.0-35.0-0.2","SS1613138526391","","","null","","","","","<p><img src= images/blank.png width =""200"" height = ""200"" style = ""float:right""></p><p><img src=images/blank.png width =""800"" height = ""200""></p>","","","","","","","","","","","",""
"","1076.6049999947427","sequential-stimulus-presentation","175","377433","0.0-35.0-1.2","SS1613138526391","trial","","40","800","1876.6049999947427","images/stimuli/spore_stims/simple_04_A_a.gif","images/stimuli/spore_stims/simple_04_B_a.gif","","","","","9","simple_similar","images/stimuli/spore_stims/simple_04_A_a.gif","left","","","","",""
"","null","html-keyboard-response","176","378605","0.0-35.0-0.3","SS1613138526391","","","null","","","","","<p><img src= images/blank.png width =""200"" height = ""200"" style = ""float:right""></p><p><img src=images/blank.png width =""800"" height = ""200""></p>","","","","","","","","","","","",""
"","397.9350000008708","sequential-stimulus-presentation","177","379824","0.0-35.0-1.3","SS1613138526391","trial","","40","800","1197.9350000008708","images/stimuli/spore_stims/simple_04_A_a.gif","images/stimuli/spore_stims/simple_04_B_a.gif","","","","","9","simple_similar","images/stimuli/spore_stims/simple_04_B_a.gif","right","","","","",""
"","null","html-keyboard-response","178","381005","0.0-35.0-0.4","SS1613138526391","","","null","","","","","<p><img src= images/blank.png width =""200"" height = ""200"" style = ""float:right""></p><p><img src=images/blank.png width =""800"" height = ""200""></p>","","","","","","","","","","","",""
"","603.6249999888241","sequential-stimulus-presentation","179","382427","0.0-35.0-1.4","SS1613138526391","trial","","40","800","1403.6249999888241","images/stimuli/spore_stims/simple_04_A_a.gif","images/stimuli/spore_stims/simple_04_B_a.gif","","","","","9","simple_similar","images/stimuli/spore_stims/simple_04_B_a.gif","right","","","","",""
"","null","html-keyboard-response","180","383296","0.0-35.0-0.5","SS1613138526391","","","null","","","","","<p><img src= images/blank.png width =""200"" height = ""200"" style = ""float:right""></p><p><img src=images/blank.png width =""800"" height = ""200""></p>","","","","","","","","","","","",""
"","1074.3950000032783","sequential-stimulus-presentation","181","385185","0.0-35.0-1.5","SS1613138526391","trial","","40","800","1874.3950000032783","images/stimuli/spore_stims/simple_04_A_a.gif","images/stimuli/spore_stims/simple_04_B_a.gif","","","","","9","simple_similar","images/stimuli/spore_stims/simple_04_B_a.gif","right","","","","",""
"","null","html-keyboard-response","182","386122","0.0-35.0-0.6","SS1613138526391","","","null","","","","","<p><img src= images/blank.png width =""200"" height = ""200"" style = ""float:right""></p><p><img src=images/blank.png width =""800"" height = ""200""></p>","","","","","","","","","","","",""
"","2429.1250000096625","sequential-stimulus-presentation","183","389368","0.0-35.0-1.6","SS1613138526391","trial","","40","800","3229.1250000096625","images/stimuli/spore_stims/simple_04_A_a.gif","images/stimuli/spore_stims/simple_04_B_a.gif","","","","","9","simple_similar","images/stimuli/spore_stims/simple_04_B_a.gif","right","","","","",""
"","null","html-keyboard-response","184","390272","0.0-35.0-0.7","SS1613138526391","","","null","","","","","<p><img src= images/blank.png width =""200"" height = ""200"" style = ""float:right""></p><p><img src=images/blank.png width =""800"" height = ""200""></p>","","","","","","","","","","","",""
"","1062.644999998156","sequential-stimulus-presentation","185","392152","0.0-35.0-1.7","SS1613138526391","trial","","40","800","1862.644999998156","images/stimuli/spore_stims/simple_04_A_a.gif","images/stimuli/spore_stims/simple_04_B_a.gif","","","","","9","simple_similar","images/stimuli/spore_stims/simple_04_B_a.gif","right","","","","",""
"","4365.160000001197","html-keyboard-response","186","396539","0.0-36.0","SS1613138526391","pref_question","","98","","","","","<video width ='960' height = '540' style='padding-top:8%' autoplay muted><source src='images/stimuli/wall_pref.mp4' type='video/mp4'></video>","2","middle","45%","9","","","","","","","",""
"","1143.1850000080885","sequential-stimulus-presentation","187","398504","0.0-37.0","SS1613138526391","pref_reveal","","40","800","1943.1850000080885","null","null","","","","","9","","","","novel","","","",""
"","null","html-keyboard-response","188","399551","0.0-38.0-0.0","SS1613138526391","","","null","","","","","<p><img src= images/blank.png width =""200"" height = ""200"" style = ""float:right""></p><p><img src=images/blank.png width =""800"" height = ""200""></p>","","","","","","","","","","","",""
"","1153.7150000076508","sequential-stimulus-presentation","189","401520","0.0-38.0-1.0","SS1613138526391","trial","","40","800","1953.7150000076508","images/stimuli/spore_stims/simple_14_B_d.gif","images/stimuli/spore_stims/simple_08_A_d.gif","","","","","10","simple_dissimilar","images/stimuli/spore_stims/simple_08_A_d.gif","right","","","","",""
"","null","html-keyboard-response","190","402600","0.0-38.0-0.1","SS1613138526391","","","null","","","","","<p><img src= images/blank.png width =""200"" height = ""200"" style = ""float:right""></p><p><img src=images/blank.png width =""800"" height = ""200""></p>","","","","","","","","","","","",""
"","999.2050000000745","sequential-stimulus-presentation","191","404416","0.0-38.0-1.1","SS1613138526391","trial","","40","800","1799.2050000000745","images/stimuli/spore_stims/simple_14_B_d.gif","images/stimuli/spore_stims/simple_08_A_d.gif","","","","","10","simple_dissimilar","images/stimuli/spore_stims/simple_08_A_d.gif","right","","","","",""
"","null","html-keyboard-response","192","405312","0.0-38.0-0.2","SS1613138526391","","","null","","","","","<p><img src= images/blank.png width =""200"" height = ""200"" style = ""float:right""></p><p><img src=images/blank.png width =""800"" height = ""200""></p>","","","","","","","","","","","",""
"","1057.314999998198","sequential-stimulus-presentation","193","407184","0.0-38.0-1.2","SS1613138526391","trial","","40","800","1857.314999998198","images/stimuli/spore_stims/simple_14_B_d.gif","images/stimuli/spore_stims/simple_08_A_d.gif","","","","","10","simple_dissimilar","images/stimuli/spore_stims/simple_08_A_d.gif","right","","","","",""
"","null","html-keyboard-response","194","408529","0.0-38.0-0.3","SS1613138526391","","","null","","","","","<p><img src= images/blank.png width =""200"" height = ""200"" style = ""float:right""></p><p><img src=images/blank.png width =""800"" height = ""200""></p>","","","","","","","","","","","",""
"","899.8250000004191","sequential-stimulus-presentation","195","410248","0.0-38.0-1.3","SS1613138526391","trial","","40","800","1699.825000000419","images/stimuli/spore_stims/simple_14_B_d.gif","images/stimuli/spore_stims/simple_08_A_d.gif","","","","","10","simple_dissimilar","images/stimuli/spore_stims/simple_08_A_d.gif","right","","","","",""
"","null","html-keyboard-response","196","411379","0.0-38.0-0.4","SS1613138526391","","","null","","","","","<p><img src= images/blank.png width =""200"" height = ""200"" style = ""float:right""></p><p><img src=images/blank.png width =""800"" height = ""200""></p>","","","","","","","","","","","",""
"","981.4999999944121","sequential-stimulus-presentation","197","413176","0.0-38.0-1.4","SS1613138526391","trial","","40","800","1781.499999994412","images/stimuli/spore_stims/simple_14_B_d.gif","images/stimuli/spore_stims/simple_08_A_d.gif","","","","","10","simple_dissimilar","images/stimuli/spore_stims/simple_08_A_d.gif","right","","","","",""
"","null","html-keyboard-response","198","414132","0.0-38.0-0.5","SS1613138526391","","","null","","","","","<p><img src= images/blank.png width =""200"" height = ""200"" style = ""float:right""></p><p><img src=images/blank.png width =""800"" height = ""200""></p>","","","","","","","","","","","",""
"","1009.8300000099698","sequential-stimulus-presentation","199","415960","0.0-38.0-1.5","SS1613138526391","trial","","40","800","1809.8300000099698","images/stimuli/spore_stims/simple_14_B_d.gif","images/stimuli/spore_stims/simple_08_A_d.gif","","","","","10","simple_dissimilar","images/stimuli/spore_stims/simple_08_A_d.gif","right","","","","",""
"","null","html-keyboard-response","200","417127","0.0-38.0-0.6","SS1613138526391","","","null","","","","","<p><img src= images/blank.png width =""200"" height = ""200"" style = ""float:right""></p><p><img src=images/blank.png width =""800"" height = ""200""></p>","","","","","","","","","","","",""
"","518.5500000079628","sequential-stimulus-presentation","201","418465","0.0-38.0-1.6","SS1613138526391","trial","","40","800","1318.5500000079628","images/stimuli/spore_stims/simple_14_B_d.gif","images/stimuli/spore_stims/simple_08_A_d.gif","","","","","10","simple_dissimilar","images/stimuli/spore_stims/simple_08_A_d.gif","right","","","","",""
"","null","html-keyboard-response","202","419632","0.0-38.0-0.7","SS1613138526391","","","null","","","","","<p><img src= images/blank.png width =""200"" height = ""200"" style = ""float:right""></p><p><img src=images/blank.png width =""800"" height = ""200""></p>","","","","","","","","","","","",""
"","446.1699999956181","sequential-stimulus-presentation","203","420896","0.0-38.0-1.7","SS1613138526391","trial","","40","800","1246.1699999956181","images/stimuli/spore_stims/simple_14_B_d.gif","images/stimuli/spore_stims/simple_08_A_d.gif","","","","","10","simple_dissimilar","images/stimuli/spore_stims/simple_14_B_d.gif","middle","","","","",""
"","1254.1700000001583","html-keyboard-response","204","422171","0.0-39.0","SS1613138526391","pref_question","","98","","","","","<video width ='960' height = '540' style='padding-top:8%' autoplay muted><source src='images/stimuli/wall_pref.mp4' type='video/mp4'></video>","2","middle","45%","10","","","","","","","",""
"","65.8300000068266","sequential-stimulus-presentation","205","423064","0.0-40.0","SS1613138526391","pref_reveal","","40","800","865.8300000068266","null","null","","","","","10","","","","deviant","","","",""
"","null","html-keyboard-response","206","424038","0.0-41.0-0.0","SS1613138526391","","","null","","","","","<p><img src= images/blank.png width =""200"" height = ""200"" style = ""float:right""></p><p><img src=images/blank.png width =""800"" height = ""200""></p>","","","","","","","","","","","",""
"","487.86500000278465","sequential-stimulus-presentation","207","425344","0.0-41.0-1.0","SS1613138526391","trial","","40","800","1287.8650000027847","images/stimuli/spore_stims/simple_17_B_c.gif","images/stimuli/spore_stims/simple_17_A_c.gif","","","","","11","simple_similar","images/stimuli/spore_stims/simple_17_A_c.gif","left","","","","",""
"","null","html-keyboard-response","208","426422","0.0-41.0-0.1","SS1613138526391","","","null","","","","","<p><img src= images/blank.png width =""200"" height = ""200"" style = ""float:right""></p><p><img src=images/blank.png width =""800"" height = ""200""></p>","","","","","","","","","","","",""
"","432.264999995823","sequential-stimulus-presentation","209","427672","0.0-41.0-1.1","SS1613138526391","trial","","40","800","1232.264999995823","images/stimuli/spore_stims/simple_17_B_c.gif","images/stimuli/spore_stims/simple_17_A_c.gif","","","","","11","simple_similar","images/stimuli/spore_stims/simple_17_A_c.gif","left","","","","",""
"","null","html-keyboard-response","210","428727","0.0-41.0-0.2","SS1613138526391","","","null","","","","","<p><img src= images/blank.png width =""200"" height = ""200"" style = ""float:right""></p><p><img src=images/blank.png width =""800"" height = ""200""></p>","","","","","","","","","","","",""
"","479.60500000044703","sequential-stimulus-presentation","211","430024","0.0-41.0-1.2","SS1613138526391","trial","","40","800","1279.605000000447","images/stimuli/spore_stims/simple_17_B_c.gif","images/stimuli/spore_stims/simple_17_A_c.gif","","","","","11","simple_similar","images/stimuli/spore_stims/simple_17_A_c.gif","left","","","","",""
"","null","html-keyboard-response","212","431287","0.0-41.0-0.3","SS1613138526391","","","null","","","","","<p><img src= images/blank.png width =""200"" height = ""200"" style = ""float:right""></p><p><img src=images/blank.png width =""800"" height = ""200""></p>","","","","","","","","","","","",""
"","685.3949999931501","sequential-stimulus-presentation","213","432792","0.0-41.0-1.3","SS1613138526391","trial","","40","800","1485.3949999931501","images/stimuli/spore_stims/simple_17_B_c.gif","images/stimuli/spore_stims/simple_17_A_c.gif","","","","","11","simple_similar","images/stimuli/spore_stims/simple_17_A_c.gif","left","","","","",""
"","null","html-keyboard-response","214","433816","0.0-41.0-0.4","SS1613138526391","","","null","","","","","<p><img src= images/blank.png width =""200"" height = ""200"" style = ""float:right""></p><p><img src=images/blank.png width =""800"" height = ""200""></p>","","","","","","","","","","","",""
"","636.3649999984773","sequential-stimulus-presentation","215","435272","0.0-41.0-1.4","SS1613138526391","trial","","40","800","1436.3649999984773","images/stimuli/spore_stims/simple_17_B_c.gif","images/stimuli/spore_stims/simple_17_A_c.gif","","","","","11","simple_similar","images/stimuli/spore_stims/simple_17_A_c.gif","left","","","","",""
"","null","html-keyboard-response","216","436496","0.0-41.0-0.5","SS1613138526391","","","null","","","","","<p><img src= images/blank.png width =""200"" height = ""200"" style = ""float:right""></p><p><img src=images/blank.png width =""800"" height = ""200""></p>","","","","","","","","","","","",""
"","596.9999999942956","sequential-stimulus-presentation","217","437912","0.0-41.0-1.5","SS1613138526391","trial","","40","800","1396.9999999942956","images/stimuli/spore_stims/simple_17_B_c.gif","images/stimuli/spore_stims/simple_17_A_c.gif","","","","","11","simple_similar","images/stimuli/spore_stims/simple_17_A_c.gif","left","","","","",""
"","null","html-keyboard-response","218","439109","0.0-41.0-0.6","SS1613138526391","","","null","","","","","<p><img src= images/blank.png width =""200"" height = ""200"" style = ""float:right""></p><p><img src=images/blank.png width =""800"" height = ""200""></p>","","","","","","","","","","","",""
"","697.8549999912502","sequential-stimulus-presentation","219","440624","0.0-41.0-1.6","SS1613138526391","trial","","40","800","1497.8549999912502","images/stimuli/spore_stims/simple_17_B_c.gif","images/stimuli/spore_stims/simple_17_A_c.gif","","","","","11","simple_similar","images/stimuli/spore_stims/simple_17_B_c.gif","middle","","","","",""
"","null","html-keyboard-response","220","441779","0.0-41.0-0.7","SS1613138526391","","","null","","","","","<p><img src= images/blank.png width =""200"" height = ""200"" style = ""float:right""></p><p><img src=images/blank.png width =""800"" height = ""200""></p>","","","","","","","","","","","",""
"","418.04999999294523","sequential-stimulus-presentation","221","443016","0.0-41.0-1.7","SS1613138526391","trial","","40","800","1218.0499999929452","images/stimuli/spore_stims/simple_17_B_c.gif","images/stimuli/spore_stims/simple_17_A_c.gif","","","","","11","simple_similar","images/stimuli/spore_stims/simple_17_A_c.gif","left","","","","",""
"","1010.1199999917299","html-keyboard-response","222","444041","0.0-42.0","SS1613138526391","pref_question","","98","","","","","<video width ='960' height = '540' style='padding-top:8%' autoplay muted><source src='images/stimuli/wall_pref.mp4' type='video/mp4'></video>","2","middle","45%","11","","","","","","","",""
"","3754.9849999923026","sequential-stimulus-presentation","223","448616","0.0-43.0","SS1613138526391","pref_reveal","","40","800","4554.984999992303","null","null","","","","","11","","","","deviant","","","",""
"","null","html-keyboard-response","224","449869","0.0-44.0-0.0","SS1613138526391","","","null","","","","","<p><img src= images/blank.png width =""200"" height = ""200"" style = ""float:right""></p><p><img src=images/blank.png width =""800"" height = ""200""></p>","","","","","","","","","","","",""
"","740.7850000017788","sequential-stimulus-presentation","225","451431","0.0-44.0-1.0","SS1613138526391","trial","","40","800","1540.7850000017788","images/stimuli/spore_stims/complex_20_A_b.gif","images/stimuli/spore_stims/complex_20_B_b.gif","","","","","12","complex_similar","images/stimuli/spore_stims/complex_20_B_b.gif","left","","","","",""
"","null","html-keyboard-response","226","452473","0.0-44.0-0.1","SS1613138526391","","","null","","","","","<p><img src= images/blank.png width =""200"" height = ""200"" style = ""float:right""></p><p><img src=images/blank.png width =""800"" height = ""200""></p>","","","","","","","","","","","",""
"","521.744999990915","sequential-stimulus-presentation","227","453816","0.0-44.0-1.1","SS1613138526391","trial","","40","800","1321.744999990915","images/stimuli/spore_stims/complex_20_A_b.gif","images/stimuli/spore_stims/complex_20_B_b.gif","","","","","12","complex_similar","images/stimuli/spore_stims/complex_20_B_b.gif","left","","","","",""
"","null","html-keyboard-response","228","455074","0.0-44.0-0.2","SS1613138526391","","","null","","","","","<p><img src= images/blank.png width =""200"" height = ""200"" style = ""float:right""></p><p><img src=images/blank.png width =""800"" height = ""200""></p>","","","","","","","","","","","",""
"","554.8600000038277","sequential-stimulus-presentation","229","456448","0.0-44.0-1.2","SS1613138526391","trial","","40","800","1354.8600000038277","images/stimuli/spore_stims/complex_20_A_b.gif","images/stimuli/spore_stims/complex_20_B_b.gif","","","","","12","complex_similar","images/stimuli/spore_stims/complex_20_B_b.gif","left","","","","",""
"","null","html-keyboard-response","230","457714","0.0-44.0-0.3","SS1613138526391","","","null","","","","","<p><img src= images/blank.png width =""200"" height = ""200"" style = ""float:right""></p><p><img src=images/blank.png width =""800"" height = ""200""></p>","","","","","","","","","","","",""
"","442.30000000970904","sequential-stimulus-presentation","231","458975","0.0-44.0-1.3","SS1613138526391","trial","","40","800","1242.300000009709","images/stimuli/spore_stims/complex_20_A_b.gif","images/stimuli/spore_stims/complex_20_B_b.gif","","","","","12","complex_similar","images/stimuli/spore_stims/complex_20_B_b.gif","left","","","","",""
"","null","html-keyboard-response","232","460007","0.0-44.0-0.4","SS1613138526391","","","null","","","","","<p><img src= images/blank.png width =""200"" height = ""200"" style = ""float:right""></p><p><img src=images/blank.png width =""800"" height = ""200""></p>","","","","","","","","","","","",""
"","558.5900000005495","sequential-stimulus-presentation","233","461384","0.0-44.0-1.4","SS1613138526391","trial","","40","800","1358.5900000005495","images/stimuli/spore_stims/complex_20_A_b.gif","images/stimuli/spore_stims/complex_20_B_b.gif","","","","","12","complex_similar","images/stimuli/spore_stims/complex_20_B_b.gif","left","","","","",""
"","null","html-keyboard-response","234","462300","0.0-44.0-0.5","SS1613138526391","","","null","","","","","<p><img src= images/blank.png width =""200"" height = ""200"" style = ""float:right""></p><p><img src=images/blank.png width =""800"" height = ""200""></p>","","","","","","","","","","","",""
"","2161.9249999930616","sequential-stimulus-presentation","235","465280","0.0-44.0-1.5","SS1613138526391","trial","","40","800","2961.9249999930616","images/stimuli/spore_stims/complex_20_A_b.gif","images/stimuli/spore_stims/complex_20_B_b.gif","","","","","12","complex_similar","images/stimuli/spore_stims/complex_20_B_b.gif","left","","","","",""
"","null","html-keyboard-response","236","466473","0.0-44.0-0.6","SS1613138526391","","","null","","","","","<p><img src= images/blank.png width =""200"" height = ""200"" style = ""float:right""></p><p><img src=images/blank.png width =""800"" height = ""200""></p>","","","","","","","","","","","",""
"","58.44999999681022","sequential-stimulus-presentation","237","467351","0.0-44.0-1.6","SS1613138526391","trial","","40","800","858.4499999968102","images/stimuli/spore_stims/complex_20_A_b.gif","images/stimuli/spore_stims/complex_20_B_b.gif","","","","","12","complex_similar","images/stimuli/spore_stims/complex_20_B_b.gif","left","","","","",""
"","null","html-keyboard-response","238","468380","0.0-44.0-0.7","SS1613138526391","","","null","","","","","<p><img src= images/blank.png width =""200"" height = ""200"" style = ""float:right""></p><p><img src=images/blank.png width =""800"" height = ""200""></p>","","","","","","","","","","","",""
"","581.9749999936903","sequential-stimulus-presentation","239","469784","0.0-44.0-1.7","SS1613138526391","trial","","40","800","1381.9749999936903","images/stimuli/spore_stims/complex_20_A_b.gif","images/stimuli/spore_stims/complex_20_B_b.gif","","","","","12","complex_similar","images/stimuli/spore_stims/complex_20_A_b.gif","middle","","","","",""
"","1261.5899999946123","html-keyboard-response","240","471074","0.0-45.0","SS1613138526391","pref_question","","97","","","","","<video width ='960' height = '540' style='padding-top:8%' autoplay muted><source src='images/stimuli/wall_pref.mp4' type='video/mp4'></video>","1","left","25%","12","","","","","","","",""
"","2630.8500000013737","sequential-stimulus-presentation","241","474522","0.0-46.0","SS1613138526391","pref_reveal","","40","800","3430.8500000013737","null","null","","","","","12","","","","background","","","",""
"","null","html-keyboard-response","242","475825","0.0-47.0-0.0","SS1613138526391","","","null","","","","","<p><img src= images/blank.png width =""200"" height = ""200"" style = ""float:right""></p><p><img src=images/blank.png width =""800"" height = ""200""></p>","","","","","","","","","","","",""
"","517.0400000060908","sequential-stimulus-presentation","243","477159","0.0-47.0-1.0","SS1613138526391","trial","","40","800","1317.0400000060908","images/stimuli/spore_stims/complex_07_B_a.gif","images/stimuli/spore_stims/complex_19_A_b.gif","","","","","13","complex_dissimilar","images/stimuli/spore_stims/complex_19_A_b.gif","left","","","","",""
"","null","html-keyboard-response","244","478188","0.0-47.0-0.1","SS1613138526391","","","null","","","","","<p><img src= images/blank.png width =""200"" height = ""200"" style = ""float:right""></p><p><img src=images/blank.png width =""800"" height = ""200""></p>","","","","","","","","","","","",""
"","1694.7299999883398","sequential-stimulus-presentation","245","480697","0.0-47.0-1.1","SS1613138526391","trial","","40","800","2494.72999998834","images/stimuli/spore_stims/complex_07_B_a.gif","images/stimuli/spore_stims/complex_19_A_b.gif","","","","","13","complex_dissimilar","images/stimuli/spore_stims/complex_19_A_b.gif","left","","","","",""
"","null","html-keyboard-response","246","481527","0.0-47.0-0.2","SS1613138526391","","","null","","","","","<p><img src= images/blank.png width =""200"" height = ""200"" style = ""float:right""></p><p><img src=images/blank.png width =""800"" height = ""200""></p>","","","","","","","","","","","",""
"","450.7400000002235","sequential-stimulus-presentation","247","482799","0.0-47.0-1.2","SS1613138526391","trial","","40","800","1250.7400000002235","images/stimuli/spore_stims/complex_07_B_a.gif","images/stimuli/spore_stims/complex_19_A_b.gif","","","","","13","complex_dissimilar","images/stimuli/spore_stims/complex_19_A_b.gif","left","","","","",""
"","null","html-keyboard-response","248","483770","0.0-47.0-0.3","SS1613138526391","","","null","","","","","<p><img src= images/blank.png width =""200"" height = ""200"" style = ""float:right""></p><p><img src=images/blank.png width =""800"" height = ""200""></p>","","","","","","","","","","","",""
"","530.3299999941373","sequential-stimulus-presentation","249","485119","0.0-47.0-1.3","SS1613138526391","trial","","40","800","1330.3299999941373","images/stimuli/spore_stims/complex_07_B_a.gif","images/stimuli/spore_stims/complex_19_A_b.gif","","","","","13","complex_dissimilar","images/stimuli/spore_stims/complex_19_A_b.gif","left","","","","",""
"","null","html-keyboard-response","250","486143","0.0-47.0-0.4","SS1613138526391","","","null","","","","","<p><img src= images/blank.png width =""200"" height = ""200"" style = ""float:right""></p><p><img src=images/blank.png width =""800"" height = ""200""></p>","","","","","","","","","","","",""
"","4382.444999995641","sequential-stimulus-presentation","251","491344","0.0-47.0-1.4","SS1613138526391","trial","","40","800","5182.444999995641","images/stimuli/spore_stims/complex_07_B_a.gif","images/stimuli/spore_stims/complex_19_A_b.gif","","","","","13","complex_dissimilar","images/stimuli/spore_stims/complex_19_A_b.gif","left","","","","",""
"","null","html-keyboard-response","252","492538","0.0-47.0-0.5","SS1613138526391","","","null","","","","","<p><img src= images/blank.png width =""200"" height = ""200"" style = ""float:right""></p><p><img src=images/blank.png width =""800"" height = ""200""></p>","","","","","","","","","","","",""
"","2065.535000001546","sequential-stimulus-presentation","253","495424","0.0-47.0-1.5","SS1613138526391","trial","","40","800","2865.535000001546","images/stimuli/spore_stims/complex_07_B_a.gif","images/stimuli/spore_stims/complex_19_A_b.gif","","","","","13","complex_dissimilar","images/stimuli/spore_stims/complex_19_A_b.gif","left","","","","",""
"","null","html-keyboard-response","254","496613","0.0-47.0-0.6","SS1613138526391","","","null","","","","","<p><img src= images/blank.png width =""200"" height = ""200"" style = ""float:right""></p><p><img src=images/blank.png width =""800"" height = ""200""></p>","","","","","","","","","","","",""
"","893.6050000047544","sequential-stimulus-presentation","255","498327","0.0-47.0-1.6","SS1613138526391","trial","","40","800","1693.6050000047544","images/stimuli/spore_stims/complex_07_B_a.gif","images/stimuli/spore_stims/complex_19_A_b.gif","","","","","13","complex_dissimilar","images/stimuli/spore_stims/complex_07_B_a.gif","middle","","","","",""
"","null","html-keyboard-response","256","499194","0.0-47.0-0.7","SS1613138526391","","","null","","","","","<p><img src= images/blank.png width =""200"" height = ""200"" style = ""float:right""></p><p><img src=images/blank.png width =""800"" height = ""200""></p>","","","","","","","","","","","",""
"","562.66000001051","sequential-stimulus-presentation","257","500583","0.0-47.0-1.7","SS1613138526391","trial","","40","800","1362.66000001051","images/stimuli/spore_stims/complex_07_B_a.gif","images/stimuli/spore_stims/complex_19_A_b.gif","","","","","13","complex_dissimilar","images/stimuli/spore_stims/complex_19_A_b.gif","left","","","","",""
"","1622.7599999983795","html-keyboard-response","258","502225","0.0-48.0","SS1613138526391","pref_question","","97","","","","","<video width ='960' height = '540' style='padding-top:8%' autoplay muted><source src='images/stimuli/wall_pref.mp4' type='video/mp4'></video>","1","left","25%","13","","","","","","","",""
"","2742.3349999880884","sequential-stimulus-presentation","259","505784","0.0-49.0","SS1613138526391","pref_reveal","","40","800","3542.3349999880884","null","null","","","","","13","","","","background","","","",""
"","null","html-keyboard-response","260","506842","0.0-50.0-0.0","SS1613138526391","","","null","","","","","<p><img src= images/blank.png width =""200"" height = ""200"" style = ""float:right""></p><p><img src=images/blank.png width =""800"" height = ""200""></p>","","","","","","","","","","","",""
"","872.0500000054017","sequential-stimulus-presentation","261","508536","0.0-50.0-1.0","SS1613138526391","trial","","40","800","1672.0500000054017","images/stimuli/spore_stims/complex_05_B_c.gif","images/stimuli/spore_stims/complex_02_B_a.gif","","","","","14","complex_dissimilar","images/stimuli/spore_stims/complex_02_B_a.gif","right","","","","",""
"","null","html-keyboard-response","262","509552","0.0-50.0-0.1","SS1613138526391","","","null","","","","","<p><img src= images/blank.png width =""200"" height = ""200"" style = ""float:right""></p><p><img src=images/blank.png width =""800"" height = ""200""></p>","","","","","","","","","","","",""
"","988.9299999922514","sequential-stimulus-presentation","263","511359","0.0-50.0-1.1","SS1613138526391","trial","","40","800","1788.9299999922514","images/stimuli/spore_stims/complex_05_B_c.gif","images/stimuli/spore_stims/complex_02_B_a.gif","","","","","14","complex_dissimilar","images/stimuli/spore_stims/complex_02_B_a.gif","right","","","","",""
"","null","html-keyboard-response","264","512432","0.0-50.0-0.2","SS1613138526391","","","null","","","","","<p><img src= images/blank.png width =""200"" height = ""200"" style = ""float:right""></p><p><img src=images/blank.png width =""800"" height = ""200""></p>","","","","","","","","","","","",""
"","3329.460000008112","sequential-stimulus-presentation","265","516584","0.0-50.0-1.2","SS1613138526391","trial","","40","800","4129.460000008112","images/stimuli/spore_stims/complex_05_B_c.gif","images/stimuli/spore_stims/complex_02_B_a.gif","","","","","14","complex_dissimilar","images/stimuli/spore_stims/complex_02_B_a.gif","right","","","","",""
"","null","html-keyboard-response","266","517444","0.0-50.0-0.3","SS1613138526391","","","null","","","","","<p><img src= images/blank.png width =""200"" height = ""200"" style = ""float:right""></p><p><img src=images/blank.png width =""800"" height = ""200""></p>","","","","","","","","","","","",""
"","5134.250000002794","sequential-stimulus-presentation","267","523400","0.0-50.0-1.3","SS1613138526391","trial","","40","800","5934.250000002794","images/stimuli/spore_stims/complex_05_B_c.gif","images/stimuli/spore_stims/complex_02_B_a.gif","","","","","14","complex_dissimilar","images/stimuli/spore_stims/complex_05_B_c.gif","left","","","","",""
"","null","html-keyboard-response","268","524274","0.0-50.0-0.4","SS1613138526391","","","null","","","","","<p><img src= images/blank.png width =""200"" height = ""200"" style = ""float:right""></p><p><img src=images/blank.png width =""800"" height = ""200""></p>","","","","","","","","","","","",""
"","587.985000005574","sequential-stimulus-presentation","269","525687","0.0-50.0-1.4","SS1613138526391","trial","","40","800","1387.985000005574","images/stimuli/spore_stims/complex_05_B_c.gif","images/stimuli/spore_stims/complex_02_B_a.gif","","","","","14","complex_dissimilar","images/stimuli/spore_stims/complex_02_B_a.gif","right","","","","",""
"","null","html-keyboard-response","270","526897","0.0-50.0-0.5","SS1613138526391","","","null","","","","","<p><img src= images/blank.png width =""200"" height = ""200"" style = ""float:right""></p><p><img src=images/blank.png width =""800"" height = ""200""></p>","","","","","","","","","","","",""
"","4432.264999995823","sequential-stimulus-presentation","271","532152","0.0-50.0-1.5","SS1613138526391","trial","","40","800","5232.264999995823","images/stimuli/spore_stims/complex_05_B_c.gif","images/stimuli/spore_stims/complex_02_B_a.gif","","","","","14","complex_dissimilar","images/stimuli/spore_stims/complex_02_B_a.gif","right","","","","",""
"","null","html-keyboard-response","272","533299","0.0-50.0-0.6","SS1613138526391","","","null","","","","","<p><img src= images/blank.png width =""200"" height = ""200"" style = ""float:right""></p><p><img src=images/blank.png width =""800"" height = ""200""></p>","","","","","","","","","","","",""
"","222.82500000437722","sequential-stimulus-presentation","273","534346","0.0-50.0-1.6","SS1613138526391","trial","","40","800","1022.8250000043772","images/stimuli/spore_stims/complex_05_B_c.gif","images/stimuli/spore_stims/complex_02_B_a.gif","","","","","14","complex_dissimilar","images/stimuli/spore_stims/complex_02_B_a.gif","right","","","","",""
"","null","html-keyboard-response","274","535491","0.0-50.0-0.7","SS1613138526391","","","null","","","","","<p><img src= images/blank.png width =""200"" height = ""200"" style = ""float:right""></p><p><img src=images/blank.png width =""800"" height = ""200""></p>","","","","","","","","","","","",""
"","1376.5049999929033","sequential-stimulus-presentation","275","537687","0.0-50.0-1.7","SS1613138526391","trial","","40","800","2176.5049999929033","images/stimuli/spore_stims/complex_05_B_c.gif","images/stimuli/spore_stims/complex_02_B_a.gif","","","","","14","complex_dissimilar","images/stimuli/spore_stims/complex_02_B_a.gif","right","","","","",""
"","350.3800000034971","html-keyboard-response","276","538056","0.0-51.0","SS1613138526391","pref_question","","98","","","","","<video width ='960' height = '540' style='padding-top:8%' autoplay muted><source src='images/stimuli/wall_pref.mp4' type='video/mp4'></video>","2","middle","45%","14","","","","","","","",""
"","78.48000001104083","sequential-stimulus-presentation","277","538968","0.0-52.0","SS1613138526391","pref_reveal","","40","800","878.4800000110408","null","null","","","","","14","","","","novel","","","",""
"","null","html-keyboard-response","278","540140","0.0-53.0-0.0","SS1613138526391","","","null","","","","","<p><img src= images/blank.png width =""200"" height = ""200"" style = ""float:right""></p><p><img src=images/blank.png width =""800"" height = ""200""></p>","","","","","","","","","","","",""
"","2595.4950000013923","sequential-stimulus-presentation","279","543551","0.0-53.0-1.0","SS1613138526391","trial","","40","800","3395.4950000013923","images/stimuli/spore_stims/simple_01_B_b.gif","images/stimuli/spore_stims/simple_07_A_b.gif","","","","","15","simple_dissimilar","images/stimuli/spore_stims/simple_07_A_b.gif","left","","","","",""
"","null","html-keyboard-response","280","544758","0.0-53.0-0.1","SS1613138526391","","","null","","","","","<p><img src= images/blank.png width =""200"" height = ""200"" style = ""float:right""></p><p><img src=images/blank.png width =""800"" height = ""200""></p>","","","","","","","","","","","",""
"","319.1450000012992","sequential-stimulus-presentation","281","545898","0.0-53.0-1.1","SS1613138526391","trial","","40","800","1119.1450000012992","images/stimuli/spore_stims/simple_01_B_b.gif","images/stimuli/spore_stims/simple_07_A_b.gif","","","","","15","simple_dissimilar","images/stimuli/spore_stims/simple_07_A_b.gif","left","","","","",""
"","null","html-keyboard-response","282","547059","0.0-53.0-0.2","SS1613138526391","","","null","","","","","<p><img src= images/blank.png width =""200"" height = ""200"" style = ""float:right""></p><p><img src=images/blank.png width =""800"" height = ""200""></p>","","","","","","","","","","","",""
"","280.6750000017928","sequential-stimulus-presentation","283","548159","0.0-53.0-1.2","SS1613138526391","trial","","40","800","1080.6750000017928","images/stimuli/spore_stims/simple_01_B_b.gif","images/stimuli/spore_stims/simple_07_A_b.gif","","","","","15","simple_dissimilar","images/stimuli/spore_stims/simple_07_A_b.gif","left","","","","",""
"","null","html-keyboard-response","284","549138","0.0-53.0-0.3","SS1613138526391","","","null","","","","","<p><img src= images/blank.png width =""200"" height = ""200"" style = ""float:right""></p><p><img src=images/blank.png width =""800"" height = ""200""></p>","","","","","","","","","","","",""
"","302.7399999991758","sequential-stimulus-presentation","285","550271","0.0-53.0-1.3","SS1613138526391","trial","","40","800","1102.7399999991758","images/stimuli/spore_stims/simple_01_B_b.gif","images/stimuli/spore_stims/simple_07_A_b.gif","","","","","15","simple_dissimilar","images/stimuli/spore_stims/simple_07_A_b.gif","left","","","","",""
"","null","html-keyboard-response","286","551154","0.0-53.0-0.4","SS1613138526391","","","null","","","","","<p><img src= images/blank.png width =""200"" height = ""200"" style = ""float:right""></p><p><img src=images/blank.png width =""800"" height = ""200""></p>","","","","","","","","","","","",""
"","223.85499998927116","sequential-stimulus-presentation","287","552199","0.0-53.0-1.4","SS1613138526391","trial","","40","800","1023.8549999892712","images/stimuli/spore_stims/simple_01_B_b.gif","images/stimuli/spore_stims/simple_07_A_b.gif","","","","","15","simple_dissimilar","images/stimuli/spore_stims/simple_07_A_b.gif","left","","","","",""
"","null","html-keyboard-response","288","553422","0.0-53.0-0.5","SS1613138526391","","","null","","","","","<p><img src= images/blank.png width =""200"" height = ""200"" style = ""float:right""></p><p><img src=images/blank.png width =""800"" height = ""200""></p>","","","","","","","","","","","",""
"","1364.7800000035204","sequential-stimulus-presentation","289","555607","0.0-53.0-1.5","SS1613138526391","trial","","40","800","2164.7800000035204","images/stimuli/spore_stims/simple_01_B_b.gif","images/stimuli/spore_stims/simple_07_A_b.gif","","","","","15","simple_dissimilar","images/stimuli/spore_stims/simple_07_A_b.gif","left","","","","",""
"","null","html-keyboard-response","290","556608","0.0-53.0-0.6","SS1613138526391","","","null","","","","","<p><img src= images/blank.png width =""200"" height = ""200"" style = ""float:right""></p><p><img src=images/blank.png width =""800"" height = ""200""></p>","","","","","","","","","","","",""
"","977.8799999912735","sequential-stimulus-presentation","291","558407","0.0-53.0-1.6","SS1613138526391","trial","","40","800","1777.8799999912735","images/stimuli/spore_stims/simple_01_B_b.gif","images/stimuli/spore_stims/simple_07_A_b.gif","","","","","15","simple_dissimilar","images/stimuli/spore_stims/simple_07_A_b.gif","left","","","","",""
"","null","html-keyboard-response","292","559560","0.0-53.0-0.7","SS1613138526391","","","null","","","","","<p><img src= images/blank.png width =""200"" height = ""200"" style = ""float:right""></p><p><img src=images/blank.png width =""800"" height = ""200""></p>","","","","","","","","","","","",""
"","594.0149999951245","sequential-stimulus-presentation","293","560983","0.0-53.0-1.7","SS1613138526391","trial","","40","800","1394.0149999951245","images/stimuli/spore_stims/simple_01_B_b.gif","images/stimuli/spore_stims/simple_07_A_b.gif","","","","","15","simple_dissimilar","images/stimuli/spore_stims/simple_01_B_b.gif","right","","","","",""
"","848.295000003418","html-keyboard-response","294","561861","0.0-54.0","SS1613138526391","pref_question","","97","","","","","<video width ='960' height = '540' style='padding-top:8%' autoplay muted><source src='images/stimuli/wall_pref.mp4' type='video/mp4'></video>","1","left","25%","15","","","","","","","",""
"","3497.0099999918602","sequential-stimulus-presentation","295","566183","0.0-55.0","SS1613138526391","pref_reveal","","40","800","4297.00999999186","null","null","","","","","15","","","","background","","","",""
"","null","html-keyboard-response","296","567357","0.0-56.0-0.0","SS1613138526391","","","null","","","","","<p><img src= images/blank.png width =""200"" height = ""200"" style = ""float:right""></p><p><img src=images/blank.png width =""800"" height = ""200""></p>","","","","","","","","","","","",""
"","1726.9749999977648","sequential-stimulus-presentation","297","569906","0.0-56.0-1.0","SS1613138526391","trial","","40","800","2526.974999997765","images/stimuli/spore_stims/complex_16_A_b.gif","images/stimuli/spore_stims/complex_16_B_b.gif","","","","","16","complex_similar","images/stimuli/spore_stims/complex_16_B_b.gif","right","","","","",""
"","null","html-keyboard-response","298","571015","0.0-56.0-0.1","SS1613138526391","","","null","","","","","<p><img src= images/blank.png width =""200"" height = ""200"" style = ""float:right""></p><p><img src=images/blank.png width =""800"" height = ""200""></p>","","","","","","","","","","","",""
"","2445.784999988973","sequential-stimulus-presentation","299","574290","0.0-56.0-1.1","SS1613138526391","trial","","40","800","3245.784999988973","images/stimuli/spore_stims/complex_16_A_b.gif","images/stimuli/spore_stims/complex_16_B_b.gif","","","","","16","complex_similar","images/stimuli/spore_stims/complex_16_B_b.gif","right","","","","",""
"","null","html-keyboard-response","300","575276","0.0-56.0-0.2","SS1613138526391","","","null","","","","","<p><img src= images/blank.png width =""200"" height = ""200"" style = ""float:right""></p><p><img src=images/blank.png width =""800"" height = ""200""></p>","","","","","","","","","","","",""
"","132.72500000311993","sequential-stimulus-presentation","301","576231","0.0-56.0-1.2","SS1613138526391","trial","","40","800","932.7250000031199","images/stimuli/spore_stims/complex_16_A_b.gif","images/stimuli/spore_stims/complex_16_B_b.gif","","","","","16","complex_similar","images/stimuli/spore_stims/complex_16_A_b.gif","left","","","","",""
"","null","html-keyboard-response","302","577448","0.0-56.0-0.3","SS1613138526391","","","null","","","","","<p><img src= images/blank.png width =""200"" height = ""200"" style = ""float:right""></p><p><img src=images/blank.png width =""800"" height = ""200""></p>","","","","","","","","","","","",""
"","60.565000007045455","sequential-stimulus-presentation","303","578329","0.0-56.0-1.3","SS1613138526391","trial","","40","800","860.5650000070455","images/stimuli/spore_stims/complex_16_A_b.gif","images/stimuli/spore_stims/complex_16_B_b.gif","","","","","16","complex_similar","images/stimuli/spore_stims/complex_16_B_b.gif","right","","","","",""
"","null","html-keyboard-response","304","579269","0.0-56.0-0.4","SS1613138526391","","","null","","","","","<p><img src= images/blank.png width =""200"" height = ""200"" style = ""float:right""></p><p><img src=images/blank.png width =""800"" height = ""200""></p>","","","","","","","","","","","",""
"","401.37500000128057","sequential-stimulus-presentation","305","580491","0.0-56.0-1.4","SS1613138526391","trial","","40","800","1201.3750000012806","images/stimuli/spore_stims/complex_16_A_b.gif","images/stimuli/spore_stims/complex_16_B_b.gif","","","","","16","complex_similar","images/stimuli/spore_stims/complex_16_B_b.gif","right","","","","",""
"","null","html-keyboard-response","306","581495","0.0-56.0-0.5","SS1613138526391","","","null","","","","","<p><img src= images/blank.png width =""200"" height = ""200"" style = ""float:right""></p><p><img src=images/blank.png width =""800"" height = ""200""></p>","","","","","","","","","","","",""
"","3663.795000000391","sequential-stimulus-presentation","307","585975","0.0-56.0-1.5","SS1613138526391","trial","","40","800","4463.795000000391","images/stimuli/spore_stims/complex_16_A_b.gif","images/stimuli/spore_stims/complex_16_B_b.gif","","","","","16","complex_similar","images/stimuli/spore_stims/complex_16_B_b.gif","right","","","","",""
"","null","html-keyboard-response","308","587137","0.0-56.0-0.6","SS1613138526391","","","null","","","","","<p><img src= images/blank.png width =""200"" height = ""200"" style = ""float:right""></p><p><img src=images/blank.png width =""800"" height = ""200""></p>","","","","","","","","","","","",""
"","2637.2450000053504","sequential-stimulus-presentation","309","590594","0.0-56.0-1.6","SS1613138526391","trial","","40","800","3437.2450000053504","images/stimuli/spore_stims/complex_16_A_b.gif","images/stimuli/spore_stims/complex_16_B_b.gif","","","","","16","complex_similar","images/stimuli/spore_stims/complex_16_B_b.gif","right","","","","",""
"","null","html-keyboard-response","310","591507","0.0-56.0-0.7","SS1613138526391","","","null","","","","","<p><img src= images/blank.png width =""200"" height = ""200"" style = ""float:right""></p><p><img src=images/blank.png width =""800"" height = ""200""></p>","","","","","","","","","","","",""
"","382.1999999927357","sequential-stimulus-presentation","311","592711","0.0-56.0-1.7","SS1613138526391","trial","","40","800","1182.1999999927357","images/stimuli/spore_stims/complex_16_A_b.gif","images/stimuli/spore_stims/complex_16_B_b.gif","","","","","16","complex_similar","images/stimuli/spore_stims/complex_16_B_b.gif","right","","","","",""
"","772.2550000034971","html-keyboard-response","312","593505","0.0-57.0","SS1613138526391","pref_question","","98","","","","","<video width ='960' height = '540' style='padding-top:8%' autoplay muted><source src='images/stimuli/wall_pref.mp4' type='video/mp4'></video>","2","middle","45%","16","","","","","","","",""
