"view_history","rt","trial_type","trial_index","time_elapsed","internal_node_id","subject","stimulus_type","trial_stimulus","key_press","minimum_viewing_duration","trial_looking_time","block_deviant","block_background","stimulus","wall_pref","location","location_percent","block_number","block_type","stimulus_displayed","position_displayed","stim_type_selected","responses","question_order","stimulus_left","stimulus_right"
"[{""page_index"":0,""viewing_time"":15997.200000012526}]","15999.139999999898","instructions","0","16002","0.0-0.0","SS1613138315558","","","","","","","","","","","","","","","","","","","",""
"[{""page_index"":0,""viewing_time"":1750.5850000015926},{""page_index"":1,""viewing_time"":3157.7200000174344}]","4908.820000011474","instructions","1","22916","0.0-1.0","SS1613138315558","instructions","","","","","","","","","","","","","","","","","","",""
"","6804.685000010068","sequential-stimulus-presentation","2","30535","0.0-2.0","SS1613138315558","","","40","800","7604.685000010068","null","null","","","","","","","","","","","","",""
"","413.27000001911074","sequential-stimulus-presentation","3","31770","0.0-3.0","SS1613138315558","","","40","800","1213.2700000191107","null","null","","","","","","","","","","","","",""
"[{""page_index"":0,""viewing_time"":2473.984999989625}]","2474.6649999869987","instructions","4","34247","0.0-4.0","SS1613138315558","instructions","","","","","","","","","","","","","","","","","","",""
"","5068.104999983916","html-keyboard-response","5","39323","0.0-5.0","SS1613138315558","instructions","","50","","","","","<video width ='960' height = '540' autoplay muted><source src='images/stimuli/wall_pref.mp4' type='video/mp4'></video>","2","middle","45%","","","","","","","","",""
"","728.6200000089593","sequential-stimulus-presentation","6","40872","0.0-6.0","SS1613138315558","pref_reveal","","40","800","1528.6200000089593","null","null","","","","","","","","","","","","",""
"[{""page_index"":0,""viewing_time"":1151.7649999877904},{""page_index"":1,""viewing_time"":274.0150000026915},{""page_index"":2,""viewing_time"":276.77500000572763},{""page_index"":3,""viewing_time"":460.11499999440275}]","2163.089999987278","instructions","7","43036","0.0-7.0","SS1613138315558","instructions","","","","","","","","","","","","","","","","","","",""
"","null","html-keyboard-response","8","44254","0.0-8.0-0.0","SS1613138315558","","","null","","","","","<p><img src= images/blank.png width =""200"" height = ""200"" style = ""float:right""></p><p><img src=images/blank.png width =""800"" height = ""200""></p>","","","","","","","","","","","",""
"","317.6499999826774","sequential-stimulus-presentation","9","45384","0.0-8.0-1.0","SS1613138315558","trial","","40","800","1117.6499999826774","images/stimuli/spore_stims/simple_13_A_a.gif","images/stimuli/spore_stims/simple_13_B_a.gif","","","","","0","simple_similar","images/stimuli/spore_stims/simple_13_B_a.gif","right","","","","",""
"","null","html-keyboard-response","10","46354","0.0-8.0-0.1","SS1613138315558","","","null","","","","","<p><img src= images/blank.png width =""200"" height = ""200"" style = ""float:right""></p><p><img src=images/blank.png width =""800"" height = ""200""></p>","","","","","","","","","","","",""
"","124.81999999727122","sequential-stimulus-presentation","11","47296","0.0-8.0-1.1","SS1613138315558","trial","","40","800","924.8199999972712","images/stimuli/spore_stims/simple_13_A_a.gif","images/stimuli/spore_stims/simple_13_B_a.gif","","","","","0","simple_similar","images/stimuli/spore_stims/simple_13_B_a.gif","right","","","","",""
"","null","html-keyboard-response","12","48440","0.0-8.0-0.2","SS1613138315558","","","null","","","","","<p><img src= images/blank.png width =""200"" height = ""200"" style = ""float:right""></p><p><img src=images/blank.png width =""800"" height = ""200""></p>","","","","","","","","","","","",""
"","11.304999992717057","sequential-stimulus-presentation","13","49272","0.0-8.0-1.2","SS1613138315558","trial","","40","800","811.3049999927171","images/stimuli/spore_stims/simple_13_A_a.gif","images/stimuli/spore_stims/simple_13_B_a.gif","","","","","0","simple_similar","images/stimuli/spore_stims/simple_13_B_a.gif","right","","","","",""
"","null","html-keyboard-response","14","50515","0.0-8.0-0.3","SS1613138315558","","","null","","","","","<p><img src= images/blank.png width =""200"" height = ""200"" style = ""float:right""></p><p><img src=images/blank.png width =""800"" height = ""200""></p>","","","","","","","","","","","",""
"","107.64999999082647","sequential-stimulus-presentation","15","51438","0.0-8.0-1.3","SS1613138315558","trial","","40","800","907.6499999908265","images/stimuli/spore_stims/simple_13_A_a.gif","images/stimuli/spore_stims/simple_13_B_a.gif","","","","","0","simple_similar","images/stimuli/spore_stims/simple_13_B_a.gif","right","","","","",""
"","null","html-keyboard-response","16","52710","0.0-8.0-0.4","SS1613138315558","","","null","","","","","<p><img src= images/blank.png width =""200"" height = ""200"" style = ""float:right""></p><p><img src=images/blank.png width =""800"" height = ""200""></p>","","","","","","","","","","","",""
"","162.58500001276843","sequential-stimulus-presentation","17","53698","0.0-8.0-1.4","SS1613138315558","trial","","40","800","962.5850000127684","images/stimuli/spore_stims/simple_13_A_a.gif","images/stimuli/spore_stims/simple_13_B_a.gif","","","","","0","simple_similar","images/stimuli/spore_stims/simple_13_B_a.gif","right","","","","",""
"","null","html-keyboard-response","18","54703","0.0-8.0-0.5","SS1613138315558","","","null","","","","","<p><img src= images/blank.png width =""200"" height = ""200"" style = ""float:right""></p><p><img src=images/blank.png width =""800"" height = ""200""></p>","","","","","","","","","","","",""
"","72.1250000060536","sequential-stimulus-presentation","19","55586","0.0-8.0-1.5","SS1613138315558","trial","","40","800","872.1250000060536","images/stimuli/spore_stims/simple_13_A_a.gif","images/stimuli/spore_stims/simple_13_B_a.gif","","","","","0","simple_similar","images/stimuli/spore_stims/simple_13_B_a.gif","right","","","","",""
"","null","html-keyboard-response","20","56415","0.0-8.0-0.6","SS1613138315558","","","null","","","","","<p><img src= images/blank.png width =""200"" height = ""200"" style = ""float:right""></p><p><img src=images/blank.png width =""800"" height = ""200""></p>","","","","","","","","","","","",""
"","95.1049999857787","sequential-stimulus-presentation","21","57330","0.0-8.0-1.6","SS1613138315558","trial","","40","800","895.1049999857787","images/stimuli/spore_stims/simple_13_A_a.gif","images/stimuli/spore_stims/simple_13_B_a.gif","","","","","0","simple_similar","images/stimuli/spore_stims/simple_13_B_a.gif","right","","","","",""
"","null","html-keyboard-response","22","58178","0.0-8.0-0.7","SS1613138315558","","","null","","","","","<p><img src= images/blank.png width =""200"" height = ""200"" style = ""float:right""></p><p><img src=images/blank.png width =""800"" height = ""200""></p>","","","","","","","","","","","",""
"","232.9850000096485","sequential-stimulus-presentation","23","59231","0.0-8.0-1.7","SS1613138315558","trial","","40","800","1032.9850000096485","images/stimuli/spore_stims/simple_13_A_a.gif","images/stimuli/spore_stims/simple_13_B_a.gif","","","","","0","simple_similar","images/stimuli/spore_stims/simple_13_A_a.gif","middle","","","","",""
"","111.4850000012666","html-keyboard-response","24","59368","0.0-9.0","SS1613138315558","pref_question","","50","","","","","<video width ='960' height = '540' style='padding-top:8%' autoplay muted><source src='images/stimuli/wall_pref.mp4' type='video/mp4'></video>","2","middle","45%","0","","","","","","","",""
"","56.754999997792765","sequential-stimulus-presentation","25","60246","0.0-10.0","SS1613138315558","pref_reveal","","40","800","856.7549999977928","null","null","","","","","0","","","","deviant","","","",""
"","null","html-keyboard-response","26","61543","0.0-11.0-0.0","SS1613138315558","","","null","","","","","<p><img src= images/blank.png width =""200"" height = ""200"" style = ""float:right""></p><p><img src=images/blank.png width =""800"" height = ""200""></p>","","","","","","","","","","","",""
"","141.83500001672655","sequential-stimulus-presentation","27","62502","0.0-11.0-1.0","SS1613138315558","trial","","40","800","941.8350000167266","images/stimuli/spore_stims/simple_20_B_d.gif","images/stimuli/spore_stims/simple_03_A_d.gif","","","","","1","simple_dissimilar","images/stimuli/spore_stims/simple_03_A_d.gif","right","","","","",""
"","null","html-keyboard-response","28","63467","0.0-11.0-0.1","SS1613138315558","","","null","","","","","<p><img src= images/blank.png width =""200"" height = ""200"" style = ""float:right""></p><p><img src=images/blank.png width =""800"" height = ""200""></p>","","","","","","","","","","","",""
"","83.77500000642613","sequential-stimulus-presentation","29","64373","0.0-11.0-1.1","SS1613138315558","trial","","40","800","883.7750000064261","images/stimuli/spore_stims/simple_20_B_d.gif","images/stimuli/spore_stims/simple_03_A_d.gif","","","","","1","simple_dissimilar","images/stimuli/spore_stims/simple_03_A_d.gif","right","","","","",""
"","null","html-keyboard-response","30","65498","0.0-11.0-0.2","SS1613138315558","","","null","","","","","<p><img src= images/blank.png width =""200"" height = ""200"" style = ""float:right""></p><p><img src=images/blank.png width =""800"" height = ""200""></p>","","","","","","","","","","","",""
"","121.7449999821838","sequential-stimulus-presentation","31","66427","0.0-11.0-1.2","SS1613138315558","trial","","40","800","921.7449999821838","images/stimuli/spore_stims/simple_20_B_d.gif","images/stimuli/spore_stims/simple_03_A_d.gif","","","","","1","simple_dissimilar","images/stimuli/spore_stims/simple_03_A_d.gif","right","","","","",""
"","null","html-keyboard-response","32","67509","0.0-11.0-0.3","SS1613138315558","","","null","","","","","<p><img src= images/blank.png width =""200"" height = ""200"" style = ""float:right""></p><p><img src=images/blank.png width =""800"" height = ""200""></p>","","","","","","","","","","","",""
"","138.95500000216998","sequential-stimulus-presentation","33","68466","0.0-11.0-1.3","SS1613138315558","trial","","40","800","938.95500000217","images/stimuli/spore_stims/simple_20_B_d.gif","images/stimuli/spore_stims/simple_03_A_d.gif","","","","","1","simple_dissimilar","images/stimuli/spore_stims/simple_03_A_d.gif","right","","","","",""
"","null","html-keyboard-response","34","69531","0.0-11.0-0.4","SS1613138315558","","","null","","","","","<p><img src= images/blank.png width =""200"" height = ""200"" style = ""float:right""></p><p><img src=images/blank.png width =""800"" height = ""200""></p>","","","","","","","","","","","",""
"","67.08500001695938","sequential-stimulus-presentation","35","70434","0.0-11.0-1.4","SS1613138315558","trial","","40","800","867.0850000169594","images/stimuli/spore_stims/simple_20_B_d.gif","images/stimuli/spore_stims/simple_03_A_d.gif","","","","","1","simple_dissimilar","images/stimuli/spore_stims/simple_03_A_d.gif","right","","","","",""
"","null","html-keyboard-response","36","71347","0.0-11.0-0.5","SS1613138315558","","","null","","","","","<p><img src= images/blank.png width =""200"" height = ""200"" style = ""float:right""></p><p><img src=images/blank.png width =""800"" height = ""200""></p>","","","","","","","","","","","",""
"","25.83500000764616","sequential-stimulus-presentation","37","72195","0.0-11.0-1.5","SS1613138315558","trial","","40","800","825.8350000076462","images/stimuli/spore_stims/simple_20_B_d.gif","images/stimuli/spore_stims/simple_03_A_d.gif","","","","","1","simple_dissimilar","images/stimuli/spore_stims/simple_20_B_d.gif","middle","","","","",""
"","null","html-keyboard-response","38","73327","0.0-11.0-0.6","SS1613138315558","","","null","","","","","<p><img src= images/blank.png width =""200"" height = ""200"" style = ""float:right""></p><p><img src=images/blank.png width =""800"" height = ""200""></p>","","","","","","","","","","","",""
"","192.97499998356216","sequential-stimulus-presentation","39","74338","0.0-11.0-1.6","SS1613138315558","trial","","40","800","992.9749999835622","images/stimuli/spore_stims/simple_20_B_d.gif","images/stimuli/spore_stims/simple_03_A_d.gif","","","","","1","simple_dissimilar","images/stimuli/spore_stims/simple_03_A_d.gif","right","","","","",""
"","null","html-keyboard-response","40","75285","0.0-11.0-0.7","SS1613138315558","","","null","","","","","<p><img src= images/blank.png width =""200"" height = ""200"" style = ""float:right""></p><p><img src=images/blank.png width =""800"" height = ""200""></p>","","","","","","","","","","","",""
"","153.07999998913147","sequential-stimulus-presentation","41","76254","0.0-11.0-1.7","SS1613138315558","trial","","40","800","953.0799999891315","images/stimuli/spore_stims/simple_20_B_d.gif","images/stimuli/spore_stims/simple_03_A_d.gif","","","","","1","simple_dissimilar","images/stimuli/spore_stims/simple_03_A_d.gif","right","","","","",""
"","520.6049999978859","html-keyboard-response","42","76781","0.0-12.0","SS1613138315558","pref_question","","50","","","","","<video width ='960' height = '540' style='padding-top:8%' autoplay muted><source src='images/stimuli/wall_pref.mp4' type='video/mp4'></video>","2","middle","45%","1","","","","","","","",""
"","18.070000020088628","sequential-stimulus-presentation","43","77610","0.0-13.0","SS1613138315558","pref_reveal","","40","800","818.0700000200886","null","null","","","","","1","","","","deviant","","","",""
"","null","html-keyboard-response","44","78885","0.0-14.0-0.0","SS1613138315558","","","null","","","","","<p><img src= images/blank.png width =""200"" height = ""200"" style = ""float:right""></p><p><img src=images/blank.png width =""800"" height = ""200""></p>","","","","","","","","","","","",""
"","51.49499999242835","sequential-stimulus-presentation","45","79770","0.0-14.0-1.0","SS1613138315558","trial","","40","800","851.4949999924283","images/stimuli/spore_stims/simple_18_B_d.gif","images/stimuli/spore_stims/simple_18_A_d.gif","","","","","2","simple_similar","images/stimuli/spore_stims/simple_18_A_d.gif","middle","","","","",""
"","null","html-keyboard-response","46","81021","0.0-14.0-0.1","SS1613138315558","","","null","","","","","<p><img src= images/blank.png width =""200"" height = ""200"" style = ""float:right""></p><p><img src=images/blank.png width =""800"" height = ""200""></p>","","","","","","","","","","","",""
"","149.73999999347143","sequential-stimulus-presentation","47","81983","0.0-14.0-1.1","SS1613138315558","trial","","40","800","949.7399999934714","images/stimuli/spore_stims/simple_18_B_d.gif","images/stimuli/spore_stims/simple_18_A_d.gif","","","","","2","simple_similar","images/stimuli/spore_stims/simple_18_A_d.gif","middle","","","","",""
"","null","html-keyboard-response","48","82989","0.0-14.0-0.2","SS1613138315558","","","null","","","","","<p><img src= images/blank.png width =""200"" height = ""200"" style = ""float:right""></p><p><img src=images/blank.png width =""800"" height = ""200""></p>","","","","","","","","","","","",""
"","104669.59500001394","sequential-stimulus-presentation","49","188486","0.0-14.0-1.2","SS1613138315558","trial","","40","800","105469.59500001394","images/stimuli/spore_stims/simple_18_B_d.gif","images/stimuli/spore_stims/simple_18_A_d.gif","","","","","2","simple_similar","images/stimuli/spore_stims/simple_18_A_d.gif","middle","","","","",""
"","null","html-keyboard-response","50","189444","0.0-14.0-0.3","SS1613138315558","","","null","","","","","<p><img src= images/blank.png width =""200"" height = ""200"" style = ""float:right""></p><p><img src=images/blank.png width =""800"" height = ""200""></p>","","","","","","","","","","","",""
"","416110.19500001566","sequential-stimulus-presentation","51","606376","0.0-14.0-1.3","SS1613138315558","trial","","40","800","416910.19500001566","images/stimuli/spore_stims/simple_18_B_d.gif","images/stimuli/spore_stims/simple_18_A_d.gif","","","","","2","simple_similar","images/stimuli/spore_stims/simple_18_A_d.gif","middle","","","","",""
"","null","html-keyboard-response","52","607567","0.0-14.0-0.4","SS1613138315558","","","null","","","","","<p><img src= images/blank.png width =""200"" height = ""200"" style = ""float:right""></p><p><img src=images/blank.png width =""800"" height = ""200""></p>","","","","","","","","","","","",""
"","255.83500001812354","sequential-stimulus-presentation","53","608641","0.0-14.0-1.4","SS1613138315558","trial","","40","800","1055.8350000181235","images/stimuli/spore_stims/simple_18_B_d.gif","images/stimuli/spore_stims/simple_18_A_d.gif","","","","","2","simple_similar","images/stimuli/spore_stims/simple_18_B_d.gif","right","","","","",""
"","null","html-keyboard-response","54","609549","0.0-14.0-0.5","SS1613138315558","","","null","","","","","<p><img src= images/blank.png width =""200"" height = ""200"" style = ""float:right""></p><p><img src=images/blank.png width =""800"" height = ""200""></p>","","","","","","","","","","","",""
"","39.45499999099411","sequential-stimulus-presentation","55","610405","0.0-14.0-1.5","SS1613138315558","trial","","40","800","839.4549999909941","images/stimuli/spore_stims/simple_18_B_d.gif","images/stimuli/spore_stims/simple_18_A_d.gif","","","","","2","simple_similar","images/stimuli/spore_stims/simple_18_A_d.gif","middle","","","","",""
"","null","html-keyboard-response","56","611494","0.0-14.0-0.6","SS1613138315558","","","null","","","","","<p><img src= images/blank.png width =""200"" height = ""200"" style = ""float:right""></p><p><img src=images/blank.png width =""800"" height = ""200""></p>","","","","","","","","","","","",""
"","208.91499999561347","sequential-stimulus-presentation","57","612517","0.0-14.0-1.6","SS1613138315558","trial","","40","800","1008.9149999956135","images/stimuli/spore_stims/simple_18_B_d.gif","images/stimuli/spore_stims/simple_18_A_d.gif","","","","","2","simple_similar","images/stimuli/spore_stims/simple_18_A_d.gif","middle","","","","",""
"","null","html-keyboard-response","58","613447","0.0-14.0-0.7","SS1613138315558","","","null","","","","","<p><img src= images/blank.png width =""200"" height = ""200"" style = ""float:right""></p><p><img src=images/blank.png width =""800"" height = ""200""></p>","","","","","","","","","","","",""
"","193.74000001698732","sequential-stimulus-presentation","59","614494","0.0-14.0-1.7","SS1613138315558","trial","","40","800","993.7400000169873","images/stimuli/spore_stims/simple_18_B_d.gif","images/stimuli/spore_stims/simple_18_A_d.gif","","","","","2","simple_similar","images/stimuli/spore_stims/simple_18_A_d.gif","middle","","","","",""
"","19000.935000018217","html-keyboard-response","60","633500","0.0-15.0","SS1613138315558","pref_question","","50","","","","","<video width ='960' height = '540' style='padding-top:8%' autoplay muted><source src='images/stimuli/wall_pref.mp4' type='video/mp4'></video>","2","middle","45%","2","","","","","","","",""
"","83.230000018375","sequential-stimulus-presentation","61","634407","0.0-16.0","SS1613138315558","pref_reveal","","40","800","883.230000018375","null","null","","","","","2","","","","background","","","",""
"","null","html-keyboard-response","62","635229","0.0-17.0-0.0","SS1613138315558","","","null","","","","","<p><img src= images/blank.png width =""200"" height = ""200"" style = ""float:right""></p><p><img src=images/blank.png width =""800"" height = ""200""></p>","","","","","","","","","","","",""
"","192.52000001142733","sequential-stimulus-presentation","63","636248","0.0-17.0-1.0","SS1613138315558","trial","","40","800","992.5200000114273","images/stimuli/spore_stims/complex_17_A_a.gif","images/stimuli/spore_stims/complex_03_A_d.gif","","","","","3","complex_dissimilar","images/stimuli/spore_stims/complex_03_A_d.gif","right","","","","",""
"","null","html-keyboard-response","64","637553","0.0-17.0-0.1","SS1613138315558","","","null","","","","","<p><img src= images/blank.png width =""200"" height = ""200"" style = ""float:right""></p><p><img src=images/blank.png width =""800"" height = ""200""></p>","","","","","","","","","","","",""
"","154.09999998519197","sequential-stimulus-presentation","65","638535","0.0-17.0-1.1","SS1613138315558","trial","","40","800","954.099999985192","images/stimuli/spore_stims/complex_17_A_a.gif","images/stimuli/spore_stims/complex_03_A_d.gif","","","","","3","complex_dissimilar","images/stimuli/spore_stims/complex_03_A_d.gif","right","","","","",""
"","null","html-keyboard-response","66","639676","0.0-17.0-0.2","SS1613138315558","","","null","","","","","<p><img src= images/blank.png width =""200"" height = ""200"" style = ""float:right""></p><p><img src=images/blank.png width =""800"" height = ""200""></p>","","","","","","","","","","","",""
"","35.35499999998137","sequential-stimulus-presentation","67","640518","0.0-17.0-1.2","SS1613138315558","trial","","40","800","835.3549999999814","images/stimuli/spore_stims/complex_17_A_a.gif","images/stimuli/spore_stims/complex_03_A_d.gif","","","","","3","complex_dissimilar","images/stimuli/spore_stims/complex_17_A_a.gif","middle","","","","",""
"","null","html-keyboard-response","68","641420","0.0-17.0-0.3","SS1613138315558","","","null","","","","","<p><img src= images/blank.png width =""200"" height = ""200"" style = ""float:right""></p><p><img src=images/blank.png width =""800"" height = ""200""></p>","","","","","","","","","","","",""
"","135.4400000127498","sequential-stimulus-presentation","69","642369","0.0-17.0-1.3","SS1613138315558","trial","","40","800","935.4400000127498","images/stimuli/spore_stims/complex_17_A_a.gif","images/stimuli/spore_stims/complex_03_A_d.gif","","","","","3","complex_dissimilar","images/stimuli/spore_stims/complex_03_A_d.gif","right","","","","",""
"","null","html-keyboard-response","70","643501","0.0-17.0-0.4","SS1613138315558","","","null","","","","","<p><img src= images/blank.png width =""200"" height = ""200"" style = ""float:right""></p><p><img src=images/blank.png width =""800"" height = ""200""></p>","","","","","","","","","","","",""
"","5.1300000050105155","sequential-stimulus-presentation","71","644326","0.0-17.0-1.4","SS1613138315558","trial","","40","800","805.1300000050105","images/stimuli/spore_stims/complex_17_A_a.gif","images/stimuli/spore_stims/complex_03_A_d.gif","","","","","3","complex_dissimilar","images/stimuli/spore_stims/complex_03_A_d.gif","right","","","","",""
"","null","html-keyboard-response","72","645335","0.0-17.0-0.5","SS1613138315558","","","null","","","","","<p><img src= images/blank.png width =""200"" height = ""200"" style = ""float:right""></p><p><img src=images/blank.png width =""800"" height = ""200""></p>","","","","","","","","","","","",""
"","184.4250000140164","sequential-stimulus-presentation","73","646358","0.0-17.0-1.5","SS1613138315558","trial","","40","800","984.4250000140164","images/stimuli/spore_stims/complex_17_A_a.gif","images/stimuli/spore_stims/complex_03_A_d.gif","","","","","3","complex_dissimilar","images/stimuli/spore_stims/complex_03_A_d.gif","right","","","","",""
"","null","html-keyboard-response","74","647238","0.0-17.0-0.6","SS1613138315558","","","null","","","","","<p><img src= images/blank.png width =""200"" height = ""200"" style = ""float:right""></p><p><img src=images/blank.png width =""800"" height = ""200""></p>","","","","","","","","","","","",""
"","11.425000004237518","sequential-stimulus-presentation","75","648068","0.0-17.0-1.6","SS1613138315558","trial","","40","800","811.4250000042375","images/stimuli/spore_stims/complex_17_A_a.gif","images/stimuli/spore_stims/complex_03_A_d.gif","","","","","3","complex_dissimilar","images/stimuli/spore_stims/complex_03_A_d.gif","right","","","","",""
"","null","html-keyboard-response","76","648995","0.0-17.0-0.7","SS1613138315558","","","null","","","","","<p><img src= images/blank.png width =""200"" height = ""200"" style = ""float:right""></p><p><img src=images/blank.png width =""800"" height = ""200""></p>","","","","","","","","","","","",""
"","174.3350000178907","sequential-stimulus-presentation","77","649990","0.0-17.0-1.7","SS1613138315558","trial","","40","800","974.3350000178907","images/stimuli/spore_stims/complex_17_A_a.gif","images/stimuli/spore_stims/complex_03_A_d.gif","","","","","3","complex_dissimilar","images/stimuli/spore_stims/complex_03_A_d.gif","right","","","","",""
"","101.70500000822358","html-keyboard-response","78","650096","0.0-18.0","SS1613138315558","pref_question","","50","","","","","<video width ='960' height = '540' style='padding-top:8%' autoplay muted><source src='images/stimuli/wall_pref.mp4' type='video/mp4'></video>","2","middle","45%","3","","","","","","","",""
"","140.87999999173917","sequential-stimulus-presentation","79","651072","0.0-19.0","SS1613138315558","pref_reveal","","40","800","940.8799999917392","null","null","","","","","3","","","","deviant","","","",""
"","null","html-keyboard-response","80","652250","0.0-20.0-0.0","SS1613138315558","","","null","","","","","<p><img src= images/blank.png width =""200"" height = ""200"" style = ""float:right""></p><p><img src=images/blank.png width =""800"" height = ""200""></p>","","","","","","","","","","","",""
"","27.230000006966293","sequential-stimulus-presentation","81","653094","0.0-20.0-1.0","SS1613138315558","trial","","40","800","827.2300000069663","images/stimuli/spore_stims/simple_15_A_c.gif","images/stimuli/spore_stims/simple_19_A_c.gif","","","","","4","simple_dissimilar","images/stimuli/spore_stims/simple_19_A_c.gif","middle","","","","",""
"","null","html-keyboard-response","82","654175","0.0-20.0-0.1","SS1613138315558","","","null","","","","","<p><img src= images/blank.png width =""200"" height = ""200"" style = ""float:right""></p><p><img src=images/blank.png width =""800"" height = ""200""></p>","","","","","","","","","","","",""
"","85.91500000329688","sequential-stimulus-presentation","83","655077","0.0-20.0-1.1","SS1613138315558","trial","","40","800","885.9150000032969","images/stimuli/spore_stims/simple_15_A_c.gif","images/stimuli/spore_stims/simple_19_A_c.gif","","","","","4","simple_dissimilar","images/stimuli/spore_stims/simple_19_A_c.gif","middle","","","","",""
"","null","html-keyboard-response","84","656037","0.0-20.0-0.2","SS1613138315558","","","null","","","","","<p><img src= images/blank.png width =""200"" height = ""200"" style = ""float:right""></p><p><img src=images/blank.png width =""800"" height = ""200""></p>","","","","","","","","","","","",""
"","161.82500001741573","sequential-stimulus-presentation","85","657013","0.0-20.0-1.2","SS1613138315558","trial","","40","800","961.8250000174157","images/stimuli/spore_stims/simple_15_A_c.gif","images/stimuli/spore_stims/simple_19_A_c.gif","","","","","4","simple_dissimilar","images/stimuli/spore_stims/simple_19_A_c.gif","middle","","","","",""
"","null","html-keyboard-response","86","657980","0.0-20.0-0.3","SS1613138315558","","","null","","","","","<p><img src= images/blank.png width =""200"" height = ""200"" style = ""float:right""></p><p><img src=images/blank.png width =""800"" height = ""200""></p>","","","","","","","","","","","",""
"","68.88499998603947","sequential-stimulus-presentation","87","658860","0.0-20.0-1.3","SS1613138315558","trial","","40","800","868.8849999860395","images/stimuli/spore_stims/simple_15_A_c.gif","images/stimuli/spore_stims/simple_19_A_c.gif","","","","","4","simple_dissimilar","images/stimuli/spore_stims/simple_15_A_c.gif","left","","","","",""
"","null","html-keyboard-response","88","660157","0.0-20.0-0.4","SS1613138315558","","","null","","","","","<p><img src= images/blank.png width =""200"" height = ""200"" style = ""float:right""></p><p><img src=images/blank.png width =""800"" height = ""200""></p>","","","","","","","","","","","",""
"","179.49999999837019","sequential-stimulus-presentation","89","661147","0.0-20.0-1.4","SS1613138315558","trial","","40","800","979.4999999983702","images/stimuli/spore_stims/simple_15_A_c.gif","images/stimuli/spore_stims/simple_19_A_c.gif","","","","","4","simple_dissimilar","images/stimuli/spore_stims/simple_19_A_c.gif","middle","","","","",""
"","null","html-keyboard-response","90","662466","0.0-20.0-0.5","SS1613138315558","","","null","","","","","<p><img src= images/blank.png width =""200"" height = ""200"" style = ""float:right""></p><p><img src=images/blank.png width =""800"" height = ""200""></p>","","","","","","","","","","","",""
"","153.74499998870306","sequential-stimulus-presentation","91","663435","0.0-20.0-1.5","SS1613138315558","trial","","40","800","953.7449999887031","images/stimuli/spore_stims/simple_15_A_c.gif","images/stimuli/spore_stims/simple_19_A_c.gif","","","","","4","simple_dissimilar","images/stimuli/spore_stims/simple_19_A_c.gif","middle","","","","",""
"","null","html-keyboard-response","92","664312","0.0-20.0-0.6","SS1613138315558","","","null","","","","","<p><img src= images/blank.png width =""200"" height = ""200"" style = ""float:right""></p><p><img src=images/blank.png width =""800"" height = ""200""></p>","","","","","","","","","","","",""
"","98.62000000430271","sequential-stimulus-presentation","93","665233","0.0-20.0-1.6","SS1613138315558","trial","","40","800","898.6200000043027","images/stimuli/spore_stims/simple_15_A_c.gif","images/stimuli/spore_stims/simple_19_A_c.gif","","","","","4","simple_dissimilar","images/stimuli/spore_stims/simple_19_A_c.gif","middle","","","","",""
"","null","html-keyboard-response","94","666505","0.0-20.0-0.7","SS1613138315558","","","null","","","","","<p><img src= images/blank.png width =""200"" height = ""200"" style = ""float:right""></p><p><img src=images/blank.png width =""800"" height = ""200""></p>","","","","","","","","","","","",""
"","211.38999998220243","sequential-stimulus-presentation","95","667528","0.0-20.0-1.7","SS1613138315558","trial","","40","800","1011.3899999822024","images/stimuli/spore_stims/simple_15_A_c.gif","images/stimuli/spore_stims/simple_19_A_c.gif","","","","","4","simple_dissimilar","images/stimuli/spore_stims/simple_19_A_c.gif","middle","","","","",""
"","5.735000013373792","html-keyboard-response","96","667539","0.0-21.0","SS1613138315558","pref_question","","49","","","","","<video width ='960' height = '540' style='padding-top:8%' autoplay muted><source src='images/stimuli/wall_pref.mp4' type='video/mp4'></video>","1","left","25%","4","","","","","","","",""
"","26.84499998576939","sequential-stimulus-presentation","97","668401","0.0-22.0","SS1613138315558","pref_reveal","","40","800","826.8449999857694","null","null","","","","","4","","","","deviant","","","",""
"","null","html-keyboard-response","98","669638","0.0-23.0-0.0","SS1613138315558","","","null","","","","","<p><img src= images/blank.png width =""200"" height = ""200"" style = ""float:right""></p><p><img src=images/blank.png width =""800"" height = ""200""></p>","","","","","","","","","","","",""
"","8.985000022221357","sequential-stimulus-presentation","99","670473","0.0-23.0-1.0","SS1613138315558","trial","","40","800","808.9850000222214","images/stimuli/spore_stims/simple_16_A_b.gif","images/stimuli/spore_stims/simple_04_A_a.gif","","","","","5","simple_dissimilar","images/stimuli/spore_stims/simple_04_A_a.gif","left","","","","",""
"","null","html-keyboard-response","100","671421","0.0-23.0-0.1","SS1613138315558","","","null","","","","","<p><img src= images/blank.png width =""200"" height = ""200"" style = ""float:right""></p><p><img src=images/blank.png width =""800"" height = ""200""></p>","","","","","","","","","","","",""
"","260.3450000169687","sequential-stimulus-presentation","101","672497","0.0-23.0-1.1","SS1613138315558","trial","","40","800","1060.3450000169687","images/stimuli/spore_stims/simple_16_A_b.gif","images/stimuli/spore_stims/simple_04_A_a.gif","","","","","5","simple_dissimilar","images/stimuli/spore_stims/simple_04_A_a.gif","left","","","","",""
"","null","html-keyboard-response","102","673630","0.0-23.0-0.2","SS1613138315558","","","null","","","","","<p><img src= images/blank.png width =""200"" height = ""200"" style = ""float:right""></p><p><img src=images/blank.png width =""800"" height = ""200""></p>","","","","","","","","","","","",""
"","9.714999992866069","sequential-stimulus-presentation","103","674453","0.0-23.0-1.2","SS1613138315558","trial","","40","800","809.7149999928661","images/stimuli/spore_stims/simple_16_A_b.gif","images/stimuli/spore_stims/simple_04_A_a.gif","","","","","5","simple_dissimilar","images/stimuli/spore_stims/simple_04_A_a.gif","left","","","","",""
"","null","html-keyboard-response","104","675665","0.0-23.0-0.3","SS1613138315558","","","null","","","","","<p><img src= images/blank.png width =""200"" height = ""200"" style = ""float:right""></p><p><img src=images/blank.png width =""800"" height = ""200""></p>","","","","","","","","","","","",""
"","162.13499999139458","sequential-stimulus-presentation","105","676649","0.0-23.0-1.3","SS1613138315558","trial","","40","800","962.1349999913946","images/stimuli/spore_stims/simple_16_A_b.gif","images/stimuli/spore_stims/simple_04_A_a.gif","","","","","5","simple_dissimilar","images/stimuli/spore_stims/simple_04_A_a.gif","left","","","","",""
"","null","html-keyboard-response","106","677812","0.0-23.0-0.4","SS1613138315558","","","null","","","","","<p><img src= images/blank.png width =""200"" height = ""200"" style = ""float:right""></p><p><img src=images/blank.png width =""800"" height = ""200""></p>","","","","","","","","","","","",""
"","118.19000000832602","sequential-stimulus-presentation","107","678743","0.0-23.0-1.4","SS1613138315558","trial","","40","800","918.190000008326","images/stimuli/spore_stims/simple_16_A_b.gif","images/stimuli/spore_stims/simple_04_A_a.gif","","","","","5","simple_dissimilar","images/stimuli/spore_stims/simple_04_A_a.gif","left","","","","",""
"","null","html-keyboard-response","108","680017","0.0-23.0-0.5","SS1613138315558","","","null","","","","","<p><img src= images/blank.png width =""200"" height = ""200"" style = ""float:right""></p><p><img src=images/blank.png width =""800"" height = ""200""></p>","","","","","","","","","","","",""
"","124.06000000191852","sequential-stimulus-presentation","109","680983","0.0-23.0-1.5","SS1613138315558","trial","","40","800","924.0600000019185","images/stimuli/spore_stims/simple_16_A_b.gif","images/stimuli/spore_stims/simple_04_A_a.gif","","","","","5","simple_dissimilar","images/stimuli/spore_stims/simple_04_A_a.gif","left","","","","",""
"","null","html-keyboard-response","110","681914","0.0-23.0-0.6","SS1613138315558","","","null","","","","","<p><img src= images/blank.png width =""200"" height = ""200"" style = ""float:right""></p><p><img src=images/blank.png width =""800"" height = ""200""></p>","","","","","","","","","","","",""
"","253.13500000629574","sequential-stimulus-presentation","111","682984","0.0-23.0-1.6","SS1613138315558","trial","","40","800","1053.1350000062957","images/stimuli/spore_stims/simple_16_A_b.gif","images/stimuli/spore_stims/simple_04_A_a.gif","","","","","5","simple_dissimilar","images/stimuli/spore_stims/simple_16_A_b.gif","right","","","","",""
"","null","html-keyboard-response","112","683825","0.0-23.0-0.7","SS1613138315558","","","null","","","","","<p><img src= images/blank.png width =""200"" height = ""200"" style = ""float:right""></p><p><img src=images/blank.png width =""800"" height = ""200""></p>","","","","","","","","","","","",""
"","111.76999998860992","sequential-stimulus-presentation","113","684747","0.0-23.0-1.7","SS1613138315558","trial","","40","800","911.7699999886099","images/stimuli/spore_stims/simple_16_A_b.gif","images/stimuli/spore_stims/simple_04_A_a.gif","","","","","5","simple_dissimilar","images/stimuli/spore_stims/simple_04_A_a.gif","left","","","","",""
"","106.54500001692213","html-keyboard-response","114","684882","0.0-24.0","SS1613138315558","pref_question","","49","","","","","<video width ='960' height = '540' style='padding-top:8%' autoplay muted><source src='images/stimuli/wall_pref.mp4' type='video/mp4'></video>","1","left","25%","5","","","","","","","",""
"","205.30000000144355","sequential-stimulus-presentation","115","685910","0.0-25.0","SS1613138315558","pref_reveal","","40","800","1005.3000000014435","null","null","","","","","5","","","","background","","","",""
"","null","html-keyboard-response","116","687145","0.0-26.0-0.0","SS1613138315558","","","null","","","","","<p><img src= images/blank.png width =""200"" height = ""200"" style = ""float:right""></p><p><img src=images/blank.png width =""800"" height = ""200""></p>","","","","","","","","","","","",""
"","110.79499998595566","sequential-stimulus-presentation","117","688069","0.0-26.0-1.0","SS1613138315558","trial","","40","800","910.7949999859557","images/stimuli/spore_stims/complex_12_B_d.gif","images/stimuli/spore_stims/complex_12_A_d.gif","","","","","6","complex_similar","images/stimuli/spore_stims/complex_12_A_d.gif","middle","","","","",""
"","null","html-keyboard-response","118","688966","0.0-26.0-0.1","SS1613138315558","","","null","","","","","<p><img src= images/blank.png width =""200"" height = ""200"" style = ""float:right""></p><p><img src=images/blank.png width =""800"" height = ""200""></p>","","","","","","","","","","","",""
"","212.8649999795016","sequential-stimulus-presentation","119","690003","0.0-26.0-1.1","SS1613138315558","trial","","40","800","1012.8649999795016","images/stimuli/spore_stims/complex_12_B_d.gif","images/stimuli/spore_stims/complex_12_A_d.gif","","","","","6","complex_similar","images/stimuli/spore_stims/complex_12_A_d.gif","middle","","","","",""
"","null","html-keyboard-response","120","691038","0.0-26.0-0.2","SS1613138315558","","","null","","","","","<p><img src= images/blank.png width =""200"" height = ""200"" style = ""float:right""></p><p><img src=images/blank.png width =""800"" height = ""200""></p>","","","","","","","","","","","",""
"","155.38999999989755","sequential-stimulus-presentation","121","692015","0.0-26.0-1.2","SS1613138315558","trial","","40","800","955.3899999998976","images/stimuli/spore_stims/complex_12_B_d.gif","images/stimuli/spore_stims/complex_12_A_d.gif","","","","","6","complex_similar","images/stimuli/spore_stims/complex_12_A_d.gif","middle","","","","",""
"","null","html-keyboard-response","122","693292","0.0-26.0-0.3","SS1613138315558","","","null","","","","","<p><img src= images/blank.png width =""200"" height = ""200"" style = ""float:right""></p><p><img src=images/blank.png width =""800"" height = ""200""></p>","","","","","","","","","","","",""
"","190.10000000707805","sequential-stimulus-presentation","123","694302","0.0-26.0-1.3","SS1613138315558","trial","","40","800","990.100000007078","images/stimuli/spore_stims/complex_12_B_d.gif","images/stimuli/spore_stims/complex_12_A_d.gif","","","","","6","complex_similar","images/stimuli/spore_stims/complex_12_A_d.gif","middle","","","","",""
"","null","html-keyboard-response","124","695333","0.0-26.0-0.4","SS1613138315558","","","null","","","","","<p><img src= images/blank.png width =""200"" height = ""200"" style = ""float:right""></p><p><img src=images/blank.png width =""800"" height = ""200""></p>","","","","","","","","","","","",""
"","56.205000000773","sequential-stimulus-presentation","125","696203","0.0-26.0-1.4","SS1613138315558","trial","","40","800","856.205000000773","images/stimuli/spore_stims/complex_12_B_d.gif","images/stimuli/spore_stims/complex_12_A_d.gif","","","","","6","complex_similar","images/stimuli/spore_stims/complex_12_A_d.gif","middle","","","","",""
"","null","html-keyboard-response","126","697372","0.0-26.0-0.5","SS1613138315558","","","null","","","","","<p><img src= images/blank.png width =""200"" height = ""200"" style = ""float:right""></p><p><img src=images/blank.png width =""800"" height = ""200""></p>","","","","","","","","","","","",""
"","122.64499999582767","sequential-stimulus-presentation","127","698305","0.0-26.0-1.5","SS1613138315558","trial","","40","800","922.6449999958277","images/stimuli/spore_stims/complex_12_B_d.gif","images/stimuli/spore_stims/complex_12_A_d.gif","","","","","6","complex_similar","images/stimuli/spore_stims/complex_12_B_d.gif","left","","","","",""
"","null","html-keyboard-response","128","699236","0.0-26.0-0.6","SS1613138315558","","","null","","","","","<p><img src= images/blank.png width =""200"" height = ""200"" style = ""float:right""></p><p><img src=images/blank.png width =""800"" height = ""200""></p>","","","","","","","","","","","",""
"","78.65999999921769","sequential-stimulus-presentation","129","700141","0.0-26.0-1.6","SS1613138315558","trial","","40","800","878.6599999992177","images/stimuli/spore_stims/complex_12_B_d.gif","images/stimuli/spore_stims/complex_12_A_d.gif","","","","","6","complex_similar","images/stimuli/spore_stims/complex_12_A_d.gif","middle","","","","",""
"","null","html-keyboard-response","130","701096","0.0-26.0-0.7","SS1613138315558","","","null","","","","","<p><img src= images/blank.png width =""200"" height = ""200"" style = ""float:right""></p><p><img src=images/blank.png width =""800"" height = ""200""></p>","","","","","","","","","","","",""
"","133.19999998202547","sequential-stimulus-presentation","131","702047","0.0-26.0-1.7","SS1613138315558","trial","","40","800","933.1999999820255","images/stimuli/spore_stims/complex_12_B_d.gif","images/stimuli/spore_stims/complex_12_A_d.gif","","","","","6","complex_similar","images/stimuli/spore_stims/complex_12_A_d.gif","middle","","","","",""
"","51.29499998292886","html-keyboard-response","132","702104","0.0-27.0","SS1613138315558","pref_question","","51","","","","","<video width ='960' height = '540' style='padding-top:8%' autoplay muted><source src='images/stimuli/wall_pref.mp4' type='video/mp4'></video>","3","right","66%","6","","","","","","","",""
"","117.42500000400469","sequential-stimulus-presentation","133","703031","0.0-28.0","SS1613138315558","pref_reveal","","40","800","917.4250000040047","null","null","","","","","6","","","","novel","","","",""
"","null","html-keyboard-response","134","704042","0.0-29.0-0.0","SS1613138315558","","","null","","","","","<p><img src= images/blank.png width =""200"" height = ""200"" style = ""float:right""></p><p><img src=images/blank.png width =""800"" height = ""200""></p>","","","","","","","","","","","",""
"","133.3699999959208","sequential-stimulus-presentation","135","704982","0.0-29.0-1.0","SS1613138315558","trial","","40","800","933.3699999959208","images/stimuli/spore_stims/complex_15_A_d.gif","images/stimuli/spore_stims/complex_15_B_d.gif","","","","","7","complex_similar","images/stimuli/spore_stims/complex_15_B_d.gif","middle","","","","",""
"","null","html-keyboard-response","136","706168","0.0-29.0-0.1","SS1613138315558","","","null","","","","","<p><img src= images/blank.png width =""200"" height = ""200"" style = ""float:right""></p><p><img src=images/blank.png width =""800"" height = ""200""></p>","","","","","","","","","","","",""
"","195.12000001850538","sequential-stimulus-presentation","137","707178","0.0-29.0-1.1","SS1613138315558","trial","","40","800","995.1200000185054","images/stimuli/spore_stims/complex_15_A_d.gif","images/stimuli/spore_stims/complex_15_B_d.gif","","","","","7","complex_similar","images/stimuli/spore_stims/complex_15_B_d.gif","middle","","","","",""
"","null","html-keyboard-response","138","708126","0.0-29.0-0.2","SS1613138315558","","","null","","","","","<p><img src= images/blank.png width =""200"" height = ""200"" style = ""float:right""></p><p><img src=images/blank.png width =""800"" height = ""200""></p>","","","","","","","","","","","",""
"","230.7100000034552","sequential-stimulus-presentation","139","709182","0.0-29.0-1.2","SS1613138315558","trial","","40","800","1030.7100000034552","images/stimuli/spore_stims/complex_15_A_d.gif","images/stimuli/spore_stims/complex_15_B_d.gif","","","","","7","complex_similar","images/stimuli/spore_stims/complex_15_B_d.gif","middle","","","","",""
"","null","html-keyboard-response","140","710330","0.0-29.0-0.3","SS1613138315558","","","null","","","","","<p><img src= images/blank.png width =""200"" height = ""200"" style = ""float:right""></p><p><img src=images/blank.png width =""800"" height = ""200""></p>","","","","","","","","","","","",""
"","75.04500000504777","sequential-stimulus-presentation","141","711227","0.0-29.0-1.3","SS1613138315558","trial","","40","800","875.0450000050478","images/stimuli/spore_stims/complex_15_A_d.gif","images/stimuli/spore_stims/complex_15_B_d.gif","","","","","7","complex_similar","images/stimuli/spore_stims/complex_15_B_d.gif","middle","","","","",""
"","null","html-keyboard-response","142","712201","0.0-29.0-0.4","SS1613138315558","","","null","","","","","<p><img src= images/blank.png width =""200"" height = ""200"" style = ""float:right""></p><p><img src=images/blank.png width =""800"" height = ""200""></p>","","","","","","","","","","","",""
"","207.6449999876786","sequential-stimulus-presentation","143","713227","0.0-29.0-1.4","SS1613138315558","trial","","40","800","1007.6449999876786","images/stimuli/spore_stims/complex_15_A_d.gif","images/stimuli/spore_stims/complex_15_B_d.gif","","","","","7","complex_similar","images/stimuli/spore_stims/complex_15_B_d.gif","middle","","","","",""
"","null","html-keyboard-response","144","714440","0.0-29.0-0.5","SS1613138315558","","","null","","","","","<p><img src= images/blank.png width =""200"" height = ""200"" style = ""float:right""></p><p><img src=images/blank.png width =""800"" height = ""200""></p>","","","","","","","","","","","",""
"","330.1849999988917","sequential-stimulus-presentation","145","715596","0.0-29.0-1.5","SS1613138315558","trial","","40","800","1130.1849999988917","images/stimuli/spore_stims/complex_15_A_d.gif","images/stimuli/spore_stims/complex_15_B_d.gif","","","","","7","complex_similar","images/stimuli/spore_stims/complex_15_B_d.gif","middle","","","","",""
"","null","html-keyboard-response","146","716645","0.0-29.0-0.6","SS1613138315558","","","null","","","","","<p><img src= images/blank.png width =""200"" height = ""200"" style = ""float:right""></p><p><img src=images/blank.png width =""800"" height = ""200""></p>","","","","","","","","","","","",""
"","32.87500000442378","sequential-stimulus-presentation","147","717505","0.0-29.0-1.6","SS1613138315558","trial","","40","800","832.8750000044238","images/stimuli/spore_stims/complex_15_A_d.gif","images/stimuli/spore_stims/complex_15_B_d.gif","","","","","7","complex_similar","images/stimuli/spore_stims/complex_15_A_d.gif","right","","","","",""
"","null","html-keyboard-response","148","718807","0.0-29.0-0.7","SS1613138315558","","","null","","","","","<p><img src= images/blank.png width =""200"" height = ""200"" style = ""float:right""></p><p><img src=images/blank.png width =""800"" height = ""200""></p>","","","","","","","","","","","",""
"","162.27999998955056","sequential-stimulus-presentation","149","719817","0.0-29.0-1.7","SS1613138315558","trial","","40","800","962.2799999895506","images/stimuli/spore_stims/complex_15_A_d.gif","images/stimuli/spore_stims/complex_15_B_d.gif","","","","","7","complex_similar","images/stimuli/spore_stims/complex_15_B_d.gif","middle","","","","",""
"","5.180000007385388","html-keyboard-response","150","719828","0.0-30.0","SS1613138315558","pref_question","","49","","","","","<video width ='960' height = '540' style='padding-top:8%' autoplay muted><source src='images/stimuli/wall_pref.mp4' type='video/mp4'></video>","1","left","25%","7","","","","","","","",""
"","114.95499999728054","sequential-stimulus-presentation","151","720757","0.0-31.0","SS1613138315558","pref_reveal","","40","800","914.9549999972805","null","null","","","","","7","","","","novel","","","",""
"","null","html-keyboard-response","152","721862","0.0-32.0-0.0","SS1613138315558","","","null","","","","","<p><img src= images/blank.png width =""200"" height = ""200"" style = ""float:right""></p><p><img src=images/blank.png width =""800"" height = ""200""></p>","","","","","","","","","","","",""
"","56.475000019418076","sequential-stimulus-presentation","153","722746","0.0-32.0-1.0","SS1613138315558","trial","","40","800","856.4750000194181","images/stimuli/spore_stims/complex_19_A_c.gif","images/stimuli/spore_stims/complex_05_B_a.gif","","","","","8","complex_dissimilar","images/stimuli/spore_stims/complex_05_B_a.gif","right","","","","",""
"","null","html-keyboard-response","154","724007","0.0-32.0-0.1","SS1613138315558","","","null","","","","","<p><img src= images/blank.png width =""200"" height = ""200"" style = ""float:right""></p><p><img src=images/blank.png width =""800"" height = ""200""></p>","","","","","","","","","","","",""
"","119.00500001502223","sequential-stimulus-presentation","155","724964","0.0-32.0-1.1","SS1613138315558","trial","","40","800","919.0050000150222","images/stimuli/spore_stims/complex_19_A_c.gif","images/stimuli/spore_stims/complex_05_B_a.gif","","","","","8","complex_dissimilar","images/stimuli/spore_stims/complex_05_B_a.gif","right","","","","",""
"","null","html-keyboard-response","156","725902","0.0-32.0-0.2","SS1613138315558","","","null","","","","","<p><img src= images/blank.png width =""200"" height = ""200"" style = ""float:right""></p><p><img src=images/blank.png width =""800"" height = ""200""></p>","","","","","","","","","","","",""
"","60.864999977638945","sequential-stimulus-presentation","157","726777","0.0-32.0-1.2","SS1613138315558","trial","","40","800","860.864999977639","images/stimuli/spore_stims/complex_19_A_c.gif","images/stimuli/spore_stims/complex_05_B_a.gif","","","","","8","complex_dissimilar","images/stimuli/spore_stims/complex_05_B_a.gif","right","","","","",""
"","null","html-keyboard-response","158","727944","0.0-32.0-0.3","SS1613138315558","","","null","","","","","<p><img src= images/blank.png width =""200"" height = ""200"" style = ""float:right""></p><p><img src=images/blank.png width =""800"" height = ""200""></p>","","","","","","","","","","","",""
"","144.96000000508502","sequential-stimulus-presentation","159","728901","0.0-32.0-1.3","SS1613138315558","trial","","40","800","944.960000005085","images/stimuli/spore_stims/complex_19_A_c.gif","images/stimuli/spore_stims/complex_05_B_a.gif","","","","","8","complex_dissimilar","images/stimuli/spore_stims/complex_05_B_a.gif","right","","","","",""
"","null","html-keyboard-response","160","729885","0.0-32.0-0.4","SS1613138315558","","","null","","","","","<p><img src= images/blank.png width =""200"" height = ""200"" style = ""float:right""></p><p><img src=images/blank.png width =""800"" height = ""200""></p>","","","","","","","","","","","",""
"","124480.87500000838","sequential-stimulus-presentation","161","855177","0.0-32.0-1.4","SS1613138315558","trial","","40","800","125280.87500000838","images/stimuli/spore_stims/complex_19_A_c.gif","images/stimuli/spore_stims/complex_05_B_a.gif","","","","","8","complex_dissimilar","images/stimuli/spore_stims/complex_05_B_a.gif","right","","","","",""
"","null","html-keyboard-response","162","856140","0.0-32.0-0.5","SS1613138315558","","","null","","","","","<p><img src= images/blank.png width =""200"" height = ""200"" style = ""float:right""></p><p><img src=images/blank.png width =""800"" height = ""200""></p>","","","","","","","","","","","",""
"","32.27500000502914","sequential-stimulus-presentation","163","857010","0.0-32.0-1.5","SS1613138315558","trial","","40","800","832.2750000050291","images/stimuli/spore_stims/complex_19_A_c.gif","images/stimuli/spore_stims/complex_05_B_a.gif","","","","","8","complex_dissimilar","images/stimuli/spore_stims/complex_19_A_c.gif","middle","","","","",""
"","null","html-keyboard-response","164","857945","0.0-32.0-0.6","SS1613138315558","","","null","","","","","<p><img src= images/blank.png width =""200"" height = ""200"" style = ""float:right""></p><p><img src=images/blank.png width =""800"" height = ""200""></p>","","","","","","","","","","","",""
"","89.47500001522712","sequential-stimulus-presentation","165","858860","0.0-32.0-1.6","SS1613138315558","trial","","40","800","889.4750000152271","images/stimuli/spore_stims/complex_19_A_c.gif","images/stimuli/spore_stims/complex_05_B_a.gif","","","","","8","complex_dissimilar","images/stimuli/spore_stims/complex_05_B_a.gif","right","","","","",""
"","null","html-keyboard-response","166","859895","0.0-32.0-0.7","SS1613138315558","","","null","","","","","<p><img src= images/blank.png width =""200"" height = ""200"" style = ""float:right""></p><p><img src=images/blank.png width =""800"" height = ""200""></p>","","","","","","","","","","","",""
"","61.480000003939494","sequential-stimulus-presentation","167","860777","0.0-32.0-1.7","SS1613138315558","trial","","40","800","861.4800000039395","images/stimuli/spore_stims/complex_19_A_c.gif","images/stimuli/spore_stims/complex_05_B_a.gif","","","","","8","complex_dissimilar","images/stimuli/spore_stims/complex_05_B_a.gif","right","","","","",""
"","64.13000001339242","html-keyboard-response","168","860847","0.0-33.0","SS1613138315558","pref_question","","49","","","","","<video width ='960' height = '540' style='padding-top:8%' autoplay muted><source src='images/stimuli/wall_pref.mp4' type='video/mp4'></video>","1","left","25%","8","","","","","","","",""
"","58.79999999888241","sequential-stimulus-presentation","169","861719","0.0-34.0","SS1613138315558","pref_reveal","","40","800","858.7999999988824","null","null","","","","","8","","","","novel","","","",""
"","null","html-keyboard-response","170","862796","0.0-35.0-0.0","SS1613138315558","","","null","","","","","<p><img src= images/blank.png width =""200"" height = ""200"" style = ""float:right""></p><p><img src=images/blank.png width =""800"" height = ""200""></p>","","","","","","","","","","","",""
"","267.0149999903515","sequential-stimulus-presentation","171","863878","0.0-35.0-1.0","SS1613138315558","trial","","40","800","1067.0149999903515","images/stimuli/spore_stims/simple_02_A_d.gif","images/stimuli/spore_stims/simple_12_A_a.gif","","","","","9","simple_dissimilar","images/stimuli/spore_stims/simple_12_A_a.gif","middle","","","","",""
"","null","html-keyboard-response","172","864788","0.0-35.0-0.1","SS1613138315558","","","null","","","","","<p><img src= images/blank.png width =""200"" height = ""200"" style = ""float:right""></p><p><img src=images/blank.png width =""800"" height = ""200""></p>","","","","","","","","","","","",""
"","108.11000000103377","sequential-stimulus-presentation","173","865719","0.0-35.0-1.1","SS1613138315558","trial","","40","800","908.1100000010338","images/stimuli/spore_stims/simple_02_A_d.gif","images/stimuli/spore_stims/simple_12_A_a.gif","","","","","9","simple_dissimilar","images/stimuli/spore_stims/simple_12_A_a.gif","middle","","","","",""
"","null","html-keyboard-response","174","866777","0.0-35.0-0.2","SS1613138315558","","","null","","","","","<p><img src= images/blank.png width =""200"" height = ""200"" style = ""float:right""></p><p><img src=images/blank.png width =""800"" height = ""200""></p>","","","","","","","","","","","",""
"","166.15999999339692","sequential-stimulus-presentation","175","867752","0.0-35.0-1.2","SS1613138315558","trial","","40","800","966.1599999933969","images/stimuli/spore_stims/simple_02_A_d.gif","images/stimuli/spore_stims/simple_12_A_a.gif","","","","","9","simple_dissimilar","images/stimuli/spore_stims/simple_12_A_a.gif","middle","","","","",""
"","null","html-keyboard-response","176","868790","0.0-35.0-0.3","SS1613138315558","","","null","","","","","<p><img src= images/blank.png width =""200"" height = ""200"" style = ""float:right""></p><p><img src=images/blank.png width =""800"" height = ""200""></p>","","","","","","","","","","","",""
"","73870.90500001796","sequential-stimulus-presentation","177","943497","0.0-35.0-1.3","SS1613138315558","trial","","40","800","74670.90500001796","images/stimuli/spore_stims/simple_02_A_d.gif","images/stimuli/spore_stims/simple_12_A_a.gif","","","","","9","simple_dissimilar","images/stimuli/spore_stims/simple_12_A_a.gif","middle","","","","",""
"","null","html-keyboard-response","178","944790","0.0-35.0-0.4","SS1613138315558","","","null","","","","","<p><img src= images/blank.png width =""200"" height = ""200"" style = ""float:right""></p><p><img src=images/blank.png width =""800"" height = ""200""></p>","","","","","","","","","","","",""
"","200371.24499998754","sequential-stimulus-presentation","179","1145991","0.0-35.0-1.4","SS1613138315558","trial","","40","800","201171.24499998754","images/stimuli/spore_stims/simple_02_A_d.gif","images/stimuli/spore_stims/simple_12_A_a.gif","","","","","9","simple_dissimilar","images/stimuli/spore_stims/simple_12_A_a.gif","middle","","","","",""
"","null","html-keyboard-response","180","1146982","0.0-35.0-0.5","SS1613138315558","","","null","","","","","<p><img src= images/blank.png width =""200"" height = ""200"" style = ""float:right""></p><p><img src=images/blank.png width =""800"" height = ""200""></p>","","","","","","","","","","","",""
"","83.64999998593703","sequential-stimulus-presentation","181","1147890","0.0-35.0-1.5","SS1613138315558","trial","","40","800","883.649999985937","images/stimuli/spore_stims/simple_02_A_d.gif","images/stimuli/spore_stims/simple_12_A_a.gif","","","","","9","simple_dissimilar","images/stimuli/spore_stims/simple_12_A_a.gif","middle","","","","",""
"","null","html-keyboard-response","182","1148746","0.0-35.0-0.6","SS1613138315558","","","null","","","","","<p><img src= images/blank.png width =""200"" height = ""200"" style = ""float:right""></p><p><img src=images/blank.png width =""800"" height = ""200""></p>","","","","","","","","","","","",""
"","206.87999998335727","sequential-stimulus-presentation","183","1149779","0.0-35.0-1.6","SS1613138315558","trial","","40","800","1006.8799999833573","images/stimuli/spore_stims/simple_02_A_d.gif","images/stimuli/spore_stims/simple_12_A_a.gif","","","","","9","simple_dissimilar","images/stimuli/spore_stims/simple_02_A_d.gif","left","","","","",""
"","null","html-keyboard-response","184","1151042","0.0-35.0-0.7","SS1613138315558","","","null","","","","","<p><img src= images/blank.png width =""200"" height = ""200"" style = ""float:right""></p><p><img src=images/blank.png width =""800"" height = ""200""></p>","","","","","","","","","","","",""
"","172.95999999623746","sequential-stimulus-presentation","185","1152042","0.0-35.0-1.7","SS1613138315558","trial","","40","800","972.9599999962375","images/stimuli/spore_stims/simple_02_A_d.gif","images/stimuli/spore_stims/simple_12_A_a.gif","","","","","9","simple_dissimilar","images/stimuli/spore_stims/simple_12_A_a.gif","middle","","","","",""
"","1.0100000072270632","html-keyboard-response","186","1152052","0.0-36.0","SS1613138315558","pref_question","","50","","","","","<video width ='960' height = '540' style='padding-top:8%' autoplay muted><source src='images/stimuli/wall_pref.mp4' type='video/mp4'></video>","2","middle","45%","9","","","","","","","",""
"","99.60499999579042","sequential-stimulus-presentation","187","1152986","0.0-37.0","SS1613138315558","pref_reveal","","40","800","899.6049999957904","null","null","","","","","9","","","","background","","","",""
"","null","html-keyboard-response","188","1154042","0.0-38.0-0.0","SS1613138315558","","","null","","","","","<p><img src= images/blank.png width =""200"" height = ""200"" style = ""float:right""></p><p><img src=images/blank.png width =""800"" height = ""200""></p>","","","","","","","","","","","",""
"","18.355000007431954","sequential-stimulus-presentation","189","1154883","0.0-38.0-1.0","SS1613138315558","trial","","40","800","818.355000007432","images/stimuli/spore_stims/simple_05_A_d.gif","images/stimuli/spore_stims/simple_09_B_d.gif","","","","","10","simple_dissimilar","images/stimuli/spore_stims/simple_09_B_d.gif","middle","","","","",""
"","null","html-keyboard-response","190","1155845","0.0-38.0-0.1","SS1613138315558","","","null","","","","","<p><img src= images/blank.png width =""200"" height = ""200"" style = ""float:right""></p><p><img src=images/blank.png width =""800"" height = ""200""></p>","","","","","","","","","","","",""
"","110.1349999953527","sequential-stimulus-presentation","191","1156773","0.0-38.0-1.1","SS1613138315558","trial","","40","800","910.1349999953527","images/stimuli/spore_stims/simple_05_A_d.gif","images/stimuli/spore_stims/simple_09_B_d.gif","","","","","10","simple_dissimilar","images/stimuli/spore_stims/simple_09_B_d.gif","middle","","","","",""
"","null","html-keyboard-response","192","1157783","0.0-38.0-0.2","SS1613138315558","","","null","","","","","<p><img src= images/blank.png width =""200"" height = ""200"" style = ""float:right""></p><p><img src=images/blank.png width =""800"" height = ""200""></p>","","","","","","","","","","","",""
"","4606.2099999981","sequential-stimulus-presentation","193","1163211","0.0-38.0-1.2","SS1613138315558","trial","","40","800","5406.2099999981","images/stimuli/spore_stims/simple_05_A_d.gif","images/stimuli/spore_stims/simple_09_B_d.gif","","","","","10","simple_dissimilar","images/stimuli/spore_stims/simple_09_B_d.gif","middle","","","","",""
"","null","html-keyboard-response","194","1164355","0.0-38.0-0.3","SS1613138315558","","","null","","","","","<p><img src= images/blank.png width =""200"" height = ""200"" style = ""float:right""></p><p><img src=images/blank.png width =""800"" height = ""200""></p>","","","","","","","","","","","",""
"","212.17499999329448","sequential-stimulus-presentation","195","1165390","0.0-38.0-1.3","SS1613138315558","trial","","40","800","1012.1749999932945","images/stimuli/spore_stims/simple_05_A_d.gif","images/stimuli/spore_stims/simple_09_B_d.gif","","","","","10","simple_dissimilar","images/stimuli/spore_stims/simple_09_B_d.gif","middle","","","","",""
"","null","html-keyboard-response","196","1166458","0.0-38.0-0.4","SS1613138315558","","","null","","","","","<p><img src= images/blank.png width =""200"" height = ""200"" style = ""float:right""></p><p><img src=images/blank.png width =""800"" height = ""200""></p>","","","","","","","","","","","",""
"","131.26500000362284","sequential-stimulus-presentation","197","1167452","0.0-38.0-1.4","SS1613138315558","trial","","40","800","931.2650000036228","images/stimuli/spore_stims/simple_05_A_d.gif","images/stimuli/spore_stims/simple_09_B_d.gif","","","","","10","simple_dissimilar","images/stimuli/spore_stims/simple_05_A_d.gif","left","","","","",""
"","null","html-keyboard-response","198","1168460","0.0-38.0-0.5","SS1613138315558","","","null","","","","","<p><img src= images/blank.png width =""200"" height = ""200"" style = ""float:right""></p><p><img src=images/blank.png width =""800"" height = ""200""></p>","","","","","","","","","","","",""
"","201.7150000028778","sequential-stimulus-presentation","199","1169477","0.0-38.0-1.5","SS1613138315558","trial","","40","800","1001.7150000028778","images/stimuli/spore_stims/simple_05_A_d.gif","images/stimuli/spore_stims/simple_09_B_d.gif","","","","","10","simple_dissimilar","images/stimuli/spore_stims/simple_09_B_d.gif","middle","","","","",""
"","null","html-keyboard-response","200","1170375","0.0-38.0-0.6","SS1613138315558","","","null","","","","","<p><img src= images/blank.png width =""200"" height = ""200"" style = ""float:right""></p><p><img src=images/blank.png width =""800"" height = ""200""></p>","","","","","","","","","","","",""
"","144.45000002160668","sequential-stimulus-presentation","201","1171342","0.0-38.0-1.6","SS1613138315558","trial","","40","800","944.4500000216067","images/stimuli/spore_stims/simple_05_A_d.gif","images/stimuli/spore_stims/simple_09_B_d.gif","","","","","10","simple_dissimilar","images/stimuli/spore_stims/simple_09_B_d.gif","middle","","","","",""
"","null","html-keyboard-response","202","1172546","0.0-38.0-0.7","SS1613138315558","","","null","","","","","<p><img src= images/blank.png width =""200"" height = ""200"" style = ""float:right""></p><p><img src=images/blank.png width =""800"" height = ""200""></p>","","","","","","","","","","","",""
"","79.89999998244457","sequential-stimulus-presentation","203","1173447","0.0-38.0-1.7","SS1613138315558","trial","","40","800","879.8999999824446","images/stimuli/spore_stims/simple_05_A_d.gif","images/stimuli/spore_stims/simple_09_B_d.gif","","","","","10","simple_dissimilar","images/stimuli/spore_stims/simple_09_B_d.gif","middle","","","","",""
"","52.7849999780301","html-keyboard-response","204","1173507","0.0-39.0","SS1613138315558","pref_question","","49","","","","","<video width ='960' height = '540' style='padding-top:8%' autoplay muted><source src='images/stimuli/wall_pref.mp4' type='video/mp4'></video>","1","left","25%","10","","","","","","","",""
"","199.08000002033077","sequential-stimulus-presentation","205","1174580","0.0-40.0","SS1613138315558","pref_reveal","","40","800","999.0800000203308","null","null","","","","","10","","","","deviant","","","",""
"","null","html-keyboard-response","206","1175439","0.0-41.0-0.0","SS1613138315558","","","null","","","","","<p><img src= images/blank.png width =""200"" height = ""200"" style = ""float:right""></p><p><img src=images/blank.png width =""800"" height = ""200""></p>","","","","","","","","","","","",""
"","179.21999999089167","sequential-stimulus-presentation","207","1176450","0.0-41.0-1.0","SS1613138315558","trial","","40","800","979.2199999908917","images/stimuli/spore_stims/complex_06_A_d.gif","images/stimuli/spore_stims/complex_02_A_b.gif","","","","","11","complex_dissimilar","images/stimuli/spore_stims/complex_02_A_b.gif","middle","","","","",""
"","null","html-keyboard-response","208","1177353","0.0-41.0-0.1","SS1613138315558","","","null","","","","","<p><img src= images/blank.png width =""200"" height = ""200"" style = ""float:right""></p><p><img src=images/blank.png width =""800"" height = ""200""></p>","","","","","","","","","","","",""
"","102.5800000061281","sequential-stimulus-presentation","209","1178274","0.0-41.0-1.1","SS1613138315558","trial","","40","800","902.5800000061281","images/stimuli/spore_stims/complex_06_A_d.gif","images/stimuli/spore_stims/complex_02_A_b.gif","","","","","11","complex_dissimilar","images/stimuli/spore_stims/complex_02_A_b.gif","middle","","","","",""
"","null","html-keyboard-response","210","1179153","0.0-41.0-0.2","SS1613138315558","","","null","","","","","<p><img src= images/blank.png width =""200"" height = ""200"" style = ""float:right""></p><p><img src=images/blank.png width =""800"" height = ""200""></p>","","","","","","","","","","","",""
"","124.43500000517815","sequential-stimulus-presentation","211","1180094","0.0-41.0-1.2","SS1613138315558","trial","","40","800","924.4350000051782","images/stimuli/spore_stims/complex_06_A_d.gif","images/stimuli/spore_stims/complex_02_A_b.gif","","","","","11","complex_dissimilar","images/stimuli/spore_stims/complex_02_A_b.gif","middle","","","","",""
"","null","html-keyboard-response","212","1181171","0.0-41.0-0.3","SS1613138315558","","","null","","","","","<p><img src= images/blank.png width =""200"" height = ""200"" style = ""float:right""></p><p><img src=images/blank.png width =""800"" height = ""200""></p>","","","","","","","","","","","",""
"","135.61999998637475","sequential-stimulus-presentation","213","1182137","0.0-41.0-1.3","SS1613138315558","trial","","40","800","935.6199999863748","images/stimuli/spore_stims/complex_06_A_d.gif","images/stimuli/spore_stims/complex_02_A_b.gif","","","","","11","complex_dissimilar","images/stimuli/spore_stims/complex_02_A_b.gif","middle","","","","",""
"","null","html-keyboard-response","214","1183028","0.0-41.0-0.4","SS1613138315558","","","null","","","","","<p><img src= images/blank.png width =""200"" height = ""200"" style = ""float:right""></p><p><img src=images/blank.png width =""800"" height = ""200""></p>","","","","","","","","","","","",""
"","60.69499999284744","sequential-stimulus-presentation","215","1183905","0.0-41.0-1.4","SS1613138315558","trial","","40","800","860.6949999928474","images/stimuli/spore_stims/complex_06_A_d.gif","images/stimuli/spore_stims/complex_02_A_b.gif","","","","","11","complex_dissimilar","images/stimuli/spore_stims/complex_02_A_b.gif","middle","","","","",""
"","null","html-keyboard-response","216","1184957","0.0-41.0-0.5","SS1613138315558","","","null","","","","","<p><img src= images/blank.png width =""200"" height = ""200"" style = ""float:right""></p><p><img src=images/blank.png width =""800"" height = ""200""></p>","","","","","","","","","","","",""
"","44.07000000355765","sequential-stimulus-presentation","217","1185830","0.0-41.0-1.5","SS1613138315558","trial","","40","800","844.0700000035577","images/stimuli/spore_stims/complex_06_A_d.gif","images/stimuli/spore_stims/complex_02_A_b.gif","","","","","11","complex_dissimilar","images/stimuli/spore_stims/complex_02_A_b.gif","middle","","","","",""
"","null","html-keyboard-response","218","1186787","0.0-41.0-0.6","SS1613138315558","","","null","","","","","<p><img src= images/blank.png width =""200"" height = ""200"" style = ""float:right""></p><p><img src=images/blank.png width =""800"" height = ""200""></p>","","","","","","","","","","","",""
"","70.75499999336898","sequential-stimulus-presentation","219","1187679","0.0-41.0-1.6","SS1613138315558","trial","","40","800","870.754999993369","images/stimuli/spore_stims/complex_06_A_d.gif","images/stimuli/spore_stims/complex_02_A_b.gif","","","","","11","complex_dissimilar","images/stimuli/spore_stims/complex_02_A_b.gif","middle","","","","",""
"","null","html-keyboard-response","220","1188532","0.0-41.0-0.7","SS1613138315558","","","null","","","","","<p><img src= images/blank.png width =""200"" height = ""200"" style = ""float:right""></p><p><img src=images/blank.png width =""800"" height = ""200""></p>","","","","","","","","","","","",""
"","215.56500002043322","sequential-stimulus-presentation","221","1189569","0.0-41.0-1.7","SS1613138315558","trial","","40","800","1015.5650000204332","images/stimuli/spore_stims/complex_06_A_d.gif","images/stimuli/spore_stims/complex_02_A_b.gif","","","","","11","complex_dissimilar","images/stimuli/spore_stims/complex_06_A_d.gif","left","","","","",""
"","78.46999997855164","html-keyboard-response","222","1189657","0.0-42.0","SS1613138315558","pref_question","","51","","","","","<video width ='960' height = '540' style='padding-top:8%' autoplay muted><source src='images/stimuli/wall_pref.mp4' type='video/mp4'></video>","3","right","66%","11","","","","","","","",""
"","219.77500000502914","sequential-stimulus-presentation","223","1190707","0.0-43.0","SS1613138315558","pref_reveal","","40","800","1019.7750000050291","null","null","","","","","11","","","","novel","","","",""
"","null","html-keyboard-response","224","1191570","0.0-44.0-0.0","SS1613138315558","","","null","","","","","<p><img src= images/blank.png width =""200"" height = ""200"" style = ""float:right""></p><p><img src=images/blank.png width =""800"" height = ""200""></p>","","","","","","","","","","","",""
"","170.1150000153575","sequential-stimulus-presentation","225","1192562","0.0-44.0-1.0","SS1613138315558","trial","","40","800","970.1150000153575","images/stimuli/spore_stims/complex_01_A_c.gif","images/stimuli/spore_stims/complex_01_B_c.gif","","","","","12","complex_similar","images/stimuli/spore_stims/complex_01_B_c.gif","middle","","","","",""
"","null","html-keyboard-response","226","1193482","0.0-44.0-0.1","SS1613138315558","","","null","","","","","<p><img src= images/blank.png width =""200"" height = ""200"" style = ""float:right""></p><p><img src=images/blank.png width =""800"" height = ""200""></p>","","","","","","","","","","","",""
"","117.62000000453554","sequential-stimulus-presentation","227","1194428","0.0-44.0-1.1","SS1613138315558","trial","","40","800","917.6200000045355","images/stimuli/spore_stims/complex_01_A_c.gif","images/stimuli/spore_stims/complex_01_B_c.gif","","","","","12","complex_similar","images/stimuli/spore_stims/complex_01_B_c.gif","middle","","","","",""
"","null","html-keyboard-response","228","1195593","0.0-44.0-0.2","SS1613138315558","","","null","","","","","<p><img src= images/blank.png width =""200"" height = ""200"" style = ""float:right""></p><p><img src=images/blank.png width =""800"" height = ""200""></p>","","","","","","","","","","","",""
"","194.99000001815148","sequential-stimulus-presentation","229","1196597","0.0-44.0-1.2","SS1613138315558","trial","","40","800","994.9900000181515","images/stimuli/spore_stims/complex_01_A_c.gif","images/stimuli/spore_stims/complex_01_B_c.gif","","","","","12","complex_similar","images/stimuli/spore_stims/complex_01_B_c.gif","middle","","","","",""
"","null","html-keyboard-response","230","1197580","0.0-44.0-0.3","SS1613138315558","","","null","","","","","<p><img src= images/blank.png width =""200"" height = ""200"" style = ""float:right""></p><p><img src=images/blank.png width =""800"" height = ""200""></p>","","","","","","","","","","","",""
"","213.13000001828186","sequential-stimulus-presentation","231","1198663","0.0-44.0-1.3","SS1613138315558","trial","","40","800","1013.1300000182819","images/stimuli/spore_stims/complex_01_A_c.gif","images/stimuli/spore_stims/complex_01_B_c.gif","","","","","12","complex_similar","images/stimuli/spore_stims/complex_01_B_c.gif","middle","","","","",""
"","null","html-keyboard-response","232","1199635","0.0-44.0-0.4","SS1613138315558","","","null","","","","","<p><img src= images/blank.png width =""200"" height = ""200"" style = ""float:right""></p><p><img src=images/blank.png width =""800"" height = ""200""></p>","","","","","","","","","","","",""
"","15.14499998302199","sequential-stimulus-presentation","233","1200471","0.0-44.0-1.4","SS1613138315558","trial","","40","800","815.144999983022","images/stimuli/spore_stims/complex_01_A_c.gif","images/stimuli/spore_stims/complex_01_B_c.gif","","","","","12","complex_similar","images/stimuli/spore_stims/complex_01_B_c.gif","middle","","","","",""
"","null","html-keyboard-response","234","1201295","0.0-44.0-0.5","SS1613138315558","","","null","","","","","<p><img src= images/blank.png width =""200"" height = ""200"" style = ""float:right""></p><p><img src=images/blank.png width =""800"" height = ""200""></p>","","","","","","","","","","","",""
"","199.74499999079853","sequential-stimulus-presentation","235","1202323","0.0-44.0-1.5","SS1613138315558","trial","","40","800","999.7449999907985","images/stimuli/spore_stims/complex_01_A_c.gif","images/stimuli/spore_stims/complex_01_B_c.gif","","","","","12","complex_similar","images/stimuli/spore_stims/complex_01_A_c.gif","right","","","","",""
"","null","html-keyboard-response","236","1203434","0.0-44.0-0.6","SS1613138315558","","","null","","","","","<p><img src= images/blank.png width =""200"" height = ""200"" style = ""float:right""></p><p><img src=images/blank.png width =""800"" height = ""200""></p>","","","","","","","","","","","",""
"","16.94499998120591","sequential-stimulus-presentation","237","1204269","0.0-44.0-1.6","SS1613138315558","trial","","40","800","816.9449999812059","images/stimuli/spore_stims/complex_01_A_c.gif","images/stimuli/spore_stims/complex_01_B_c.gif","","","","","12","complex_similar","images/stimuli/spore_stims/complex_01_B_c.gif","middle","","","","",""
"","null","html-keyboard-response","238","1205392","0.0-44.0-0.7","SS1613138315558","","","null","","","","","<p><img src= images/blank.png width =""200"" height = ""200"" style = ""float:right""></p><p><img src=images/blank.png width =""800"" height = ""200""></p>","","","","","","","","","","","",""
"","132.97499998589046","sequential-stimulus-presentation","239","1206341","0.0-44.0-1.7","SS1613138315558","trial","","40","800","932.9749999858905","images/stimuli/spore_stims/complex_01_A_c.gif","images/stimuli/spore_stims/complex_01_B_c.gif","","","","","12","complex_similar","images/stimuli/spore_stims/complex_01_B_c.gif","middle","","","","",""
"","62.825000000884756","html-keyboard-response","240","1206410","0.0-45.0","SS1613138315558","pref_question","","51","","","","","<video width ='960' height = '540' style='padding-top:8%' autoplay muted><source src='images/stimuli/wall_pref.mp4' type='video/mp4'></video>","3","right","66%","12","","","","","","","",""
"","102.03999999794178","sequential-stimulus-presentation","241","1207341","0.0-46.0","SS1613138315558","pref_reveal","","40","800","902.0399999979418","null","null","","","","","12","","","","deviant","","","",""
"","null","html-keyboard-response","242","1208317","0.0-47.0-0.0","SS1613138315558","","","null","","","","","<p><img src= images/blank.png width =""200"" height = ""200"" style = ""float:right""></p><p><img src=images/blank.png width =""800"" height = ""200""></p>","","","","","","","","","","","",""
"","119.4649999961257","sequential-stimulus-presentation","243","1209266","0.0-47.0-1.0","SS1613138315558","trial","","40","800","919.4649999961257","images/stimuli/spore_stims/complex_16_B_d.gif","images/stimuli/spore_stims/complex_16_A_d.gif","","","","","13","complex_similar","images/stimuli/spore_stims/complex_16_A_d.gif","left","","","","",""
"","null","html-keyboard-response","244","1210556","0.0-47.0-0.1","SS1613138315558","","","null","","","","","<p><img src= images/blank.png width =""200"" height = ""200"" style = ""float:right""></p><p><img src=images/blank.png width =""800"" height = ""200""></p>","","","","","","","","","","","",""
"","232.3949999990873","sequential-stimulus-presentation","245","1211611","0.0-47.0-1.1","SS1613138315558","trial","","40","800","1032.3949999990873","images/stimuli/spore_stims/complex_16_B_d.gif","images/stimuli/spore_stims/complex_16_A_d.gif","","","","","13","complex_similar","images/stimuli/spore_stims/complex_16_A_d.gif","left","","","","",""
"","null","html-keyboard-response","246","1212763","0.0-47.0-0.2","SS1613138315558","","","null","","","","","<p><img src= images/blank.png width =""200"" height = ""200"" style = ""float:right""></p><p><img src=images/blank.png width =""800"" height = ""200""></p>","","","","","","","","","","","",""
"","152.26000000257045","sequential-stimulus-presentation","247","1213745","0.0-47.0-1.2","SS1613138315558","trial","","40","800","952.2600000025705","images/stimuli/spore_stims/complex_16_B_d.gif","images/stimuli/spore_stims/complex_16_A_d.gif","","","","","13","complex_similar","images/stimuli/spore_stims/complex_16_B_d.gif","middle","","","","",""
"","null","html-keyboard-response","248","1215050","0.0-47.0-0.3","SS1613138315558","","","null","","","","","<p><img src= images/blank.png width =""200"" height = ""200"" style = ""float:right""></p><p><img src=images/blank.png width =""800"" height = ""200""></p>","","","","","","","","","","","",""
"","28.135000000474975","sequential-stimulus-presentation","249","1215906","0.0-47.0-1.3","SS1613138315558","trial","","40","800","828.135000000475","images/stimuli/spore_stims/complex_16_B_d.gif","images/stimuli/spore_stims/complex_16_A_d.gif","","","","","13","complex_similar","images/stimuli/spore_stims/complex_16_A_d.gif","left","","","","",""
"","null","html-keyboard-response","250","1216738","0.0-47.0-0.4","SS1613138315558","","","null","","","","","<p><img src= images/blank.png width =""200"" height = ""200"" style = ""float:right""></p><p><img src=images/blank.png width =""800"" height = ""200""></p>","","","","","","","","","","","",""
"","258.2899999979418","sequential-stimulus-presentation","251","1217824","0.0-47.0-1.4","SS1613138315558","trial","","40","800","1058.2899999979418","images/stimuli/spore_stims/complex_16_B_d.gif","images/stimuli/spore_stims/complex_16_A_d.gif","","","","","13","complex_similar","images/stimuli/spore_stims/complex_16_A_d.gif","left","","","","",""
"","null","html-keyboard-response","252","1219108","0.0-47.0-0.5","SS1613138315558","","","null","","","","","<p><img src= images/blank.png width =""200"" height = ""200"" style = ""float:right""></p><p><img src=images/blank.png width =""800"" height = ""200""></p>","","","","","","","","","","","",""
"","162.68000000854954","sequential-stimulus-presentation","253","1220098","0.0-47.0-1.5","SS1613138315558","trial","","40","800","962.6800000085495","images/stimuli/spore_stims/complex_16_B_d.gif","images/stimuli/spore_stims/complex_16_A_d.gif","","","","","13","complex_similar","images/stimuli/spore_stims/complex_16_A_d.gif","left","","","","",""
"","null","html-keyboard-response","254","1221392","0.0-47.0-0.6","SS1613138315558","","","null","","","","","<p><img src= images/blank.png width =""200"" height = ""200"" style = ""float:right""></p><p><img src=images/blank.png width =""800"" height = ""200""></p>","","","","","","","","","","","",""
"","158.01000001374632","sequential-stimulus-presentation","255","1222365","0.0-47.0-1.6","SS1613138315558","trial","","40","800","958.0100000137463","images/stimuli/spore_stims/complex_16_B_d.gif","images/stimuli/spore_stims/complex_16_A_d.gif","","","","","13","complex_similar","images/stimuli/spore_stims/complex_16_A_d.gif","left","","","","",""
"","null","html-keyboard-response","256","1223480","0.0-47.0-0.7","SS1613138315558","","","null","","","","","<p><img src= images/blank.png width =""200"" height = ""200"" style = ""float:right""></p><p><img src=images/blank.png width =""800"" height = ""200""></p>","","","","","","","","","","","",""
"","191.89999997615814","sequential-stimulus-presentation","257","1224484","0.0-47.0-1.7","SS1613138315558","trial","","40","800","991.8999999761581","images/stimuli/spore_stims/complex_16_B_d.gif","images/stimuli/spore_stims/complex_16_A_d.gif","","","","","13","complex_similar","images/stimuli/spore_stims/complex_16_A_d.gif","left","","","","",""
"","0.5050000036135316","html-keyboard-response","258","1224494","0.0-48.0","SS1613138315558","pref_question","","51","","","","","<video width ='960' height = '540' style='padding-top:8%' autoplay muted><source src='images/stimuli/wall_pref.mp4' type='video/mp4'></video>","3","right","66%","13","","","","","","","",""
"","72.76499998988584","sequential-stimulus-presentation","259","1225408","0.0-49.0","SS1613138315558","pref_reveal","","40","800","872.7649999898858","null","null","","","","","13","","","","novel","","","",""
"","null","html-keyboard-response","260","1226484","0.0-50.0-0.0","SS1613138315558","","","null","","","","","<p><img src= images/blank.png width =""200"" height = ""200"" style = ""float:right""></p><p><img src=images/blank.png width =""800"" height = ""200""></p>","","","","","","","","","","","",""
"","232.73000001790933","sequential-stimulus-presentation","261","1227537","0.0-50.0-1.0","SS1613138315558","trial","","40","800","1032.7300000179093","images/stimuli/spore_stims/simple_10_A_b.gif","images/stimuli/spore_stims/simple_10_B_b.gif","","","","","14","simple_similar","images/stimuli/spore_stims/simple_10_B_b.gif","right","","","","",""
"","null","html-keyboard-response","262","1228611","0.0-50.0-0.1","SS1613138315558","","","null","","","","","<p><img src= images/blank.png width =""200"" height = ""200"" style = ""float:right""></p><p><img src=images/blank.png width =""800"" height = ""200""></p>","","","","","","","","","","","",""
"","280.7899999897927","sequential-stimulus-presentation","263","1229716","0.0-50.0-1.1","SS1613138315558","trial","","40","800","1080.7899999897927","images/stimuli/spore_stims/simple_10_A_b.gif","images/stimuli/spore_stims/simple_10_B_b.gif","","","","","14","simple_similar","images/stimuli/spore_stims/simple_10_B_b.gif","right","","","","",""
"","null","html-keyboard-response","264","1230722","0.0-50.0-0.2","SS1613138315558","","","null","","","","","<p><img src= images/blank.png width =""200"" height = ""200"" style = ""float:right""></p><p><img src=images/blank.png width =""800"" height = ""200""></p>","","","","","","","","","","","",""
"","188.67500001215376","sequential-stimulus-presentation","265","1231735","0.0-50.0-1.2","SS1613138315558","trial","","40","800","988.6750000121538","images/stimuli/spore_stims/simple_10_A_b.gif","images/stimuli/spore_stims/simple_10_B_b.gif","","","","","14","simple_similar","images/stimuli/spore_stims/simple_10_B_b.gif","right","","","","",""
"","null","html-keyboard-response","266","1232805","0.0-50.0-0.3","SS1613138315558","","","null","","","","","<p><img src= images/blank.png width =""200"" height = ""200"" style = ""float:right""></p><p><img src=images/blank.png width =""800"" height = ""200""></p>","","","","","","","","","","","",""
"","225.16000000177883","sequential-stimulus-presentation","267","1233852","0.0-50.0-1.3","SS1613138315558","trial","","40","800","1025.1600000017788","images/stimuli/spore_stims/simple_10_A_b.gif","images/stimuli/spore_stims/simple_10_B_b.gif","","","","","14","simple_similar","images/stimuli/spore_stims/simple_10_B_b.gif","right","","","","",""
"","null","html-keyboard-response","268","1235068","0.0-50.0-0.4","SS1613138315558","","","null","","","","","<p><img src= images/blank.png width =""200"" height = ""200"" style = ""float:right""></p><p><img src=images/blank.png width =""800"" height = ""200""></p>","","","","","","","","","","","",""
"","24.815000011585653","sequential-stimulus-presentation","269","1235919","0.0-50.0-1.4","SS1613138315558","trial","","40","800","824.8150000115857","images/stimuli/spore_stims/simple_10_A_b.gif","images/stimuli/spore_stims/simple_10_B_b.gif","","","","","14","simple_similar","images/stimuli/spore_stims/simple_10_A_b.gif","left","","","","",""
"","null","html-keyboard-response","270","1237088","0.0-50.0-0.5","SS1613138315558","","","null","","","","","<p><img src= images/blank.png width =""200"" height = ""200"" style = ""float:right""></p><p><img src=images/blank.png width =""800"" height = ""200""></p>","","","","","","","","","","","",""
"","128.80500001483597","sequential-stimulus-presentation","271","1238054","0.0-50.0-1.5","SS1613138315558","trial","","40","800","928.805000014836","images/stimuli/spore_stims/simple_10_A_b.gif","images/stimuli/spore_stims/simple_10_B_b.gif","","","","","14","simple_similar","images/stimuli/spore_stims/simple_10_B_b.gif","right","","","","",""
"","null","html-keyboard-response","272","1239089","0.0-50.0-0.6","SS1613138315558","","","null","","","","","<p><img src= images/blank.png width =""200"" height = ""200"" style = ""float:right""></p><p><img src=images/blank.png width =""800"" height = ""200""></p>","","","","","","","","","","","",""
"","228.3750000060536","sequential-stimulus-presentation","273","1240167","0.0-50.0-1.6","SS1613138315558","trial","","40","800","1028.3750000060536","images/stimuli/spore_stims/simple_10_A_b.gif","images/stimuli/spore_stims/simple_10_B_b.gif","","","","","14","simple_similar","images/stimuli/spore_stims/simple_10_B_b.gif","right","","","","",""
"","null","html-keyboard-response","274","1241023","0.0-50.0-0.7","SS1613138315558","","","null","","","","","<p><img src= images/blank.png width =""200"" height = ""200"" style = ""float:right""></p><p><img src=images/blank.png width =""800"" height = ""200""></p>","","","","","","","","","","","",""
"","111.83999999775551","sequential-stimulus-presentation","275","1241951","0.0-50.0-1.7","SS1613138315558","trial","","40","800","911.8399999977555","images/stimuli/spore_stims/simple_10_A_b.gif","images/stimuli/spore_stims/simple_10_B_b.gif","","","","","14","simple_similar","images/stimuli/spore_stims/simple_10_B_b.gif","right","","","","",""
"","3.0049999768380076","html-keyboard-response","276","1241961","0.0-51.0","SS1613138315558","pref_question","","50","","","","","<video width ='960' height = '540' style='padding-top:8%' autoplay muted><source src='images/stimuli/wall_pref.mp4' type='video/mp4'></video>","2","middle","45%","14","","","","","","","",""
"","176.4499999990221","sequential-stimulus-presentation","277","1242961","0.0-52.0","SS1613138315558","pref_reveal","","40","800","976.4499999990221","null","null","","","","","14","","","","novel","","","",""
"","null","html-keyboard-response","278","1243816","0.0-53.0-0.0","SS1613138315558","","","null","","","","","<p><img src= images/blank.png width =""200"" height = ""200"" style = ""float:right""></p><p><img src=images/blank.png width =""800"" height = ""200""></p>","","","","","","","","","","","",""
"","186.00499999593012","sequential-stimulus-presentation","279","1244860","0.0-53.0-1.0","SS1613138315558","trial","","40","800","986.0049999959301","images/stimuli/spore_stims/simple_12_A_c.gif","images/stimuli/spore_stims/simple_12_B_c.gif","","","","","15","simple_similar","images/stimuli/spore_stims/simple_12_B_c.gif","right","","","","",""
"","null","html-keyboard-response","280","1245799","0.0-53.0-0.1","SS1613138315558","","","null","","","","","<p><img src= images/blank.png width =""200"" height = ""200"" style = ""float:right""></p><p><img src=images/blank.png width =""800"" height = ""200""></p>","","","","","","","","","","","",""
"","129.9249999865424","sequential-stimulus-presentation","281","1246753","0.0-53.0-1.1","SS1613138315558","trial","","40","800","929.9249999865424","images/stimuli/spore_stims/simple_12_A_c.gif","images/stimuli/spore_stims/simple_12_B_c.gif","","","","","15","simple_similar","images/stimuli/spore_stims/simple_12_B_c.gif","right","","","","",""
"","null","html-keyboard-response","282","1247676","0.0-53.0-0.2","SS1613138315558","","","null","","","","","<p><img src= images/blank.png width =""200"" height = ""200"" style = ""float:right""></p><p><img src=images/blank.png width =""800"" height = ""200""></p>","","","","","","","","","","","",""
"","78.89500001328997","sequential-stimulus-presentation","283","1248574","0.0-53.0-1.2","SS1613138315558","trial","","40","800","878.89500001329","images/stimuli/spore_stims/simple_12_A_c.gif","images/stimuli/spore_stims/simple_12_B_c.gif","","","","","15","simple_similar","images/stimuli/spore_stims/simple_12_B_c.gif","right","","","","",""
"","null","html-keyboard-response","284","1249643","0.0-53.0-0.3","SS1613138315558","","","null","","","","","<p><img src= images/blank.png width =""200"" height = ""200"" style = ""float:right""></p><p><img src=images/blank.png width =""800"" height = ""200""></p>","","","","","","","","","","","",""
"","24.544999992940575","sequential-stimulus-presentation","285","1250542","0.0-53.0-1.3","SS1613138315558","trial","","40","800","824.5449999929406","images/stimuli/spore_stims/simple_12_A_c.gif","images/stimuli/spore_stims/simple_12_B_c.gif","","","","","15","simple_similar","images/stimuli/spore_stims/simple_12_A_c.gif","middle","","","","",""
"","null","html-keyboard-response","286","1251742","0.0-53.0-0.4","SS1613138315558","","","null","","","","","<p><img src= images/blank.png width =""200"" height = ""200"" style = ""float:right""></p><p><img src=images/blank.png width =""800"" height = ""200""></p>","","","","","","","","","","","",""
"","163.64000001340173","sequential-stimulus-presentation","287","1252723","0.0-53.0-1.4","SS1613138315558","trial","","40","800","963.6400000134017","images/stimuli/spore_stims/simple_12_A_c.gif","images/stimuli/spore_stims/simple_12_B_c.gif","","","","","15","simple_similar","images/stimuli/spore_stims/simple_12_B_c.gif","right","","","","",""
"","null","html-keyboard-response","288","1253575","0.0-53.0-0.5","SS1613138315558","","","null","","","","","<p><img src= images/blank.png width =""200"" height = ""200"" style = ""float:right""></p><p><img src=images/blank.png width =""800"" height = ""200""></p>","","","","","","","","","","","",""
"","136.59999999799766","sequential-stimulus-presentation","289","1254543","0.0-53.0-1.5","SS1613138315558","trial","","40","800","936.5999999979977","images/stimuli/spore_stims/simple_12_A_c.gif","images/stimuli/spore_stims/simple_12_B_c.gif","","","","","15","simple_similar","images/stimuli/spore_stims/simple_12_B_c.gif","right","","","","",""
"","null","html-keyboard-response","290","1255764","0.0-53.0-0.6","SS1613138315558","","","null","","","","","<p><img src= images/blank.png width =""200"" height = ""200"" style = ""float:right""></p><p><img src=images/blank.png width =""800"" height = ""200""></p>","","","","","","","","","","","",""
"","99.47000001557171","sequential-stimulus-presentation","291","1256732","0.0-53.0-1.6","SS1613138315558","trial","","40","800","899.4700000155717","images/stimuli/spore_stims/simple_12_A_c.gif","images/stimuli/spore_stims/simple_12_B_c.gif","","","","","15","simple_similar","images/stimuli/spore_stims/simple_12_B_c.gif","right","","","","",""
"","null","html-keyboard-response","292","1257989","0.0-53.0-0.7","SS1613138315558","","","null","","","","","<p><img src= images/blank.png width =""200"" height = ""200"" style = ""float:right""></p><p><img src=images/blank.png width =""800"" height = ""200""></p>","","","","","","","","","","","",""
"","43.00999999395572","sequential-stimulus-presentation","293","1258857","0.0-53.0-1.7","SS1613138315558","trial","","40","800","843.0099999939557","images/stimuli/spore_stims/simple_12_A_c.gif","images/stimuli/spore_stims/simple_12_B_c.gif","","","","","15","simple_similar","images/stimuli/spore_stims/simple_12_B_c.gif","right","","","","",""
"","122.5399999821093","html-keyboard-response","294","1258988","0.0-54.0","SS1613138315558","pref_question","","49","","","","","<video width ='960' height = '540' style='padding-top:8%' autoplay muted><source src='images/stimuli/wall_pref.mp4' type='video/mp4'></video>","1","left","25%","15","","","","","","","",""
"","239.73999998997897","sequential-stimulus-presentation","295","1260044","0.0-55.0","SS1613138315558","pref_reveal","","40","800","1039.739999989979","null","null","","","","","15","","","","novel","","","",""
"","null","html-keyboard-response","296","1261207","0.0-56.0-0.0","SS1613138315558","","","null","","","","","<p><img src= images/blank.png width =""200"" height = ""200"" style = ""float:right""></p><p><img src=images/blank.png width =""800"" height = ""200""></p>","","","","","","","","","","","",""
"","146.9750000105705","sequential-stimulus-presentation","297","1262209","0.0-56.0-1.0","SS1613138315558","trial","","40","800","946.9750000105705","images/stimuli/spore_stims/complex_14_B_a.gif","images/stimuli/spore_stims/complex_14_A_a.gif","","","","","16","complex_similar","images/stimuli/spore_stims/complex_14_A_a.gif","right","","","","",""
"","null","html-keyboard-response","298","1263392","0.0-56.0-0.1","SS1613138315558","","","null","","","","","<p><img src= images/blank.png width =""200"" height = ""200"" style = ""float:right""></p><p><img src=images/blank.png width =""800"" height = ""200""></p>","","","","","","","","","","","",""
"","174.0449999924749","sequential-stimulus-presentation","299","1264390","0.0-56.0-1.1","SS1613138315558","trial","","40","800","974.0449999924749","images/stimuli/spore_stims/complex_14_B_a.gif","images/stimuli/spore_stims/complex_14_A_a.gif","","","","","16","complex_similar","images/stimuli/spore_stims/complex_14_A_a.gif","right","","","","",""
"","null","html-keyboard-response","300","1265344","0.0-56.0-0.2","SS1613138315558","","","null","","","","","<p><img src= images/blank.png width =""200"" height = ""200"" style = ""float:right""></p><p><img src=images/blank.png width =""800"" height = ""200""></p>","","","","","","","","","","","",""
"","58.264999999664724","sequential-stimulus-presentation","301","1266225","0.0-56.0-1.2","SS1613138315558","trial","","40","800","858.2649999996647","images/stimuli/spore_stims/complex_14_B_a.gif","images/stimuli/spore_stims/complex_14_A_a.gif","","","","","16","complex_similar","images/stimuli/spore_stims/complex_14_A_a.gif","right","","","","",""
"","null","html-keyboard-response","302","1267104","0.0-56.0-0.3","SS1613138315558","","","null","","","","","<p><img src= images/blank.png width =""200"" height = ""200"" style = ""float:right""></p><p><img src=images/blank.png width =""800"" height = ""200""></p>","","","","","","","","","","","",""
"","89.75000001373701","sequential-stimulus-presentation","303","1268041","0.0-56.0-1.3","SS1613138315558","trial","","40","800","889.750000013737","images/stimuli/spore_stims/complex_14_B_a.gif","images/stimuli/spore_stims/complex_14_A_a.gif","","","","","16","complex_similar","images/stimuli/spore_stims/complex_14_A_a.gif","right","","","","",""
"","null","html-keyboard-response","304","1269251","0.0-56.0-0.4","SS1613138315558","","","null","","","","","<p><img src= images/blank.png width =""200"" height = ""200"" style = ""float:right""></p><p><img src=images/blank.png width =""800"" height = ""200""></p>","","","","","","","","","","","",""
"","61.09999999171123","sequential-stimulus-presentation","305","1270131","0.0-56.0-1.4","SS1613138315558","trial","","40","800","861.0999999917112","images/stimuli/spore_stims/complex_14_B_a.gif","images/stimuli/spore_stims/complex_14_A_a.gif","","","","","16","complex_similar","images/stimuli/spore_stims/complex_14_B_a.gif","left","","","","",""
"","null","html-keyboard-response","306","1270959","0.0-56.0-0.5","SS1613138315558","","","null","","","","","<p><img src= images/blank.png width =""200"" height = ""200"" style = ""float:right""></p><p><img src=images/blank.png width =""800"" height = ""200""></p>","","","","","","","","","","","",""
"","160.68999998969957","sequential-stimulus-presentation","307","1271950","0.0-56.0-1.5","SS1613138315558","trial","","40","800","960.6899999896996","images/stimuli/spore_stims/complex_14_B_a.gif","images/stimuli/spore_stims/complex_14_A_a.gif","","","","","16","complex_similar","images/stimuli/spore_stims/complex_14_A_a.gif","right","","","","",""
"","null","html-keyboard-response","308","1272957","0.0-56.0-0.6","SS1613138315558","","","null","","","","","<p><img src= images/blank.png width =""200"" height = ""200"" style = ""float:right""></p><p><img src=images/blank.png width =""800"" height = ""200""></p>","","","","","","","","","","","",""
"","149.4550000061281","sequential-stimulus-presentation","309","1273924","0.0-56.0-1.6","SS1613138315558","trial","","40","800","949.4550000061281","images/stimuli/spore_stims/complex_14_B_a.gif","images/stimuli/spore_stims/complex_14_A_a.gif","","","","","16","complex_similar","images/stimuli/spore_stims/complex_14_A_a.gif","right","","","","",""
"","null","html-keyboard-response","310","1275167","0.0-56.0-0.7","SS1613138315558","","","null","","","","","<p><img src= images/blank.png width =""200"" height = ""200"" style = ""float:right""></p><p><img src=images/blank.png width =""800"" height = ""200""></p>","","","","","","","","","","","",""
"","223.1749999918975","sequential-stimulus-presentation","311","1276211","0.0-56.0-1.7","SS1613138315558","trial","","40","800","1023.1749999918975","images/stimuli/spore_stims/complex_14_B_a.gif","images/stimuli/spore_stims/complex_14_A_a.gif","","","","","16","complex_similar","images/stimuli/spore_stims/complex_14_A_a.gif","right","","","","",""
