"view_history","rt","trial_type","trial_index","time_elapsed","internal_node_id","subject","stimulus_type","trial_stimulus","key_press","minimum_viewing_duration","trial_looking_time","block_deviant","block_background","stimulus","wall_pref","location","location_percent","block_number","block_type","stimulus_displayed","position_displayed","stim_type_selected","responses","question_order","stimulus_left","stimulus_right"
"[{""page_index"":0,""viewing_time"":18993}]","18993","instructions","0","18998","0.0-0.0","SS1613080790260","","","","","","","","","","","","","","","","","","","",""
"[{""page_index"":0,""viewing_time"":38626},{""page_index"":1,""viewing_time"":14268}]","52894","instructions","1","73900","0.0-1.0","SS1613080790260","instructions","","","","","","","","","","","","","","","","","","",""
"","20048","sequential-stimulus-presentation","2","94757","0.0-2.0","SS1613080790260","","","40","800","20848","null","null","","","","","","","","","","","","",""
"","6674","sequential-stimulus-presentation","3","102235","0.0-3.0","SS1613080790260","","","40","800","7474","null","null","","","","","","","","","","","","",""
"[{""page_index"":0,""viewing_time"":11716}]","11717","instructions","4","113953","0.0-4.0","SS1613080790260","instructions","","","","","","","","","","","","","","","","","","",""
"","27389","html-keyboard-response","5","141344","0.0-5.0","SS1613080790260","instructions","","51","","","","","<video width ='960' height = '540' autoplay muted><source src='images/stimuli/wall_pref.mp4' type='video/mp4'></video>","3","right","66%","","","","","","","","",""
"","5668","sequential-stimulus-presentation","6","147822","0.0-6.0","SS1613080790260","pref_reveal","","40","800","6468","null","null","","","","","","","","","","","","",""
"[{""page_index"":0,""viewing_time"":29699},{""page_index"":1,""viewing_time"":12841},{""page_index"":2,""viewing_time"":3664},{""page_index"":3,""viewing_time"":1822}]","48026","instructions","7","195849","0.0-7.0","SS1613080790260","instructions","","","","","","","","","","","","","","","","","","",""
"","null","html-keyboard-response","8","196993","0.0-8.0-0.0","SS1613080790260","","","null","","","","","<p><img src= images/blank.png width =""200"" height = ""200"" style = ""float:right""></p><p><img src=images/blank.png width =""800"" height = ""200""></p>","","","","","","","","","","","",""
"","2511","sequential-stimulus-presentation","9","200315","0.0-8.0-1.0","SS1613080790260","trial","","40","800","3311","images/stimuli/spore_stims/simple_09_B_d.gif","images/stimuli/spore_stims/simple_12_A_a.gif","","","","","0","simple_dissimilar","images/stimuli/spore_stims/simple_12_A_a.gif","left","","","","",""
"","null","html-keyboard-response","10","201324","0.0-8.0-0.1","SS1613080790260","","","null","","","","","<p><img src= images/blank.png width =""200"" height = ""200"" style = ""float:right""></p><p><img src=images/blank.png width =""800"" height = ""200""></p>","","","","","","","","","","","",""
"","2147","sequential-stimulus-presentation","11","204275","0.0-8.0-1.1","SS1613080790260","trial","","40","800","2947","images/stimuli/spore_stims/simple_09_B_d.gif","images/stimuli/spore_stims/simple_12_A_a.gif","","","","","0","simple_dissimilar","images/stimuli/spore_stims/simple_12_A_a.gif","left","","","","",""
"","null","html-keyboard-response","12","205571","0.0-8.0-0.2","SS1613080790260","","","null","","","","","<p><img src= images/blank.png width =""200"" height = ""200"" style = ""float:right""></p><p><img src=images/blank.png width =""800"" height = ""200""></p>","","","","","","","","","","","",""
"","2353","sequential-stimulus-presentation","13","208729","0.0-8.0-1.2","SS1613080790260","trial","","40","800","3153","images/stimuli/spore_stims/simple_09_B_d.gif","images/stimuli/spore_stims/simple_12_A_a.gif","","","","","0","simple_dissimilar","images/stimuli/spore_stims/simple_12_A_a.gif","left","","","","",""
"","null","html-keyboard-response","14","209840","0.0-8.0-0.3","SS1613080790260","","","null","","","","","<p><img src= images/blank.png width =""200"" height = ""200"" style = ""float:right""></p><p><img src=images/blank.png width =""800"" height = ""200""></p>","","","","","","","","","","","",""
"","2956","sequential-stimulus-presentation","15","213600","0.0-8.0-1.3","SS1613080790260","trial","","40","800","3756","images/stimuli/spore_stims/simple_09_B_d.gif","images/stimuli/spore_stims/simple_12_A_a.gif","","","","","0","simple_dissimilar","images/stimuli/spore_stims/simple_12_A_a.gif","left","","","","",""
"","null","html-keyboard-response","16","214586","0.0-8.0-0.4","SS1613080790260","","","null","","","","","<p><img src= images/blank.png width =""200"" height = ""200"" style = ""float:right""></p><p><img src=images/blank.png width =""800"" height = ""200""></p>","","","","","","","","","","","",""
"","3236","sequential-stimulus-presentation","17","218629","0.0-8.0-1.4","SS1613080790260","trial","","40","800","4036","images/stimuli/spore_stims/simple_09_B_d.gif","images/stimuli/spore_stims/simple_12_A_a.gif","","","","","0","simple_dissimilar","images/stimuli/spore_stims/simple_12_A_a.gif","left","","","","",""
"","null","html-keyboard-response","18","219668","0.0-8.0-0.5","SS1613080790260","","","null","","","","","<p><img src= images/blank.png width =""200"" height = ""200"" style = ""float:right""></p><p><img src=images/blank.png width =""800"" height = ""200""></p>","","","","","","","","","","","",""
"","4063","sequential-stimulus-presentation","19","224536","0.0-8.0-1.5","SS1613080790260","trial","","40","800","4863","images/stimuli/spore_stims/simple_09_B_d.gif","images/stimuli/spore_stims/simple_12_A_a.gif","","","","","0","simple_dissimilar","images/stimuli/spore_stims/simple_12_A_a.gif","left","","","","",""
"","null","html-keyboard-response","20","225779","0.0-8.0-0.6","SS1613080790260","","","null","","","","","<p><img src= images/blank.png width =""200"" height = ""200"" style = ""float:right""></p><p><img src=images/blank.png width =""800"" height = ""200""></p>","","","","","","","","","","","",""
"","4262","sequential-stimulus-presentation","21","230847","0.0-8.0-1.6","SS1613080790260","trial","","40","800","5062","images/stimuli/spore_stims/simple_09_B_d.gif","images/stimuli/spore_stims/simple_12_A_a.gif","","","","","0","simple_dissimilar","images/stimuli/spore_stims/simple_12_A_a.gif","left","","","","",""
"","null","html-keyboard-response","22","232009","0.0-8.0-0.7","SS1613080790260","","","null","","","","","<p><img src= images/blank.png width =""200"" height = ""200"" style = ""float:right""></p><p><img src=images/blank.png width =""800"" height = ""200""></p>","","","","","","","","","","","",""
"","6009","sequential-stimulus-presentation","23","238824","0.0-8.0-1.7","SS1613080790260","trial","","40","800","6809","images/stimuli/spore_stims/simple_09_B_d.gif","images/stimuli/spore_stims/simple_12_A_a.gif","","","","","0","simple_dissimilar","images/stimuli/spore_stims/simple_09_B_d.gif","middle","","","","",""
"","1651","html-keyboard-response","24","240477","0.0-9.0","SS1613080790260","pref_question","","51","","","","","<video width ='960' height = '540' style='padding-top:8%' autoplay muted><source src='images/stimuli/wall_pref.mp4' type='video/mp4'></video>","3","right","66%","0","","","","","","","",""
"","6022","sequential-stimulus-presentation","25","247306","0.0-10.0","SS1613080790260","pref_reveal","","40","800","6822","null","null","","","","","0","","","","novel","","","",""
"","null","html-keyboard-response","26","248331","0.0-11.0-0.0","SS1613080790260","","","null","","","","","<p><img src= images/blank.png width =""200"" height = ""200"" style = ""float:right""></p><p><img src=images/blank.png width =""800"" height = ""200""></p>","","","","","","","","","","","",""
"","5114","sequential-stimulus-presentation","27","254248","0.0-11.0-1.0","SS1613080790260","trial","","40","800","5914","images/stimuli/spore_stims/simple_14_A_a.gif","images/stimuli/spore_stims/simple_06_B_d.gif","","","","","1","simple_dissimilar","images/stimuli/spore_stims/simple_06_B_d.gif","middle","","","","",""
"","null","html-keyboard-response","28","255398","0.0-11.0-0.1","SS1613080790260","","","null","","","","","<p><img src= images/blank.png width =""200"" height = ""200"" style = ""float:right""></p><p><img src=images/blank.png width =""800"" height = ""200""></p>","","","","","","","","","","","",""
"","1184","sequential-stimulus-presentation","29","257389","0.0-11.0-1.1","SS1613080790260","trial","","40","800","1984","images/stimuli/spore_stims/simple_14_A_a.gif","images/stimuli/spore_stims/simple_06_B_d.gif","","","","","1","simple_dissimilar","images/stimuli/spore_stims/simple_06_B_d.gif","middle","","","","",""
"","null","html-keyboard-response","30","258590","0.0-11.0-0.2","SS1613080790260","","","null","","","","","<p><img src= images/blank.png width =""200"" height = ""200"" style = ""float:right""></p><p><img src=images/blank.png width =""800"" height = ""200""></p>","","","","","","","","","","","",""
"","2311","sequential-stimulus-presentation","31","261707","0.0-11.0-1.2","SS1613080790260","trial","","40","800","3111","images/stimuli/spore_stims/simple_14_A_a.gif","images/stimuli/spore_stims/simple_06_B_d.gif","","","","","1","simple_dissimilar","images/stimuli/spore_stims/simple_06_B_d.gif","middle","","","","",""
"","null","html-keyboard-response","32","262997","0.0-11.0-0.3","SS1613080790260","","","null","","","","","<p><img src= images/blank.png width =""200"" height = ""200"" style = ""float:right""></p><p><img src=images/blank.png width =""800"" height = ""200""></p>","","","","","","","","","","","",""
"","1401","sequential-stimulus-presentation","33","265205","0.0-11.0-1.3","SS1613080790260","trial","","40","800","2201","images/stimuli/spore_stims/simple_14_A_a.gif","images/stimuli/spore_stims/simple_06_B_d.gif","","","","","1","simple_dissimilar","images/stimuli/spore_stims/simple_06_B_d.gif","middle","","","","",""
"","null","html-keyboard-response","34","266431","0.0-11.0-0.4","SS1613080790260","","","null","","","","","<p><img src= images/blank.png width =""200"" height = ""200"" style = ""float:right""></p><p><img src=images/blank.png width =""800"" height = ""200""></p>","","","","","","","","","","","",""
"","8497","sequential-stimulus-presentation","35","275736","0.0-11.0-1.4","SS1613080790260","trial","","40","800","9297","images/stimuli/spore_stims/simple_14_A_a.gif","images/stimuli/spore_stims/simple_06_B_d.gif","","","","","1","simple_dissimilar","images/stimuli/spore_stims/simple_14_A_a.gif","right","","","","",""
"","null","html-keyboard-response","36","276604","0.0-11.0-0.5","SS1613080790260","","","null","","","","","<p><img src= images/blank.png width =""200"" height = ""200"" style = ""float:right""></p><p><img src=images/blank.png width =""800"" height = ""200""></p>","","","","","","","","","","","",""
"","1847","sequential-stimulus-presentation","37","279257","0.0-11.0-1.5","SS1613080790260","trial","","40","800","2647","images/stimuli/spore_stims/simple_14_A_a.gif","images/stimuli/spore_stims/simple_06_B_d.gif","","","","","1","simple_dissimilar","images/stimuli/spore_stims/simple_06_B_d.gif","middle","","","","",""
"","null","html-keyboard-response","38","280168","0.0-11.0-0.6","SS1613080790260","","","null","","","","","<p><img src= images/blank.png width =""200"" height = ""200"" style = ""float:right""></p><p><img src=images/blank.png width =""800"" height = ""200""></p>","","","","","","","","","","","",""
"","2119","sequential-stimulus-presentation","39","283092","0.0-11.0-1.6","SS1613080790260","trial","","40","800","2919","images/stimuli/spore_stims/simple_14_A_a.gif","images/stimuli/spore_stims/simple_06_B_d.gif","","","","","1","simple_dissimilar","images/stimuli/spore_stims/simple_06_B_d.gif","middle","","","","",""
"","null","html-keyboard-response","40","284328","0.0-11.0-0.7","SS1613080790260","","","null","","","","","<p><img src= images/blank.png width =""200"" height = ""200"" style = ""float:right""></p><p><img src=images/blank.png width =""800"" height = ""200""></p>","","","","","","","","","","","",""
"","2159","sequential-stimulus-presentation","41","287291","0.0-11.0-1.7","SS1613080790260","trial","","40","800","2959","images/stimuli/spore_stims/simple_14_A_a.gif","images/stimuli/spore_stims/simple_06_B_d.gif","","","","","1","simple_dissimilar","images/stimuli/spore_stims/simple_06_B_d.gif","middle","","","","",""
"","1548","html-keyboard-response","42","288841","0.0-12.0","SS1613080790260","pref_question","","49","","","","","<video width ='960' height = '540' style='padding-top:8%' autoplay muted><source src='images/stimuli/wall_pref.mp4' type='video/mp4'></video>","1","left","25%","1","","","","","","","",""
"","3601","sequential-stimulus-presentation","43","293251","0.0-13.0","SS1613080790260","pref_reveal","","40","800","4401","null","null","","","","","1","","","","novel","","","",""
"","null","html-keyboard-response","44","294527","0.0-14.0-0.0","SS1613080790260","","","null","","","","","<p><img src= images/blank.png width =""200"" height = ""200"" style = ""float:right""></p><p><img src=images/blank.png width =""800"" height = ""200""></p>","","","","","","","","","","","",""
"","4949","sequential-stimulus-presentation","45","300282","0.0-14.0-1.0","SS1613080790260","trial","","40","800","5749","images/stimuli/spore_stims/simple_15_A_b.gif","images/stimuli/spore_stims/simple_15_B_b.gif","","","","","2","simple_similar","images/stimuli/spore_stims/simple_15_B_b.gif","right","","","","",""
"","null","html-keyboard-response","46","301448","0.0-14.0-0.1","SS1613080790260","","","null","","","","","<p><img src= images/blank.png width =""200"" height = ""200"" style = ""float:right""></p><p><img src=images/blank.png width =""800"" height = ""200""></p>","","","","","","","","","","","",""
"","8052","sequential-stimulus-presentation","47","310307","0.0-14.0-1.1","SS1613080790260","trial","","40","800","8852","images/stimuli/spore_stims/simple_15_A_b.gif","images/stimuli/spore_stims/simple_15_B_b.gif","","","","","2","simple_similar","images/stimuli/spore_stims/simple_15_B_b.gif","right","","","","",""
"","null","html-keyboard-response","48","311117","0.0-14.0-0.2","SS1613080790260","","","null","","","","","<p><img src= images/blank.png width =""200"" height = ""200"" style = ""float:right""></p><p><img src=images/blank.png width =""800"" height = ""200""></p>","","","","","","","","","","","",""
"","3347","sequential-stimulus-presentation","49","315267","0.0-14.0-1.2","SS1613080790260","trial","","40","800","4147","images/stimuli/spore_stims/simple_15_A_b.gif","images/stimuli/spore_stims/simple_15_B_b.gif","","","","","2","simple_similar","images/stimuli/spore_stims/simple_15_B_b.gif","right","","","","",""
"","null","html-keyboard-response","50","316207","0.0-14.0-0.3","SS1613080790260","","","null","","","","","<p><img src= images/blank.png width =""200"" height = ""200"" style = ""float:right""></p><p><img src=images/blank.png width =""800"" height = ""200""></p>","","","","","","","","","","","",""
"","3489","sequential-stimulus-presentation","51","320499","0.0-14.0-1.3","SS1613080790260","trial","","40","800","4289","images/stimuli/spore_stims/simple_15_A_b.gif","images/stimuli/spore_stims/simple_15_B_b.gif","","","","","2","simple_similar","images/stimuli/spore_stims/simple_15_B_b.gif","right","","","","",""
"","null","html-keyboard-response","52","321706","0.0-14.0-0.4","SS1613080790260","","","null","","","","","<p><img src= images/blank.png width =""200"" height = ""200"" style = ""float:right""></p><p><img src=images/blank.png width =""800"" height = ""200""></p>","","","","","","","","","","","",""
"","4155","sequential-stimulus-presentation","53","326666","0.0-14.0-1.4","SS1613080790260","trial","","40","800","4955","images/stimuli/spore_stims/simple_15_A_b.gif","images/stimuli/spore_stims/simple_15_B_b.gif","","","","","2","simple_similar","images/stimuli/spore_stims/simple_15_B_b.gif","right","","","","",""
"","null","html-keyboard-response","54","327501","0.0-14.0-0.5","SS1613080790260","","","null","","","","","<p><img src= images/blank.png width =""200"" height = ""200"" style = ""float:right""></p><p><img src=images/blank.png width =""800"" height = ""200""></p>","","","","","","","","","","","",""
"","5751","sequential-stimulus-presentation","55","334056","0.0-14.0-1.5","SS1613080790260","trial","","40","800","6551","images/stimuli/spore_stims/simple_15_A_b.gif","images/stimuli/spore_stims/simple_15_B_b.gif","","","","","2","simple_similar","images/stimuli/spore_stims/simple_15_A_b.gif","middle","","","","",""
"","null","html-keyboard-response","56","335300","0.0-14.0-0.6","SS1613080790260","","","null","","","","","<p><img src= images/blank.png width =""200"" height = ""200"" style = ""float:right""></p><p><img src=images/blank.png width =""800"" height = ""200""></p>","","","","","","","","","","","",""
"","1819","sequential-stimulus-presentation","57","337926","0.0-14.0-1.6","SS1613080790260","trial","","40","800","2619","images/stimuli/spore_stims/simple_15_A_b.gif","images/stimuli/spore_stims/simple_15_B_b.gif","","","","","2","simple_similar","images/stimuli/spore_stims/simple_15_B_b.gif","right","","","","",""
"","null","html-keyboard-response","58","338749","0.0-14.0-0.7","SS1613080790260","","","null","","","","","<p><img src= images/blank.png width =""200"" height = ""200"" style = ""float:right""></p><p><img src=images/blank.png width =""800"" height = ""200""></p>","","","","","","","","","","","",""
"","1744","sequential-stimulus-presentation","59","341301","0.0-14.0-1.7","SS1613080790260","trial","","40","800","2544","images/stimuli/spore_stims/simple_15_A_b.gif","images/stimuli/spore_stims/simple_15_B_b.gif","","","","","2","simple_similar","images/stimuli/spore_stims/simple_15_B_b.gif","right","","","","",""
"","1369","html-keyboard-response","60","342674","0.0-15.0","SS1613080790260","pref_question","","50","","","","","<video width ='960' height = '540' style='padding-top:8%' autoplay muted><source src='images/stimuli/wall_pref.mp4' type='video/mp4'></video>","2","middle","45%","2","","","","","","","",""
"","3085","sequential-stimulus-presentation","61","346565","0.0-16.0","SS1613080790260","pref_reveal","","40","800","3885","null","null","","","","","2","","","","deviant","","","",""
"","null","html-keyboard-response","62","347647","0.0-17.0-0.0","SS1613080790260","","","null","","","","","<p><img src= images/blank.png width =""200"" height = ""200"" style = ""float:right""></p><p><img src=images/blank.png width =""800"" height = ""200""></p>","","","","","","","","","","","",""
"","3703","sequential-stimulus-presentation","63","352157","0.0-17.0-1.0","SS1613080790260","trial","","40","800","4503","images/stimuli/spore_stims/complex_19_B_d.gif","images/stimuli/spore_stims/complex_19_A_d.gif","","","","","3","complex_similar","images/stimuli/spore_stims/complex_19_A_d.gif","left","","","","",""
"","null","html-keyboard-response","64","352982","0.0-17.0-0.1","SS1613080790260","","","null","","","","","<p><img src= images/blank.png width =""200"" height = ""200"" style = ""float:right""></p><p><img src=images/blank.png width =""800"" height = ""200""></p>","","","","","","","","","","","",""
"","1857","sequential-stimulus-presentation","65","355645","0.0-17.0-1.1","SS1613080790260","trial","","40","800","2657","images/stimuli/spore_stims/complex_19_B_d.gif","images/stimuli/spore_stims/complex_19_A_d.gif","","","","","3","complex_similar","images/stimuli/spore_stims/complex_19_A_d.gif","left","","","","",""
"","null","html-keyboard-response","66","356938","0.0-17.0-0.2","SS1613080790260","","","null","","","","","<p><img src= images/blank.png width =""200"" height = ""200"" style = ""float:right""></p><p><img src=images/blank.png width =""800"" height = ""200""></p>","","","","","","","","","","","",""
"","1873","sequential-stimulus-presentation","67","359616","0.0-17.0-1.2","SS1613080790260","trial","","40","800","2673","images/stimuli/spore_stims/complex_19_B_d.gif","images/stimuli/spore_stims/complex_19_A_d.gif","","","","","3","complex_similar","images/stimuli/spore_stims/complex_19_A_d.gif","left","","","","",""
"","null","html-keyboard-response","68","360746","0.0-17.0-0.3","SS1613080790260","","","null","","","","","<p><img src= images/blank.png width =""200"" height = ""200"" style = ""float:right""></p><p><img src=images/blank.png width =""800"" height = ""200""></p>","","","","","","","","","","","",""
"","1775","sequential-stimulus-presentation","69","363328","0.0-17.0-1.3","SS1613080790260","trial","","40","800","2575","images/stimuli/spore_stims/complex_19_B_d.gif","images/stimuli/spore_stims/complex_19_A_d.gif","","","","","3","complex_similar","images/stimuli/spore_stims/complex_19_A_d.gif","left","","","","",""
"","null","html-keyboard-response","70","364396","0.0-17.0-0.4","SS1613080790260","","","null","","","","","<p><img src= images/blank.png width =""200"" height = ""200"" style = ""float:right""></p><p><img src=images/blank.png width =""800"" height = ""200""></p>","","","","","","","","","","","",""
"","1604","sequential-stimulus-presentation","71","366804","0.0-17.0-1.4","SS1613080790260","trial","","40","800","2404","images/stimuli/spore_stims/complex_19_B_d.gif","images/stimuli/spore_stims/complex_19_A_d.gif","","","","","3","complex_similar","images/stimuli/spore_stims/complex_19_A_d.gif","left","","","","",""
"","null","html-keyboard-response","72","367679","0.0-17.0-0.5","SS1613080790260","","","null","","","","","<p><img src= images/blank.png width =""200"" height = ""200"" style = ""float:right""></p><p><img src=images/blank.png width =""800"" height = ""200""></p>","","","","","","","","","","","",""
"","1626","sequential-stimulus-presentation","73","370112","0.0-17.0-1.5","SS1613080790260","trial","","40","800","2426","images/stimuli/spore_stims/complex_19_B_d.gif","images/stimuli/spore_stims/complex_19_A_d.gif","","","","","3","complex_similar","images/stimuli/spore_stims/complex_19_A_d.gif","left","","","","",""
"","null","html-keyboard-response","74","371098","0.0-17.0-0.6","SS1613080790260","","","null","","","","","<p><img src= images/blank.png width =""200"" height = ""200"" style = ""float:right""></p><p><img src=images/blank.png width =""800"" height = ""200""></p>","","","","","","","","","","","",""
"","1900","sequential-stimulus-presentation","75","373802","0.0-17.0-1.6","SS1613080790260","trial","","40","800","2700","images/stimuli/spore_stims/complex_19_B_d.gif","images/stimuli/spore_stims/complex_19_A_d.gif","","","","","3","complex_similar","images/stimuli/spore_stims/complex_19_B_d.gif","middle","","","","",""
"","null","html-keyboard-response","76","374780","0.0-17.0-0.7","SS1613080790260","","","null","","","","","<p><img src= images/blank.png width =""200"" height = ""200"" style = ""float:right""></p><p><img src=images/blank.png width =""800"" height = ""200""></p>","","","","","","","","","","","",""
"","4092","sequential-stimulus-presentation","77","379675","0.0-17.0-1.7","SS1613080790260","trial","","40","800","4892","images/stimuli/spore_stims/complex_19_B_d.gif","images/stimuli/spore_stims/complex_19_A_d.gif","","","","","3","complex_similar","images/stimuli/spore_stims/complex_19_A_d.gif","left","","","","",""
"","1505","html-keyboard-response","78","381182","0.0-18.0","SS1613080790260","pref_question","","49","","","","","<video width ='960' height = '540' style='padding-top:8%' autoplay muted><source src='images/stimuli/wall_pref.mp4' type='video/mp4'></video>","1","left","25%","3","","","","","","","",""
"","2726","sequential-stimulus-presentation","79","384715","0.0-19.0","SS1613080790260","pref_reveal","","40","800","3526","null","null","","","","","3","","","","background","","","",""
"","null","html-keyboard-response","80","385635","0.0-20.0-0.0","SS1613080790260","","","null","","","","","<p><img src= images/blank.png width =""200"" height = ""200"" style = ""float:right""></p><p><img src=images/blank.png width =""800"" height = ""200""></p>","","","","","","","","","","","",""
"","5093","sequential-stimulus-presentation","81","391535","0.0-20.0-1.0","SS1613080790260","trial","","40","800","5893","images/stimuli/spore_stims/complex_18_B_a.gif","images/stimuli/spore_stims/complex_02_A_b.gif","","","","","4","complex_dissimilar","images/stimuli/spore_stims/complex_02_A_b.gif","middle","","","","",""
"","null","html-keyboard-response","82","392702","0.0-20.0-0.1","SS1613080790260","","","null","","","","","<p><img src= images/blank.png width =""200"" height = ""200"" style = ""float:right""></p><p><img src=images/blank.png width =""800"" height = ""200""></p>","","","","","","","","","","","",""
"","2913","sequential-stimulus-presentation","83","396426","0.0-20.0-1.1","SS1613080790260","trial","","40","800","3713","images/stimuli/spore_stims/complex_18_B_a.gif","images/stimuli/spore_stims/complex_02_A_b.gif","","","","","4","complex_dissimilar","images/stimuli/spore_stims/complex_02_A_b.gif","middle","","","","",""
"","null","html-keyboard-response","84","397716","0.0-20.0-0.2","SS1613080790260","","","null","","","","","<p><img src= images/blank.png width =""200"" height = ""200"" style = ""float:right""></p><p><img src=images/blank.png width =""800"" height = ""200""></p>","","","","","","","","","","","",""
"","2157","sequential-stimulus-presentation","85","400679","0.0-20.0-1.2","SS1613080790260","trial","","40","800","2957","images/stimuli/spore_stims/complex_18_B_a.gif","images/stimuli/spore_stims/complex_02_A_b.gif","","","","","4","complex_dissimilar","images/stimuli/spore_stims/complex_18_B_a.gif","right","","","","",""
"","null","html-keyboard-response","86","401607","0.0-20.0-0.3","SS1613080790260","","","null","","","","","<p><img src= images/blank.png width =""200"" height = ""200"" style = ""float:right""></p><p><img src=images/blank.png width =""800"" height = ""200""></p>","","","","","","","","","","","",""
"","4005","sequential-stimulus-presentation","87","406416","0.0-20.0-1.3","SS1613080790260","trial","","40","800","4805","images/stimuli/spore_stims/complex_18_B_a.gif","images/stimuli/spore_stims/complex_02_A_b.gif","","","","","4","complex_dissimilar","images/stimuli/spore_stims/complex_02_A_b.gif","middle","","","","",""
"","null","html-keyboard-response","88","407595","0.0-20.0-0.4","SS1613080790260","","","null","","","","","<p><img src= images/blank.png width =""200"" height = ""200"" style = ""float:right""></p><p><img src=images/blank.png width =""800"" height = ""200""></p>","","","","","","","","","","","",""
"","3191","sequential-stimulus-presentation","89","411592","0.0-20.0-1.4","SS1613080790260","trial","","40","800","3991","images/stimuli/spore_stims/complex_18_B_a.gif","images/stimuli/spore_stims/complex_02_A_b.gif","","","","","4","complex_dissimilar","images/stimuli/spore_stims/complex_02_A_b.gif","middle","","","","",""
"","null","html-keyboard-response","90","412832","0.0-20.0-0.5","SS1613080790260","","","null","","","","","<p><img src= images/blank.png width =""200"" height = ""200"" style = ""float:right""></p><p><img src=images/blank.png width =""800"" height = ""200""></p>","","","","","","","","","","","",""
"","3523","sequential-stimulus-presentation","91","417160","0.0-20.0-1.5","SS1613080790260","trial","","40","800","4323","images/stimuli/spore_stims/complex_18_B_a.gif","images/stimuli/spore_stims/complex_02_A_b.gif","","","","","4","complex_dissimilar","images/stimuli/spore_stims/complex_02_A_b.gif","middle","","","","",""
"","null","html-keyboard-response","92","418231","0.0-20.0-0.6","SS1613080790260","","","null","","","","","<p><img src= images/blank.png width =""200"" height = ""200"" style = ""float:right""></p><p><img src=images/blank.png width =""800"" height = ""200""></p>","","","","","","","","","","","",""
"","4389","sequential-stimulus-presentation","93","423426","0.0-20.0-1.6","SS1613080790260","trial","","40","800","5189","images/stimuli/spore_stims/complex_18_B_a.gif","images/stimuli/spore_stims/complex_02_A_b.gif","","","","","4","complex_dissimilar","images/stimuli/spore_stims/complex_02_A_b.gif","middle","","","","",""
"","null","html-keyboard-response","94","424499","0.0-20.0-0.7","SS1613080790260","","","null","","","","","<p><img src= images/blank.png width =""200"" height = ""200"" style = ""float:right""></p><p><img src=images/blank.png width =""800"" height = ""200""></p>","","","","","","","","","","","",""
"","4481","sequential-stimulus-presentation","95","429783","0.0-20.0-1.7","SS1613080790260","trial","","40","800","5281","images/stimuli/spore_stims/complex_18_B_a.gif","images/stimuli/spore_stims/complex_02_A_b.gif","","","","","4","complex_dissimilar","images/stimuli/spore_stims/complex_02_A_b.gif","middle","","","","",""
"","1177","html-keyboard-response","96","430964","0.0-21.0","SS1613080790260","pref_question","","49","","","","","<video width ='960' height = '540' style='padding-top:8%' autoplay muted><source src='images/stimuli/wall_pref.mp4' type='video/mp4'></video>","1","left","25%","4","","","","","","","",""
"","5481","sequential-stimulus-presentation","97","437253","0.0-22.0","SS1613080790260","pref_reveal","","40","800","6281","null","null","","","","","4","","","","novel","","","",""
"","null","html-keyboard-response","98","438331","0.0-23.0-0.0","SS1613080790260","","","null","","","","","<p><img src= images/blank.png width =""200"" height = ""200"" style = ""float:right""></p><p><img src=images/blank.png width =""800"" height = ""200""></p>","","","","","","","","","","","",""
"","5732","sequential-stimulus-presentation","99","444869","0.0-23.0-1.0","SS1613080790260","trial","","40","800","6532","images/stimuli/spore_stims/simple_08_A_c.gif","images/stimuli/spore_stims/simple_08_B_c.gif","","","","","5","simple_similar","images/stimuli/spore_stims/simple_08_B_c.gif","middle","","","","",""
"","null","html-keyboard-response","100","445804","0.0-23.0-0.1","SS1613080790260","","","null","","","","","<p><img src= images/blank.png width =""200"" height = ""200"" style = ""float:right""></p><p><img src=images/blank.png width =""800"" height = ""200""></p>","","","","","","","","","","","",""
"","3232","sequential-stimulus-presentation","101","449842","0.0-23.0-1.1","SS1613080790260","trial","","40","800","4032","images/stimuli/spore_stims/simple_08_A_c.gif","images/stimuli/spore_stims/simple_08_B_c.gif","","","","","5","simple_similar","images/stimuli/spore_stims/simple_08_B_c.gif","middle","","","","",""
"","null","html-keyboard-response","102","450801","0.0-23.0-0.2","SS1613080790260","","","null","","","","","<p><img src= images/blank.png width =""200"" height = ""200"" style = ""float:right""></p><p><img src=images/blank.png width =""800"" height = ""200""></p>","","","","","","","","","","","",""
"","2296","sequential-stimulus-presentation","103","453903","0.0-23.0-1.2","SS1613080790260","trial","","40","800","3096","images/stimuli/spore_stims/simple_08_A_c.gif","images/stimuli/spore_stims/simple_08_B_c.gif","","","","","5","simple_similar","images/stimuli/spore_stims/simple_08_B_c.gif","middle","","","","",""
"","null","html-keyboard-response","104","455142","0.0-23.0-0.3","SS1613080790260","","","null","","","","","<p><img src= images/blank.png width =""200"" height = ""200"" style = ""float:right""></p><p><img src=images/blank.png width =""800"" height = ""200""></p>","","","","","","","","","","","",""
"","4151","sequential-stimulus-presentation","105","460103","0.0-23.0-1.3","SS1613080790260","trial","","40","800","4951","images/stimuli/spore_stims/simple_08_A_c.gif","images/stimuli/spore_stims/simple_08_B_c.gif","","","","","5","simple_similar","images/stimuli/spore_stims/simple_08_A_c.gif","right","","","","",""
"","null","html-keyboard-response","106","461182","0.0-23.0-0.4","SS1613080790260","","","null","","","","","<p><img src= images/blank.png width =""200"" height = ""200"" style = ""float:right""></p><p><img src=images/blank.png width =""800"" height = ""200""></p>","","","","","","","","","","","",""
"","2783","sequential-stimulus-presentation","107","464771","0.0-23.0-1.4","SS1613080790260","trial","","40","800","3583","images/stimuli/spore_stims/simple_08_A_c.gif","images/stimuli/spore_stims/simple_08_B_c.gif","","","","","5","simple_similar","images/stimuli/spore_stims/simple_08_B_c.gif","middle","","","","",""
"","null","html-keyboard-response","108","465988","0.0-23.0-0.5","SS1613080790260","","","null","","","","","<p><img src= images/blank.png width =""200"" height = ""200"" style = ""float:right""></p><p><img src=images/blank.png width =""800"" height = ""200""></p>","","","","","","","","","","","",""
"","4695","sequential-stimulus-presentation","109","471487","0.0-23.0-1.5","SS1613080790260","trial","","40","800","5495","images/stimuli/spore_stims/simple_08_A_c.gif","images/stimuli/spore_stims/simple_08_B_c.gif","","","","","5","simple_similar","images/stimuli/spore_stims/simple_08_B_c.gif","middle","","","","",""
"","null","html-keyboard-response","110","472500","0.0-23.0-0.6","SS1613080790260","","","null","","","","","<p><img src= images/blank.png width =""200"" height = ""200"" style = ""float:right""></p><p><img src=images/blank.png width =""800"" height = ""200""></p>","","","","","","","","","","","",""
"","4683","sequential-stimulus-presentation","111","477990","0.0-23.0-1.6","SS1613080790260","trial","","40","800","5483","images/stimuli/spore_stims/simple_08_A_c.gif","images/stimuli/spore_stims/simple_08_B_c.gif","","","","","5","simple_similar","images/stimuli/spore_stims/simple_08_B_c.gif","middle","","","","",""
"","null","html-keyboard-response","112","479148","0.0-23.0-0.7","SS1613080790260","","","null","","","","","<p><img src= images/blank.png width =""200"" height = ""200"" style = ""float:right""></p><p><img src=images/blank.png width =""800"" height = ""200""></p>","","","","","","","","","","","",""
"","3368","sequential-stimulus-presentation","113","483323","0.0-23.0-1.7","SS1613080790260","trial","","40","800","4168","images/stimuli/spore_stims/simple_08_A_c.gif","images/stimuli/spore_stims/simple_08_B_c.gif","","","","","5","simple_similar","images/stimuli/spore_stims/simple_08_B_c.gif","middle","","","","",""
"","974","html-keyboard-response","114","484301","0.0-24.0","SS1613080790260","pref_question","","49","","","","","<video width ='960' height = '540' style='padding-top:8%' autoplay muted><source src='images/stimuli/wall_pref.mp4' type='video/mp4'></video>","1","left","25%","5","","","","","","","",""
"","2976","sequential-stimulus-presentation","115","488081","0.0-25.0","SS1613080790260","pref_reveal","","40","800","3776","null","null","","","","","5","","","","novel","","","",""
"","null","html-keyboard-response","116","489003","0.0-26.0-0.0","SS1613080790260","","","null","","","","","<p><img src= images/blank.png width =""200"" height = ""200"" style = ""float:right""></p><p><img src=images/blank.png width =""800"" height = ""200""></p>","","","","","","","","","","","",""
"","1893","sequential-stimulus-presentation","117","491703","0.0-26.0-1.0","SS1613080790260","trial","","40","800","2693","images/stimuli/spore_stims/complex_16_B_b.gif","images/stimuli/spore_stims/complex_16_A_b.gif","","","","","6","complex_similar","images/stimuli/spore_stims/complex_16_A_b.gif","left","","","","",""
"","null","html-keyboard-response","118","492969","0.0-26.0-0.1","SS1613080790260","","","null","","","","","<p><img src= images/blank.png width =""200"" height = ""200"" style = ""float:right""></p><p><img src=images/blank.png width =""800"" height = ""200""></p>","","","","","","","","","","","",""
"","3170","sequential-stimulus-presentation","119","496947","0.0-26.0-1.1","SS1613080790260","trial","","40","800","3970","images/stimuli/spore_stims/complex_16_B_b.gif","images/stimuli/spore_stims/complex_16_A_b.gif","","","","","6","complex_similar","images/stimuli/spore_stims/complex_16_A_b.gif","left","","","","",""
"","null","html-keyboard-response","120","498105","0.0-26.0-0.2","SS1613080790260","","","null","","","","","<p><img src= images/blank.png width =""200"" height = ""200"" style = ""float:right""></p><p><img src=images/blank.png width =""800"" height = ""200""></p>","","","","","","","","","","","",""
"","2398","sequential-stimulus-presentation","121","501311","0.0-26.0-1.2","SS1613080790260","trial","","40","800","3198","images/stimuli/spore_stims/complex_16_B_b.gif","images/stimuli/spore_stims/complex_16_A_b.gif","","","","","6","complex_similar","images/stimuli/spore_stims/complex_16_A_b.gif","left","","","","",""
"","null","html-keyboard-response","122","502201","0.0-26.0-0.3","SS1613080790260","","","null","","","","","<p><img src= images/blank.png width =""200"" height = ""200"" style = ""float:right""></p><p><img src=images/blank.png width =""800"" height = ""200""></p>","","","","","","","","","","","",""
"","1692","sequential-stimulus-presentation","123","504697","0.0-26.0-1.3","SS1613080790260","trial","","40","800","2492","images/stimuli/spore_stims/complex_16_B_b.gif","images/stimuli/spore_stims/complex_16_A_b.gif","","","","","6","complex_similar","images/stimuli/spore_stims/complex_16_A_b.gif","left","","","","",""
"","null","html-keyboard-response","124","505948","0.0-26.0-0.4","SS1613080790260","","","null","","","","","<p><img src= images/blank.png width =""200"" height = ""200"" style = ""float:right""></p><p><img src=images/blank.png width =""800"" height = ""200""></p>","","","","","","","","","","","",""
"","2971","sequential-stimulus-presentation","125","509726","0.0-26.0-1.4","SS1613080790260","trial","","40","800","3771","images/stimuli/spore_stims/complex_16_B_b.gif","images/stimuli/spore_stims/complex_16_A_b.gif","","","","","6","complex_similar","images/stimuli/spore_stims/complex_16_B_b.gif","middle","","","","",""
"","null","html-keyboard-response","126","511028","0.0-26.0-0.5","SS1613080790260","","","null","","","","","<p><img src= images/blank.png width =""200"" height = ""200"" style = ""float:right""></p><p><img src=images/blank.png width =""800"" height = ""200""></p>","","","","","","","","","","","",""
"","3891","sequential-stimulus-presentation","127","515724","0.0-26.0-1.5","SS1613080790260","trial","","40","800","4691","images/stimuli/spore_stims/complex_16_B_b.gif","images/stimuli/spore_stims/complex_16_A_b.gif","","","","","6","complex_similar","images/stimuli/spore_stims/complex_16_A_b.gif","left","","","","",""
"","null","html-keyboard-response","128","516933","0.0-26.0-0.6","SS1613080790260","","","null","","","","","<p><img src= images/blank.png width =""200"" height = ""200"" style = ""float:right""></p><p><img src=images/blank.png width =""800"" height = ""200""></p>","","","","","","","","","","","",""
"","4229","sequential-stimulus-presentation","129","521967","0.0-26.0-1.6","SS1613080790260","trial","","40","800","5029","images/stimuli/spore_stims/complex_16_B_b.gif","images/stimuli/spore_stims/complex_16_A_b.gif","","","","","6","complex_similar","images/stimuli/spore_stims/complex_16_A_b.gif","left","","","","",""
"","null","html-keyboard-response","130","523055","0.0-26.0-0.7","SS1613080790260","","","null","","","","","<p><img src= images/blank.png width =""200"" height = ""200"" style = ""float:right""></p><p><img src=images/blank.png width =""800"" height = ""200""></p>","","","","","","","","","","","",""
"","1031","sequential-stimulus-presentation","131","524893","0.0-26.0-1.7","SS1613080790260","trial","","40","800","1831","images/stimuli/spore_stims/complex_16_B_b.gif","images/stimuli/spore_stims/complex_16_A_b.gif","","","","","6","complex_similar","images/stimuli/spore_stims/complex_16_A_b.gif","left","","","","",""
"","917","html-keyboard-response","132","525814","0.0-27.0","SS1613080790260","pref_question","","51","","","","","<video width ='960' height = '540' style='padding-top:8%' autoplay muted><source src='images/stimuli/wall_pref.mp4' type='video/mp4'></video>","3","right","66%","6","","","","","","","",""
"","6391","sequential-stimulus-presentation","133","533015","0.0-28.0","SS1613080790260","pref_reveal","","40","800","7191","null","null","","","","","6","","","","novel","","","",""
"","null","html-keyboard-response","134","534062","0.0-29.0-0.0","SS1613080790260","","","null","","","","","<p><img src= images/blank.png width =""200"" height = ""200"" style = ""float:right""></p><p><img src=images/blank.png width =""800"" height = ""200""></p>","","","","","","","","","","","",""
"","2847","sequential-stimulus-presentation","135","537717","0.0-29.0-1.0","SS1613080790260","trial","","40","800","3647","images/stimuli/spore_stims/complex_02_B_b.gif","images/stimuli/spore_stims/complex_08_B_d.gif","","","","","7","complex_dissimilar","images/stimuli/spore_stims/complex_08_B_d.gif","middle","","","","",""
"","null","html-keyboard-response","136","538553","0.0-29.0-0.1","SS1613080790260","","","null","","","","","<p><img src= images/blank.png width =""200"" height = ""200"" style = ""float:right""></p><p><img src=images/blank.png width =""800"" height = ""200""></p>","","","","","","","","","","","",""
"","5513","sequential-stimulus-presentation","137","544872","0.0-29.0-1.1","SS1613080790260","trial","","40","800","6313","images/stimuli/spore_stims/complex_02_B_b.gif","images/stimuli/spore_stims/complex_08_B_d.gif","","","","","7","complex_dissimilar","images/stimuli/spore_stims/complex_08_B_d.gif","middle","","","","",""
"","null","html-keyboard-response","138","545724","0.0-29.0-0.2","SS1613080790260","","","null","","","","","<p><img src= images/blank.png width =""200"" height = ""200"" style = ""float:right""></p><p><img src=images/blank.png width =""800"" height = ""200""></p>","","","","","","","","","","","",""
"","3550","sequential-stimulus-presentation","139","550081","0.0-29.0-1.2","SS1613080790260","trial","","40","800","4350","images/stimuli/spore_stims/complex_02_B_b.gif","images/stimuli/spore_stims/complex_08_B_d.gif","","","","","7","complex_dissimilar","images/stimuli/spore_stims/complex_08_B_d.gif","middle","","","","",""
"","null","html-keyboard-response","140","551240","0.0-29.0-0.3","SS1613080790260","","","null","","","","","<p><img src= images/blank.png width =""200"" height = ""200"" style = ""float:right""></p><p><img src=images/blank.png width =""800"" height = ""200""></p>","","","","","","","","","","","",""
"","3675","sequential-stimulus-presentation","141","555718","0.0-29.0-1.3","SS1613080790260","trial","","40","800","4475","images/stimuli/spore_stims/complex_02_B_b.gif","images/stimuli/spore_stims/complex_08_B_d.gif","","","","","7","complex_dissimilar","images/stimuli/spore_stims/complex_08_B_d.gif","middle","","","","",""
"","null","html-keyboard-response","142","556592","0.0-29.0-0.4","SS1613080790260","","","null","","","","","<p><img src= images/blank.png width =""200"" height = ""200"" style = ""float:right""></p><p><img src=images/blank.png width =""800"" height = ""200""></p>","","","","","","","","","","","",""
"","2874","sequential-stimulus-presentation","143","560273","0.0-29.0-1.4","SS1613080790260","trial","","40","800","3674","images/stimuli/spore_stims/complex_02_B_b.gif","images/stimuli/spore_stims/complex_08_B_d.gif","","","","","7","complex_dissimilar","images/stimuli/spore_stims/complex_02_B_b.gif","left","","","","",""
"","null","html-keyboard-response","144","561089","0.0-29.0-0.5","SS1613080790260","","","null","","","","","<p><img src= images/blank.png width =""200"" height = ""200"" style = ""float:right""></p><p><img src=images/blank.png width =""800"" height = ""200""></p>","","","","","","","","","","","",""
"","3565","sequential-stimulus-presentation","145","565460","0.0-29.0-1.5","SS1613080790260","trial","","40","800","4365","images/stimuli/spore_stims/complex_02_B_b.gif","images/stimuli/spore_stims/complex_08_B_d.gif","","","","","7","complex_dissimilar","images/stimuli/spore_stims/complex_08_B_d.gif","middle","","","","",""
"","null","html-keyboard-response","146","566673","0.0-29.0-0.6","SS1613080790260","","","null","","","","","<p><img src= images/blank.png width =""200"" height = ""200"" style = ""float:right""></p><p><img src=images/blank.png width =""800"" height = ""200""></p>","","","","","","","","","","","",""
"","2606","sequential-stimulus-presentation","147","570084","0.0-29.0-1.6","SS1613080790260","trial","","40","800","3406","images/stimuli/spore_stims/complex_02_B_b.gif","images/stimuli/spore_stims/complex_08_B_d.gif","","","","","7","complex_dissimilar","images/stimuli/spore_stims/complex_08_B_d.gif","middle","","","","",""
"","null","html-keyboard-response","148","571229","0.0-29.0-0.7","SS1613080790260","","","null","","","","","<p><img src= images/blank.png width =""200"" height = ""200"" style = ""float:right""></p><p><img src=images/blank.png width =""800"" height = ""200""></p>","","","","","","","","","","","",""
"","2660","sequential-stimulus-presentation","149","574696","0.0-29.0-1.7","SS1613080790260","trial","","40","800","3460","images/stimuli/spore_stims/complex_02_B_b.gif","images/stimuli/spore_stims/complex_08_B_d.gif","","","","","7","complex_dissimilar","images/stimuli/spore_stims/complex_08_B_d.gif","middle","","","","",""
"","963","html-keyboard-response","150","575663","0.0-30.0","SS1613080790260","pref_question","","50","","","","","<video width ='960' height = '540' style='padding-top:8%' autoplay muted><source src='images/stimuli/wall_pref.mp4' type='video/mp4'></video>","2","middle","45%","7","","","","","","","",""
"","2804","sequential-stimulus-presentation","151","579274","0.0-31.0","SS1613080790260","pref_reveal","","40","800","3604","null","null","","","","","7","","","","background","","","",""
"","null","html-keyboard-response","152","580246","0.0-32.0-0.0","SS1613080790260","","","null","","","","","<p><img src= images/blank.png width =""200"" height = ""200"" style = ""float:right""></p><p><img src=images/blank.png width =""800"" height = ""200""></p>","","","","","","","","","","","",""
"","3127","sequential-stimulus-presentation","153","584180","0.0-32.0-1.0","SS1613080790260","trial","","40","800","3927","images/stimuli/spore_stims/complex_07_B_d.gif","images/stimuli/spore_stims/complex_10_A_b.gif","","","","","8","complex_dissimilar","images/stimuli/spore_stims/complex_10_A_b.gif","right","","","","",""
"","null","html-keyboard-response","154","585401","0.0-32.0-0.1","SS1613080790260","","","null","","","","","<p><img src= images/blank.png width =""200"" height = ""200"" style = ""float:right""></p><p><img src=images/blank.png width =""800"" height = ""200""></p>","","","","","","","","","","","",""
"","2539","sequential-stimulus-presentation","155","588747","0.0-32.0-1.1","SS1613080790260","trial","","40","800","3339","images/stimuli/spore_stims/complex_07_B_d.gif","images/stimuli/spore_stims/complex_10_A_b.gif","","","","","8","complex_dissimilar","images/stimuli/spore_stims/complex_10_A_b.gif","right","","","","",""
"","null","html-keyboard-response","156","589826","0.0-32.0-0.2","SS1613080790260","","","null","","","","","<p><img src= images/blank.png width =""200"" height = ""200"" style = ""float:right""></p><p><img src=images/blank.png width =""800"" height = ""200""></p>","","","","","","","","","","","",""
"","1887","sequential-stimulus-presentation","157","592516","0.0-32.0-1.2","SS1613080790260","trial","","40","800","2687","images/stimuli/spore_stims/complex_07_B_d.gif","images/stimuli/spore_stims/complex_10_A_b.gif","","","","","8","complex_dissimilar","images/stimuli/spore_stims/complex_10_A_b.gif","right","","","","",""
"","null","html-keyboard-response","158","593653","0.0-32.0-0.3","SS1613080790260","","","null","","","","","<p><img src= images/blank.png width =""200"" height = ""200"" style = ""float:right""></p><p><img src=images/blank.png width =""800"" height = ""200""></p>","","","","","","","","","","","",""
"","2264","sequential-stimulus-presentation","159","596726","0.0-32.0-1.3","SS1613080790260","trial","","40","800","3064","images/stimuli/spore_stims/complex_07_B_d.gif","images/stimuli/spore_stims/complex_10_A_b.gif","","","","","8","complex_dissimilar","images/stimuli/spore_stims/complex_10_A_b.gif","right","","","","",""
"","null","html-keyboard-response","160","597856","0.0-32.0-0.4","SS1613080790260","","","null","","","","","<p><img src= images/blank.png width =""200"" height = ""200"" style = ""float:right""></p><p><img src=images/blank.png width =""800"" height = ""200""></p>","","","","","","","","","","","",""
"","2919","sequential-stimulus-presentation","161","601584","0.0-32.0-1.4","SS1613080790260","trial","","40","800","3719","images/stimuli/spore_stims/complex_07_B_d.gif","images/stimuli/spore_stims/complex_10_A_b.gif","","","","","8","complex_dissimilar","images/stimuli/spore_stims/complex_10_A_b.gif","right","","","","",""
"","null","html-keyboard-response","162","602774","0.0-32.0-0.5","SS1613080790260","","","null","","","","","<p><img src= images/blank.png width =""200"" height = ""200"" style = ""float:right""></p><p><img src=images/blank.png width =""800"" height = ""200""></p>","","","","","","","","","","","",""
"","3155","sequential-stimulus-presentation","163","606736","0.0-32.0-1.5","SS1613080790260","trial","","40","800","3955","images/stimuli/spore_stims/complex_07_B_d.gif","images/stimuli/spore_stims/complex_10_A_b.gif","","","","","8","complex_dissimilar","images/stimuli/spore_stims/complex_10_A_b.gif","right","","","","",""
"","null","html-keyboard-response","164","607960","0.0-32.0-0.6","SS1613080790260","","","null","","","","","<p><img src= images/blank.png width =""200"" height = ""200"" style = ""float:right""></p><p><img src=images/blank.png width =""800"" height = ""200""></p>","","","","","","","","","","","",""
"","3164","sequential-stimulus-presentation","165","611934","0.0-32.0-1.6","SS1613080790260","trial","","40","800","3964","images/stimuli/spore_stims/complex_07_B_d.gif","images/stimuli/spore_stims/complex_10_A_b.gif","","","","","8","complex_dissimilar","images/stimuli/spore_stims/complex_07_B_d.gif","middle","","","","",""
"","null","html-keyboard-response","166","613024","0.0-32.0-0.7","SS1613080790260","","","null","","","","","<p><img src= images/blank.png width =""200"" height = ""200"" style = ""float:right""></p><p><img src=images/blank.png width =""800"" height = ""200""></p>","","","","","","","","","","","",""
"","1602","sequential-stimulus-presentation","167","615433","0.0-32.0-1.7","SS1613080790260","trial","","40","800","2402","images/stimuli/spore_stims/complex_07_B_d.gif","images/stimuli/spore_stims/complex_10_A_b.gif","","","","","8","complex_dissimilar","images/stimuli/spore_stims/complex_10_A_b.gif","right","","","","",""
"","963","html-keyboard-response","168","616399","0.0-33.0","SS1613080790260","pref_question","","49","","","","","<video width ='960' height = '540' style='padding-top:8%' autoplay muted><source src='images/stimuli/wall_pref.mp4' type='video/mp4'></video>","1","left","25%","8","","","","","","","",""
"","3696","sequential-stimulus-presentation","169","620901","0.0-34.0","SS1613080790260","pref_reveal","","40","800","4496","null","null","","","","","8","","","","novel","","","",""
"","null","html-keyboard-response","170","621727","0.0-35.0-0.0","SS1613080790260","","","null","","","","","<p><img src= images/blank.png width =""200"" height = ""200"" style = ""float:right""></p><p><img src=images/blank.png width =""800"" height = ""200""></p>","","","","","","","","","","","",""
"","3979","sequential-stimulus-presentation","171","626514","0.0-35.0-1.0","SS1613080790260","trial","","40","800","4779","images/stimuli/spore_stims/simple_10_B_b.gif","images/stimuli/spore_stims/simple_10_A_b.gif","","","","","9","simple_similar","images/stimuli/spore_stims/simple_10_A_b.gif","right","","","","",""
"","null","html-keyboard-response","172","627631","0.0-35.0-0.1","SS1613080790260","","","null","","","","","<p><img src= images/blank.png width =""200"" height = ""200"" style = ""float:right""></p><p><img src=images/blank.png width =""800"" height = ""200""></p>","","","","","","","","","","","",""
"","1822","sequential-stimulus-presentation","173","630260","0.0-35.0-1.1","SS1613080790260","trial","","40","800","2622","images/stimuli/spore_stims/simple_10_B_b.gif","images/stimuli/spore_stims/simple_10_A_b.gif","","","","","9","simple_similar","images/stimuli/spore_stims/simple_10_A_b.gif","right","","","","",""
"","null","html-keyboard-response","174","631555","0.0-35.0-0.2","SS1613080790260","","","null","","","","","<p><img src= images/blank.png width =""200"" height = ""200"" style = ""float:right""></p><p><img src=images/blank.png width =""800"" height = ""200""></p>","","","","","","","","","","","",""
"","1666","sequential-stimulus-presentation","175","634029","0.0-35.0-1.2","SS1613080790260","trial","","40","800","2466","images/stimuli/spore_stims/simple_10_B_b.gif","images/stimuli/spore_stims/simple_10_A_b.gif","","","","","9","simple_similar","images/stimuli/spore_stims/simple_10_A_b.gif","right","","","","",""
"","null","html-keyboard-response","176","635214","0.0-35.0-0.3","SS1613080790260","","","null","","","","","<p><img src= images/blank.png width =""200"" height = ""200"" style = ""float:right""></p><p><img src=images/blank.png width =""800"" height = ""200""></p>","","","","","","","","","","","",""
"","2395","sequential-stimulus-presentation","177","638416","0.0-35.0-1.3","SS1613080790260","trial","","40","800","3195","images/stimuli/spore_stims/simple_10_B_b.gif","images/stimuli/spore_stims/simple_10_A_b.gif","","","","","9","simple_similar","images/stimuli/spore_stims/simple_10_A_b.gif","right","","","","",""
"","null","html-keyboard-response","178","639404","0.0-35.0-0.4","SS1613080790260","","","null","","","","","<p><img src= images/blank.png width =""200"" height = ""200"" style = ""float:right""></p><p><img src=images/blank.png width =""800"" height = ""200""></p>","","","","","","","","","","","",""
"","1549","sequential-stimulus-presentation","179","641758","0.0-35.0-1.4","SS1613080790260","trial","","40","800","2349","images/stimuli/spore_stims/simple_10_B_b.gif","images/stimuli/spore_stims/simple_10_A_b.gif","","","","","9","simple_similar","images/stimuli/spore_stims/simple_10_B_b.gif","middle","","","","",""
"","null","html-keyboard-response","180","642641","0.0-35.0-0.5","SS1613080790260","","","null","","","","","<p><img src= images/blank.png width =""200"" height = ""200"" style = ""float:right""></p><p><img src=images/blank.png width =""800"" height = ""200""></p>","","","","","","","","","","","",""
"","1851","sequential-stimulus-presentation","181","645301","0.0-35.0-1.5","SS1613080790260","trial","","40","800","2651","images/stimuli/spore_stims/simple_10_B_b.gif","images/stimuli/spore_stims/simple_10_A_b.gif","","","","","9","simple_similar","images/stimuli/spore_stims/simple_10_A_b.gif","right","","","","",""
"","null","html-keyboard-response","182","646335","0.0-35.0-0.6","SS1613080790260","","","null","","","","","<p><img src= images/blank.png width =""200"" height = ""200"" style = ""float:right""></p><p><img src=images/blank.png width =""800"" height = ""200""></p>","","","","","","","","","","","",""
"","2255","sequential-stimulus-presentation","183","649397","0.0-35.0-1.6","SS1613080790260","trial","","40","800","3055","images/stimuli/spore_stims/simple_10_B_b.gif","images/stimuli/spore_stims/simple_10_A_b.gif","","","","","9","simple_similar","images/stimuli/spore_stims/simple_10_A_b.gif","right","","","","",""
"","null","html-keyboard-response","184","650412","0.0-35.0-0.7","SS1613080790260","","","null","","","","","<p><img src= images/blank.png width =""200"" height = ""200"" style = ""float:right""></p><p><img src=images/blank.png width =""800"" height = ""200""></p>","","","","","","","","","","","",""
"","2359","sequential-stimulus-presentation","185","653582","0.0-35.0-1.7","SS1613080790260","trial","","40","800","3159","images/stimuli/spore_stims/simple_10_B_b.gif","images/stimuli/spore_stims/simple_10_A_b.gif","","","","","9","simple_similar","images/stimuli/spore_stims/simple_10_A_b.gif","right","","","","",""
"","974","html-keyboard-response","186","654560","0.0-36.0","SS1613080790260","pref_question","","49","","","","","<video width ='960' height = '540' style='padding-top:8%' autoplay muted><source src='images/stimuli/wall_pref.mp4' type='video/mp4'></video>","1","left","25%","9","","","","","","","",""
"","2569","sequential-stimulus-presentation","187","657936","0.0-37.0","SS1613080790260","pref_reveal","","40","800","3369","null","null","","","","","9","","","","novel","","","",""
"","null","html-keyboard-response","188","658966","0.0-38.0-0.0","SS1613080790260","","","null","","","","","<p><img src= images/blank.png width =""200"" height = ""200"" style = ""float:right""></p><p><img src=images/blank.png width =""800"" height = ""200""></p>","","","","","","","","","","","",""
"","3160","sequential-stimulus-presentation","189","662931","0.0-38.0-1.0","SS1613080790260","trial","","40","800","3960","images/stimuli/spore_stims/simple_18_A_b.gif","images/stimuli/spore_stims/simple_18_B_b.gif","","","","","10","simple_similar","images/stimuli/spore_stims/simple_18_B_b.gif","right","","","","",""
"","null","html-keyboard-response","190","663866","0.0-38.0-0.1","SS1613080790260","","","null","","","","","<p><img src= images/blank.png width =""200"" height = ""200"" style = ""float:right""></p><p><img src=images/blank.png width =""800"" height = ""200""></p>","","","","","","","","","","","",""
"","2843","sequential-stimulus-presentation","191","667521","0.0-38.0-1.1","SS1613080790260","trial","","40","800","3643","images/stimuli/spore_stims/simple_18_A_b.gif","images/stimuli/spore_stims/simple_18_B_b.gif","","","","","10","simple_similar","images/stimuli/spore_stims/simple_18_B_b.gif","right","","","","",""
"","null","html-keyboard-response","192","668578","0.0-38.0-0.2","SS1613080790260","","","null","","","","","<p><img src= images/blank.png width =""200"" height = ""200"" style = ""float:right""></p><p><img src=images/blank.png width =""800"" height = ""200""></p>","","","","","","","","","","","",""
"","4355","sequential-stimulus-presentation","193","673742","0.0-38.0-1.2","SS1613080790260","trial","","40","800","5155","images/stimuli/spore_stims/simple_18_A_b.gif","images/stimuli/spore_stims/simple_18_B_b.gif","","","","","10","simple_similar","images/stimuli/spore_stims/simple_18_B_b.gif","right","","","","",""
"","null","html-keyboard-response","194","674623","0.0-38.0-0.3","SS1613080790260","","","null","","","","","<p><img src= images/blank.png width =""200"" height = ""200"" style = ""float:right""></p><p><img src=images/blank.png width =""800"" height = ""200""></p>","","","","","","","","","","","",""
"","1956","sequential-stimulus-presentation","195","677387","0.0-38.0-1.3","SS1613080790260","trial","","40","800","2756","images/stimuli/spore_stims/simple_18_A_b.gif","images/stimuli/spore_stims/simple_18_B_b.gif","","","","","10","simple_similar","images/stimuli/spore_stims/simple_18_B_b.gif","right","","","","",""
"","null","html-keyboard-response","196","678626","0.0-38.0-0.4","SS1613080790260","","","null","","","","","<p><img src= images/blank.png width =""200"" height = ""200"" style = ""float:right""></p><p><img src=images/blank.png width =""800"" height = ""200""></p>","","","","","","","","","","","",""
"","2215","sequential-stimulus-presentation","197","681651","0.0-38.0-1.4","SS1613080790260","trial","","40","800","3015","images/stimuli/spore_stims/simple_18_A_b.gif","images/stimuli/spore_stims/simple_18_B_b.gif","","","","","10","simple_similar","images/stimuli/spore_stims/simple_18_A_b.gif","left","","","","",""
"","null","html-keyboard-response","198","682689","0.0-38.0-0.5","SS1613080790260","","","null","","","","","<p><img src= images/blank.png width =""200"" height = ""200"" style = ""float:right""></p><p><img src=images/blank.png width =""800"" height = ""200""></p>","","","","","","","","","","","",""
"","1292","sequential-stimulus-presentation","199","684789","0.0-38.0-1.5","SS1613080790260","trial","","40","800","2092","images/stimuli/spore_stims/simple_18_A_b.gif","images/stimuli/spore_stims/simple_18_B_b.gif","","","","","10","simple_similar","images/stimuli/spore_stims/simple_18_B_b.gif","right","","","","",""
"","null","html-keyboard-response","200","685855","0.0-38.0-0.6","SS1613080790260","","","null","","","","","<p><img src= images/blank.png width =""200"" height = ""200"" style = ""float:right""></p><p><img src=images/blank.png width =""800"" height = ""200""></p>","","","","","","","","","","","",""
"","1773","sequential-stimulus-presentation","201","688434","0.0-38.0-1.6","SS1613080790260","trial","","40","800","2573","images/stimuli/spore_stims/simple_18_A_b.gif","images/stimuli/spore_stims/simple_18_B_b.gif","","","","","10","simple_similar","images/stimuli/spore_stims/simple_18_B_b.gif","right","","","","",""
"","null","html-keyboard-response","202","689680","0.0-38.0-0.7","SS1613080790260","","","null","","","","","<p><img src= images/blank.png width =""200"" height = ""200"" style = ""float:right""></p><p><img src=images/blank.png width =""800"" height = ""200""></p>","","","","","","","","","","","",""
"","1422","sequential-stimulus-presentation","203","691911","0.0-38.0-1.7","SS1613080790260","trial","","40","800","2222","images/stimuli/spore_stims/simple_18_A_b.gif","images/stimuli/spore_stims/simple_18_B_b.gif","","","","","10","simple_similar","images/stimuli/spore_stims/simple_18_B_b.gif","right","","","","",""
"","1130","html-keyboard-response","204","693047","0.0-39.0","SS1613080790260","pref_question","","49","","","","","<video width ='960' height = '540' style='padding-top:8%' autoplay muted><source src='images/stimuli/wall_pref.mp4' type='video/mp4'></video>","1","left","25%","10","","","","","","","",""
"","3310","sequential-stimulus-presentation","205","697164","0.0-40.0","SS1613080790260","pref_reveal","","40","800","4110","null","null","","","","","10","","","","deviant","","","",""
"","null","html-keyboard-response","206","698134","0.0-41.0-0.0","SS1613080790260","","","null","","","","","<p><img src= images/blank.png width =""200"" height = ""200"" style = ""float:right""></p><p><img src=images/blank.png width =""800"" height = ""200""></p>","","","","","","","","","","","",""
"","2992","sequential-stimulus-presentation","207","701934","0.0-41.0-1.0","SS1613080790260","trial","","40","800","3792","images/stimuli/spore_stims/complex_17_A_a.gif","images/stimuli/spore_stims/complex_17_B_a.gif","","","","","11","complex_similar","images/stimuli/spore_stims/complex_17_B_a.gif","right","","","","",""
"","null","html-keyboard-response","208","702781","0.0-41.0-0.1","SS1613080790260","","","null","","","","","<p><img src= images/blank.png width =""200"" height = ""200"" style = ""float:right""></p><p><img src=images/blank.png width =""800"" height = ""200""></p>","","","","","","","","","","","",""
"","1698","sequential-stimulus-presentation","209","705287","0.0-41.0-1.1","SS1613080790260","trial","","40","800","2498","images/stimuli/spore_stims/complex_17_A_a.gif","images/stimuli/spore_stims/complex_17_B_a.gif","","","","","11","complex_similar","images/stimuli/spore_stims/complex_17_B_a.gif","right","","","","",""
"","null","html-keyboard-response","210","706288","0.0-41.0-0.2","SS1613080790260","","","null","","","","","<p><img src= images/blank.png width =""200"" height = ""200"" style = ""float:right""></p><p><img src=images/blank.png width =""800"" height = ""200""></p>","","","","","","","","","","","",""
"","2152","sequential-stimulus-presentation","211","709247","0.0-41.0-1.2","SS1613080790260","trial","","40","800","2952","images/stimuli/spore_stims/complex_17_A_a.gif","images/stimuli/spore_stims/complex_17_B_a.gif","","","","","11","complex_similar","images/stimuli/spore_stims/complex_17_A_a.gif","left","","","","",""
"","null","html-keyboard-response","212","710373","0.0-41.0-0.3","SS1613080790260","","","null","","","","","<p><img src= images/blank.png width =""200"" height = ""200"" style = ""float:right""></p><p><img src=images/blank.png width =""800"" height = ""200""></p>","","","","","","","","","","","",""
"","1418","sequential-stimulus-presentation","213","712600","0.0-41.0-1.3","SS1613080790260","trial","","40","800","2218","images/stimuli/spore_stims/complex_17_A_a.gif","images/stimuli/spore_stims/complex_17_B_a.gif","","","","","11","complex_similar","images/stimuli/spore_stims/complex_17_B_a.gif","right","","","","",""
"","null","html-keyboard-response","214","713746","0.0-41.0-0.4","SS1613080790260","","","null","","","","","<p><img src= images/blank.png width =""200"" height = ""200"" style = ""float:right""></p><p><img src=images/blank.png width =""800"" height = ""200""></p>","","","","","","","","","","","",""
"","1668","sequential-stimulus-presentation","215","716222","0.0-41.0-1.4","SS1613080790260","trial","","40","800","2468","images/stimuli/spore_stims/complex_17_A_a.gif","images/stimuli/spore_stims/complex_17_B_a.gif","","","","","11","complex_similar","images/stimuli/spore_stims/complex_17_B_a.gif","right","","","","",""
"","null","html-keyboard-response","216","717369","0.0-41.0-0.5","SS1613080790260","","","null","","","","","<p><img src= images/blank.png width =""200"" height = ""200"" style = ""float:right""></p><p><img src=images/blank.png width =""800"" height = ""200""></p>","","","","","","","","","","","",""
"","1871","sequential-stimulus-presentation","217","720048","0.0-41.0-1.5","SS1613080790260","trial","","40","800","2671","images/stimuli/spore_stims/complex_17_A_a.gif","images/stimuli/spore_stims/complex_17_B_a.gif","","","","","11","complex_similar","images/stimuli/spore_stims/complex_17_B_a.gif","right","","","","",""
"","null","html-keyboard-response","218","721194","0.0-41.0-0.6","SS1613080790260","","","null","","","","","<p><img src= images/blank.png width =""200"" height = ""200"" style = ""float:right""></p><p><img src=images/blank.png width =""800"" height = ""200""></p>","","","","","","","","","","","",""
"","1959","sequential-stimulus-presentation","219","723962","0.0-41.0-1.6","SS1613080790260","trial","","40","800","2759","images/stimuli/spore_stims/complex_17_A_a.gif","images/stimuli/spore_stims/complex_17_B_a.gif","","","","","11","complex_similar","images/stimuli/spore_stims/complex_17_B_a.gif","right","","","","",""
"","null","html-keyboard-response","220","725090","0.0-41.0-0.7","SS1613080790260","","","null","","","","","<p><img src= images/blank.png width =""200"" height = ""200"" style = ""float:right""></p><p><img src=images/blank.png width =""800"" height = ""200""></p>","","","","","","","","","","","",""
"","1866","sequential-stimulus-presentation","221","727765","0.0-41.0-1.7","SS1613080790260","trial","","40","800","2666","images/stimuli/spore_stims/complex_17_A_a.gif","images/stimuli/spore_stims/complex_17_B_a.gif","","","","","11","complex_similar","images/stimuli/spore_stims/complex_17_B_a.gif","right","","","","",""
"","1285","html-keyboard-response","222","729059","0.0-42.0","SS1613080790260","pref_question","","49","","","","","<video width ='960' height = '540' style='padding-top:8%' autoplay muted><source src='images/stimuli/wall_pref.mp4' type='video/mp4'></video>","1","left","25%","11","","","","","","","",""
"","2026","sequential-stimulus-presentation","223","731894","0.0-43.0","SS1613080790260","pref_reveal","","40","800","2826","null","null","","","","","11","","","","deviant","","","",""
"","null","html-keyboard-response","224","733184","0.0-44.0-0.0","SS1613080790260","","","null","","","","","<p><img src= images/blank.png width =""200"" height = ""200"" style = ""float:right""></p><p><img src=images/blank.png width =""800"" height = ""200""></p>","","","","","","","","","","","",""
"","3142","sequential-stimulus-presentation","225","737136","0.0-44.0-1.0","SS1613080790260","trial","","40","800","3942","images/stimuli/spore_stims/complex_15_B_a.gif","images/stimuli/spore_stims/complex_15_A_a.gif","","","","","12","complex_similar","images/stimuli/spore_stims/complex_15_A_a.gif","right","","","","",""
"","null","html-keyboard-response","226","738024","0.0-44.0-0.1","SS1613080790260","","","null","","","","","<p><img src= images/blank.png width =""200"" height = ""200"" style = ""float:right""></p><p><img src=images/blank.png width =""800"" height = ""200""></p>","","","","","","","","","","","",""
"","3455","sequential-stimulus-presentation","227","742288","0.0-44.0-1.1","SS1613080790260","trial","","40","800","4255","images/stimuli/spore_stims/complex_15_B_a.gif","images/stimuli/spore_stims/complex_15_A_a.gif","","","","","12","complex_similar","images/stimuli/spore_stims/complex_15_A_a.gif","right","","","","",""
"","null","html-keyboard-response","228","743466","0.0-44.0-0.2","SS1613080790260","","","null","","","","","<p><img src= images/blank.png width =""200"" height = ""200"" style = ""float:right""></p><p><img src=images/blank.png width =""800"" height = ""200""></p>","","","","","","","","","","","",""
"","1558","sequential-stimulus-presentation","229","745833","0.0-44.0-1.2","SS1613080790260","trial","","40","800","2358","images/stimuli/spore_stims/complex_15_B_a.gif","images/stimuli/spore_stims/complex_15_A_a.gif","","","","","12","complex_similar","images/stimuli/spore_stims/complex_15_A_a.gif","right","","","","",""
"","null","html-keyboard-response","230","746743","0.0-44.0-0.3","SS1613080790260","","","null","","","","","<p><img src= images/blank.png width =""200"" height = ""200"" style = ""float:right""></p><p><img src=images/blank.png width =""800"" height = ""200""></p>","","","","","","","","","","","",""
"","1084","sequential-stimulus-presentation","231","748634","0.0-44.0-1.3","SS1613080790260","trial","","40","800","1884","images/stimuli/spore_stims/complex_15_B_a.gif","images/stimuli/spore_stims/complex_15_A_a.gif","","","","","12","complex_similar","images/stimuli/spore_stims/complex_15_A_a.gif","right","","","","",""
"","null","html-keyboard-response","232","749740","0.0-44.0-0.4","SS1613080790260","","","null","","","","","<p><img src= images/blank.png width =""200"" height = ""200"" style = ""float:right""></p><p><img src=images/blank.png width =""800"" height = ""200""></p>","","","","","","","","","","","",""
"","2430","sequential-stimulus-presentation","233","752976","0.0-44.0-1.4","SS1613080790260","trial","","40","800","3230","images/stimuli/spore_stims/complex_15_B_a.gif","images/stimuli/spore_stims/complex_15_A_a.gif","","","","","12","complex_similar","images/stimuli/spore_stims/complex_15_B_a.gif","left","","","","",""
"","null","html-keyboard-response","234","754105","0.0-44.0-0.5","SS1613080790260","","","null","","","","","<p><img src= images/blank.png width =""200"" height = ""200"" style = ""float:right""></p><p><img src=images/blank.png width =""800"" height = ""200""></p>","","","","","","","","","","","",""
"","1552","sequential-stimulus-presentation","235","756464","0.0-44.0-1.5","SS1613080790260","trial","","40","800","2352","images/stimuli/spore_stims/complex_15_B_a.gif","images/stimuli/spore_stims/complex_15_A_a.gif","","","","","12","complex_similar","images/stimuli/spore_stims/complex_15_A_a.gif","right","","","","",""
"","null","html-keyboard-response","236","757337","0.0-44.0-0.6","SS1613080790260","","","null","","","","","<p><img src= images/blank.png width =""200"" height = ""200"" style = ""float:right""></p><p><img src=images/blank.png width =""800"" height = ""200""></p>","","","","","","","","","","","",""
"","1242","sequential-stimulus-presentation","237","759388","0.0-44.0-1.6","SS1613080790260","trial","","40","800","2042","images/stimuli/spore_stims/complex_15_B_a.gif","images/stimuli/spore_stims/complex_15_A_a.gif","","","","","12","complex_similar","images/stimuli/spore_stims/complex_15_A_a.gif","right","","","","",""
"","null","html-keyboard-response","238","760615","0.0-44.0-0.7","SS1613080790260","","","null","","","","","<p><img src= images/blank.png width =""200"" height = ""200"" style = ""float:right""></p><p><img src=images/blank.png width =""800"" height = ""200""></p>","","","","","","","","","","","",""
"","1169","sequential-stimulus-presentation","239","762595","0.0-44.0-1.7","SS1613080790260","trial","","40","800","1969","images/stimuli/spore_stims/complex_15_B_a.gif","images/stimuli/spore_stims/complex_15_A_a.gif","","","","","12","complex_similar","images/stimuli/spore_stims/complex_15_A_a.gif","right","","","","",""
"","1378","html-keyboard-response","240","763979","0.0-45.0","SS1613080790260","pref_question","","50","","","","","<video width ='960' height = '540' style='padding-top:8%' autoplay muted><source src='images/stimuli/wall_pref.mp4' type='video/mp4'></video>","2","middle","45%","12","","","","","","","",""
"","4746","sequential-stimulus-presentation","241","769537","0.0-46.0","SS1613080790260","pref_reveal","","40","800","5546","null","null","","","","","12","","","","novel","","","",""
"","null","html-keyboard-response","242","770463","0.0-47.0-0.0","SS1613080790260","","","null","","","","","<p><img src= images/blank.png width =""200"" height = ""200"" style = ""float:right""></p><p><img src=images/blank.png width =""800"" height = ""200""></p>","","","","","","","","","","","",""
"","1372","sequential-stimulus-presentation","243","772642","0.0-47.0-1.0","SS1613080790260","trial","","40","800","2172","images/stimuli/spore_stims/simple_14_B_b.gif","images/stimuli/spore_stims/simple_01_A_d.gif","","","","","13","simple_dissimilar","images/stimuli/spore_stims/simple_01_A_d.gif","middle","","","","",""
"","null","html-keyboard-response","244","773881","0.0-47.0-0.1","SS1613080790260","","","null","","","","","<p><img src= images/blank.png width =""200"" height = ""200"" style = ""float:right""></p><p><img src=images/blank.png width =""800"" height = ""200""></p>","","","","","","","","","","","",""
"","2143","sequential-stimulus-presentation","245","776827","0.0-47.0-1.1","SS1613080790260","trial","","40","800","2943","images/stimuli/spore_stims/simple_14_B_b.gif","images/stimuli/spore_stims/simple_01_A_d.gif","","","","","13","simple_dissimilar","images/stimuli/spore_stims/simple_01_A_d.gif","middle","","","","",""
"","null","html-keyboard-response","246","777911","0.0-47.0-0.2","SS1613080790260","","","null","","","","","<p><img src= images/blank.png width =""200"" height = ""200"" style = ""float:right""></p><p><img src=images/blank.png width =""800"" height = ""200""></p>","","","","","","","","","","","",""
"","3407","sequential-stimulus-presentation","247","782126","0.0-47.0-1.2","SS1613080790260","trial","","40","800","4207","images/stimuli/spore_stims/simple_14_B_b.gif","images/stimuli/spore_stims/simple_01_A_d.gif","","","","","13","simple_dissimilar","images/stimuli/spore_stims/simple_14_B_b.gif","left","","","","",""
"","null","html-keyboard-response","248","783409","0.0-47.0-0.3","SS1613080790260","","","null","","","","","<p><img src= images/blank.png width =""200"" height = ""200"" style = ""float:right""></p><p><img src=images/blank.png width =""800"" height = ""200""></p>","","","","","","","","","","","",""
"","1962","sequential-stimulus-presentation","249","786175","0.0-47.0-1.3","SS1613080790260","trial","","40","800","2762","images/stimuli/spore_stims/simple_14_B_b.gif","images/stimuli/spore_stims/simple_01_A_d.gif","","","","","13","simple_dissimilar","images/stimuli/spore_stims/simple_01_A_d.gif","middle","","","","",""
"","null","html-keyboard-response","250","787459","0.0-47.0-0.4","SS1613080790260","","","null","","","","","<p><img src= images/blank.png width =""200"" height = ""200"" style = ""float:right""></p><p><img src=images/blank.png width =""800"" height = ""200""></p>","","","","","","","","","","","",""
"","1455","sequential-stimulus-presentation","251","789720","0.0-47.0-1.4","SS1613080790260","trial","","40","800","2255","images/stimuli/spore_stims/simple_14_B_b.gif","images/stimuli/spore_stims/simple_01_A_d.gif","","","","","13","simple_dissimilar","images/stimuli/spore_stims/simple_01_A_d.gif","middle","","","","",""
"","null","html-keyboard-response","252","790553","0.0-47.0-0.5","SS1613080790260","","","null","","","","","<p><img src= images/blank.png width =""200"" height = ""200"" style = ""float:right""></p><p><img src=images/blank.png width =""800"" height = ""200""></p>","","","","","","","","","","","",""
"","1813","sequential-stimulus-presentation","253","793172","0.0-47.0-1.5","SS1613080790260","trial","","40","800","2613","images/stimuli/spore_stims/simple_14_B_b.gif","images/stimuli/spore_stims/simple_01_A_d.gif","","","","","13","simple_dissimilar","images/stimuli/spore_stims/simple_01_A_d.gif","middle","","","","",""
"","null","html-keyboard-response","254","794337","0.0-47.0-0.6","SS1613080790260","","","null","","","","","<p><img src= images/blank.png width =""200"" height = ""200"" style = ""float:right""></p><p><img src=images/blank.png width =""800"" height = ""200""></p>","","","","","","","","","","","",""
"","2100","sequential-stimulus-presentation","255","797247","0.0-47.0-1.6","SS1613080790260","trial","","40","800","2900","images/stimuli/spore_stims/simple_14_B_b.gif","images/stimuli/spore_stims/simple_01_A_d.gif","","","","","13","simple_dissimilar","images/stimuli/spore_stims/simple_01_A_d.gif","middle","","","","",""
"","null","html-keyboard-response","256","798268","0.0-47.0-0.7","SS1613080790260","","","null","","","","","<p><img src= images/blank.png width =""200"" height = ""200"" style = ""float:right""></p><p><img src=images/blank.png width =""800"" height = ""200""></p>","","","","","","","","","","","",""
"","1902","sequential-stimulus-presentation","257","800982","0.0-47.0-1.7","SS1613080790260","trial","","40","800","2702","images/stimuli/spore_stims/simple_14_B_b.gif","images/stimuli/spore_stims/simple_01_A_d.gif","","","","","13","simple_dissimilar","images/stimuli/spore_stims/simple_01_A_d.gif","middle","","","","",""
"","1374","html-keyboard-response","258","802365","0.0-48.0","SS1613080790260","pref_question","","50","","","","","<video width ='960' height = '540' style='padding-top:8%' autoplay muted><source src='images/stimuli/wall_pref.mp4' type='video/mp4'></video>","2","middle","45%","13","","","","","","","",""
"","2139","sequential-stimulus-presentation","259","805312","0.0-49.0","SS1613080790260","pref_reveal","","40","800","2939","null","null","","","","","13","","","","background","","","",""
"","null","html-keyboard-response","260","806621","0.0-50.0-0.0","SS1613080790260","","","null","","","","","<p><img src= images/blank.png width =""200"" height = ""200"" style = ""float:right""></p><p><img src=images/blank.png width =""800"" height = ""200""></p>","","","","","","","","","","","",""
"","3228","sequential-stimulus-presentation","261","810656","0.0-50.0-1.0","SS1613080790260","trial","","40","800","4028","images/stimuli/spore_stims/simple_18_A_b.gif","images/stimuli/spore_stims/simple_05_A_a.gif","","","","","14","simple_dissimilar","images/stimuli/spore_stims/simple_05_A_a.gif","right","","","","",""
"","null","html-keyboard-response","262","811845","0.0-50.0-0.1","SS1613080790260","","","null","","","","","<p><img src= images/blank.png width =""200"" height = ""200"" style = ""float:right""></p><p><img src=images/blank.png width =""800"" height = ""200""></p>","","","","","","","","","","","",""
"","1452","sequential-stimulus-presentation","263","814109","0.0-50.0-1.1","SS1613080790260","trial","","40","800","2252","images/stimuli/spore_stims/simple_18_A_b.gif","images/stimuli/spore_stims/simple_05_A_a.gif","","","","","14","simple_dissimilar","images/stimuli/spore_stims/simple_05_A_a.gif","right","","","","",""
"","null","html-keyboard-response","264","815004","0.0-50.0-0.2","SS1613080790260","","","null","","","","","<p><img src= images/blank.png width =""200"" height = ""200"" style = ""float:right""></p><p><img src=images/blank.png width =""800"" height = ""200""></p>","","","","","","","","","","","",""
"","1487","sequential-stimulus-presentation","265","817305","0.0-50.0-1.2","SS1613080790260","trial","","40","800","2287","images/stimuli/spore_stims/simple_18_A_b.gif","images/stimuli/spore_stims/simple_05_A_a.gif","","","","","14","simple_dissimilar","images/stimuli/spore_stims/simple_05_A_a.gif","right","","","","",""
"","null","html-keyboard-response","266","818584","0.0-50.0-0.3","SS1613080790260","","","null","","","","","<p><img src= images/blank.png width =""200"" height = ""200"" style = ""float:right""></p><p><img src=images/blank.png width =""800"" height = ""200""></p>","","","","","","","","","","","",""
"","1912","sequential-stimulus-presentation","267","821309","0.0-50.0-1.3","SS1613080790260","trial","","40","800","2712","images/stimuli/spore_stims/simple_18_A_b.gif","images/stimuli/spore_stims/simple_05_A_a.gif","","","","","14","simple_dissimilar","images/stimuli/spore_stims/simple_05_A_a.gif","right","","","","",""
"","null","html-keyboard-response","268","822306","0.0-50.0-0.4","SS1613080790260","","","null","","","","","<p><img src= images/blank.png width =""200"" height = ""200"" style = ""float:right""></p><p><img src=images/blank.png width =""800"" height = ""200""></p>","","","","","","","","","","","",""
"","2187","sequential-stimulus-presentation","269","825303","0.0-50.0-1.4","SS1613080790260","trial","","40","800","2987","images/stimuli/spore_stims/simple_18_A_b.gif","images/stimuli/spore_stims/simple_05_A_a.gif","","","","","14","simple_dissimilar","images/stimuli/spore_stims/simple_18_A_b.gif","left","","","","",""
"","null","html-keyboard-response","270","826293","0.0-50.0-0.5","SS1613080790260","","","null","","","","","<p><img src= images/blank.png width =""200"" height = ""200"" style = ""float:right""></p><p><img src=images/blank.png width =""800"" height = ""200""></p>","","","","","","","","","","","",""
"","3207","sequential-stimulus-presentation","271","830311","0.0-50.0-1.5","SS1613080790260","trial","","40","800","4007","images/stimuli/spore_stims/simple_18_A_b.gif","images/stimuli/spore_stims/simple_05_A_a.gif","","","","","14","simple_dissimilar","images/stimuli/spore_stims/simple_05_A_a.gif","right","","","","",""
"","null","html-keyboard-response","272","831478","0.0-50.0-0.6","SS1613080790260","","","null","","","","","<p><img src= images/blank.png width =""200"" height = ""200"" style = ""float:right""></p><p><img src=images/blank.png width =""800"" height = ""200""></p>","","","","","","","","","","","",""
"","3410","sequential-stimulus-presentation","273","835699","0.0-50.0-1.6","SS1613080790260","trial","","40","800","4210","images/stimuli/spore_stims/simple_18_A_b.gif","images/stimuli/spore_stims/simple_05_A_a.gif","","","","","14","simple_dissimilar","images/stimuli/spore_stims/simple_05_A_a.gif","right","","","","",""
"","null","html-keyboard-response","274","837002","0.0-50.0-0.7","SS1613080790260","","","null","","","","","<p><img src= images/blank.png width =""200"" height = ""200"" style = ""float:right""></p><p><img src=images/blank.png width =""800"" height = ""200""></p>","","","","","","","","","","","",""
"","2905","sequential-stimulus-presentation","275","840717","0.0-50.0-1.7","SS1613080790260","trial","","40","800","3705","images/stimuli/spore_stims/simple_18_A_b.gif","images/stimuli/spore_stims/simple_05_A_a.gif","","","","","14","simple_dissimilar","images/stimuli/spore_stims/simple_05_A_a.gif","right","","","","",""
"","1572","html-keyboard-response","276","842293","0.0-51.0","SS1613080790260","pref_question","","50","","","","","<video width ='960' height = '540' style='padding-top:8%' autoplay muted><source src='images/stimuli/wall_pref.mp4' type='video/mp4'></video>","2","middle","45%","14","","","","","","","",""
"","3017","sequential-stimulus-presentation","277","846116","0.0-52.0","SS1613080790260","pref_reveal","","40","800","3817","null","null","","","","","14","","","","novel","","","",""
"","null","html-keyboard-response","278","847087","0.0-53.0-0.0","SS1613080790260","","","null","","","","","<p><img src= images/blank.png width =""200"" height = ""200"" style = ""float:right""></p><p><img src=images/blank.png width =""800"" height = ""200""></p>","","","","","","","","","","","",""
"","1913","sequential-stimulus-presentation","279","849806","0.0-53.0-1.0","SS1613080790260","trial","","40","800","2713","images/stimuli/spore_stims/complex_20_B_c.gif","images/stimuli/spore_stims/complex_16_B_a.gif","","","","","15","complex_dissimilar","images/stimuli/spore_stims/complex_16_B_a.gif","right","","","","",""
"","null","html-keyboard-response","280","850715","0.0-53.0-0.1","SS1613080790260","","","null","","","","","<p><img src= images/blank.png width =""200"" height = ""200"" style = ""float:right""></p><p><img src=images/blank.png width =""800"" height = ""200""></p>","","","","","","","","","","","",""
"","804","sequential-stimulus-presentation","281","852326","0.0-53.0-1.1","SS1613080790260","trial","","40","800","1604","images/stimuli/spore_stims/complex_20_B_c.gif","images/stimuli/spore_stims/complex_16_B_a.gif","","","","","15","complex_dissimilar","images/stimuli/spore_stims/complex_16_B_a.gif","right","","","","",""
"","null","html-keyboard-response","282","853501","0.0-53.0-0.2","SS1613080790260","","","null","","","","","<p><img src= images/blank.png width =""200"" height = ""200"" style = ""float:right""></p><p><img src=images/blank.png width =""800"" height = ""200""></p>","","","","","","","","","","","",""
"","1113","sequential-stimulus-presentation","283","855420","0.0-53.0-1.2","SS1613080790260","trial","","40","800","1913","images/stimuli/spore_stims/complex_20_B_c.gif","images/stimuli/spore_stims/complex_16_B_a.gif","","","","","15","complex_dissimilar","images/stimuli/spore_stims/complex_16_B_a.gif","right","","","","",""
"","null","html-keyboard-response","284","856347","0.0-53.0-0.3","SS1613080790260","","","null","","","","","<p><img src= images/blank.png width =""200"" height = ""200"" style = ""float:right""></p><p><img src=images/blank.png width =""800"" height = ""200""></p>","","","","","","","","","","","",""
"","2586","sequential-stimulus-presentation","285","859740","0.0-53.0-1.3","SS1613080790260","trial","","40","800","3386","images/stimuli/spore_stims/complex_20_B_c.gif","images/stimuli/spore_stims/complex_16_B_a.gif","","","","","15","complex_dissimilar","images/stimuli/spore_stims/complex_16_B_a.gif","right","","","","",""
"","null","html-keyboard-response","286","860810","0.0-53.0-0.4","SS1613080790260","","","null","","","","","<p><img src= images/blank.png width =""200"" height = ""200"" style = ""float:right""></p><p><img src=images/blank.png width =""800"" height = ""200""></p>","","","","","","","","","","","",""
"","1937","sequential-stimulus-presentation","287","863555","0.0-53.0-1.4","SS1613080790260","trial","","40","800","2737","images/stimuli/spore_stims/complex_20_B_c.gif","images/stimuli/spore_stims/complex_16_B_a.gif","","","","","15","complex_dissimilar","images/stimuli/spore_stims/complex_16_B_a.gif","right","","","","",""
"","null","html-keyboard-response","288","864367","0.0-53.0-0.5","SS1613080790260","","","null","","","","","<p><img src= images/blank.png width =""200"" height = ""200"" style = ""float:right""></p><p><img src=images/blank.png width =""800"" height = ""200""></p>","","","","","","","","","","","",""
"","2699","sequential-stimulus-presentation","289","867875","0.0-53.0-1.5","SS1613080790260","trial","","40","800","3499","images/stimuli/spore_stims/complex_20_B_c.gif","images/stimuli/spore_stims/complex_16_B_a.gif","","","","","15","complex_dissimilar","images/stimuli/spore_stims/complex_16_B_a.gif","right","","","","",""
"","null","html-keyboard-response","290","869151","0.0-53.0-0.6","SS1613080790260","","","null","","","","","<p><img src= images/blank.png width =""200"" height = ""200"" style = ""float:right""></p><p><img src=images/blank.png width =""800"" height = ""200""></p>","","","","","","","","","","","",""
"","2751","sequential-stimulus-presentation","291","872711","0.0-53.0-1.6","SS1613080790260","trial","","40","800","3551","images/stimuli/spore_stims/complex_20_B_c.gif","images/stimuli/spore_stims/complex_16_B_a.gif","","","","","15","complex_dissimilar","images/stimuli/spore_stims/complex_20_B_c.gif","left","","","","",""
"","null","html-keyboard-response","292","873755","0.0-53.0-0.7","SS1613080790260","","","null","","","","","<p><img src= images/blank.png width =""200"" height = ""200"" style = ""float:right""></p><p><img src=images/blank.png width =""800"" height = ""200""></p>","","","","","","","","","","","",""
"","1513","sequential-stimulus-presentation","293","876075","0.0-53.0-1.7","SS1613080790260","trial","","40","800","2313","images/stimuli/spore_stims/complex_20_B_c.gif","images/stimuli/spore_stims/complex_16_B_a.gif","","","","","15","complex_dissimilar","images/stimuli/spore_stims/complex_16_B_a.gif","right","","","","",""
"","1624","html-keyboard-response","294","877706","0.0-54.0","SS1613080790260","pref_question","","51","","","","","<video width ='960' height = '540' style='padding-top:8%' autoplay muted><source src='images/stimuli/wall_pref.mp4' type='video/mp4'></video>","3","right","66%","15","","","","","","","",""
"","1092","sequential-stimulus-presentation","295","879608","0.0-55.0","SS1613080790260","pref_reveal","","40","800","1892","null","null","","","","","15","","","","background","","","",""
"","null","html-keyboard-response","296","880815","0.0-56.0-0.0","SS1613080790260","","","null","","","","","<p><img src= images/blank.png width =""200"" height = ""200"" style = ""float:right""></p><p><img src=images/blank.png width =""800"" height = ""200""></p>","","","","","","","","","","","",""
"","1998","sequential-stimulus-presentation","297","883624","0.0-56.0-1.0","SS1613080790260","trial","","40","800","2798","images/stimuli/spore_stims/simple_16_A_b.gif","images/stimuli/spore_stims/simple_13_B_b.gif","","","","","16","simple_dissimilar","images/stimuli/spore_stims/simple_13_B_b.gif","left","","","","",""
"","null","html-keyboard-response","298","884596","0.0-56.0-0.1","SS1613080790260","","","null","","","","","<p><img src= images/blank.png width =""200"" height = ""200"" style = ""float:right""></p><p><img src=images/blank.png width =""800"" height = ""200""></p>","","","","","","","","","","","",""
"","1728","sequential-stimulus-presentation","299","887134","0.0-56.0-1.1","SS1613080790260","trial","","40","800","2528","images/stimuli/spore_stims/simple_16_A_b.gif","images/stimuli/spore_stims/simple_13_B_b.gif","","","","","16","simple_dissimilar","images/stimuli/spore_stims/simple_13_B_b.gif","left","","","","",""
"","null","html-keyboard-response","300","888304","0.0-56.0-0.2","SS1613080790260","","","null","","","","","<p><img src= images/blank.png width =""200"" height = ""200"" style = ""float:right""></p><p><img src=images/blank.png width =""800"" height = ""200""></p>","","","","","","","","","","","",""
"","1640","sequential-stimulus-presentation","301","890757","0.0-56.0-1.2","SS1613080790260","trial","","40","800","2440","images/stimuli/spore_stims/simple_16_A_b.gif","images/stimuli/spore_stims/simple_13_B_b.gif","","","","","16","simple_dissimilar","images/stimuli/spore_stims/simple_13_B_b.gif","left","","","","",""
"","null","html-keyboard-response","302","891761","0.0-56.0-0.3","SS1613080790260","","","null","","","","","<p><img src= images/blank.png width =""200"" height = ""200"" style = ""float:right""></p><p><img src=images/blank.png width =""800"" height = ""200""></p>","","","","","","","","","","","",""
"","706","sequential-stimulus-presentation","303","893276","0.0-56.0-1.3","SS1613080790260","trial","","40","800","1506","images/stimuli/spore_stims/simple_16_A_b.gif","images/stimuli/spore_stims/simple_13_B_b.gif","","","","","16","simple_dissimilar","images/stimuli/spore_stims/simple_13_B_b.gif","left","","","","",""
"","null","html-keyboard-response","304","894300","0.0-56.0-0.4","SS1613080790260","","","null","","","","","<p><img src= images/blank.png width =""200"" height = ""200"" style = ""float:right""></p><p><img src=images/blank.png width =""800"" height = ""200""></p>","","","","","","","","","","","",""
"","471","sequential-stimulus-presentation","305","895583","0.0-56.0-1.4","SS1613080790260","trial","","40","800","1271","images/stimuli/spore_stims/simple_16_A_b.gif","images/stimuli/spore_stims/simple_13_B_b.gif","","","","","16","simple_dissimilar","images/stimuli/spore_stims/simple_13_B_b.gif","left","","","","",""
"","null","html-keyboard-response","306","896760","0.0-56.0-0.5","SS1613080790260","","","null","","","","","<p><img src= images/blank.png width =""200"" height = ""200"" style = ""float:right""></p><p><img src=images/blank.png width =""800"" height = ""200""></p>","","","","","","","","","","","",""
"","872","sequential-stimulus-presentation","307","898441","0.0-56.0-1.5","SS1613080790260","trial","","40","800","1672","images/stimuli/spore_stims/simple_16_A_b.gif","images/stimuli/spore_stims/simple_13_B_b.gif","","","","","16","simple_dissimilar","images/stimuli/spore_stims/simple_13_B_b.gif","left","","","","",""
"","null","html-keyboard-response","308","899522","0.0-56.0-0.6","SS1613080790260","","","null","","","","","<p><img src= images/blank.png width =""200"" height = ""200"" style = ""float:right""></p><p><img src=images/blank.png width =""800"" height = ""200""></p>","","","","","","","","","","","",""
"","1642","sequential-stimulus-presentation","309","901973","0.0-56.0-1.6","SS1613080790260","trial","","40","800","2442","images/stimuli/spore_stims/simple_16_A_b.gif","images/stimuli/spore_stims/simple_13_B_b.gif","","","","","16","simple_dissimilar","images/stimuli/spore_stims/simple_16_A_b.gif","right","","","","",""
"","null","html-keyboard-response","310","903278","0.0-56.0-0.7","SS1613080790260","","","null","","","","","<p><img src= images/blank.png width =""200"" height = ""200"" style = ""float:right""></p><p><img src=images/blank.png width =""800"" height = ""200""></p>","","","","","","","","","","","",""
"","867","sequential-stimulus-presentation","311","904954","0.0-56.0-1.7","SS1613080790260","trial","","40","800","1667","images/stimuli/spore_stims/simple_16_A_b.gif","images/stimuli/spore_stims/simple_13_B_b.gif","","","","","16","simple_dissimilar","images/stimuli/spore_stims/simple_13_B_b.gif","left","","","","",""
"","3254","html-keyboard-response","312","908216","0.0-57.0","SS1613080790260","pref_question","","50","","","","","<video width ='960' height = '540' style='padding-top:8%' autoplay muted><source src='images/stimuli/wall_pref.mp4' type='video/mp4'></video>","2","middle","45%","16","","","","","","","",""
"","2251","sequential-stimulus-presentation","313","911277","0.0-58.0","SS1613080790260","pref_reveal","","40","800","3051","null","null","","","","","16","","","","novel","","","",""
"","null","html-keyboard-response","314","912370","0.0-59.0-0.0","SS1613080790260","","","null","","","","","<p><img src= images/blank.png width =""200"" height = ""200"" style = ""float:right""></p><p><img src=images/blank.png width =""800"" height = ""200""></p>","","","","","","","","","","","",""
"","1655","sequential-stimulus-presentation","315","914831","0.0-59.0-1.0","SS1613080790260","trial","","40","800","2455","images/stimuli/spore_stims/simple_17_A_a.gif","images/stimuli/spore_stims/simple_17_B_a.gif","","","","","17","simple_similar","images/stimuli/spore_stims/simple_17_B_a.gif","right","","","","",""
"","null","html-keyboard-response","316","915707","0.0-59.0-0.1","SS1613080790260","","","null","","","","","<p><img src= images/blank.png width =""200"" height = ""200"" style = ""float:right""></p><p><img src=images/blank.png width =""800"" height = ""200""></p>","","","","","","","","","","","",""
"","624","sequential-stimulus-presentation","317","917138","0.0-59.0-1.1","SS1613080790260","trial","","40","800","1424","images/stimuli/spore_stims/simple_17_A_a.gif","images/stimuli/spore_stims/simple_17_B_a.gif","","","","","17","simple_similar","images/stimuli/spore_stims/simple_17_B_a.gif","right","","","","",""
"","null","html-keyboard-response","318","918143","0.0-59.0-0.2","SS1613080790260","","","null","","","","","<p><img src= images/blank.png width =""200"" height = ""200"" style = ""float:right""></p><p><img src=images/blank.png width =""800"" height = ""200""></p>","","","","","","","","","","","",""
"","965","sequential-stimulus-presentation","319","919917","0.0-59.0-1.2","SS1613080790260","trial","","40","800","1765","images/stimuli/spore_stims/simple_17_A_a.gif","images/stimuli/spore_stims/simple_17_B_a.gif","","","","","17","simple_similar","images/stimuli/spore_stims/simple_17_B_a.gif","right","","","","",""
"","null","html-keyboard-response","320","921165","0.0-59.0-0.3","SS1613080790260","","","null","","","","","<p><img src= images/blank.png width =""200"" height = ""200"" style = ""float:right""></p><p><img src=images/blank.png width =""800"" height = ""200""></p>","","","","","","","","","","","",""
"","611","sequential-stimulus-presentation","321","922584","0.0-59.0-1.3","SS1613080790260","trial","","40","800","1411","images/stimuli/spore_stims/simple_17_A_a.gif","images/stimuli/spore_stims/simple_17_B_a.gif","","","","","17","simple_similar","images/stimuli/spore_stims/simple_17_A_a.gif","middle","","","","",""
"","null","html-keyboard-response","322","923596","0.0-59.0-0.4","SS1613080790260","","","null","","","","","<p><img src= images/blank.png width =""200"" height = ""200"" style = ""float:right""></p><p><img src=images/blank.png width =""800"" height = ""200""></p>","","","","","","","","","","","",""
"","1499","sequential-stimulus-presentation","323","925902","0.0-59.0-1.4","SS1613080790260","trial","","40","800","2299","images/stimuli/spore_stims/simple_17_A_a.gif","images/stimuli/spore_stims/simple_17_B_a.gif","","","","","17","simple_similar","images/stimuli/spore_stims/simple_17_B_a.gif","right","","","","",""
"","null","html-keyboard-response","324","926870","0.0-59.0-0.5","SS1613080790260","","","null","","","","","<p><img src= images/blank.png width =""200"" height = ""200"" style = ""float:right""></p><p><img src=images/blank.png width =""800"" height = ""200""></p>","","","","","","","","","","","",""
"","1262","sequential-stimulus-presentation","325","928940","0.0-59.0-1.5","SS1613080790260","trial","","40","800","2062","images/stimuli/spore_stims/simple_17_A_a.gif","images/stimuli/spore_stims/simple_17_B_a.gif","","","","","17","simple_similar","images/stimuli/spore_stims/simple_17_B_a.gif","right","","","","",""
"","null","html-keyboard-response","326","929807","0.0-59.0-0.6","SS1613080790260","","","null","","","","","<p><img src= images/blank.png width =""200"" height = ""200"" style = ""float:right""></p><p><img src=images/blank.png width =""800"" height = ""200""></p>","","","","","","","","","","","",""
"","1668","sequential-stimulus-presentation","327","932282","0.0-59.0-1.6","SS1613080790260","trial","","40","800","2468","images/stimuli/spore_stims/simple_17_A_a.gif","images/stimuli/spore_stims/simple_17_B_a.gif","","","","","17","simple_similar","images/stimuli/spore_stims/simple_17_B_a.gif","right","","","","",""
