"view_history","rt","trial_type","trial_index","time_elapsed","internal_node_id","subject","stimulus_type","trial_stimulus","key_press","minimum_viewing_duration","trial_looking_time","block_deviant","block_background","stimulus","wall_pref","location","location_percent","block_number","block_type","stimulus_displayed","position_displayed","stim_type_selected","responses","question_order","stimulus_left","stimulus_right"
"[{""page_index"":0,""viewing_time"":2772.1500000006927}]","2773.895000000266","instructions","0","2778","0.0-0.0","SS1613140926474","","","","","","","","","","","","","","","","","","","",""
"[{""page_index"":0,""viewing_time"":5761.2650000010035},{""page_index"":1,""viewing_time"":4823.490000000675}]","10585.87500000067","instructions","1","15371","0.0-1.0","SS1613140926474","instructions","","","","","","","","","","","","","","","","","","",""
"","5004.38000000031","sequential-stimulus-presentation","2","21190","0.0-2.0","SS1613140926474","","","40","800","5804.38000000031","null","null","","","","","","","","","","","","",""
"","2302.2450000007666","sequential-stimulus-presentation","3","24302","0.0-3.0","SS1613140926474","","","40","800","3102.2450000007666","null","null","","","","","","","","","","","","",""
"[{""page_index"":0,""viewing_time"":3463.3649999996123}]","3464.3899999991845","instructions","4","27768","0.0-4.0","SS1613140926474","instructions","","","","","","","","","","","","","","","","","","",""
"","6192.659999998796","html-keyboard-response","5","33973","0.0-5.0","SS1613140926474","instructions","","50","","","","","<video width ='960' height = '540' autoplay muted><source src='images/stimuli/wall_pref.mp4' type='video/mp4'></video>","2","middle","45%","","","","","","","","",""
"","1549.0250000002561","sequential-stimulus-presentation","6","36334","0.0-6.0","SS1613140926474","pref_reveal","","40","800","2349.025000000256","null","null","","","","","","","","","","","","",""
"[{""page_index"":0,""viewing_time"":5085.529999998471},{""page_index"":1,""viewing_time"":5924.834999999803},{""page_index"":2,""viewing_time"":1036.1600000014732},{""page_index"":3,""viewing_time"":1070.0749999996333}]","13117.474999999104","instructions","7","49455","0.0-7.0","SS1613140926474","instructions","","","","","","","","","","","","","","","","","","",""
"","null","html-keyboard-response","8","50631","0.0-8.0-0.0","SS1613140926474","","","null","","","","","<p><img src= images/blank.png width =""200"" height = ""200"" style = ""float:right""></p><p><img src=images/blank.png width =""800"" height = ""200""></p>","","","","","","","","","","","",""
"","86.2699999997858","sequential-stimulus-presentation","9","51541","0.0-8.0-1.0","SS1613140926474","trial","","40","800","886.2699999997858","images/stimuli/spore_stims/simple_13_A_d.gif","images/stimuli/spore_stims/simple_13_B_d.gif","","","","","0","simple_similar","images/stimuli/spore_stims/simple_13_B_d.gif","middle","","","","",""
"","null","html-keyboard-response","10","52412","0.0-8.0-0.1","SS1613140926474","","","null","","","","","<p><img src= images/blank.png width =""200"" height = ""200"" style = ""float:right""></p><p><img src=images/blank.png width =""800"" height = ""200""></p>","","","","","","","","","","","",""
"","944.3750000009459","sequential-stimulus-presentation","11","54180","0.0-8.0-1.1","SS1613140926474","trial","","40","800","1744.3750000009459","images/stimuli/spore_stims/simple_13_A_d.gif","images/stimuli/spore_stims/simple_13_B_d.gif","","","","","0","simple_similar","images/stimuli/spore_stims/simple_13_B_d.gif","middle","","","","",""
"","null","html-keyboard-response","12","55143","0.0-8.0-0.2","SS1613140926474","","","null","","","","","<p><img src= images/blank.png width =""200"" height = ""200"" style = ""float:right""></p><p><img src=images/blank.png width =""800"" height = ""200""></p>","","","","","","","","","","","",""
"","891.1250000001019","sequential-stimulus-presentation","13","56845","0.0-8.0-1.2","SS1613140926474","trial","","40","800","1691.1250000001019","images/stimuli/spore_stims/simple_13_A_d.gif","images/stimuli/spore_stims/simple_13_B_d.gif","","","","","0","simple_similar","images/stimuli/spore_stims/simple_13_B_d.gif","middle","","","","",""
"","null","html-keyboard-response","14","57941","0.0-8.0-0.3","SS1613140926474","","","null","","","","","<p><img src= images/blank.png width =""200"" height = ""200"" style = ""float:right""></p><p><img src=images/blank.png width =""800"" height = ""200""></p>","","","","","","","","","","","",""
"","1219.2549999999756","sequential-stimulus-presentation","15","59974","0.0-8.0-1.3","SS1613140926474","trial","","40","800","2019.2549999999756","images/stimuli/spore_stims/simple_13_A_d.gif","images/stimuli/spore_stims/simple_13_B_d.gif","","","","","0","simple_similar","images/stimuli/spore_stims/simple_13_B_d.gif","middle","","","","",""
"","null","html-keyboard-response","16","61004","0.0-8.0-0.4","SS1613140926474","","","null","","","","","<p><img src= images/blank.png width =""200"" height = ""200"" style = ""float:right""></p><p><img src=images/blank.png width =""800"" height = ""200""></p>","","","","","","","","","","","",""
"","1418.6349999999948","sequential-stimulus-presentation","17","63285","0.0-8.0-1.4","SS1613140926474","trial","","40","800","2218.6349999999948","images/stimuli/spore_stims/simple_13_A_d.gif","images/stimuli/spore_stims/simple_13_B_d.gif","","","","","0","simple_similar","images/stimuli/spore_stims/simple_13_B_d.gif","middle","","","","",""
"","null","html-keyboard-response","18","64532","0.0-8.0-0.5","SS1613140926474","","","null","","","","","<p><img src= images/blank.png width =""200"" height = ""200"" style = ""float:right""></p><p><img src=images/blank.png width =""800"" height = ""200""></p>","","","","","","","","","","","",""
"","1282.5850000008359","sequential-stimulus-presentation","19","66636","0.0-8.0-1.5","SS1613140926474","trial","","40","800","2082.585000000836","images/stimuli/spore_stims/simple_13_A_d.gif","images/stimuli/spore_stims/simple_13_B_d.gif","","","","","0","simple_similar","images/stimuli/spore_stims/simple_13_B_d.gif","middle","","","","",""
"","null","html-keyboard-response","20","67667","0.0-8.0-0.6","SS1613140926474","","","null","","","","","<p><img src= images/blank.png width =""200"" height = ""200"" style = ""float:right""></p><p><img src=images/blank.png width =""800"" height = ""200""></p>","","","","","","","","","","","",""
"","1645.8299999994779","sequential-stimulus-presentation","21","70126","0.0-8.0-1.6","SS1613140926474","trial","","40","800","2445.829999999478","images/stimuli/spore_stims/simple_13_A_d.gif","images/stimuli/spore_stims/simple_13_B_d.gif","","","","","0","simple_similar","images/stimuli/spore_stims/simple_13_B_d.gif","middle","","","","",""
"","null","html-keyboard-response","22","71321","0.0-8.0-0.7","SS1613140926474","","","null","","","","","<p><img src= images/blank.png width =""200"" height = ""200"" style = ""float:right""></p><p><img src=images/blank.png width =""800"" height = ""200""></p>","","","","","","","","","","","",""
"","921.9150000008085","sequential-stimulus-presentation","23","73060","0.0-8.0-1.7","SS1613140926474","trial","","40","800","1721.9150000008085","images/stimuli/spore_stims/simple_13_A_d.gif","images/stimuli/spore_stims/simple_13_B_d.gif","","","","","0","simple_similar","images/stimuli/spore_stims/simple_13_A_d.gif","right","","","","",""
"","1359.8999999994703","html-keyboard-response","24","74430","0.0-9.0","SS1613140926474","pref_question","","49","","","","","<video width ='960' height = '540' style='padding-top:8%' autoplay muted><source src='images/stimuli/wall_pref.mp4' type='video/mp4'></video>","1","left","25%","0","","","","","","","",""
"","1377.6850000012928","sequential-stimulus-presentation","25","76628","0.0-10.0","SS1613140926474","pref_reveal","","40","800","2177.685000001293","null","null","","","","","0","","","","novel","","","",""
"","null","html-keyboard-response","26","77593","0.0-11.0-0.0","SS1613140926474","","","null","","","","","<p><img src= images/blank.png width =""200"" height = ""200"" style = ""float:right""></p><p><img src=images/blank.png width =""800"" height = ""200""></p>","","","","","","","","","","","",""
"","926.0649999996531","sequential-stimulus-presentation","27","79332","0.0-11.0-1.0","SS1613140926474","trial","","40","800","1726.064999999653","images/stimuli/spore_stims/simple_11_A_c.gif","images/stimuli/spore_stims/simple_11_B_c.gif","","","","","1","simple_similar","images/stimuli/spore_stims/simple_11_B_c.gif","left","","","","",""
"","null","html-keyboard-response","28","80474","0.0-11.0-0.1","SS1613140926474","","","null","","","","","<p><img src= images/blank.png width =""200"" height = ""200"" style = ""float:right""></p><p><img src=images/blank.png width =""800"" height = ""200""></p>","","","","","","","","","","","",""
"","498.39500000052794","sequential-stimulus-presentation","29","81781","0.0-11.0-1.1","SS1613140926474","trial","","40","800","1298.395000000528","images/stimuli/spore_stims/simple_11_A_c.gif","images/stimuli/spore_stims/simple_11_B_c.gif","","","","","1","simple_similar","images/stimuli/spore_stims/simple_11_B_c.gif","left","","","","",""
"","null","html-keyboard-response","30","82984","0.0-11.0-0.2","SS1613140926474","","","null","","","","","<p><img src= images/blank.png width =""200"" height = ""200"" style = ""float:right""></p><p><img src=images/blank.png width =""800"" height = ""200""></p>","","","","","","","","","","","",""
"","461.59499999885156","sequential-stimulus-presentation","31","84260","0.0-11.0-1.2","SS1613140926474","trial","","40","800","1261.5949999988516","images/stimuli/spore_stims/simple_11_A_c.gif","images/stimuli/spore_stims/simple_11_B_c.gif","","","","","1","simple_similar","images/stimuli/spore_stims/simple_11_B_c.gif","left","","","","",""
"","null","html-keyboard-response","32","85252","0.0-11.0-0.3","SS1613140926474","","","null","","","","","<p><img src= images/blank.png width =""200"" height = ""200"" style = ""float:right""></p><p><img src=images/blank.png width =""800"" height = ""200""></p>","","","","","","","","","","","",""
"","416.38999999850057","sequential-stimulus-presentation","33","86485","0.0-11.0-1.3","SS1613140926474","trial","","40","800","1216.3899999985006","images/stimuli/spore_stims/simple_11_A_c.gif","images/stimuli/spore_stims/simple_11_B_c.gif","","","","","1","simple_similar","images/stimuli/spore_stims/simple_11_A_c.gif","right","","","","",""
"","null","html-keyboard-response","34","87392","0.0-11.0-0.4","SS1613140926474","","","null","","","","","<p><img src= images/blank.png width =""200"" height = ""200"" style = ""float:right""></p><p><img src=images/blank.png width =""800"" height = ""200""></p>","","","","","","","","","","","",""
"","1104.3449999997392","sequential-stimulus-presentation","35","89308","0.0-11.0-1.4","SS1613140926474","trial","","40","800","1904.3449999997392","images/stimuli/spore_stims/simple_11_A_c.gif","images/stimuli/spore_stims/simple_11_B_c.gif","","","","","1","simple_similar","images/stimuli/spore_stims/simple_11_B_c.gif","left","","","","",""
"","null","html-keyboard-response","36","90415","0.0-11.0-0.5","SS1613140926474","","","null","","","","","<p><img src= images/blank.png width =""200"" height = ""200"" style = ""float:right""></p><p><img src=images/blank.png width =""800"" height = ""200""></p>","","","","","","","","","","","",""
"","560.589999999138","sequential-stimulus-presentation","37","91789","0.0-11.0-1.5","SS1613140926474","trial","","40","800","1360.589999999138","images/stimuli/spore_stims/simple_11_A_c.gif","images/stimuli/spore_stims/simple_11_B_c.gif","","","","","1","simple_similar","images/stimuli/spore_stims/simple_11_B_c.gif","left","","","","",""
"","null","html-keyboard-response","38","93065","0.0-11.0-0.6","SS1613140926474","","","null","","","","","<p><img src= images/blank.png width =""200"" height = ""200"" style = ""float:right""></p><p><img src=images/blank.png width =""800"" height = ""200""></p>","","","","","","","","","","","",""
"","414.3949999997858","sequential-stimulus-presentation","39","94292","0.0-11.0-1.6","SS1613140926474","trial","","40","800","1214.3949999997858","images/stimuli/spore_stims/simple_11_A_c.gif","images/stimuli/spore_stims/simple_11_B_c.gif","","","","","1","simple_similar","images/stimuli/spore_stims/simple_11_B_c.gif","left","","","","",""
"","null","html-keyboard-response","40","95371","0.0-11.0-0.7","SS1613140926474","","","null","","","","","<p><img src= images/blank.png width =""200"" height = ""200"" style = ""float:right""></p><p><img src=images/blank.png width =""800"" height = ""200""></p>","","","","","","","","","","","",""
"","468.5850000005303","sequential-stimulus-presentation","41","96652","0.0-11.0-1.7","SS1613140926474","trial","","40","800","1268.5850000005303","images/stimuli/spore_stims/simple_11_A_c.gif","images/stimuli/spore_stims/simple_11_B_c.gif","","","","","1","simple_similar","images/stimuli/spore_stims/simple_11_B_c.gif","left","","","","",""
"","957.3149999996531","html-keyboard-response","42","97621","0.0-12.0","SS1613140926474","pref_question","","49","","","","","<video width ='960' height = '540' style='padding-top:8%' autoplay muted><source src='images/stimuli/wall_pref.mp4' type='video/mp4'></video>","1","left","25%","1","","","","","","","",""
"","617.6249999989523","sequential-stimulus-presentation","43","99060","0.0-13.0","SS1613140926474","pref_reveal","","40","800","1417.6249999989523","null","null","","","","","1","","","","background","","","",""
"","null","html-keyboard-response","44","100011","0.0-14.0-0.0","SS1613140926474","","","null","","","","","<p><img src= images/blank.png width =""200"" height = ""200"" style = ""float:right""></p><p><img src=images/blank.png width =""800"" height = ""200""></p>","","","","","","","","","","","",""
"","19.91499999894586","sequential-stimulus-presentation","45","100844","0.0-14.0-1.0","SS1613140926474","trial","","40","800","819.9149999989459","images/stimuli/spore_stims/simple_06_A_c.gif","images/stimuli/spore_stims/simple_04_A_c.gif","","","","","2","simple_dissimilar","images/stimuli/spore_stims/simple_04_A_c.gif","right","","","","",""
"","null","html-keyboard-response","46","101869","0.0-14.0-0.1","SS1613140926474","","","null","","","","","<p><img src= images/blank.png width =""200"" height = ""200"" style = ""float:right""></p><p><img src=images/blank.png width =""800"" height = ""200""></p>","","","","","","","","","","","",""
"","1890.6850000003033","sequential-stimulus-presentation","47","104575","0.0-14.0-1.1","SS1613140926474","trial","","40","800","2690.6850000003033","images/stimuli/spore_stims/simple_06_A_c.gif","images/stimuli/spore_stims/simple_04_A_c.gif","","","","","2","simple_dissimilar","images/stimuli/spore_stims/simple_04_A_c.gif","right","","","","",""
"","null","html-keyboard-response","48","105534","0.0-14.0-0.2","SS1613140926474","","","null","","","","","<p><img src= images/blank.png width =""200"" height = ""200"" style = ""float:right""></p><p><img src=images/blank.png width =""800"" height = ""200""></p>","","","","","","","","","","","",""
"","970.7199999993318","sequential-stimulus-presentation","49","107379","0.0-14.0-1.2","SS1613140926474","trial","","40","800","1770.7199999993318","images/stimuli/spore_stims/simple_06_A_c.gif","images/stimuli/spore_stims/simple_04_A_c.gif","","","","","2","simple_dissimilar","images/stimuli/spore_stims/simple_06_A_c.gif","middle","","","","",""
"","null","html-keyboard-response","50","108437","0.0-14.0-0.3","SS1613140926474","","","null","","","","","<p><img src= images/blank.png width =""200"" height = ""200"" style = ""float:right""></p><p><img src=images/blank.png width =""800"" height = ""200""></p>","","","","","","","","","","","",""
"","393.02999999927124","sequential-stimulus-presentation","51","109644","0.0-14.0-1.3","SS1613140926474","trial","","40","800","1193.0299999992712","images/stimuli/spore_stims/simple_06_A_c.gif","images/stimuli/spore_stims/simple_04_A_c.gif","","","","","2","simple_dissimilar","images/stimuli/spore_stims/simple_04_A_c.gif","right","","","","",""
"","null","html-keyboard-response","52","110864","0.0-14.0-0.4","SS1613140926474","","","null","","","","","<p><img src= images/blank.png width =""200"" height = ""200"" style = ""float:right""></p><p><img src=images/blank.png width =""800"" height = ""200""></p>","","","","","","","","","","","",""
"","375.2649999987625","sequential-stimulus-presentation","53","112055","0.0-14.0-1.4","SS1613140926474","trial","","40","800","1175.2649999987625","images/stimuli/spore_stims/simple_06_A_c.gif","images/stimuli/spore_stims/simple_04_A_c.gif","","","","","2","simple_dissimilar","images/stimuli/spore_stims/simple_04_A_c.gif","right","","","","",""
"","null","html-keyboard-response","54","113320","0.0-14.0-0.5","SS1613140926474","","","null","","","","","<p><img src= images/blank.png width =""200"" height = ""200"" style = ""float:right""></p><p><img src=images/blank.png width =""800"" height = ""200""></p>","","","","","","","","","","","",""
"","313.51499999981024","sequential-stimulus-presentation","55","114451","0.0-14.0-1.5","SS1613140926474","trial","","40","800","1113.5149999998102","images/stimuli/spore_stims/simple_06_A_c.gif","images/stimuli/spore_stims/simple_04_A_c.gif","","","","","2","simple_dissimilar","images/stimuli/spore_stims/simple_04_A_c.gif","right","","","","",""
"","null","html-keyboard-response","56","115536","0.0-14.0-0.6","SS1613140926474","","","null","","","","","<p><img src= images/blank.png width =""200"" height = ""200"" style = ""float:right""></p><p><img src=images/blank.png width =""800"" height = ""200""></p>","","","","","","","","","","","",""
"","436.91000000035274","sequential-stimulus-presentation","57","116789","0.0-14.0-1.6","SS1613140926474","trial","","40","800","1236.9100000003527","images/stimuli/spore_stims/simple_06_A_c.gif","images/stimuli/spore_stims/simple_04_A_c.gif","","","","","2","simple_dissimilar","images/stimuli/spore_stims/simple_04_A_c.gif","right","","","","",""
"","null","html-keyboard-response","58","118038","0.0-14.0-0.7","SS1613140926474","","","null","","","","","<p><img src= images/blank.png width =""200"" height = ""200"" style = ""float:right""></p><p><img src=images/blank.png width =""800"" height = ""200""></p>","","","","","","","","","","","",""
"","387.01000000035856","sequential-stimulus-presentation","59","119236","0.0-14.0-1.7","SS1613140926474","trial","","40","800","1187.0100000003586","images/stimuli/spore_stims/simple_06_A_c.gif","images/stimuli/spore_stims/simple_04_A_c.gif","","","","","2","simple_dissimilar","images/stimuli/spore_stims/simple_04_A_c.gif","right","","","","",""
"","1933.7699999996112","html-keyboard-response","60","121180","0.0-15.0","SS1613140926474","pref_question","","51","","","","","<video width ='960' height = '540' style='padding-top:8%' autoplay muted><source src='images/stimuli/wall_pref.mp4' type='video/mp4'></video>","3","right","66%","2","","","","","","","",""
"","850.7649999992573","sequential-stimulus-presentation","61","122845","0.0-16.0","SS1613140926474","pref_reveal","","40","800","1650.7649999992573","null","null","","","","","2","","","","background","","","",""
"","null","html-keyboard-response","62","123795","0.0-17.0-0.0","SS1613140926474","","","null","","","","","<p><img src= images/blank.png width =""200"" height = ""200"" style = ""float:right""></p><p><img src=images/blank.png width =""800"" height = ""200""></p>","","","","","","","","","","","",""
"","101.2549999995972","sequential-stimulus-presentation","63","124709","0.0-17.0-1.0","SS1613140926474","trial","","40","800","901.2549999995972","images/stimuli/spore_stims/simple_14_A_d.gif","images/stimuli/spore_stims/simple_18_A_d.gif","","","","","3","simple_dissimilar","images/stimuli/spore_stims/simple_18_A_d.gif","right","","","","",""
"","null","html-keyboard-response","64","125539","0.0-17.0-0.1","SS1613140926474","","","null","","","","","<p><img src= images/blank.png width =""200"" height = ""200"" style = ""float:right""></p><p><img src=images/blank.png width =""800"" height = ""200""></p>","","","","","","","","","","","",""
"","565.3249999995751","sequential-stimulus-presentation","65","126934","0.0-17.0-1.1","SS1613140926474","trial","","40","800","1365.324999999575","images/stimuli/spore_stims/simple_14_A_d.gif","images/stimuli/spore_stims/simple_18_A_d.gif","","","","","3","simple_dissimilar","images/stimuli/spore_stims/simple_18_A_d.gif","right","","","","",""
"","null","html-keyboard-response","66","127764","0.0-17.0-0.2","SS1613140926474","","","null","","","","","<p><img src= images/blank.png width =""200"" height = ""200"" style = ""float:right""></p><p><img src=images/blank.png width =""800"" height = ""200""></p>","","","","","","","","","","","",""
"","348.14999999981956","sequential-stimulus-presentation","67","128927","0.0-17.0-1.2","SS1613140926474","trial","","40","800","1148.1499999998196","images/stimuli/spore_stims/simple_14_A_d.gif","images/stimuli/spore_stims/simple_18_A_d.gif","","","","","3","simple_dissimilar","images/stimuli/spore_stims/simple_18_A_d.gif","right","","","","",""
"","null","html-keyboard-response","68","130076","0.0-17.0-0.3","SS1613140926474","","","null","","","","","<p><img src= images/blank.png width =""200"" height = ""200"" style = ""float:right""></p><p><img src=images/blank.png width =""800"" height = ""200""></p>","","","","","","","","","","","",""
"","258.5949999993318","sequential-stimulus-presentation","69","131147","0.0-17.0-1.3","SS1613140926474","trial","","40","800","1058.5949999993318","images/stimuli/spore_stims/simple_14_A_d.gif","images/stimuli/spore_stims/simple_18_A_d.gif","","","","","3","simple_dissimilar","images/stimuli/spore_stims/simple_18_A_d.gif","right","","","","",""
"","null","html-keyboard-response","70","132232","0.0-17.0-0.4","SS1613140926474","","","null","","","","","<p><img src= images/blank.png width =""200"" height = ""200"" style = ""float:right""></p><p><img src=images/blank.png width =""800"" height = ""200""></p>","","","","","","","","","","","",""
"","242.11000000103377","sequential-stimulus-presentation","71","133299","0.0-17.0-1.4","SS1613140926474","trial","","40","800","1042.1100000010338","images/stimuli/spore_stims/simple_14_A_d.gif","images/stimuli/spore_stims/simple_18_A_d.gif","","","","","3","simple_dissimilar","images/stimuli/spore_stims/simple_18_A_d.gif","right","","","","",""
"","null","html-keyboard-response","72","134568","0.0-17.0-0.5","SS1613140926474","","","null","","","","","<p><img src= images/blank.png width =""200"" height = ""200"" style = ""float:right""></p><p><img src=images/blank.png width =""800"" height = ""200""></p>","","","","","","","","","","","",""
"","265.5900000008987","sequential-stimulus-presentation","73","135652","0.0-17.0-1.5","SS1613140926474","trial","","40","800","1065.5900000008987","images/stimuli/spore_stims/simple_14_A_d.gif","images/stimuli/spore_stims/simple_18_A_d.gif","","","","","3","simple_dissimilar","images/stimuli/spore_stims/simple_18_A_d.gif","right","","","","",""
"","null","html-keyboard-response","74","136620","0.0-17.0-0.6","SS1613140926474","","","null","","","","","<p><img src= images/blank.png width =""200"" height = ""200"" style = ""float:right""></p><p><img src=images/blank.png width =""800"" height = ""200""></p>","","","","","","","","","","","",""
"","346.69000000032247","sequential-stimulus-presentation","75","137781","0.0-17.0-1.6","SS1613140926474","trial","","40","800","1146.6900000003225","images/stimuli/spore_stims/simple_14_A_d.gif","images/stimuli/spore_stims/simple_18_A_d.gif","","","","","3","simple_dissimilar","images/stimuli/spore_stims/simple_18_A_d.gif","right","","","","",""
"","null","html-keyboard-response","76","138806","0.0-17.0-0.7","SS1613140926474","","","null","","","","","<p><img src= images/blank.png width =""200"" height = ""200"" style = ""float:right""></p><p><img src=images/blank.png width =""800"" height = ""200""></p>","","","","","","","","","","","",""
"","407.4049999999115","sequential-stimulus-presentation","77","140029","0.0-17.0-1.7","SS1613140926474","trial","","40","800","1207.4049999999115","images/stimuli/spore_stims/simple_14_A_d.gif","images/stimuli/spore_stims/simple_18_A_d.gif","","","","","3","simple_dissimilar","images/stimuli/spore_stims/simple_14_A_d.gif","middle","","","","",""
"","741.1350000002421","html-keyboard-response","78","140788","0.0-18.0","SS1613140926474","pref_question","","50","","","","","<video width ='960' height = '540' style='padding-top:8%' autoplay muted><source src='images/stimuli/wall_pref.mp4' type='video/mp4'></video>","2","middle","45%","3","","","","","","","",""
"","283.5749999994878","sequential-stimulus-presentation","79","141955","0.0-19.0","SS1613140926474","pref_reveal","","40","800","1083.5749999994878","null","null","","","","","3","","","","deviant","","","",""
"","null","html-keyboard-response","80","143049","0.0-20.0-0.0","SS1613140926474","","","null","","","","","<p><img src= images/blank.png width =""200"" height = ""200"" style = ""float:right""></p><p><img src=images/blank.png width =""800"" height = ""200""></p>","","","","","","","","","","","",""
"","35.44500000134576","sequential-stimulus-presentation","81","143899","0.0-20.0-1.0","SS1613140926474","trial","","40","800","835.4450000013458","images/stimuli/spore_stims/simple_16_A_b.gif","images/stimuli/spore_stims/simple_03_B_c.gif","","","","","4","simple_dissimilar","images/stimuli/spore_stims/simple_03_B_c.gif","right","","","","",""
"","null","html-keyboard-response","82","145068","0.0-20.0-0.1","SS1613140926474","","","null","","","","","<p><img src= images/blank.png width =""200"" height = ""200"" style = ""float:right""></p><p><img src=images/blank.png width =""800"" height = ""200""></p>","","","","","","","","","","","",""
"","543.8699999995006","sequential-stimulus-presentation","83","146429","0.0-20.0-1.1","SS1613140926474","trial","","40","800","1343.8699999995006","images/stimuli/spore_stims/simple_16_A_b.gif","images/stimuli/spore_stims/simple_03_B_c.gif","","","","","4","simple_dissimilar","images/stimuli/spore_stims/simple_03_B_c.gif","right","","","","",""
"","null","html-keyboard-response","84","147468","0.0-20.0-0.2","SS1613140926474","","","null","","","","","<p><img src= images/blank.png width =""200"" height = ""200"" style = ""float:right""></p><p><img src=images/blank.png width =""800"" height = ""200""></p>","","","","","","","","","","","",""
"","408.91499999997905","sequential-stimulus-presentation","85","148692","0.0-20.0-1.2","SS1613140926474","trial","","40","800","1208.914999999979","images/stimuli/spore_stims/simple_16_A_b.gif","images/stimuli/spore_stims/simple_03_B_c.gif","","","","","4","simple_dissimilar","images/stimuli/spore_stims/simple_16_A_b.gif","left","","","","",""
"","null","html-keyboard-response","86","149504","0.0-20.0-0.3","SS1613140926474","","","null","","","","","<p><img src= images/blank.png width =""200"" height = ""200"" style = ""float:right""></p><p><img src=images/blank.png width =""800"" height = ""200""></p>","","","","","","","","","","","",""
"","342.3249999996042","sequential-stimulus-presentation","87","150668","0.0-20.0-1.3","SS1613140926474","trial","","40","800","1142.3249999996042","images/stimuli/spore_stims/simple_16_A_b.gif","images/stimuli/spore_stims/simple_03_B_c.gif","","","","","4","simple_dissimilar","images/stimuli/spore_stims/simple_03_B_c.gif","right","","","","",""
"","null","html-keyboard-response","88","151960","0.0-20.0-0.4","SS1613140926474","","","null","","","","","<p><img src= images/blank.png width =""200"" height = ""200"" style = ""float:right""></p><p><img src=images/blank.png width =""800"" height = ""200""></p>","","","","","","","","","","","",""
"","147.78500000102213","sequential-stimulus-presentation","89","152987","0.0-20.0-1.4","SS1613140926474","trial","","40","800","947.7850000010221","images/stimuli/spore_stims/simple_16_A_b.gif","images/stimuli/spore_stims/simple_03_B_c.gif","","","","","4","simple_dissimilar","images/stimuli/spore_stims/simple_03_B_c.gif","right","","","","",""
"","null","html-keyboard-response","90","153959","0.0-20.0-0.5","SS1613140926474","","","null","","","","","<p><img src= images/blank.png width =""200"" height = ""200"" style = ""float:right""></p><p><img src=images/blank.png width =""800"" height = ""200""></p>","","","","","","","","","","","",""
"","305.01499999992666","sequential-stimulus-presentation","91","155077","0.0-20.0-1.5","SS1613140926474","trial","","40","800","1105.0149999999267","images/stimuli/spore_stims/simple_16_A_b.gif","images/stimuli/spore_stims/simple_03_B_c.gif","","","","","4","simple_dissimilar","images/stimuli/spore_stims/simple_03_B_c.gif","right","","","","",""
"","null","html-keyboard-response","92","156242","0.0-20.0-0.6","SS1613140926474","","","null","","","","","<p><img src= images/blank.png width =""200"" height = ""200"" style = ""float:right""></p><p><img src=images/blank.png width =""800"" height = ""200""></p>","","","","","","","","","","","",""
"","262.7700000011828","sequential-stimulus-presentation","93","157331","0.0-20.0-1.6","SS1613140926474","trial","","40","800","1062.7700000011828","images/stimuli/spore_stims/simple_16_A_b.gif","images/stimuli/spore_stims/simple_03_B_c.gif","","","","","4","simple_dissimilar","images/stimuli/spore_stims/simple_03_B_c.gif","right","","","","",""
"","null","html-keyboard-response","94","158571","0.0-20.0-0.7","SS1613140926474","","","null","","","","","<p><img src= images/blank.png width =""200"" height = ""200"" style = ""float:right""></p><p><img src=images/blank.png width =""800"" height = ""200""></p>","","","","","","","","","","","",""
"","505.77999999950407","sequential-stimulus-presentation","95","159908","0.0-20.0-1.7","SS1613140926474","trial","","40","800","1305.779999999504","images/stimuli/spore_stims/simple_16_A_b.gif","images/stimuli/spore_stims/simple_03_B_c.gif","","","","","4","simple_dissimilar","images/stimuli/spore_stims/simple_03_B_c.gif","right","","","","",""
"","770.2300000000687","html-keyboard-response","96","160692","0.0-21.0","SS1613140926474","pref_question","","51","","","","","<video width ='960' height = '540' style='padding-top:8%' autoplay muted><source src='images/stimuli/wall_pref.mp4' type='video/mp4'></video>","3","right","66%","4","","","","","","","",""
"","268.2100000001665","sequential-stimulus-presentation","97","161775","0.0-22.0","SS1613140926474","pref_reveal","","40","800","1068.2100000001665","null","null","","","","","4","","","","background","","","",""
"","null","html-keyboard-response","98","162778","0.0-23.0-0.0","SS1613140926474","","","null","","","","","<p><img src= images/blank.png width =""200"" height = ""200"" style = ""float:right""></p><p><img src=images/blank.png width =""800"" height = ""200""></p>","","","","","","","","","","","",""
"","303.9850000004517","sequential-stimulus-presentation","99","163899","0.0-23.0-1.0","SS1613140926474","trial","","40","800","1103.9850000004517","images/stimuli/spore_stims/complex_12_A_a.gif","images/stimuli/spore_stims/complex_12_B_a.gif","","","","","5","complex_similar","images/stimuli/spore_stims/complex_12_B_a.gif","right","","","","",""
"","null","html-keyboard-response","100","165095","0.0-23.0-0.1","SS1613140926474","","","null","","","","","<p><img src= images/blank.png width =""200"" height = ""200"" style = ""float:right""></p><p><img src=images/blank.png width =""800"" height = ""200""></p>","","","","","","","","","","","",""
"","105.22499999933643","sequential-stimulus-presentation","101","166027","0.0-23.0-1.1","SS1613140926474","trial","","40","800","905.2249999993364","images/stimuli/spore_stims/complex_12_A_a.gif","images/stimuli/spore_stims/complex_12_B_a.gif","","","","","5","complex_similar","images/stimuli/spore_stims/complex_12_B_a.gif","right","","","","",""
"","null","html-keyboard-response","102","166917","0.0-23.0-0.2","SS1613140926474","","","null","","","","","<p><img src= images/blank.png width =""200"" height = ""200"" style = ""float:right""></p><p><img src=images/blank.png width =""800"" height = ""200""></p>","","","","","","","","","","","",""
"","396.3800000001502","sequential-stimulus-presentation","103","168131","0.0-23.0-1.2","SS1613140926474","trial","","40","800","1196.3800000001502","images/stimuli/spore_stims/complex_12_A_a.gif","images/stimuli/spore_stims/complex_12_B_a.gif","","","","","5","complex_similar","images/stimuli/spore_stims/complex_12_A_a.gif","left","","","","",""
"","null","html-keyboard-response","104","169370","0.0-23.0-0.3","SS1613140926474","","","null","","","","","<p><img src= images/blank.png width =""200"" height = ""200"" style = ""float:right""></p><p><img src=images/blank.png width =""800"" height = ""200""></p>","","","","","","","","","","","",""
"","400.8849999991362","sequential-stimulus-presentation","105","170590","0.0-23.0-1.3","SS1613140926474","trial","","40","800","1200.8849999991362","images/stimuli/spore_stims/complex_12_A_a.gif","images/stimuli/spore_stims/complex_12_B_a.gif","","","","","5","complex_similar","images/stimuli/spore_stims/complex_12_B_a.gif","right","","","","",""
"","null","html-keyboard-response","106","171822","0.0-23.0-0.4","SS1613140926474","","","null","","","","","<p><img src= images/blank.png width =""200"" height = ""200"" style = ""float:right""></p><p><img src=images/blank.png width =""800"" height = ""200""></p>","","","","","","","","","","","",""
"","317.1500000007509","sequential-stimulus-presentation","107","172972","0.0-23.0-1.4","SS1613140926474","trial","","40","800","1117.1500000007509","images/stimuli/spore_stims/complex_12_A_a.gif","images/stimuli/spore_stims/complex_12_B_a.gif","","","","","5","complex_similar","images/stimuli/spore_stims/complex_12_B_a.gif","right","","","","",""
"","null","html-keyboard-response","108","173900","0.0-23.0-0.5","SS1613140926474","","","null","","","","","<p><img src= images/blank.png width =""200"" height = ""200"" style = ""float:right""></p><p><img src=images/blank.png width =""800"" height = ""200""></p>","","","","","","","","","","","",""
"","425.72500000096625","sequential-stimulus-presentation","109","175155","0.0-23.0-1.5","SS1613140926474","trial","","40","800","1225.7250000009662","images/stimuli/spore_stims/complex_12_A_a.gif","images/stimuli/spore_stims/complex_12_B_a.gif","","","","","5","complex_similar","images/stimuli/spore_stims/complex_12_B_a.gif","right","","","","",""
"","null","html-keyboard-response","110","176032","0.0-23.0-0.6","SS1613140926474","","","null","","","","","<p><img src= images/blank.png width =""200"" height = ""200"" style = ""float:right""></p><p><img src=images/blank.png width =""800"" height = ""200""></p>","","","","","","","","","","","",""
"","374.05500000022585","sequential-stimulus-presentation","111","177228","0.0-23.0-1.6","SS1613140926474","trial","","40","800","1174.0550000002258","images/stimuli/spore_stims/complex_12_A_a.gif","images/stimuli/spore_stims/complex_12_B_a.gif","","","","","5","complex_similar","images/stimuli/spore_stims/complex_12_B_a.gif","right","","","","",""
"","null","html-keyboard-response","112","178351","0.0-23.0-0.7","SS1613140926474","","","null","","","","","<p><img src= images/blank.png width =""200"" height = ""200"" style = ""float:right""></p><p><img src=images/blank.png width =""800"" height = ""200""></p>","","","","","","","","","","","",""
"","363.4799999999814","sequential-stimulus-presentation","113","179537","0.0-23.0-1.7","SS1613140926474","trial","","40","800","1163.4799999999814","images/stimuli/spore_stims/complex_12_A_a.gif","images/stimuli/spore_stims/complex_12_B_a.gif","","","","","5","complex_similar","images/stimuli/spore_stims/complex_12_B_a.gif","right","","","","",""
"","774.5549999999639","html-keyboard-response","114","180379","0.0-24.0","SS1613140926474","pref_question","","50","","","","","<video width ='960' height = '540' style='padding-top:8%' autoplay muted><source src='images/stimuli/wall_pref.mp4' type='video/mp4'></video>","2","middle","45%","5","","","","","","","",""
"","930.76499999917","sequential-stimulus-presentation","115","182125","0.0-25.0","SS1613140926474","pref_reveal","","40","800","1730.76499999917","null","null","","","","","5","","","","novel","","","",""
"","null","html-keyboard-response","116","183323","0.0-26.0-0.0","SS1613140926474","","","null","","","","","<p><img src= images/blank.png width =""200"" height = ""200"" style = ""float:right""></p><p><img src=images/blank.png width =""800"" height = ""200""></p>","","","","","","","","","","","",""
"","63.48500000059721","sequential-stimulus-presentation","117","184202","0.0-26.0-1.0","SS1613140926474","trial","","40","800","863.4850000005972","images/stimuli/spore_stims/complex_04_A_d.gif","images/stimuli/spore_stims/complex_19_A_d.gif","","","","","6","complex_dissimilar","images/stimuli/spore_stims/complex_19_A_d.gif","right","","","","",""
"","null","html-keyboard-response","118","185379","0.0-26.0-0.1","SS1613140926474","","","null","","","","","<p><img src= images/blank.png width =""200"" height = ""200"" style = ""float:right""></p><p><img src=images/blank.png width =""800"" height = ""200""></p>","","","","","","","","","","","",""
"","411.9950000004028","sequential-stimulus-presentation","119","186715","0.0-26.0-1.1","SS1613140926474","trial","","40","800","1211.9950000004028","images/stimuli/spore_stims/complex_04_A_d.gif","images/stimuli/spore_stims/complex_19_A_d.gif","","","","","6","complex_dissimilar","images/stimuli/spore_stims/complex_19_A_d.gif","right","","","","",""
"","null","html-keyboard-response","120","187590","0.0-26.0-0.2","SS1613140926474","","","null","","","","","<p><img src= images/blank.png width =""200"" height = ""200"" style = ""float:right""></p><p><img src=images/blank.png width =""800"" height = ""200""></p>","","","","","","","","","","","",""
"","462.56999999971595","sequential-stimulus-presentation","121","188908","0.0-26.0-1.2","SS1613140926474","trial","","40","800","1262.569999999716","images/stimuli/spore_stims/complex_04_A_d.gif","images/stimuli/spore_stims/complex_19_A_d.gif","","","","","6","complex_dissimilar","images/stimuli/spore_stims/complex_19_A_d.gif","right","","","","",""
"","null","html-keyboard-response","122","189921","0.0-26.0-0.3","SS1613140926474","","","null","","","","","<p><img src= images/blank.png width =""200"" height = ""200"" style = ""float:right""></p><p><img src=images/blank.png width =""800"" height = ""200""></p>","","","","","","","","","","","",""
"","355.58499999935157","sequential-stimulus-presentation","123","191094","0.0-26.0-1.3","SS1613140926474","trial","","40","800","1155.5849999993516","images/stimuli/spore_stims/complex_04_A_d.gif","images/stimuli/spore_stims/complex_19_A_d.gif","","","","","6","complex_dissimilar","images/stimuli/spore_stims/complex_19_A_d.gif","right","","","","",""
"","null","html-keyboard-response","124","192297","0.0-26.0-0.4","SS1613140926474","","","null","","","","","<p><img src= images/blank.png width =""200"" height = ""200"" style = ""float:right""></p><p><img src=images/blank.png width =""800"" height = ""200""></p>","","","","","","","","","","","",""
"","308.3100000003469","sequential-stimulus-presentation","125","193427","0.0-26.0-1.4","SS1613140926474","trial","","40","800","1108.310000000347","images/stimuli/spore_stims/complex_04_A_d.gif","images/stimuli/spore_stims/complex_19_A_d.gif","","","","","6","complex_dissimilar","images/stimuli/spore_stims/complex_19_A_d.gif","right","","","","",""
"","null","html-keyboard-response","126","194610","0.0-26.0-0.5","SS1613140926474","","","null","","","","","<p><img src= images/blank.png width =""200"" height = ""200"" style = ""float:right""></p><p><img src=images/blank.png width =""800"" height = ""200""></p>","","","","","","","","","","","",""
"","350.2100000005157","sequential-stimulus-presentation","127","195787","0.0-26.0-1.5","SS1613140926474","trial","","40","800","1150.2100000005157","images/stimuli/spore_stims/complex_04_A_d.gif","images/stimuli/spore_stims/complex_19_A_d.gif","","","","","6","complex_dissimilar","images/stimuli/spore_stims/complex_19_A_d.gif","right","","","","",""
"","null","html-keyboard-response","128","196697","0.0-26.0-0.6","SS1613140926474","","","null","","","","","<p><img src= images/blank.png width =""200"" height = ""200"" style = ""float:right""></p><p><img src=images/blank.png width =""800"" height = ""200""></p>","","","","","","","","","","","",""
"","384.5349999992468","sequential-stimulus-presentation","129","197899","0.0-26.0-1.6","SS1613140926474","trial","","40","800","1184.5349999992468","images/stimuli/spore_stims/complex_04_A_d.gif","images/stimuli/spore_stims/complex_19_A_d.gif","","","","","6","complex_dissimilar","images/stimuli/spore_stims/complex_04_A_d.gif","left","","","","",""
"","null","html-keyboard-response","130","198737","0.0-26.0-0.7","SS1613140926474","","","null","","","","","<p><img src= images/blank.png width =""200"" height = ""200"" style = ""float:right""></p><p><img src=images/blank.png width =""800"" height = ""200""></p>","","","","","","","","","","","",""
"","448.7750000007509","sequential-stimulus-presentation","131","200011","0.0-26.0-1.7","SS1613140926474","trial","","40","800","1248.7750000007509","images/stimuli/spore_stims/complex_04_A_d.gif","images/stimuli/spore_stims/complex_19_A_d.gif","","","","","6","complex_dissimilar","images/stimuli/spore_stims/complex_19_A_d.gif","right","","","","",""
"","649.3900000005087","html-keyboard-response","132","200675","0.0-27.0","SS1613140926474","pref_question","","50","","","","","<video width ='960' height = '540' style='padding-top:8%' autoplay muted><source src='images/stimuli/wall_pref.mp4' type='video/mp4'></video>","2","middle","45%","6","","","","","","","",""
"","481.845000000234","sequential-stimulus-presentation","133","201971","0.0-28.0","SS1613140926474","pref_reveal","","40","800","1281.845000000234","null","null","","","","","6","","","","novel","","","",""
"","null","html-keyboard-response","134","203110","0.0-29.0-0.0","SS1613140926474","","","null","","","","","<p><img src= images/blank.png width =""200"" height = ""200"" style = ""float:right""></p><p><img src=images/blank.png width =""800"" height = ""200""></p>","","","","","","","","","","","",""
"","341.33000000109314","sequential-stimulus-presentation","135","204269","0.0-29.0-1.0","SS1613140926474","trial","","40","800","1141.3300000010931","images/stimuli/spore_stims/complex_10_B_b.gif","images/stimuli/spore_stims/complex_05_A_c.gif","","","","","7","complex_dissimilar","images/stimuli/spore_stims/complex_05_A_c.gif","right","","","","",""
"","null","html-keyboard-response","136","205175","0.0-29.0-0.1","SS1613140926474","","","null","","","","","<p><img src= images/blank.png width =""200"" height = ""200"" style = ""float:right""></p><p><img src=images/blank.png width =""800"" height = ""200""></p>","","","","","","","","","","","",""
"","270.6950000010838","sequential-stimulus-presentation","137","206331","0.0-29.0-1.1","SS1613140926474","trial","","40","800","1070.6950000010838","images/stimuli/spore_stims/complex_10_B_b.gif","images/stimuli/spore_stims/complex_05_A_c.gif","","","","","7","complex_dissimilar","images/stimuli/spore_stims/complex_05_A_c.gif","right","","","","",""
"","null","html-keyboard-response","138","207549","0.0-29.0-0.2","SS1613140926474","","","null","","","","","<p><img src= images/blank.png width =""200"" height = ""200"" style = ""float:right""></p><p><img src=images/blank.png width =""800"" height = ""200""></p>","","","","","","","","","","","",""
"","375.48499999867636","sequential-stimulus-presentation","139","208771","0.0-29.0-1.2","SS1613140926474","trial","","40","800","1175.4849999986764","images/stimuli/spore_stims/complex_10_B_b.gif","images/stimuli/spore_stims/complex_05_A_c.gif","","","","","7","complex_dissimilar","images/stimuli/spore_stims/complex_05_A_c.gif","right","","","","",""
"","null","html-keyboard-response","140","209642","0.0-29.0-0.3","SS1613140926474","","","null","","","","","<p><img src= images/blank.png width =""200"" height = ""200"" style = ""float:right""></p><p><img src=images/blank.png width =""800"" height = ""200""></p>","","","","","","","","","","","",""
"","197.88499999957276","sequential-stimulus-presentation","141","210659","0.0-29.0-1.3","SS1613140926474","trial","","40","800","997.8849999995728","images/stimuli/spore_stims/complex_10_B_b.gif","images/stimuli/spore_stims/complex_05_A_c.gif","","","","","7","complex_dissimilar","images/stimuli/spore_stims/complex_10_B_b.gif","left","","","","",""
"","null","html-keyboard-response","142","211670","0.0-29.0-0.4","SS1613140926474","","","null","","","","","<p><img src= images/blank.png width =""200"" height = ""200"" style = ""float:right""></p><p><img src=images/blank.png width =""800"" height = ""200""></p>","","","","","","","","","","","",""
"","328.47500000026776","sequential-stimulus-presentation","143","212819","0.0-29.0-1.4","SS1613140926474","trial","","40","800","1128.4750000002678","images/stimuli/spore_stims/complex_10_B_b.gif","images/stimuli/spore_stims/complex_05_A_c.gif","","","","","7","complex_dissimilar","images/stimuli/spore_stims/complex_05_A_c.gif","right","","","","",""
"","null","html-keyboard-response","144","213751","0.0-29.0-0.5","SS1613140926474","","","null","","","","","<p><img src= images/blank.png width =""200"" height = ""200"" style = ""float:right""></p><p><img src=images/blank.png width =""800"" height = ""200""></p>","","","","","","","","","","","",""
"","401.8450000003213","sequential-stimulus-presentation","145","214971","0.0-29.0-1.5","SS1613140926474","trial","","40","800","1201.8450000003213","images/stimuli/spore_stims/complex_10_B_b.gif","images/stimuli/spore_stims/complex_05_A_c.gif","","","","","7","complex_dissimilar","images/stimuli/spore_stims/complex_05_A_c.gif","right","","","","",""
"","null","html-keyboard-response","146","216289","0.0-29.0-0.6","SS1613140926474","","","null","","","","","<p><img src= images/blank.png width =""200"" height = ""200"" style = ""float:right""></p><p><img src=images/blank.png width =""800"" height = ""200""></p>","","","","","","","","","","","",""
"","212.09000000089873","sequential-stimulus-presentation","147","217328","0.0-29.0-1.6","SS1613140926474","trial","","40","800","1012.0900000008987","images/stimuli/spore_stims/complex_10_B_b.gif","images/stimuli/spore_stims/complex_05_A_c.gif","","","","","7","complex_dissimilar","images/stimuli/spore_stims/complex_05_A_c.gif","right","","","","",""
"","null","html-keyboard-response","148","218427","0.0-29.0-0.7","SS1613140926474","","","null","","","","","<p><img src= images/blank.png width =""200"" height = ""200"" style = ""float:right""></p><p><img src=images/blank.png width =""800"" height = ""200""></p>","","","","","","","","","","","",""
"","237.30000000068685","sequential-stimulus-presentation","149","219554","0.0-29.0-1.7","SS1613140926474","trial","","40","800","1037.3000000006869","images/stimuli/spore_stims/complex_10_B_b.gif","images/stimuli/spore_stims/complex_05_A_c.gif","","","","","7","complex_dissimilar","images/stimuli/spore_stims/complex_05_A_c.gif","right","","","","",""
"","607.2300000014366","html-keyboard-response","150","220179","0.0-30.0","SS1613140926474","pref_question","","51","","","","","<video width ='960' height = '540' style='padding-top:8%' autoplay muted><source src='images/stimuli/wall_pref.mp4' type='video/mp4'></video>","3","right","66%","7","","","","","","","",""
"","219.59500000046683","sequential-stimulus-presentation","151","221218","0.0-31.0","SS1613140926474","pref_reveal","","40","800","1019.5950000004668","null","null","","","","","7","","","","background","","","",""
"","null","html-keyboard-response","152","222083","0.0-32.0-0.0","SS1613140926474","","","null","","","","","<p><img src= images/blank.png width =""200"" height = ""200"" style = ""float:right""></p><p><img src=images/blank.png width =""800"" height = ""200""></p>","","","","","","","","","","","",""
"","773.0499999997846","sequential-stimulus-presentation","153","223731","0.0-32.0-1.0","SS1613140926474","trial","","40","800","1573.0499999997846","images/stimuli/spore_stims/complex_08_B_c.gif","images/stimuli/spore_stims/complex_08_A_c.gif","","","","","8","complex_similar","images/stimuli/spore_stims/complex_08_A_c.gif","middle","","","","",""
"","null","html-keyboard-response","154","224653","0.0-32.0-0.1","SS1613140926474","","","null","","","","","<p><img src= images/blank.png width =""200"" height = ""200"" style = ""float:right""></p><p><img src=images/blank.png width =""800"" height = ""200""></p>","","","","","","","","","","","",""
"","300.5549999998184","sequential-stimulus-presentation","155","225772","0.0-32.0-1.1","SS1613140926474","trial","","40","800","1100.5549999998184","images/stimuli/spore_stims/complex_08_B_c.gif","images/stimuli/spore_stims/complex_08_A_c.gif","","","","","8","complex_similar","images/stimuli/spore_stims/complex_08_A_c.gif","middle","","","","",""
"","null","html-keyboard-response","156","226726","0.0-32.0-0.2","SS1613140926474","","","null","","","","","<p><img src= images/blank.png width =""200"" height = ""200"" style = ""float:right""></p><p><img src=images/blank.png width =""800"" height = ""200""></p>","","","","","","","","","","","",""
"","380.435000000929","sequential-stimulus-presentation","157","227923","0.0-32.0-1.2","SS1613140926474","trial","","40","800","1180.435000000929","images/stimuli/spore_stims/complex_08_B_c.gif","images/stimuli/spore_stims/complex_08_A_c.gif","","","","","8","complex_similar","images/stimuli/spore_stims/complex_08_A_c.gif","middle","","","","",""
"","null","html-keyboard-response","158","228951","0.0-32.0-0.3","SS1613140926474","","","null","","","","","<p><img src= images/blank.png width =""200"" height = ""200"" style = ""float:right""></p><p><img src=images/blank.png width =""800"" height = ""200""></p>","","","","","","","","","","","",""
"","404.9900000008929","sequential-stimulus-presentation","159","230178","0.0-32.0-1.3","SS1613140926474","trial","","40","800","1204.990000000893","images/stimuli/spore_stims/complex_08_B_c.gif","images/stimuli/spore_stims/complex_08_A_c.gif","","","","","8","complex_similar","images/stimuli/spore_stims/complex_08_A_c.gif","middle","","","","",""
"","null","html-keyboard-response","160","231230","0.0-32.0-0.4","SS1613140926474","","","null","","","","","<p><img src= images/blank.png width =""200"" height = ""200"" style = ""float:right""></p><p><img src=images/blank.png width =""800"" height = ""200""></p>","","","","","","","","","","","",""
"","290.51500000059605","sequential-stimulus-presentation","161","232386","0.0-32.0-1.4","SS1613140926474","trial","","40","800","1090.515000000596","images/stimuli/spore_stims/complex_08_B_c.gif","images/stimuli/spore_stims/complex_08_A_c.gif","","","","","8","complex_similar","images/stimuli/spore_stims/complex_08_A_c.gif","middle","","","","",""
"","null","html-keyboard-response","162","233290","0.0-32.0-0.5","SS1613140926474","","","null","","","","","<p><img src= images/blank.png width =""200"" height = ""200"" style = ""float:right""></p><p><img src=images/blank.png width =""800"" height = ""200""></p>","","","","","","","","","","","",""
"","306.0250000016531","sequential-stimulus-presentation","163","234418","0.0-32.0-1.5","SS1613140926474","trial","","40","800","1106.025000001653","images/stimuli/spore_stims/complex_08_B_c.gif","images/stimuli/spore_stims/complex_08_A_c.gif","","","","","8","complex_similar","images/stimuli/spore_stims/complex_08_A_c.gif","middle","","","","",""
"","null","html-keyboard-response","164","235264","0.0-32.0-0.6","SS1613140926474","","","null","","","","","<p><img src= images/blank.png width =""200"" height = ""200"" style = ""float:right""></p><p><img src=images/blank.png width =""800"" height = ""200""></p>","","","","","","","","","","","",""
"","299.32999999981257","sequential-stimulus-presentation","165","236389","0.0-32.0-1.6","SS1613140926474","trial","","40","800","1099.3299999998126","images/stimuli/spore_stims/complex_08_B_c.gif","images/stimuli/spore_stims/complex_08_A_c.gif","","","","","8","complex_similar","images/stimuli/spore_stims/complex_08_A_c.gif","middle","","","","",""
"","null","html-keyboard-response","166","237379","0.0-32.0-0.7","SS1613140926474","","","null","","","","","<p><img src= images/blank.png width =""200"" height = ""200"" style = ""float:right""></p><p><img src=images/blank.png width =""800"" height = ""200""></p>","","","","","","","","","","","",""
"","257.35499999974854","sequential-stimulus-presentation","167","238458","0.0-32.0-1.7","SS1613140926474","trial","","40","800","1057.3549999997485","images/stimuli/spore_stims/complex_08_B_c.gif","images/stimuli/spore_stims/complex_08_A_c.gif","","","","","8","complex_similar","images/stimuli/spore_stims/complex_08_B_c.gif","left","","","","",""
"","751.7399999996414","html-keyboard-response","168","239251","0.0-33.0","SS1613140926474","pref_question","","50","","","","","<video width ='960' height = '540' style='padding-top:8%' autoplay muted><source src='images/stimuli/wall_pref.mp4' type='video/mp4'></video>","2","middle","45%","8","","","","","","","",""
"","300.40499999996973","sequential-stimulus-presentation","169","240372","0.0-34.0","SS1613140926474","pref_reveal","","40","800","1100.4049999999697","null","null","","","","","8","","","","background","","","",""
"","null","html-keyboard-response","170","241365","0.0-35.0-0.0","SS1613140926474","","","null","","","","","<p><img src= images/blank.png width =""200"" height = ""200"" style = ""float:right""></p><p><img src=images/blank.png width =""800"" height = ""200""></p>","","","","","","","","","","","",""
"","269.2800000003772","sequential-stimulus-presentation","171","242459","0.0-35.0-1.0","SS1613140926474","trial","","40","800","1069.2800000003772","images/stimuli/spore_stims/complex_03_B_b.gif","images/stimuli/spore_stims/complex_03_A_b.gif","","","","","9","complex_similar","images/stimuli/spore_stims/complex_03_A_b.gif","right","","","","",""
"","null","html-keyboard-response","172","243510","0.0-35.0-0.1","SS1613140926474","","","null","","","","","<p><img src= images/blank.png width =""200"" height = ""200"" style = ""float:right""></p><p><img src=images/blank.png width =""800"" height = ""200""></p>","","","","","","","","","","","",""
"","126.46999999921536","sequential-stimulus-presentation","173","244458","0.0-35.0-1.1","SS1613140926474","trial","","40","800","926.4699999992154","images/stimuli/spore_stims/complex_03_B_b.gif","images/stimuli/spore_stims/complex_03_A_b.gif","","","","","9","complex_similar","images/stimuli/spore_stims/complex_03_A_b.gif","right","","","","",""
"","null","html-keyboard-response","174","245412","0.0-35.0-0.2","SS1613140926474","","","null","","","","","<p><img src= images/blank.png width =""200"" height = ""200"" style = ""float:right""></p><p><img src=images/blank.png width =""800"" height = ""200""></p>","","","","","","","","","","","",""
"","245.24000000022352","sequential-stimulus-presentation","175","246542","0.0-35.0-1.2","SS1613140926474","trial","","40","800","1045.2400000002235","images/stimuli/spore_stims/complex_03_B_b.gif","images/stimuli/spore_stims/complex_03_A_b.gif","","","","","9","complex_similar","images/stimuli/spore_stims/complex_03_A_b.gif","right","","","","",""
"","null","html-keyboard-response","176","247537","0.0-35.0-0.3","SS1613140926474","","","null","","","","","<p><img src= images/blank.png width =""200"" height = ""200"" style = ""float:right""></p><p><img src=images/blank.png width =""800"" height = ""200""></p>","","","","","","","","","","","",""
"","251.63499999867054","sequential-stimulus-presentation","177","248610","0.0-35.0-1.3","SS1613140926474","trial","","40","800","1051.6349999986705","images/stimuli/spore_stims/complex_03_B_b.gif","images/stimuli/spore_stims/complex_03_A_b.gif","","","","","9","complex_similar","images/stimuli/spore_stims/complex_03_A_b.gif","right","","","","",""
"","null","html-keyboard-response","178","249478","0.0-35.0-0.4","SS1613140926474","","","null","","","","","<p><img src= images/blank.png width =""200"" height = ""200"" style = ""float:right""></p><p><img src=images/blank.png width =""800"" height = ""200""></p>","","","","","","","","","","","",""
"","239.8149999989546","sequential-stimulus-presentation","179","250539","0.0-35.0-1.4","SS1613140926474","trial","","40","800","1039.8149999989546","images/stimuli/spore_stims/complex_03_B_b.gif","images/stimuli/spore_stims/complex_03_A_b.gif","","","","","9","complex_similar","images/stimuli/spore_stims/complex_03_A_b.gif","right","","","","",""
"","null","html-keyboard-response","180","251572","0.0-35.0-0.5","SS1613140926474","","","null","","","","","<p><img src= images/blank.png width =""200"" height = ""200"" style = ""float:right""></p><p><img src=images/blank.png width =""800"" height = ""200""></p>","","","","","","","","","","","",""
"","249.31500000093365","sequential-stimulus-presentation","181","252643","0.0-35.0-1.5","SS1613140926474","trial","","40","800","1049.3150000009337","images/stimuli/spore_stims/complex_03_B_b.gif","images/stimuli/spore_stims/complex_03_A_b.gif","","","","","9","complex_similar","images/stimuli/spore_stims/complex_03_B_b.gif","middle","","","","",""
"","null","html-keyboard-response","182","253761","0.0-35.0-0.6","SS1613140926474","","","null","","","","","<p><img src= images/blank.png width =""200"" height = ""200"" style = ""float:right""></p><p><img src=images/blank.png width =""800"" height = ""200""></p>","","","","","","","","","","","",""
"","51.92999999958556","sequential-stimulus-presentation","183","254635","0.0-35.0-1.6","SS1613140926474","trial","","40","800","851.9299999995856","images/stimuli/spore_stims/complex_03_B_b.gif","images/stimuli/spore_stims/complex_03_A_b.gif","","","","","9","complex_similar","images/stimuli/spore_stims/complex_03_A_b.gif","right","","","","",""
"","null","html-keyboard-response","184","255684","0.0-35.0-0.7","SS1613140926474","","","null","","","","","<p><img src= images/blank.png width =""200"" height = ""200"" style = ""float:right""></p><p><img src=images/blank.png width =""800"" height = ""200""></p>","","","","","","","","","","","",""
"","13.635000001173466","sequential-stimulus-presentation","185","256530","0.0-35.0-1.7","SS1613140926474","trial","","40","800","813.6350000011735","images/stimuli/spore_stims/complex_03_B_b.gif","images/stimuli/spore_stims/complex_03_A_b.gif","","","","","9","complex_similar","images/stimuli/spore_stims/complex_03_A_b.gif","right","","","","",""
"","608.6000000013737","html-keyboard-response","186","257172","0.0-36.0","SS1613140926474","pref_question","","51","","","","","<video width ='960' height = '540' style='padding-top:8%' autoplay muted><source src='images/stimuli/wall_pref.mp4' type='video/mp4'></video>","3","right","66%","9","","","","","","","",""
"","252.0250000016531","sequential-stimulus-presentation","187","258315","0.0-37.0","SS1613140926474","pref_reveal","","40","800","1052.025000001653","null","null","","","","","9","","","","background","","","",""
"","null","html-keyboard-response","188","259254","0.0-38.0-0.0","SS1613140926474","","","null","","","","","<p><img src= images/blank.png width =""200"" height = ""200"" style = ""float:right""></p><p><img src=images/blank.png width =""800"" height = ""200""></p>","","","","","","","","","","","",""
"","245.9749999998603","sequential-stimulus-presentation","189","260323","0.0-38.0-1.0","SS1613140926474","trial","","40","800","1045.9749999998603","images/stimuli/spore_stims/simple_07_A_c.gif","images/stimuli/spore_stims/simple_07_B_c.gif","","","","","10","simple_similar","images/stimuli/spore_stims/simple_07_B_c.gif","right","","","","",""
"","null","html-keyboard-response","190","261254","0.0-38.0-0.1","SS1613140926474","","","null","","","","","<p><img src= images/blank.png width =""200"" height = ""200"" style = ""float:right""></p><p><img src=images/blank.png width =""800"" height = ""200""></p>","","","","","","","","","","","",""
"","84.88500000018394","sequential-stimulus-presentation","191","262162","0.0-38.0-1.1","SS1613140926474","trial","","40","800","884.8850000001839","images/stimuli/spore_stims/simple_07_A_c.gif","images/stimuli/spore_stims/simple_07_B_c.gif","","","","","10","simple_similar","images/stimuli/spore_stims/simple_07_B_c.gif","right","","","","",""
"","null","html-keyboard-response","192","263051","0.0-38.0-0.2","SS1613140926474","","","null","","","","","<p><img src= images/blank.png width =""200"" height = ""200"" style = ""float:right""></p><p><img src=images/blank.png width =""800"" height = ""200""></p>","","","","","","","","","","","",""
"","250.79000000003725","sequential-stimulus-presentation","193","264123","0.0-38.0-1.2","SS1613140926474","trial","","40","800","1050.7900000000373","images/stimuli/spore_stims/simple_07_A_c.gif","images/stimuli/spore_stims/simple_07_B_c.gif","","","","","10","simple_similar","images/stimuli/spore_stims/simple_07_B_c.gif","right","","","","",""
"","null","html-keyboard-response","194","265377","0.0-38.0-0.3","SS1613140926474","","","null","","","","","<p><img src= images/blank.png width =""200"" height = ""200"" style = ""float:right""></p><p><img src=images/blank.png width =""800"" height = ""200""></p>","","","","","","","","","","","",""
"","239.20000000001164","sequential-stimulus-presentation","195","266434","0.0-38.0-1.3","SS1613140926474","trial","","40","800","1039.2000000000116","images/stimuli/spore_stims/simple_07_A_c.gif","images/stimuli/spore_stims/simple_07_B_c.gif","","","","","10","simple_similar","images/stimuli/spore_stims/simple_07_B_c.gif","right","","","","",""
"","null","html-keyboard-response","196","267359","0.0-38.0-0.4","SS1613140926474","","","null","","","","","<p><img src= images/blank.png width =""200"" height = ""200"" style = ""float:right""></p><p><img src=images/blank.png width =""800"" height = ""200""></p>","","","","","","","","","","","",""
"","304.03999999910593","sequential-stimulus-presentation","197","268484","0.0-38.0-1.4","SS1613140926474","trial","","40","800","1104.039999999106","images/stimuli/spore_stims/simple_07_A_c.gif","images/stimuli/spore_stims/simple_07_B_c.gif","","","","","10","simple_similar","images/stimuli/spore_stims/simple_07_B_c.gif","right","","","","",""
"","null","html-keyboard-response","198","269352","0.0-38.0-0.5","SS1613140926474","","","null","","","","","<p><img src= images/blank.png width =""200"" height = ""200"" style = ""float:right""></p><p><img src=images/blank.png width =""800"" height = ""200""></p>","","","","","","","","","","","",""
"","205.6300000003539","sequential-stimulus-presentation","199","270379","0.0-38.0-1.5","SS1613140926474","trial","","40","800","1005.6300000003539","images/stimuli/spore_stims/simple_07_A_c.gif","images/stimuli/spore_stims/simple_07_B_c.gif","","","","","10","simple_similar","images/stimuli/spore_stims/simple_07_A_c.gif","left","","","","",""
"","null","html-keyboard-response","200","271393","0.0-38.0-0.6","SS1613140926474","","","null","","","","","<p><img src= images/blank.png width =""200"" height = ""200"" style = ""float:right""></p><p><img src=images/blank.png width =""800"" height = ""200""></p>","","","","","","","","","","","",""
"","44.92000000027474","sequential-stimulus-presentation","201","272266","0.0-38.0-1.6","SS1613140926474","trial","","40","800","844.9200000002747","images/stimuli/spore_stims/simple_07_A_c.gif","images/stimuli/spore_stims/simple_07_B_c.gif","","","","","10","simple_similar","images/stimuli/spore_stims/simple_07_B_c.gif","right","","","","",""
"","null","html-keyboard-response","202","273426","0.0-38.0-0.7","SS1613140926474","","","null","","","","","<p><img src= images/blank.png width =""200"" height = ""200"" style = ""float:right""></p><p><img src=images/blank.png width =""800"" height = ""200""></p>","","","","","","","","","","","",""
"","151.08999999938533","sequential-stimulus-presentation","203","274404","0.0-38.0-1.7","SS1613140926474","trial","","40","800","951.0899999993853","images/stimuli/spore_stims/simple_07_A_c.gif","images/stimuli/spore_stims/simple_07_B_c.gif","","","","","10","simple_similar","images/stimuli/spore_stims/simple_07_B_c.gif","right","","","","",""
"","588.5099999996019","html-keyboard-response","204","275026","0.0-39.0","SS1613140926474","pref_question","","51","","","","","<video width ='960' height = '540' style='padding-top:8%' autoplay muted><source src='images/stimuli/wall_pref.mp4' type='video/mp4'></video>","3","right","66%","10","","","","","","","",""
"","421.53500000131316","sequential-stimulus-presentation","205","276339","0.0-40.0","SS1613140926474","pref_reveal","","40","800","1221.5350000013132","null","null","","","","","10","","","","background","","","",""
"","null","html-keyboard-response","206","277510","0.0-41.0-0.0","SS1613140926474","","","null","","","","","<p><img src= images/blank.png width =""200"" height = ""200"" style = ""float:right""></p><p><img src=images/blank.png width =""800"" height = ""200""></p>","","","","","","","","","","","",""
"","655.0000000006985","sequential-stimulus-presentation","207","278989","0.0-41.0-1.0","SS1613140926474","trial","","40","800","1455.0000000006985","images/stimuli/spore_stims/simple_17_B_b.gif","images/stimuli/spore_stims/simple_17_A_b.gif","","","","","11","simple_similar","images/stimuli/spore_stims/simple_17_A_b.gif","right","","","","",""
"","null","html-keyboard-response","208","280191","0.0-41.0-0.1","SS1613140926474","","","null","","","","","<p><img src= images/blank.png width =""200"" height = ""200"" style = ""float:right""></p><p><img src=images/blank.png width =""800"" height = ""200""></p>","","","","","","","","","","","",""
"","257.84000000020023","sequential-stimulus-presentation","209","281275","0.0-41.0-1.1","SS1613140926474","trial","","40","800","1057.8400000002002","images/stimuli/spore_stims/simple_17_B_b.gif","images/stimuli/spore_stims/simple_17_A_b.gif","","","","","11","simple_similar","images/stimuli/spore_stims/simple_17_A_b.gif","right","","","","",""
"","null","html-keyboard-response","210","282121","0.0-41.0-0.2","SS1613140926474","","","null","","","","","<p><img src= images/blank.png width =""200"" height = ""200"" style = ""float:right""></p><p><img src=images/blank.png width =""800"" height = ""200""></p>","","","","","","","","","","","",""
"","233.73999999969965","sequential-stimulus-presentation","211","283179","0.0-41.0-1.2","SS1613140926474","trial","","40","800","1033.7399999996996","images/stimuli/spore_stims/simple_17_B_b.gif","images/stimuli/spore_stims/simple_17_A_b.gif","","","","","11","simple_similar","images/stimuli/spore_stims/simple_17_A_b.gif","right","","","","",""
"","null","html-keyboard-response","212","284486","0.0-41.0-0.3","SS1613140926474","","","null","","","","","<p><img src= images/blank.png width =""200"" height = ""200"" style = ""float:right""></p><p><img src=images/blank.png width =""800"" height = ""200""></p>","","","","","","","","","","","",""
"","431.64000000071246","sequential-stimulus-presentation","213","285740","0.0-41.0-1.3","SS1613140926474","trial","","40","800","1231.6400000007125","images/stimuli/spore_stims/simple_17_B_b.gif","images/stimuli/spore_stims/simple_17_A_b.gif","","","","","11","simple_similar","images/stimuli/spore_stims/simple_17_A_b.gif","right","","","","",""
"","null","html-keyboard-response","214","286937","0.0-41.0-0.4","SS1613140926474","","","null","","","","","<p><img src= images/blank.png width =""200"" height = ""200"" style = ""float:right""></p><p><img src=images/blank.png width =""800"" height = ""200""></p>","","","","","","","","","","","",""
"","329.8700000013923","sequential-stimulus-presentation","215","288091","0.0-41.0-1.4","SS1613140926474","trial","","40","800","1129.8700000013923","images/stimuli/spore_stims/simple_17_B_b.gif","images/stimuli/spore_stims/simple_17_A_b.gif","","","","","11","simple_similar","images/stimuli/spore_stims/simple_17_A_b.gif","right","","","","",""
"","null","html-keyboard-response","216","288965","0.0-41.0-0.5","SS1613140926474","","","null","","","","","<p><img src= images/blank.png width =""200"" height = ""200"" style = ""float:right""></p><p><img src=images/blank.png width =""800"" height = ""200""></p>","","","","","","","","","","","",""
"","383.975000000617","sequential-stimulus-presentation","217","290180","0.0-41.0-1.5","SS1613140926474","trial","","40","800","1183.975000000617","images/stimuli/spore_stims/simple_17_B_b.gif","images/stimuli/spore_stims/simple_17_A_b.gif","","","","","11","simple_similar","images/stimuli/spore_stims/simple_17_A_b.gif","right","","","","",""
"","null","html-keyboard-response","218","291342","0.0-41.0-0.6","SS1613140926474","","","null","","","","","<p><img src= images/blank.png width =""200"" height = ""200"" style = ""float:right""></p><p><img src=images/blank.png width =""800"" height = ""200""></p>","","","","","","","","","","","",""
"","436.8950000007753","sequential-stimulus-presentation","219","292602","0.0-41.0-1.6","SS1613140926474","trial","","40","800","1236.8950000007753","images/stimuli/spore_stims/simple_17_B_b.gif","images/stimuli/spore_stims/simple_17_A_b.gif","","","","","11","simple_similar","images/stimuli/spore_stims/simple_17_B_b.gif","left","","","","",""
"","null","html-keyboard-response","220","293598","0.0-41.0-0.7","SS1613140926474","","","null","","","","","<p><img src= images/blank.png width =""200"" height = ""200"" style = ""float:right""></p><p><img src=images/blank.png width =""800"" height = ""200""></p>","","","","","","","","","","","",""
"","338.620000000461","sequential-stimulus-presentation","221","294770","0.0-41.0-1.7","SS1613140926474","trial","","40","800","1138.620000000461","images/stimuli/spore_stims/simple_17_B_b.gif","images/stimuli/spore_stims/simple_17_A_b.gif","","","","","11","simple_similar","images/stimuli/spore_stims/simple_17_A_b.gif","right","","","","",""
"","617.8999999992666","html-keyboard-response","222","295405","0.0-42.0","SS1613140926474","pref_question","","50","","","","","<video width ='960' height = '540' style='padding-top:8%' autoplay muted><source src='images/stimuli/wall_pref.mp4' type='video/mp4'></video>","2","middle","45%","11","","","","","","","",""
"","344.4549999985611","sequential-stimulus-presentation","223","296578","0.0-43.0","SS1613140926474","pref_reveal","","40","800","1144.454999998561","null","null","","","","","11","","","","novel","","","",""
"","null","html-keyboard-response","224","297865","0.0-44.0-0.0","SS1613140926474","","","null","","","","","<p><img src= images/blank.png width =""200"" height = ""200"" style = ""float:right""></p><p><img src=images/blank.png width =""800"" height = ""200""></p>","","","","","","","","","","","",""
"","24.230000000912696","sequential-stimulus-presentation","225","298742","0.0-44.0-1.0","SS1613140926474","trial","","40","800","824.2300000009127","images/stimuli/spore_stims/simple_10_A_b.gif","images/stimuli/spore_stims/simple_19_B_b.gif","","","","","12","simple_dissimilar","images/stimuli/spore_stims/simple_19_B_b.gif","right","","","","",""
"","null","html-keyboard-response","226","299795","0.0-44.0-0.1","SS1613140926474","","","null","","","","","<p><img src= images/blank.png width =""200"" height = ""200"" style = ""float:right""></p><p><img src=images/blank.png width =""800"" height = ""200""></p>","","","","","","","","","","","",""
"","414.3749999984866","sequential-stimulus-presentation","227","301042","0.0-44.0-1.1","SS1613140926474","trial","","40","800","1214.3749999984866","images/stimuli/spore_stims/simple_10_A_b.gif","images/stimuli/spore_stims/simple_19_B_b.gif","","","","","12","simple_dissimilar","images/stimuli/spore_stims/simple_19_B_b.gif","right","","","","",""
"","null","html-keyboard-response","228","302219","0.0-44.0-0.2","SS1613140926474","","","null","","","","","<p><img src= images/blank.png width =""200"" height = ""200"" style = ""float:right""></p><p><img src=images/blank.png width =""800"" height = ""200""></p>","","","","","","","","","","","",""
"","130.30000000074506","sequential-stimulus-presentation","229","303186","0.0-44.0-1.2","SS1613140926474","trial","","40","800","930.3000000007451","images/stimuli/spore_stims/simple_10_A_b.gif","images/stimuli/spore_stims/simple_19_B_b.gif","","","","","12","simple_dissimilar","images/stimuli/spore_stims/simple_19_B_b.gif","right","","","","",""
"","null","html-keyboard-response","230","304082","0.0-44.0-0.3","SS1613140926474","","","null","","","","","<p><img src= images/blank.png width =""200"" height = ""200"" style = ""float:right""></p><p><img src=images/blank.png width =""800"" height = ""200""></p>","","","","","","","","","","","",""
"","179.04499999893596","sequential-stimulus-presentation","231","305082","0.0-44.0-1.3","SS1613140926474","trial","","40","800","979.044999998936","images/stimuli/spore_stims/simple_10_A_b.gif","images/stimuli/spore_stims/simple_19_B_b.gif","","","","","12","simple_dissimilar","images/stimuli/spore_stims/simple_19_B_b.gif","right","","","","",""
"","null","html-keyboard-response","232","306055","0.0-44.0-0.4","SS1613140926474","","","null","","","","","<p><img src= images/blank.png width =""200"" height = ""200"" style = ""float:right""></p><p><img src=images/blank.png width =""800"" height = ""200""></p>","","","","","","","","","","","",""
"","430.9699999994482","sequential-stimulus-presentation","233","307306","0.0-44.0-1.4","SS1613140926474","trial","","40","800","1230.9699999994482","images/stimuli/spore_stims/simple_10_A_b.gif","images/stimuli/spore_stims/simple_19_B_b.gif","","","","","12","simple_dissimilar","images/stimuli/spore_stims/simple_19_B_b.gif","right","","","","",""
"","null","html-keyboard-response","234","308514","0.0-44.0-0.5","SS1613140926474","","","null","","","","","<p><img src= images/blank.png width =""200"" height = ""200"" style = ""float:right""></p><p><img src=images/blank.png width =""800"" height = ""200""></p>","","","","","","","","","","","",""
"","221.84500000003027","sequential-stimulus-presentation","235","309554","0.0-44.0-1.5","SS1613140926474","trial","","40","800","1021.8450000000303","images/stimuli/spore_stims/simple_10_A_b.gif","images/stimuli/spore_stims/simple_19_B_b.gif","","","","","12","simple_dissimilar","images/stimuli/spore_stims/simple_10_A_b.gif","left","","","","",""
"","null","html-keyboard-response","236","310868","0.0-44.0-0.6","SS1613140926474","","","null","","","","","<p><img src= images/blank.png width =""200"" height = ""200"" style = ""float:right""></p><p><img src=images/blank.png width =""800"" height = ""200""></p>","","","","","","","","","","","",""
"","42.069999999541324","sequential-stimulus-presentation","237","311762","0.0-44.0-1.6","SS1613140926474","trial","","40","800","842.0699999995413","images/stimuli/spore_stims/simple_10_A_b.gif","images/stimuli/spore_stims/simple_19_B_b.gif","","","","","12","simple_dissimilar","images/stimuli/spore_stims/simple_19_B_b.gif","right","","","","",""
"","null","html-keyboard-response","238","312676","0.0-44.0-0.7","SS1613140926474","","","null","","","","","<p><img src= images/blank.png width =""200"" height = ""200"" style = ""float:right""></p><p><img src=images/blank.png width =""800"" height = ""200""></p>","","","","","","","","","","","",""
"","87.05000000010477","sequential-stimulus-presentation","239","313586","0.0-44.0-1.7","SS1613140926474","trial","","40","800","887.0500000001048","images/stimuli/spore_stims/simple_10_A_b.gif","images/stimuli/spore_stims/simple_19_B_b.gif","","","","","12","simple_dissimilar","images/stimuli/spore_stims/simple_19_B_b.gif","right","","","","",""
"","607.5349999992177","html-keyboard-response","240","314211","0.0-45.0","SS1613140926474","pref_question","","50","","","","","<video width ='960' height = '540' style='padding-top:8%' autoplay muted><source src='images/stimuli/wall_pref.mp4' type='video/mp4'></video>","2","middle","45%","12","","","","","","","",""
"","3.5950000001466833","sequential-stimulus-presentation","241","315035","0.0-46.0","SS1613140926474","pref_reveal","","40","800","803.5950000001467","null","null","","","","","12","","","","novel","","","",""
"","null","html-keyboard-response","242","316310","0.0-47.0-0.0","SS1613140926474","","","null","","","","","<p><img src= images/blank.png width =""200"" height = ""200"" style = ""float:right""></p><p><img src=images/blank.png width =""800"" height = ""200""></p>","","","","","","","","","","","",""
"","22.25","sequential-stimulus-presentation","243","317234","0.0-47.0-1.0","SS1613140926474","trial","","40","800","822.25","images/stimuli/spore_stims/complex_01_A_d.gif","images/stimuli/spore_stims/complex_02_A_a.gif","","","","","13","complex_dissimilar","images/stimuli/spore_stims/complex_02_A_a.gif","right","","","","",""
"","null","html-keyboard-response","244","318243","0.0-47.0-0.1","SS1613140926474","","","null","","","","","<p><img src= images/blank.png width =""200"" height = ""200"" style = ""float:right""></p><p><img src=images/blank.png width =""800"" height = ""200""></p>","","","","","","","","","","","",""
"","139.35500000114553","sequential-stimulus-presentation","245","319201","0.0-47.0-1.1","SS1613140926474","trial","","40","800","939.3550000011455","images/stimuli/spore_stims/complex_01_A_d.gif","images/stimuli/spore_stims/complex_02_A_a.gif","","","","","13","complex_dissimilar","images/stimuli/spore_stims/complex_02_A_a.gif","right","","","","",""
"","null","html-keyboard-response","246","320331","0.0-47.0-0.2","SS1613140926474","","","null","","","","","<p><img src= images/blank.png width =""200"" height = ""200"" style = ""float:right""></p><p><img src=images/blank.png width =""800"" height = ""200""></p>","","","","","","","","","","","",""
"","47.099999999802094","sequential-stimulus-presentation","247","321202","0.0-47.0-1.2","SS1613140926474","trial","","40","800","847.0999999998021","images/stimuli/spore_stims/complex_01_A_d.gif","images/stimuli/spore_stims/complex_02_A_a.gif","","","","","13","complex_dissimilar","images/stimuli/spore_stims/complex_02_A_a.gif","right","","","","",""
"","null","html-keyboard-response","248","322033","0.0-47.0-0.3","SS1613140926474","","","null","","","","","<p><img src= images/blank.png width =""200"" height = ""200"" style = ""float:right""></p><p><img src=images/blank.png width =""800"" height = ""200""></p>","","","","","","","","","","","",""
"","19.33000000100583","sequential-stimulus-presentation","249","322923","0.0-47.0-1.3","SS1613140926474","trial","","40","800","819.3300000010058","images/stimuli/spore_stims/complex_01_A_d.gif","images/stimuli/spore_stims/complex_02_A_a.gif","","","","","13","complex_dissimilar","images/stimuli/spore_stims/complex_02_A_a.gif","right","","","","",""
"","null","html-keyboard-response","250","323967","0.0-47.0-0.4","SS1613140926474","","","null","","","","","<p><img src= images/blank.png width =""200"" height = ""200"" style = ""float:right""></p><p><img src=images/blank.png width =""800"" height = ""200""></p>","","","","","","","","","","","",""
"","68.12499999976717","sequential-stimulus-presentation","251","324873","0.0-47.0-1.4","SS1613140926474","trial","","40","800","868.1249999997672","images/stimuli/spore_stims/complex_01_A_d.gif","images/stimuli/spore_stims/complex_02_A_a.gif","","","","","13","complex_dissimilar","images/stimuli/spore_stims/complex_01_A_d.gif","middle","","","","",""
"","null","html-keyboard-response","252","325977","0.0-47.0-0.5","SS1613140926474","","","null","","","","","<p><img src= images/blank.png width =""200"" height = ""200"" style = ""float:right""></p><p><img src=images/blank.png width =""800"" height = ""200""></p>","","","","","","","","","","","",""
"","3.8199999998905696","sequential-stimulus-presentation","253","326810","0.0-47.0-1.5","SS1613140926474","trial","","40","800","803.8199999998906","images/stimuli/spore_stims/complex_01_A_d.gif","images/stimuli/spore_stims/complex_02_A_a.gif","","","","","13","complex_dissimilar","images/stimuli/spore_stims/complex_02_A_a.gif","right","","","","",""
"","null","html-keyboard-response","254","327849","0.0-47.0-0.6","SS1613140926474","","","null","","","","","<p><img src= images/blank.png width =""200"" height = ""200"" style = ""float:right""></p><p><img src=images/blank.png width =""800"" height = ""200""></p>","","","","","","","","","","","",""
"","31.145000000833534","sequential-stimulus-presentation","255","328753","0.0-47.0-1.6","SS1613140926474","trial","","40","800","831.1450000008335","images/stimuli/spore_stims/complex_01_A_d.gif","images/stimuli/spore_stims/complex_02_A_a.gif","","","","","13","complex_dissimilar","images/stimuli/spore_stims/complex_02_A_a.gif","right","","","","",""
"","null","html-keyboard-response","256","329893","0.0-47.0-0.7","SS1613140926474","","","null","","","","","<p><img src= images/blank.png width =""200"" height = ""200"" style = ""float:right""></p><p><img src=images/blank.png width =""800"" height = ""200""></p>","","","","","","","","","","","",""
"","504.9749999998603","sequential-stimulus-presentation","257","331233","0.0-47.0-1.7","SS1613140926474","trial","","40","800","1304.9749999998603","images/stimuli/spore_stims/complex_01_A_d.gif","images/stimuli/spore_stims/complex_02_A_a.gif","","","","","13","complex_dissimilar","images/stimuli/spore_stims/complex_02_A_a.gif","right","","","","",""
"","727.7649999996065","html-keyboard-response","258","331980","0.0-48.0","SS1613140926474","pref_question","","49","","","","","<video width ='960' height = '540' style='padding-top:8%' autoplay muted><source src='images/stimuli/wall_pref.mp4' type='video/mp4'></video>","1","left","25%","13","","","","","","","",""
"","55.11999999912223","sequential-stimulus-presentation","259","332858","0.0-49.0","SS1613140926474","pref_reveal","","40","800","855.1199999991222","null","null","","","","","13","","","","novel","","","",""
"","null","html-keyboard-response","260","333702","0.0-50.0-0.0","SS1613140926474","","","null","","","","","<p><img src= images/blank.png width =""200"" height = ""200"" style = ""float:right""></p><p><img src=images/blank.png width =""800"" height = ""200""></p>","","","","","","","","","","","",""
"","73.52499999979045","sequential-stimulus-presentation","261","334650","0.0-50.0-1.0","SS1613140926474","trial","","40","800","873.5249999997905","images/stimuli/spore_stims/complex_13_A_c.gif","images/stimuli/spore_stims/complex_13_B_c.gif","","","","","14","complex_similar","images/stimuli/spore_stims/complex_13_B_c.gif","middle","","","","",""
"","null","html-keyboard-response","262","335882","0.0-50.0-0.1","SS1613140926474","","","null","","","","","<p><img src= images/blank.png width =""200"" height = ""200"" style = ""float:right""></p><p><img src=images/blank.png width =""800"" height = ""200""></p>","","","","","","","","","","","",""
"","555.9950000006356","sequential-stimulus-presentation","263","337266","0.0-50.0-1.1","SS1613140926474","trial","","40","800","1355.9950000006356","images/stimuli/spore_stims/complex_13_A_c.gif","images/stimuli/spore_stims/complex_13_B_c.gif","","","","","14","complex_similar","images/stimuli/spore_stims/complex_13_B_c.gif","middle","","","","",""
"","null","html-keyboard-response","264","338446","0.0-50.0-0.2","SS1613140926474","","","null","","","","","<p><img src= images/blank.png width =""200"" height = ""200"" style = ""float:right""></p><p><img src=images/blank.png width =""800"" height = ""200""></p>","","","","","","","","","","","",""
"","36.52000000147382","sequential-stimulus-presentation","265","339306","0.0-50.0-1.2","SS1613140926474","trial","","40","800","836.5200000014738","images/stimuli/spore_stims/complex_13_A_c.gif","images/stimuli/spore_stims/complex_13_B_c.gif","","","","","14","complex_similar","images/stimuli/spore_stims/complex_13_B_c.gif","middle","","","","",""
"","null","html-keyboard-response","266","340609","0.0-50.0-0.3","SS1613140926474","","","null","","","","","<p><img src= images/blank.png width =""200"" height = ""200"" style = ""float:right""></p><p><img src=images/blank.png width =""800"" height = ""200""></p>","","","","","","","","","","","",""
"","49.94500000064727","sequential-stimulus-presentation","267","341562","0.0-50.0-1.3","SS1613140926474","trial","","40","800","849.9450000006473","images/stimuli/spore_stims/complex_13_A_c.gif","images/stimuli/spore_stims/complex_13_B_c.gif","","","","","14","complex_similar","images/stimuli/spore_stims/complex_13_B_c.gif","middle","","","","",""
"","null","html-keyboard-response","268","342565","0.0-50.0-0.4","SS1613140926474","","","null","","","","","<p><img src= images/blank.png width =""200"" height = ""200"" style = ""float:right""></p><p><img src=images/blank.png width =""800"" height = ""200""></p>","","","","","","","","","","","",""
"","108.74999999941792","sequential-stimulus-presentation","269","343498","0.0-50.0-1.4","SS1613140926474","trial","","40","800","908.7499999994179","images/stimuli/spore_stims/complex_13_A_c.gif","images/stimuli/spore_stims/complex_13_B_c.gif","","","","","14","complex_similar","images/stimuli/spore_stims/complex_13_B_c.gif","middle","","","","",""
"","null","html-keyboard-response","270","344400","0.0-50.0-0.5","SS1613140926474","","","null","","","","","<p><img src= images/blank.png width =""200"" height = ""200"" style = ""float:right""></p><p><img src=images/blank.png width =""800"" height = ""200""></p>","","","","","","","","","","","",""
"","131.12499999988358","sequential-stimulus-presentation","271","345361","0.0-50.0-1.5","SS1613140926474","trial","","40","800","931.1249999998836","images/stimuli/spore_stims/complex_13_A_c.gif","images/stimuli/spore_stims/complex_13_B_c.gif","","","","","14","complex_similar","images/stimuli/spore_stims/complex_13_B_c.gif","middle","","","","",""
"","null","html-keyboard-response","272","346576","0.0-50.0-0.6","SS1613140926474","","","null","","","","","<p><img src= images/blank.png width =""200"" height = ""200"" style = ""float:right""></p><p><img src=images/blank.png width =""800"" height = ""200""></p>","","","","","","","","","","","",""
"","523.4799999998068","sequential-stimulus-presentation","273","348066","0.0-50.0-1.6","SS1613140926474","trial","","40","800","1323.4799999998068","images/stimuli/spore_stims/complex_13_A_c.gif","images/stimuli/spore_stims/complex_13_B_c.gif","","","","","14","complex_similar","images/stimuli/spore_stims/complex_13_B_c.gif","middle","","","","",""
"","null","html-keyboard-response","274","349194","0.0-50.0-0.7","SS1613140926474","","","null","","","","","<p><img src= images/blank.png width =""200"" height = ""200"" style = ""float:right""></p><p><img src=images/blank.png width =""800"" height = ""200""></p>","","","","","","","","","","","",""
"","260.8299999992596","sequential-stimulus-presentation","275","350275","0.0-50.0-1.7","SS1613140926474","trial","","40","800","1060.8299999992596","images/stimuli/spore_stims/complex_13_A_c.gif","images/stimuli/spore_stims/complex_13_B_c.gif","","","","","14","complex_similar","images/stimuli/spore_stims/complex_13_A_c.gif","right","","","","",""
"","659.2299999993411","html-keyboard-response","276","350953","0.0-51.0","SS1613140926474","pref_question","","50","","","","","<video width ='960' height = '540' style='padding-top:8%' autoplay muted><source src='images/stimuli/wall_pref.mp4' type='video/mp4'></video>","2","middle","45%","14","","","","","","","",""
"","242.57500000024447","sequential-stimulus-presentation","277","352025","0.0-52.0","SS1613140926474","pref_reveal","","40","800","1042.5750000002445","null","null","","","","","14","","","","background","","","",""
"","null","html-keyboard-response","278","353100","0.0-53.0-0.0","SS1613140926474","","","null","","","","","<p><img src= images/blank.png width =""200"" height = ""200"" style = ""float:right""></p><p><img src=images/blank.png width =""800"" height = ""200""></p>","","","","","","","","","","","",""
"","575.4949999991804","sequential-stimulus-presentation","279","354594","0.0-53.0-1.0","SS1613140926474","trial","","40","800","1375.4949999991804","images/stimuli/spore_stims/complex_16_A_b.gif","images/stimuli/spore_stims/complex_05_B_c.gif","","","","","15","complex_dissimilar","images/stimuli/spore_stims/complex_05_B_c.gif","right","","","","",""
"","null","html-keyboard-response","280","355556","0.0-53.0-0.1","SS1613140926474","","","null","","","","","<p><img src= images/blank.png width =""200"" height = ""200"" style = ""float:right""></p><p><img src=images/blank.png width =""800"" height = ""200""></p>","","","","","","","","","","","",""
"","349.00500000000466","sequential-stimulus-presentation","281","356737","0.0-53.0-1.1","SS1613140926474","trial","","40","800","1149.0050000000047","images/stimuli/spore_stims/complex_16_A_b.gif","images/stimuli/spore_stims/complex_05_B_c.gif","","","","","15","complex_dissimilar","images/stimuli/spore_stims/complex_05_B_c.gif","right","","","","",""
"","null","html-keyboard-response","282","357830","0.0-53.0-0.2","SS1613140926474","","","null","","","","","<p><img src= images/blank.png width =""200"" height = ""200"" style = ""float:right""></p><p><img src=images/blank.png width =""800"" height = ""200""></p>","","","","","","","","","","","",""
"","272.56499999930384","sequential-stimulus-presentation","283","358930","0.0-53.0-1.2","SS1613140926474","trial","","40","800","1072.5649999993038","images/stimuli/spore_stims/complex_16_A_b.gif","images/stimuli/spore_stims/complex_05_B_c.gif","","","","","15","complex_dissimilar","images/stimuli/spore_stims/complex_05_B_c.gif","right","","","","",""
"","null","html-keyboard-response","284","359827","0.0-53.0-0.3","SS1613140926474","","","null","","","","","<p><img src= images/blank.png width =""200"" height = ""200"" style = ""float:right""></p><p><img src=images/blank.png width =""800"" height = ""200""></p>","","","","","","","","","","","",""
"","452.57499999931315","sequential-stimulus-presentation","285","361109","0.0-53.0-1.3","SS1613140926474","trial","","40","800","1252.5749999993131","images/stimuli/spore_stims/complex_16_A_b.gif","images/stimuli/spore_stims/complex_05_B_c.gif","","","","","15","complex_dissimilar","images/stimuli/spore_stims/complex_16_A_b.gif","middle","","","","",""
"","null","html-keyboard-response","286","362146","0.0-53.0-0.4","SS1613140926474","","","null","","","","","<p><img src= images/blank.png width =""200"" height = ""200"" style = ""float:right""></p><p><img src=images/blank.png width =""800"" height = ""200""></p>","","","","","","","","","","","",""
"","108.85500000044703","sequential-stimulus-presentation","287","363109","0.0-53.0-1.4","SS1613140926474","trial","","40","800","908.855000000447","images/stimuli/spore_stims/complex_16_A_b.gif","images/stimuli/spore_stims/complex_05_B_c.gif","","","","","15","complex_dissimilar","images/stimuli/spore_stims/complex_05_B_c.gif","right","","","","",""
"","null","html-keyboard-response","288","364433","0.0-53.0-0.5","SS1613140926474","","","null","","","","","<p><img src= images/blank.png width =""200"" height = ""200"" style = ""float:right""></p><p><img src=images/blank.png width =""800"" height = ""200""></p>","","","","","","","","","","","",""
"","513.5899999986286","sequential-stimulus-presentation","289","365769","0.0-53.0-1.5","SS1613140926474","trial","","40","800","1313.5899999986286","images/stimuli/spore_stims/complex_16_A_b.gif","images/stimuli/spore_stims/complex_05_B_c.gif","","","","","15","complex_dissimilar","images/stimuli/spore_stims/complex_05_B_c.gif","right","","","","",""
"","null","html-keyboard-response","290","367056","0.0-53.0-0.6","SS1613140926474","","","null","","","","","<p><img src= images/blank.png width =""200"" height = ""200"" style = ""float:right""></p><p><img src=images/blank.png width =""800"" height = ""200""></p>","","","","","","","","","","","",""
"","341.7599999993108","sequential-stimulus-presentation","291","368218","0.0-53.0-1.6","SS1613140926474","trial","","40","800","1141.7599999993108","images/stimuli/spore_stims/complex_16_A_b.gif","images/stimuli/spore_stims/complex_05_B_c.gif","","","","","15","complex_dissimilar","images/stimuli/spore_stims/complex_05_B_c.gif","right","","","","",""
"","null","html-keyboard-response","292","369404","0.0-53.0-0.7","SS1613140926474","","","null","","","","","<p><img src= images/blank.png width =""200"" height = ""200"" style = ""float:right""></p><p><img src=images/blank.png width =""800"" height = ""200""></p>","","","","","","","","","","","",""
"","430.06000000057975","sequential-stimulus-presentation","293","370665","0.0-53.0-1.7","SS1613140926474","trial","","40","800","1230.0600000005797","images/stimuli/spore_stims/complex_16_A_b.gif","images/stimuli/spore_stims/complex_05_B_c.gif","","","","","15","complex_dissimilar","images/stimuli/spore_stims/complex_05_B_c.gif","right","","","","",""
"","1527.5849999997881","html-keyboard-response","294","372219","0.0-54.0","SS1613140926474","pref_question","","51","","","","","<video width ='960' height = '540' style='padding-top:8%' autoplay muted><source src='images/stimuli/wall_pref.mp4' type='video/mp4'></video>","3","right","66%","15","","","","","","","",""
"","309.82000000041444","sequential-stimulus-presentation","295","373355","0.0-55.0","SS1613140926474","pref_reveal","","40","800","1109.8200000004144","null","null","","","","","15","","","","background","","","",""
"","null","html-keyboard-response","296","374231","0.0-56.0-0.0","SS1613140926474","","","null","","","","","<p><img src= images/blank.png width =""200"" height = ""200"" style = ""float:right""></p><p><img src=images/blank.png width =""800"" height = ""200""></p>","","","","","","","","","","","",""
"","293.02499999897555","sequential-stimulus-presentation","297","375348","0.0-56.0-1.0","SS1613140926474","trial","","40","800","1093.0249999989755","images/stimuli/spore_stims/simple_05_B_c.gif","images/stimuli/spore_stims/simple_01_B_d.gif","","","","","16","simple_dissimilar","images/stimuli/spore_stims/simple_01_B_d.gif","right","","","","",""
"","null","html-keyboard-response","298","376427","0.0-56.0-0.1","SS1613140926474","","","null","","","","","<p><img src= images/blank.png width =""200"" height = ""200"" style = ""float:right""></p><p><img src=images/blank.png width =""800"" height = ""200""></p>","","","","","","","","","","","",""
"","53.62500000046566","sequential-stimulus-presentation","299","377314","0.0-56.0-1.1","SS1613140926474","trial","","40","800","853.6250000004657","images/stimuli/spore_stims/simple_05_B_c.gif","images/stimuli/spore_stims/simple_01_B_d.gif","","","","","16","simple_dissimilar","images/stimuli/spore_stims/simple_01_B_d.gif","right","","","","",""
"","null","html-keyboard-response","300","378445","0.0-56.0-0.2","SS1613140926474","","","null","","","","","<p><img src= images/blank.png width =""200"" height = ""200"" style = ""float:right""></p><p><img src=images/blank.png width =""800"" height = ""200""></p>","","","","","","","","","","","",""
"","242.87999999977183","sequential-stimulus-presentation","301","379515","0.0-56.0-1.2","SS1613140926474","trial","","40","800","1042.8799999997718","images/stimuli/spore_stims/simple_05_B_c.gif","images/stimuli/spore_stims/simple_01_B_d.gif","","","","","16","simple_dissimilar","images/stimuli/spore_stims/simple_01_B_d.gif","right","","","","",""
"","null","html-keyboard-response","302","380503","0.0-56.0-0.3","SS1613140926474","","","null","","","","","<p><img src= images/blank.png width =""200"" height = ""200"" style = ""float:right""></p><p><img src=images/blank.png width =""800"" height = ""200""></p>","","","","","","","","","","","",""
"","243.99999999877764","sequential-stimulus-presentation","303","381593","0.0-56.0-1.3","SS1613140926474","trial","","40","800","1043.9999999987776","images/stimuli/spore_stims/simple_05_B_c.gif","images/stimuli/spore_stims/simple_01_B_d.gif","","","","","16","simple_dissimilar","images/stimuli/spore_stims/simple_01_B_d.gif","right","","","","",""
"","null","html-keyboard-response","304","382743","0.0-56.0-0.4","SS1613140926474","","","null","","","","","<p><img src= images/blank.png width =""200"" height = ""200"" style = ""float:right""></p><p><img src=images/blank.png width =""800"" height = ""200""></p>","","","","","","","","","","","",""
"","180.54999999911524","sequential-stimulus-presentation","305","383785","0.0-56.0-1.4","SS1613140926474","trial","","40","800","980.5499999991152","images/stimuli/spore_stims/simple_05_B_c.gif","images/stimuli/spore_stims/simple_01_B_d.gif","","","","","16","simple_dissimilar","images/stimuli/spore_stims/simple_01_B_d.gif","right","","","","",""
"","null","html-keyboard-response","306","385051","0.0-56.0-0.5","SS1613140926474","","","null","","","","","<p><img src= images/blank.png width =""200"" height = ""200"" style = ""float:right""></p><p><img src=images/blank.png width =""800"" height = ""200""></p>","","","","","","","","","","","",""
"","554.3400000005495","sequential-stimulus-presentation","307","386506","0.0-56.0-1.5","SS1613140926474","trial","","40","800","1354.3400000005495","images/stimuli/spore_stims/simple_05_B_c.gif","images/stimuli/spore_stims/simple_01_B_d.gif","","","","","16","simple_dissimilar","images/stimuli/spore_stims/simple_05_B_c.gif","middle","","","","",""
"","null","html-keyboard-response","308","387681","0.0-56.0-0.6","SS1613140926474","","","null","","","","","<p><img src= images/blank.png width =""200"" height = ""200"" style = ""float:right""></p><p><img src=images/blank.png width =""800"" height = ""200""></p>","","","","","","","","","","","",""
"","189.59499999979744","sequential-stimulus-presentation","309","388697","0.0-56.0-1.6","SS1613140926474","trial","","40","800","989.5949999997974","images/stimuli/spore_stims/simple_05_B_c.gif","images/stimuli/spore_stims/simple_01_B_d.gif","","","","","16","simple_dissimilar","images/stimuli/spore_stims/simple_01_B_d.gif","right","","","","",""
"","null","html-keyboard-response","310","389937","0.0-56.0-0.7","SS1613140926474","","","null","","","","","<p><img src= images/blank.png width =""200"" height = ""200"" style = ""float:right""></p><p><img src=images/blank.png width =""800"" height = ""200""></p>","","","","","","","","","","","",""
"","359.019999999844","sequential-stimulus-presentation","311","391131","0.0-56.0-1.7","SS1613140926474","trial","","40","800","1159.019999999844","images/stimuli/spore_stims/simple_05_B_c.gif","images/stimuli/spore_stims/simple_01_B_d.gif","","","","","16","simple_dissimilar","images/stimuli/spore_stims/simple_01_B_d.gif","right","","","","",""
"","1315.3800000000047","html-keyboard-response","312","392474","0.0-57.0","SS1613140926474","pref_question","","50","","","","","<video width ='960' height = '540' style='padding-top:8%' autoplay muted><source src='images/stimuli/wall_pref.mp4' type='video/mp4'></video>","2","middle","45%","16","","","","","","","",""
