"view_history","rt","trial_type","trial_index","time_elapsed","internal_node_id","subject","stimulus_type","trial_stimulus","key_press","minimum_viewing_duration","trial_looking_time","block_deviant","block_background","stimulus","wall_pref","location","location_percent","block_number","block_type","stimulus_displayed","position_displayed","stim_type_selected","responses","question_order","stimulus_left","stimulus_right"
"[{""page_index"":0,""viewing_time"":8281.740000005811}]","8282.509999989998","instructions","0","8284","0.0-0.0","SS1613142658150","","","","","","","","","","","","","","","","","","","",""
"[{""page_index"":0,""viewing_time"":721.3950000004843},{""page_index"":1,""viewing_time"":803.2799999928102}]","1525.0050000031479","instructions","1","11813","0.0-1.0","SS1613142658150","instructions","","","","","","","","","","","","","","","","","","",""
"","1536.4650000119582","sequential-stimulus-presentation","2","14152","0.0-2.0","SS1613142658150","","","40","800","2336.465000011958","null","null","","","","","","","","","","","","",""
"","302.2550000459887","sequential-stimulus-presentation","3","15267","0.0-3.0","SS1613142658150","","","40","800","1102.2550000459887","null","null","","","","","","","","","","","","",""
"[{""page_index"":0,""viewing_time"":803.4800000023097}]","803.7949999561533","instructions","4","16072","0.0-4.0","SS1613142658150","instructions","","","","","","","","","","","","","","","","","","",""
"","940.8799999509938","html-keyboard-response","5","17015","0.0-5.0","SS1613142658150","instructions","","49","","","","","<video width ='960' height = '540' autoplay muted><source src='images/stimuli/wall_pref.mp4' type='video/mp4'></video>","1","left","25%","","","","","","","","",""
"","128.46000003628433","sequential-stimulus-presentation","6","17946","0.0-6.0","SS1613142658150","pref_reveal","","40","800","928.4600000362843","null","null","","","","","","","","","","","","",""
"[{""page_index"":0,""viewing_time"":663.9499999582767},{""page_index"":1,""viewing_time"":412.08500001812354},{""page_index"":2,""viewing_time"":666.2350000115111},{""page_index"":3,""viewing_time"":754.3599999626167}]","2496.9899999559857","instructions","7","20443","0.0-7.0","SS1613142658150","instructions","","","","","","","","","","","","","","","","","","",""
"","null","html-keyboard-response","8","21621","0.0-8.0-0.0","SS1613142658150","","","null","","","","","<p><img src= images/blank.png width =""200"" height = ""200"" style = ""float:right""></p><p><img src=images/blank.png width =""800"" height = ""200""></p>","","","","","","","","","","","",""
"","1695.6899999640882","sequential-stimulus-presentation","9","24124","0.0-8.0-1.0","SS1613142658150","trial","","40","800","2495.689999964088","images/stimuli/spore_stims/simple_20_A_d.gif","images/stimuli/spore_stims/simple_11_B_a.gif","","","","","0","simple_dissimilar","images/stimuli/spore_stims/simple_11_B_a.gif","left","","","","",""
"","null","html-keyboard-response","10","25345","0.0-8.0-0.1","SS1613142658150","","","null","","","","","<p><img src= images/blank.png width =""200"" height = ""200"" style = ""float:right""></p><p><img src=images/blank.png width =""800"" height = ""200""></p>","","","","","","","","","","","",""
"","650.2249999903142","sequential-stimulus-presentation","11","26803","0.0-8.0-1.1","SS1613142658150","trial","","40","800","1450.2249999903142","images/stimuli/spore_stims/simple_20_A_d.gif","images/stimuli/spore_stims/simple_11_B_a.gif","","","","","0","simple_dissimilar","images/stimuli/spore_stims/simple_11_B_a.gif","left","","","","",""
"","null","html-keyboard-response","12","27821","0.0-8.0-0.2","SS1613142658150","","","null","","","","","<p><img src= images/blank.png width =""200"" height = ""200"" style = ""float:right""></p><p><img src=images/blank.png width =""800"" height = ""200""></p>","","","","","","","","","","","",""
"","400.774999987334","sequential-stimulus-presentation","13","29036","0.0-8.0-1.2","SS1613142658150","trial","","40","800","1200.774999987334","images/stimuli/spore_stims/simple_20_A_d.gif","images/stimuli/spore_stims/simple_11_B_a.gif","","","","","0","simple_dissimilar","images/stimuli/spore_stims/simple_11_B_a.gif","left","","","","",""
"","null","html-keyboard-response","14","29869","0.0-8.0-0.3","SS1613142658150","","","null","","","","","<p><img src= images/blank.png width =""200"" height = ""200"" style = ""float:right""></p><p><img src=images/blank.png width =""800"" height = ""200""></p>","","","","","","","","","","","",""
"","628.4400000004098","sequential-stimulus-presentation","15","31303","0.0-8.0-1.3","SS1613142658150","trial","","40","800","1428.4400000004098","images/stimuli/spore_stims/simple_20_A_d.gif","images/stimuli/spore_stims/simple_11_B_a.gif","","","","","0","simple_dissimilar","images/stimuli/spore_stims/simple_20_A_d.gif","middle","","","","",""
"","null","html-keyboard-response","16","32409","0.0-8.0-0.4","SS1613142658150","","","null","","","","","<p><img src= images/blank.png width =""200"" height = ""200"" style = ""float:right""></p><p><img src=images/blank.png width =""800"" height = ""200""></p>","","","","","","","","","","","",""
"","536.4149999804795","sequential-stimulus-presentation","17","33756","0.0-8.0-1.4","SS1613142658150","trial","","40","800","1336.4149999804795","images/stimuli/spore_stims/simple_20_A_d.gif","images/stimuli/spore_stims/simple_11_B_a.gif","","","","","0","simple_dissimilar","images/stimuli/spore_stims/simple_11_B_a.gif","left","","","","",""
"","null","html-keyboard-response","18","35036","0.0-8.0-0.5","SS1613142658150","","","null","","","","","<p><img src= images/blank.png width =""200"" height = ""200"" style = ""float:right""></p><p><img src=images/blank.png width =""800"" height = ""200""></p>","","","","","","","","","","","",""
"","1923.305000003893","sequential-stimulus-presentation","19","37763","0.0-8.0-1.5","SS1613142658150","trial","","40","800","2723.305000003893","images/stimuli/spore_stims/simple_20_A_d.gif","images/stimuli/spore_stims/simple_11_B_a.gif","","","","","0","simple_dissimilar","images/stimuli/spore_stims/simple_11_B_a.gif","left","","","","",""
"","null","html-keyboard-response","20","38741","0.0-8.0-0.6","SS1613142658150","","","null","","","","","<p><img src= images/blank.png width =""200"" height = ""200"" style = ""float:right""></p><p><img src=images/blank.png width =""800"" height = ""200""></p>","","","","","","","","","","","",""
"","1146.565000002738","sequential-stimulus-presentation","21","40703","0.0-8.0-1.6","SS1613142658150","trial","","40","800","1946.565000002738","images/stimuli/spore_stims/simple_20_A_d.gif","images/stimuli/spore_stims/simple_11_B_a.gif","","","","","0","simple_dissimilar","images/stimuli/spore_stims/simple_11_B_a.gif","left","","","","",""
"","null","html-keyboard-response","22","41869","0.0-8.0-0.7","SS1613142658150","","","null","","","","","<p><img src= images/blank.png width =""200"" height = ""200"" style = ""float:right""></p><p><img src=images/blank.png width =""800"" height = ""200""></p>","","","","","","","","","","","",""
"","930.6849999702536","sequential-stimulus-presentation","23","43602","0.0-8.0-1.7","SS1613142658150","trial","","40","800","1730.6849999702536","images/stimuli/spore_stims/simple_20_A_d.gif","images/stimuli/spore_stims/simple_11_B_a.gif","","","","","0","simple_dissimilar","images/stimuli/spore_stims/simple_11_B_a.gif","left","","","","",""
"","1541.529999987688","html-keyboard-response","24","45146","0.0-9.0","SS1613142658150","pref_question","","50","","","","","<video width ='960' height = '540' style='padding-top:8%' autoplay muted><source src='images/stimuli/wall_pref.mp4' type='video/mp4'></video>","2","middle","45%","0","","","","","","","",""
"","739.3250000313856","sequential-stimulus-presentation","25","46689","0.0-10.0","SS1613142658150","pref_reveal","","40","800","1539.3250000313856","null","null","","","","","0","","","","deviant","","","",""
"","null","html-keyboard-response","26","47519","0.0-11.0-0.0","SS1613142658150","","","null","","","","","<p><img src= images/blank.png width =""200"" height = ""200"" style = ""float:right""></p><p><img src=images/blank.png width =""800"" height = ""200""></p>","","","","","","","","","","","",""
"","482.6699999975972","sequential-stimulus-presentation","27","48820","0.0-11.0-1.0","SS1613142658150","trial","","40","800","1282.6699999975972","images/stimuli/spore_stims/complex_17_B_c.gif","images/stimuli/spore_stims/complex_17_A_c.gif","","","","","1","complex_similar","images/stimuli/spore_stims/complex_17_A_c.gif","right","","","","",""
"","null","html-keyboard-response","28","49663","0.0-11.0-0.1","SS1613142658150","","","null","","","","","<p><img src= images/blank.png width =""200"" height = ""200"" style = ""float:right""></p><p><img src=images/blank.png width =""800"" height = ""200""></p>","","","","","","","","","","","",""
"","253.12499998835847","sequential-stimulus-presentation","29","50732","0.0-11.0-1.1","SS1613142658150","trial","","40","800","1053.1249999883585","images/stimuli/spore_stims/complex_17_B_c.gif","images/stimuli/spore_stims/complex_17_A_c.gif","","","","","1","complex_similar","images/stimuli/spore_stims/complex_17_A_c.gif","right","","","","",""
"","null","html-keyboard-response","30","51841","0.0-11.0-0.2","SS1613142658150","","","null","","","","","<p><img src= images/blank.png width =""200"" height = ""200"" style = ""float:right""></p><p><img src=images/blank.png width =""800"" height = ""200""></p>","","","","","","","","","","","",""
"","299.7899999609217","sequential-stimulus-presentation","31","52956","0.0-11.0-1.2","SS1613142658150","trial","","40","800","1099.7899999609217","images/stimuli/spore_stims/complex_17_B_c.gif","images/stimuli/spore_stims/complex_17_A_c.gif","","","","","1","complex_similar","images/stimuli/spore_stims/complex_17_A_c.gif","right","","","","",""
"","null","html-keyboard-response","32","53851","0.0-11.0-0.3","SS1613142658150","","","null","","","","","<p><img src= images/blank.png width =""200"" height = ""200"" style = ""float:right""></p><p><img src=images/blank.png width =""800"" height = ""200""></p>","","","","","","","","","","","",""
"","345.8450000034645","sequential-stimulus-presentation","33","55013","0.0-11.0-1.3","SS1613142658150","trial","","40","800","1145.8450000034645","images/stimuli/spore_stims/complex_17_B_c.gif","images/stimuli/spore_stims/complex_17_A_c.gif","","","","","1","complex_similar","images/stimuli/spore_stims/complex_17_A_c.gif","right","","","","",""
"","null","html-keyboard-response","34","56148","0.0-11.0-0.4","SS1613142658150","","","null","","","","","<p><img src= images/blank.png width =""200"" height = ""200"" style = ""float:right""></p><p><img src=images/blank.png width =""800"" height = ""200""></p>","","","","","","","","","","","",""
"","655.1900000195019","sequential-stimulus-presentation","35","57607","0.0-11.0-1.4","SS1613142658150","trial","","40","800","1455.190000019502","images/stimuli/spore_stims/complex_17_B_c.gif","images/stimuli/spore_stims/complex_17_A_c.gif","","","","","1","complex_similar","images/stimuli/spore_stims/complex_17_B_c.gif","middle","","","","",""
"","null","html-keyboard-response","36","58546","0.0-11.0-0.5","SS1613142658150","","","null","","","","","<p><img src= images/blank.png width =""200"" height = ""200"" style = ""float:right""></p><p><img src=images/blank.png width =""800"" height = ""200""></p>","","","","","","","","","","","",""
"","1128.2200000132434","sequential-stimulus-presentation","37","60478","0.0-11.0-1.5","SS1613142658150","trial","","40","800","1928.2200000132434","images/stimuli/spore_stims/complex_17_B_c.gif","images/stimuli/spore_stims/complex_17_A_c.gif","","","","","1","complex_similar","images/stimuli/spore_stims/complex_17_A_c.gif","right","","","","",""
"","null","html-keyboard-response","38","61466","0.0-11.0-0.6","SS1613142658150","","","null","","","","","<p><img src= images/blank.png width =""200"" height = ""200"" style = ""float:right""></p><p><img src=images/blank.png width =""800"" height = ""200""></p>","","","","","","","","","","","",""
"","471.3800000026822","sequential-stimulus-presentation","39","62741","0.0-11.0-1.6","SS1613142658150","trial","","40","800","1271.3800000026822","images/stimuli/spore_stims/complex_17_B_c.gif","images/stimuli/spore_stims/complex_17_A_c.gif","","","","","1","complex_similar","images/stimuli/spore_stims/complex_17_A_c.gif","right","","","","",""
"","null","html-keyboard-response","40","63921","0.0-11.0-0.7","SS1613142658150","","","null","","","","","<p><img src= images/blank.png width =""200"" height = ""200"" style = ""float:right""></p><p><img src=images/blank.png width =""800"" height = ""200""></p>","","","","","","","","","","","",""
"","507.47000001138076","sequential-stimulus-presentation","41","65247","0.0-11.0-1.7","SS1613142658150","trial","","40","800","1307.4700000113808","images/stimuli/spore_stims/complex_17_B_c.gif","images/stimuli/spore_stims/complex_17_A_c.gif","","","","","1","complex_similar","images/stimuli/spore_stims/complex_17_A_c.gif","right","","","","",""
"","1207.970000046771","html-keyboard-response","42","66457","0.0-12.0","SS1613142658150","pref_question","","50","","","","","<video width ='960' height = '540' style='padding-top:8%' autoplay muted><source src='images/stimuli/wall_pref.mp4' type='video/mp4'></video>","2","middle","45%","1","","","","","","","",""
"","771.6099999961443","sequential-stimulus-presentation","43","68032","0.0-13.0","SS1613142658150","pref_reveal","","40","800","1571.6099999961443","null","null","","","","","1","","","","deviant","","","",""
"","null","html-keyboard-response","44","69332","0.0-14.0-0.0","SS1613142658150","","","null","","","","","<p><img src= images/blank.png width =""200"" height = ""200"" style = ""float:right""></p><p><img src=images/blank.png width =""800"" height = ""200""></p>","","","","","","","","","","","",""
"","606.6999999457039","sequential-stimulus-presentation","45","70742","0.0-14.0-1.0","SS1613142658150","trial","","40","800","1406.699999945704","images/stimuli/spore_stims/simple_14_A_c.gif","images/stimuli/spore_stims/simple_14_B_c.gif","","","","","2","simple_similar","images/stimuli/spore_stims/simple_14_B_c.gif","middle","","","","",""
"","null","html-keyboard-response","46","71758","0.0-14.0-0.1","SS1613142658150","","","null","","","","","<p><img src= images/blank.png width =""200"" height = ""200"" style = ""float:right""></p><p><img src=images/blank.png width =""800"" height = ""200""></p>","","","","","","","","","","","",""
"","572.3400000133552","sequential-stimulus-presentation","47","73134","0.0-14.0-1.1","SS1613142658150","trial","","40","800","1372.3400000133552","images/stimuli/spore_stims/simple_14_A_c.gif","images/stimuli/spore_stims/simple_14_B_c.gif","","","","","2","simple_similar","images/stimuli/spore_stims/simple_14_B_c.gif","middle","","","","",""
"","null","html-keyboard-response","48","74133","0.0-14.0-0.2","SS1613142658150","","","null","","","","","<p><img src= images/blank.png width =""200"" height = ""200"" style = ""float:right""></p><p><img src=images/blank.png width =""800"" height = ""200""></p>","","","","","","","","","","","",""
"","808.7650000234134","sequential-stimulus-presentation","49","75757","0.0-14.0-1.2","SS1613142658150","trial","","40","800","1608.7650000234134","images/stimuli/spore_stims/simple_14_A_c.gif","images/stimuli/spore_stims/simple_14_B_c.gif","","","","","2","simple_similar","images/stimuli/spore_stims/simple_14_A_c.gif","left","","","","",""
"","null","html-keyboard-response","50","77028","0.0-14.0-0.3","SS1613142658150","","","null","","","","","<p><img src= images/blank.png width =""200"" height = ""200"" style = ""float:right""></p><p><img src=images/blank.png width =""800"" height = ""200""></p>","","","","","","","","","","","",""
"","442.4099999596365","sequential-stimulus-presentation","51","78275","0.0-14.0-1.3","SS1613142658150","trial","","40","800","1242.4099999596365","images/stimuli/spore_stims/simple_14_A_c.gif","images/stimuli/spore_stims/simple_14_B_c.gif","","","","","2","simple_similar","images/stimuli/spore_stims/simple_14_B_c.gif","middle","","","","",""
"","null","html-keyboard-response","52","79299","0.0-14.0-0.4","SS1613142658150","","","null","","","","","<p><img src= images/blank.png width =""200"" height = ""200"" style = ""float:right""></p><p><img src=images/blank.png width =""800"" height = ""200""></p>","","","","","","","","","","","",""
"","690.1099999668077","sequential-stimulus-presentation","53","80792","0.0-14.0-1.4","SS1613142658150","trial","","40","800","1490.1099999668077","images/stimuli/spore_stims/simple_14_A_c.gif","images/stimuli/spore_stims/simple_14_B_c.gif","","","","","2","simple_similar","images/stimuli/spore_stims/simple_14_B_c.gif","middle","","","","",""
"","null","html-keyboard-response","54","81718","0.0-14.0-0.5","SS1613142658150","","","null","","","","","<p><img src= images/blank.png width =""200"" height = ""200"" style = ""float:right""></p><p><img src=images/blank.png width =""800"" height = ""200""></p>","","","","","","","","","","","",""
"","585.5200000223704","sequential-stimulus-presentation","55","83107","0.0-14.0-1.5","SS1613142658150","trial","","40","800","1385.5200000223704","images/stimuli/spore_stims/simple_14_A_c.gif","images/stimuli/spore_stims/simple_14_B_c.gif","","","","","2","simple_similar","images/stimuli/spore_stims/simple_14_B_c.gif","middle","","","","",""
"","null","html-keyboard-response","56","84274","0.0-14.0-0.6","SS1613142658150","","","null","","","","","<p><img src= images/blank.png width =""200"" height = ""200"" style = ""float:right""></p><p><img src=images/blank.png width =""800"" height = ""200""></p>","","","","","","","","","","","",""
"","487.03499999828637","sequential-stimulus-presentation","57","85572","0.0-14.0-1.6","SS1613142658150","trial","","40","800","1287.0349999982864","images/stimuli/spore_stims/simple_14_A_c.gif","images/stimuli/spore_stims/simple_14_B_c.gif","","","","","2","simple_similar","images/stimuli/spore_stims/simple_14_B_c.gif","middle","","","","",""
"","null","html-keyboard-response","58","86550","0.0-14.0-0.7","SS1613142658150","","","null","","","","","<p><img src= images/blank.png width =""200"" height = ""200"" style = ""float:right""></p><p><img src=images/blank.png width =""800"" height = ""200""></p>","","","","","","","","","","","",""
"","638.3599999826401","sequential-stimulus-presentation","59","87992","0.0-14.0-1.7","SS1613142658150","trial","","40","800","1438.3599999826401","images/stimuli/spore_stims/simple_14_A_c.gif","images/stimuli/spore_stims/simple_14_B_c.gif","","","","","2","simple_similar","images/stimuli/spore_stims/simple_14_B_c.gif","middle","","","","",""
"","1615.0550000020303","html-keyboard-response","60","89612","0.0-15.0","SS1613142658150","pref_question","","49","","","","","<video width ='960' height = '540' style='padding-top:8%' autoplay muted><source src='images/stimuli/wall_pref.mp4' type='video/mp4'></video>","1","left","25%","2","","","","","","","",""
"","631.4799999818206","sequential-stimulus-presentation","61","91047","0.0-16.0","SS1613142658150","pref_reveal","","40","800","1431.4799999818206","null","null","","","","","2","","","","deviant","","","",""
"","null","html-keyboard-response","62","91853","0.0-17.0-0.0","SS1613142658150","","","null","","","","","<p><img src= images/blank.png width =""200"" height = ""200"" style = ""float:right""></p><p><img src=images/blank.png width =""800"" height = ""200""></p>","","","","","","","","","","","",""
"","489.68499997863546","sequential-stimulus-presentation","63","93147","0.0-17.0-1.0","SS1613142658150","trial","","40","800","1289.6849999786355","images/stimuli/spore_stims/complex_11_A_a.gif","images/stimuli/spore_stims/complex_11_B_a.gif","","","","","3","complex_similar","images/stimuli/spore_stims/complex_11_B_a.gif","right","","","","",""
"","null","html-keyboard-response","64","94043","0.0-17.0-0.1","SS1613142658150","","","null","","","","","<p><img src= images/blank.png width =""200"" height = ""200"" style = ""float:right""></p><p><img src=images/blank.png width =""800"" height = ""200""></p>","","","","","","","","","","","",""
"","1826.1749999946915","sequential-stimulus-presentation","65","96672","0.0-17.0-1.1","SS1613142658150","trial","","40","800","2626.1749999946915","images/stimuli/spore_stims/complex_11_A_a.gif","images/stimuli/spore_stims/complex_11_B_a.gif","","","","","3","complex_similar","images/stimuli/spore_stims/complex_11_B_a.gif","right","","","","",""
"","null","html-keyboard-response","66","97528","0.0-17.0-0.2","SS1613142658150","","","null","","","","","<p><img src= images/blank.png width =""200"" height = ""200"" style = ""float:right""></p><p><img src=images/blank.png width =""800"" height = ""200""></p>","","","","","","","","","","","",""
"","1231.2650000094436","sequential-stimulus-presentation","67","99564","0.0-17.0-1.2","SS1613142658150","trial","","40","800","2031.2650000094436","images/stimuli/spore_stims/complex_11_A_a.gif","images/stimuli/spore_stims/complex_11_B_a.gif","","","","","3","complex_similar","images/stimuli/spore_stims/complex_11_A_a.gif","middle","","","","",""
"","null","html-keyboard-response","68","100388","0.0-17.0-0.3","SS1613142658150","","","null","","","","","<p><img src= images/blank.png width =""200"" height = ""200"" style = ""float:right""></p><p><img src=images/blank.png width =""800"" height = ""200""></p>","","","","","","","","","","","",""
"","636.6549999802373","sequential-stimulus-presentation","69","101835","0.0-17.0-1.3","SS1613142658150","trial","","40","800","1436.6549999802373","images/stimuli/spore_stims/complex_11_A_a.gif","images/stimuli/spore_stims/complex_11_B_a.gif","","","","","3","complex_similar","images/stimuli/spore_stims/complex_11_B_a.gif","right","","","","",""
"","null","html-keyboard-response","70","102719","0.0-17.0-0.4","SS1613142658150","","","null","","","","","<p><img src= images/blank.png width =""200"" height = ""200"" style = ""float:right""></p><p><img src=images/blank.png width =""800"" height = ""200""></p>","","","","","","","","","","","",""
"","2362.98999999417","sequential-stimulus-presentation","71","105885","0.0-17.0-1.4","SS1613142658150","trial","","40","800","3162.98999999417","images/stimuli/spore_stims/complex_11_A_a.gif","images/stimuli/spore_stims/complex_11_B_a.gif","","","","","3","complex_similar","images/stimuli/spore_stims/complex_11_B_a.gif","right","","","","",""
"","null","html-keyboard-response","72","107014","0.0-17.0-0.5","SS1613142658150","","","null","","","","","<p><img src= images/blank.png width =""200"" height = ""200"" style = ""float:right""></p><p><img src=images/blank.png width =""800"" height = ""200""></p>","","","","","","","","","","","",""
"","1417.9049999802373","sequential-stimulus-presentation","73","109244","0.0-17.0-1.5","SS1613142658150","trial","","40","800","2217.9049999802373","images/stimuli/spore_stims/complex_11_A_a.gif","images/stimuli/spore_stims/complex_11_B_a.gif","","","","","3","complex_similar","images/stimuli/spore_stims/complex_11_B_a.gif","right","","","","",""
"","null","html-keyboard-response","74","110215","0.0-17.0-0.6","SS1613142658150","","","null","","","","","<p><img src= images/blank.png width =""200"" height = ""200"" style = ""float:right""></p><p><img src=images/blank.png width =""800"" height = ""200""></p>","","","","","","","","","","","",""
"","909.2999999993481","sequential-stimulus-presentation","75","111928","0.0-17.0-1.6","SS1613142658150","trial","","40","800","1709.299999999348","images/stimuli/spore_stims/complex_11_A_a.gif","images/stimuli/spore_stims/complex_11_B_a.gif","","","","","3","complex_similar","images/stimuli/spore_stims/complex_11_B_a.gif","right","","","","",""
"","null","html-keyboard-response","76","112753","0.0-17.0-0.7","SS1613142658150","","","null","","","","","<p><img src= images/blank.png width =""200"" height = ""200"" style = ""float:right""></p><p><img src=images/blank.png width =""800"" height = ""200""></p>","","","","","","","","","","","",""
"","1970.774999994319","sequential-stimulus-presentation","77","115528","0.0-17.0-1.7","SS1613142658150","trial","","40","800","2770.774999994319","images/stimuli/spore_stims/complex_11_A_a.gif","images/stimuli/spore_stims/complex_11_B_a.gif","","","","","3","complex_similar","images/stimuli/spore_stims/complex_11_B_a.gif","right","","","","",""
"","1359.3100000289269","html-keyboard-response","78","116889","0.0-18.0","SS1613142658150","pref_question","","50","","","","","<video width ='960' height = '540' style='padding-top:8%' autoplay muted><source src='images/stimuli/wall_pref.mp4' type='video/mp4'></video>","2","middle","45%","3","","","","","","","",""
"","605.6749999988824","sequential-stimulus-presentation","79","118313","0.0-19.0","SS1613142658150","pref_reveal","","40","800","1405.6749999988824","null","null","","","","","3","","","","deviant","","","",""
"","null","html-keyboard-response","80","119322","0.0-20.0-0.0","SS1613142658150","","","null","","","","","<p><img src= images/blank.png width =""200"" height = ""200"" style = ""float:right""></p><p><img src=images/blank.png width =""800"" height = ""200""></p>","","","","","","","","","","","",""
"","496.1199999670498","sequential-stimulus-presentation","81","120623","0.0-20.0-1.0","SS1613142658150","trial","","40","800","1296.1199999670498","images/stimuli/spore_stims/simple_02_B_c.gif","images/stimuli/spore_stims/simple_18_A_c.gif","","","","","4","simple_dissimilar","images/stimuli/spore_stims/simple_18_A_c.gif","right","","","","",""
"","null","html-keyboard-response","82","121454","0.0-20.0-0.1","SS1613142658150","","","null","","","","","<p><img src= images/blank.png width =""200"" height = ""200"" style = ""float:right""></p><p><img src=images/blank.png width =""800"" height = ""200""></p>","","","","","","","","","","","",""
"","534.5399999641813","sequential-stimulus-presentation","83","122792","0.0-20.0-1.1","SS1613142658150","trial","","40","800","1334.5399999641813","images/stimuli/spore_stims/simple_02_B_c.gif","images/stimuli/spore_stims/simple_18_A_c.gif","","","","","4","simple_dissimilar","images/stimuli/spore_stims/simple_18_A_c.gif","right","","","","",""
"","null","html-keyboard-response","84","123811","0.0-20.0-0.2","SS1613142658150","","","null","","","","","<p><img src= images/blank.png width =""200"" height = ""200"" style = ""float:right""></p><p><img src=images/blank.png width =""800"" height = ""200""></p>","","","","","","","","","","","",""
"","557.0799999986775","sequential-stimulus-presentation","85","125171","0.0-20.0-1.2","SS1613142658150","trial","","40","800","1357.0799999986775","images/stimuli/spore_stims/simple_02_B_c.gif","images/stimuli/spore_stims/simple_18_A_c.gif","","","","","4","simple_dissimilar","images/stimuli/spore_stims/simple_18_A_c.gif","right","","","","",""
"","null","html-keyboard-response","86","126051","0.0-20.0-0.3","SS1613142658150","","","null","","","","","<p><img src= images/blank.png width =""200"" height = ""200"" style = ""float:right""></p><p><img src=images/blank.png width =""800"" height = ""200""></p>","","","","","","","","","","","",""
"","609.7299999673851","sequential-stimulus-presentation","87","127463","0.0-20.0-1.3","SS1613142658150","trial","","40","800","1409.729999967385","images/stimuli/spore_stims/simple_02_B_c.gif","images/stimuli/spore_stims/simple_18_A_c.gif","","","","","4","simple_dissimilar","images/stimuli/spore_stims/simple_02_B_c.gif","left","","","","",""
"","null","html-keyboard-response","88","128709","0.0-20.0-0.4","SS1613142658150","","","null","","","","","<p><img src= images/blank.png width =""200"" height = ""200"" style = ""float:right""></p><p><img src=images/blank.png width =""800"" height = ""200""></p>","","","","","","","","","","","",""
"","364.960000035353","sequential-stimulus-presentation","89","129885","0.0-20.0-1.4","SS1613142658150","trial","","40","800","1164.960000035353","images/stimuli/spore_stims/simple_02_B_c.gif","images/stimuli/spore_stims/simple_18_A_c.gif","","","","","4","simple_dissimilar","images/stimuli/spore_stims/simple_18_A_c.gif","right","","","","",""
"","null","html-keyboard-response","90","131030","0.0-20.0-0.5","SS1613142658150","","","null","","","","","<p><img src= images/blank.png width =""200"" height = ""200"" style = ""float:right""></p><p><img src=images/blank.png width =""800"" height = ""200""></p>","","","","","","","","","","","",""
"","409.18000001693144","sequential-stimulus-presentation","91","132243","0.0-20.0-1.5","SS1613142658150","trial","","40","800","1209.1800000169314","images/stimuli/spore_stims/simple_02_B_c.gif","images/stimuli/spore_stims/simple_18_A_c.gif","","","","","4","simple_dissimilar","images/stimuli/spore_stims/simple_18_A_c.gif","right","","","","",""
"","null","html-keyboard-response","92","133113","0.0-20.0-0.6","SS1613142658150","","","null","","","","","<p><img src= images/blank.png width =""200"" height = ""200"" style = ""float:right""></p><p><img src=images/blank.png width =""800"" height = ""200""></p>","","","","","","","","","","","",""
"","714.9650000501424","sequential-stimulus-presentation","93","134632","0.0-20.0-1.6","SS1613142658150","trial","","40","800","1514.9650000501424","images/stimuli/spore_stims/simple_02_B_c.gif","images/stimuli/spore_stims/simple_18_A_c.gif","","","","","4","simple_dissimilar","images/stimuli/spore_stims/simple_18_A_c.gif","right","","","","",""
"","null","html-keyboard-response","94","135555","0.0-20.0-0.7","SS1613142658150","","","null","","","","","<p><img src= images/blank.png width =""200"" height = ""200"" style = ""float:right""></p><p><img src=images/blank.png width =""800"" height = ""200""></p>","","","","","","","","","","","",""
"","314.8650000221096","sequential-stimulus-presentation","95","136679","0.0-20.0-1.7","SS1613142658150","trial","","40","800","1114.8650000221096","images/stimuli/spore_stims/simple_02_B_c.gif","images/stimuli/spore_stims/simple_18_A_c.gif","","","","","4","simple_dissimilar","images/stimuli/spore_stims/simple_18_A_c.gif","right","","","","",""
"","1509.9949999712408","html-keyboard-response","96","138191","0.0-21.0","SS1613142658150","pref_question","","51","","","","","<video width ='960' height = '540' style='padding-top:8%' autoplay muted><source src='images/stimuli/wall_pref.mp4' type='video/mp4'></video>","3","right","66%","4","","","","","","","",""
"","381.71499996678904","sequential-stimulus-presentation","97","139378","0.0-22.0","SS1613142658150","pref_reveal","","40","800","1181.714999966789","null","null","","","","","4","","","","background","","","",""
"","null","html-keyboard-response","98","140335","0.0-23.0-0.0","SS1613142658150","","","null","","","","","<p><img src= images/blank.png width =""200"" height = ""200"" style = ""float:right""></p><p><img src=images/blank.png width =""800"" height = ""200""></p>","","","","","","","","","","","",""
"","811.3050000392832","sequential-stimulus-presentation","99","141950","0.0-23.0-1.0","SS1613142658150","trial","","40","800","1611.3050000392832","images/stimuli/spore_stims/simple_16_B_b.gif","images/stimuli/spore_stims/simple_16_A_b.gif","","","","","5","simple_similar","images/stimuli/spore_stims/simple_16_A_b.gif","right","","","","",""
"","null","html-keyboard-response","100","142987","0.0-23.0-0.1","SS1613142658150","","","null","","","","","<p><img src= images/blank.png width =""200"" height = ""200"" style = ""float:right""></p><p><img src=images/blank.png width =""800"" height = ""200""></p>","","","","","","","","","","","",""
"","370.3000000095926","sequential-stimulus-presentation","101","144173","0.0-23.0-1.1","SS1613142658150","trial","","40","800","1170.3000000095926","images/stimuli/spore_stims/simple_16_B_b.gif","images/stimuli/spore_stims/simple_16_A_b.gif","","","","","5","simple_similar","images/stimuli/spore_stims/simple_16_A_b.gif","right","","","","",""
"","null","html-keyboard-response","102","145432","0.0-23.0-0.2","SS1613142658150","","","null","","","","","<p><img src= images/blank.png width =""200"" height = ""200"" style = ""float:right""></p><p><img src=images/blank.png width =""800"" height = ""200""></p>","","","","","","","","","","","",""
"","11856.555000005756","sequential-stimulus-presentation","103","158102","0.0-23.0-1.2","SS1613142658150","trial","","40","800","12656.555000005756","images/stimuli/spore_stims/simple_16_B_b.gif","images/stimuli/spore_stims/simple_16_A_b.gif","","","","","5","simple_similar","images/stimuli/spore_stims/simple_16_A_b.gif","right","","","","",""
"","null","html-keyboard-response","104","158978","0.0-23.0-0.3","SS1613142658150","","","null","","","","","<p><img src= images/blank.png width =""200"" height = ""200"" style = ""float:right""></p><p><img src=images/blank.png width =""800"" height = ""200""></p>","","","","","","","","","","","",""
"","368.44499997096136","sequential-stimulus-presentation","105","160154","0.0-23.0-1.3","SS1613142658150","trial","","40","800","1168.4449999709614","images/stimuli/spore_stims/simple_16_B_b.gif","images/stimuli/spore_stims/simple_16_A_b.gif","","","","","5","simple_similar","images/stimuli/spore_stims/simple_16_A_b.gif","right","","","","",""
"","null","html-keyboard-response","106","161013","0.0-23.0-0.4","SS1613142658150","","","null","","","","","<p><img src= images/blank.png width =""200"" height = ""200"" style = ""float:right""></p><p><img src=images/blank.png width =""800"" height = ""200""></p>","","","","","","","","","","","",""
"","425.165000022389","sequential-stimulus-presentation","107","162242","0.0-23.0-1.4","SS1613142658150","trial","","40","800","1225.165000022389","images/stimuli/spore_stims/simple_16_B_b.gif","images/stimuli/spore_stims/simple_16_A_b.gif","","","","","5","simple_similar","images/stimuli/spore_stims/simple_16_A_b.gif","right","","","","",""
"","null","html-keyboard-response","108","163203","0.0-23.0-0.5","SS1613142658150","","","null","","","","","<p><img src= images/blank.png width =""200"" height = ""200"" style = ""float:right""></p><p><img src=images/blank.png width =""800"" height = ""200""></p>","","","","","","","","","","","",""
"","861.8949999799952","sequential-stimulus-presentation","109","164869","0.0-23.0-1.5","SS1613142658150","trial","","40","800","1661.8949999799952","images/stimuli/spore_stims/simple_16_B_b.gif","images/stimuli/spore_stims/simple_16_A_b.gif","","","","","5","simple_similar","images/stimuli/spore_stims/simple_16_A_b.gif","right","","","","",""
"","null","html-keyboard-response","110","166015","0.0-23.0-0.6","SS1613142658150","","","null","","","","","<p><img src= images/blank.png width =""200"" height = ""200"" style = ""float:right""></p><p><img src=images/blank.png width =""800"" height = ""200""></p>","","","","","","","","","","","",""
"","240.28999998699874","sequential-stimulus-presentation","111","167064","0.0-23.0-1.6","SS1613142658150","trial","","40","800","1040.2899999869987","images/stimuli/spore_stims/simple_16_B_b.gif","images/stimuli/spore_stims/simple_16_A_b.gif","","","","","5","simple_similar","images/stimuli/spore_stims/simple_16_A_b.gif","right","","","","",""
"","null","html-keyboard-response","112","167874","0.0-23.0-0.7","SS1613142658150","","","null","","","","","<p><img src= images/blank.png width =""200"" height = ""200"" style = ""float:right""></p><p><img src=images/blank.png width =""800"" height = ""200""></p>","","","","","","","","","","","",""
"","342.60499995434657","sequential-stimulus-presentation","113","169020","0.0-23.0-1.7","SS1613142658150","trial","","40","800","1142.6049999543466","images/stimuli/spore_stims/simple_16_B_b.gif","images/stimuli/spore_stims/simple_16_A_b.gif","","","","","5","simple_similar","images/stimuli/spore_stims/simple_16_B_b.gif","left","","","","",""
"","1374.55000000773","html-keyboard-response","114","170398","0.0-24.0","SS1613142658150","pref_question","","50","","","","","<video width ='960' height = '540' style='padding-top:8%' autoplay muted><source src='images/stimuli/wall_pref.mp4' type='video/mp4'></video>","2","middle","45%","5","","","","","","","",""
"","339.83999997144565","sequential-stimulus-presentation","115","171542","0.0-25.0","SS1613142658150","pref_reveal","","40","800","1139.8399999714456","null","null","","","","","5","","","","novel","","","",""
"","null","html-keyboard-response","116","172354","0.0-26.0-0.0","SS1613142658150","","","null","","","","","<p><img src= images/blank.png width =""200"" height = ""200"" style = ""float:right""></p><p><img src=images/blank.png width =""800"" height = ""200""></p>","","","","","","","","","","","",""
"","904.2900000349618","sequential-stimulus-presentation","117","174062","0.0-26.0-1.0","SS1613142658150","trial","","40","800","1704.2900000349618","images/stimuli/spore_stims/complex_18_B_a.gif","images/stimuli/spore_stims/complex_09_B_a.gif","","","","","6","complex_dissimilar","images/stimuli/spore_stims/complex_09_B_a.gif","left","","","","",""
"","null","html-keyboard-response","118","174970","0.0-26.0-0.1","SS1613142658150","","","null","","","","","<p><img src= images/blank.png width =""200"" height = ""200"" style = ""float:right""></p><p><img src=images/blank.png width =""800"" height = ""200""></p>","","","","","","","","","","","",""
"","858.7100000004284","sequential-stimulus-presentation","119","176633","0.0-26.0-1.1","SS1613142658150","trial","","40","800","1658.7100000004284","images/stimuli/spore_stims/complex_18_B_a.gif","images/stimuli/spore_stims/complex_09_B_a.gif","","","","","6","complex_dissimilar","images/stimuli/spore_stims/complex_09_B_a.gif","left","","","","",""
"","null","html-keyboard-response","120","177737","0.0-26.0-0.2","SS1613142658150","","","null","","","","","<p><img src= images/blank.png width =""200"" height = ""200"" style = ""float:right""></p><p><img src=images/blank.png width =""800"" height = ""200""></p>","","","","","","","","","","","",""
"","308.32000001100823","sequential-stimulus-presentation","121","178861","0.0-26.0-1.2","SS1613142658150","trial","","40","800","1108.3200000110082","images/stimuli/spore_stims/complex_18_B_a.gif","images/stimuli/spore_stims/complex_09_B_a.gif","","","","","6","complex_dissimilar","images/stimuli/spore_stims/complex_09_B_a.gif","left","","","","",""
"","null","html-keyboard-response","122","179665","0.0-26.0-0.3","SS1613142658150","","","null","","","","","<p><img src= images/blank.png width =""200"" height = ""200"" style = ""float:right""></p><p><img src=images/blank.png width =""800"" height = ""200""></p>","","","","","","","","","","","",""
"","955.2350000012666","sequential-stimulus-presentation","123","181426","0.0-26.0-1.3","SS1613142658150","trial","","40","800","1755.2350000012666","images/stimuli/spore_stims/complex_18_B_a.gif","images/stimuli/spore_stims/complex_09_B_a.gif","","","","","6","complex_dissimilar","images/stimuli/spore_stims/complex_09_B_a.gif","left","","","","",""
"","null","html-keyboard-response","124","182666","0.0-26.0-0.4","SS1613142658150","","","null","","","","","<p><img src= images/blank.png width =""200"" height = ""200"" style = ""float:right""></p><p><img src=images/blank.png width =""800"" height = ""200""></p>","","","","","","","","","","","",""
"","672.7949999622069","sequential-stimulus-presentation","125","184143","0.0-26.0-1.4","SS1613142658150","trial","","40","800","1472.794999962207","images/stimuli/spore_stims/complex_18_B_a.gif","images/stimuli/spore_stims/complex_09_B_a.gif","","","","","6","complex_dissimilar","images/stimuli/spore_stims/complex_09_B_a.gif","left","","","","",""
"","null","html-keyboard-response","126","185106","0.0-26.0-0.5","SS1613142658150","","","null","","","","","<p><img src= images/blank.png width =""200"" height = ""200"" style = ""float:right""></p><p><img src=images/blank.png width =""800"" height = ""200""></p>","","","","","","","","","","","",""
"","598.8699999870732","sequential-stimulus-presentation","127","186511","0.0-26.0-1.5","SS1613142658150","trial","","40","800","1398.8699999870732","images/stimuli/spore_stims/complex_18_B_a.gif","images/stimuli/spore_stims/complex_09_B_a.gif","","","","","6","complex_dissimilar","images/stimuli/spore_stims/complex_09_B_a.gif","left","","","","",""
"","null","html-keyboard-response","128","187364","0.0-26.0-0.6","SS1613142658150","","","null","","","","","<p><img src= images/blank.png width =""200"" height = ""200"" style = ""float:right""></p><p><img src=images/blank.png width =""800"" height = ""200""></p>","","","","","","","","","","","",""
"","2927.609999955166","sequential-stimulus-presentation","129","191108","0.0-26.0-1.6","SS1613142658150","trial","","40","800","3727.609999955166","images/stimuli/spore_stims/complex_18_B_a.gif","images/stimuli/spore_stims/complex_09_B_a.gif","","","","","6","complex_dissimilar","images/stimuli/spore_stims/complex_18_B_a.gif","right","","","","",""
"","null","html-keyboard-response","130","192322","0.0-26.0-0.7","SS1613142658150","","","null","","","","","<p><img src= images/blank.png width =""200"" height = ""200"" style = ""float:right""></p><p><img src=images/blank.png width =""800"" height = ""200""></p>","","","","","","","","","","","",""
"","667.2099999850616","sequential-stimulus-presentation","131","193798","0.0-26.0-1.7","SS1613142658150","trial","","40","800","1467.2099999850616","images/stimuli/spore_stims/complex_18_B_a.gif","images/stimuli/spore_stims/complex_09_B_a.gif","","","","","6","complex_dissimilar","images/stimuli/spore_stims/complex_09_B_a.gif","left","","","","",""
"","1570.6900000222959","html-keyboard-response","132","195371","0.0-27.0","SS1613142658150","pref_question","","49","","","","","<video width ='960' height = '540' style='padding-top:8%' autoplay muted><source src='images/stimuli/wall_pref.mp4' type='video/mp4'></video>","1","left","25%","6","","","","","","","",""
"","513.2900000317022","sequential-stimulus-presentation","133","196700","0.0-28.0","SS1613142658150","pref_reveal","","40","800","1313.2900000317022","null","null","","","","","6","","","","background","","","",""
"","null","html-keyboard-response","134","197681","0.0-29.0-0.0","SS1613142658150","","","null","","","","","<p><img src= images/blank.png width =""200"" height = ""200"" style = ""float:right""></p><p><img src=images/blank.png width =""800"" height = ""200""></p>","","","","","","","","","","","",""
"","515.4350000084378","sequential-stimulus-presentation","135","199015","0.0-29.0-1.0","SS1613142658150","trial","","40","800","1315.4350000084378","images/stimuli/spore_stims/simple_09_B_c.gif","images/stimuli/spore_stims/simple_09_A_c.gif","","","","","7","simple_similar","images/stimuli/spore_stims/simple_09_A_c.gif","left","","","","",""
"","null","html-keyboard-response","136","200134","0.0-29.0-0.1","SS1613142658150","","","null","","","","","<p><img src= images/blank.png width =""200"" height = ""200"" style = ""float:right""></p><p><img src=images/blank.png width =""800"" height = ""200""></p>","","","","","","","","","","","",""
"","348.53000001749024","sequential-stimulus-presentation","137","201287","0.0-29.0-1.1","SS1613142658150","trial","","40","800","1148.5300000174902","images/stimuli/spore_stims/simple_09_B_c.gif","images/stimuli/spore_stims/simple_09_A_c.gif","","","","","7","simple_similar","images/stimuli/spore_stims/simple_09_A_c.gif","left","","","","",""
"","null","html-keyboard-response","138","202575","0.0-29.0-0.2","SS1613142658150","","","null","","","","","<p><img src= images/blank.png width =""200"" height = ""200"" style = ""float:right""></p><p><img src=images/blank.png width =""800"" height = ""200""></p>","","","","","","","","","","","",""
"","504.4200000120327","sequential-stimulus-presentation","139","203884","0.0-29.0-1.2","SS1613142658150","trial","","40","800","1304.4200000120327","images/stimuli/spore_stims/simple_09_B_c.gif","images/stimuli/spore_stims/simple_09_A_c.gif","","","","","7","simple_similar","images/stimuli/spore_stims/simple_09_A_c.gif","left","","","","",""
"","null","html-keyboard-response","140","204706","0.0-29.0-0.3","SS1613142658150","","","null","","","","","<p><img src= images/blank.png width =""200"" height = ""200"" style = ""float:right""></p><p><img src=images/blank.png width =""800"" height = ""200""></p>","","","","","","","","","","","",""
"","597.234999993816","sequential-stimulus-presentation","141","206108","0.0-29.0-1.3","SS1613142658150","trial","","40","800","1397.234999993816","images/stimuli/spore_stims/simple_09_B_c.gif","images/stimuli/spore_stims/simple_09_A_c.gif","","","","","7","simple_similar","images/stimuli/spore_stims/simple_09_A_c.gif","left","","","","",""
"","null","html-keyboard-response","142","206988","0.0-29.0-0.4","SS1613142658150","","","null","","","","","<p><img src= images/blank.png width =""200"" height = ""200"" style = ""float:right""></p><p><img src=images/blank.png width =""800"" height = ""200""></p>","","","","","","","","","","","",""
"","758.414999989327","sequential-stimulus-presentation","143","208551","0.0-29.0-1.4","SS1613142658150","trial","","40","800","1558.414999989327","images/stimuli/spore_stims/simple_09_B_c.gif","images/stimuli/spore_stims/simple_09_A_c.gif","","","","","7","simple_similar","images/stimuli/spore_stims/simple_09_A_c.gif","left","","","","",""
"","null","html-keyboard-response","144","209770","0.0-29.0-0.5","SS1613142658150","","","null","","","","","<p><img src= images/blank.png width =""200"" height = ""200"" style = ""float:right""></p><p><img src=images/blank.png width =""800"" height = ""200""></p>","","","","","","","","","","","",""
"","581.5900000161491","sequential-stimulus-presentation","145","211164","0.0-29.0-1.5","SS1613142658150","trial","","40","800","1381.5900000161491","images/stimuli/spore_stims/simple_09_B_c.gif","images/stimuli/spore_stims/simple_09_A_c.gif","","","","","7","simple_similar","images/stimuli/spore_stims/simple_09_B_c.gif","right","","","","",""
"","null","html-keyboard-response","146","212203","0.0-29.0-0.6","SS1613142658150","","","null","","","","","<p><img src= images/blank.png width =""200"" height = ""200"" style = ""float:right""></p><p><img src=images/blank.png width =""800"" height = ""200""></p>","","","","","","","","","","","",""
"","692.9050000035204","sequential-stimulus-presentation","147","213714","0.0-29.0-1.6","SS1613142658150","trial","","40","800","1492.9050000035204","images/stimuli/spore_stims/simple_09_B_c.gif","images/stimuli/spore_stims/simple_09_A_c.gif","","","","","7","simple_similar","images/stimuli/spore_stims/simple_09_A_c.gif","left","","","","",""
"","null","html-keyboard-response","148","215013","0.0-29.0-0.7","SS1613142658150","","","null","","","","","<p><img src= images/blank.png width =""200"" height = ""200"" style = ""float:right""></p><p><img src=images/blank.png width =""800"" height = ""200""></p>","","","","","","","","","","","",""
"","670.8000000216998","sequential-stimulus-presentation","149","216495","0.0-29.0-1.7","SS1613142658150","trial","","40","800","1470.8000000216998","images/stimuli/spore_stims/simple_09_B_c.gif","images/stimuli/spore_stims/simple_09_A_c.gif","","","","","7","simple_similar","images/stimuli/spore_stims/simple_09_A_c.gif","left","","","","",""
"","1223.26499997871","html-keyboard-response","150","217722","0.0-30.0","SS1613142658150","pref_question","","50","","","","","<video width ='960' height = '540' style='padding-top:8%' autoplay muted><source src='images/stimuli/wall_pref.mp4' type='video/mp4'></video>","2","middle","45%","7","","","","","","","",""
"","820.389999949839","sequential-stimulus-presentation","151","219350","0.0-31.0","SS1613142658150","pref_reveal","","40","800","1620.389999949839","null","null","","","","","7","","","","novel","","","",""
"","null","html-keyboard-response","152","220395","0.0-32.0-0.0","SS1613142658150","","","null","","","","","<p><img src= images/blank.png width =""200"" height = ""200"" style = ""float:right""></p><p><img src=images/blank.png width =""800"" height = ""200""></p>","","","","","","","","","","","",""
"","851.2800000025891","sequential-stimulus-presentation","153","222050","0.0-32.0-1.0","SS1613142658150","trial","","40","800","1651.280000002589","images/stimuli/spore_stims/complex_10_A_d.gif","images/stimuli/spore_stims/complex_10_B_d.gif","","","","","8","complex_similar","images/stimuli/spore_stims/complex_10_B_d.gif","right","","","","",""
"","null","html-keyboard-response","154","223266","0.0-32.0-0.1","SS1613142658150","","","null","","","","","<p><img src= images/blank.png width =""200"" height = ""200"" style = ""float:right""></p><p><img src=images/blank.png width =""800"" height = ""200""></p>","","","","","","","","","","","",""
"","1227.515000035055","sequential-stimulus-presentation","155","225298","0.0-32.0-1.1","SS1613142658150","trial","","40","800","2027.515000035055","images/stimuli/spore_stims/complex_10_A_d.gif","images/stimuli/spore_stims/complex_10_B_d.gif","","","","","8","complex_similar","images/stimuli/spore_stims/complex_10_B_d.gif","right","","","","",""
"","null","html-keyboard-response","156","226548","0.0-32.0-0.2","SS1613142658150","","","null","","","","","<p><img src= images/blank.png width =""200"" height = ""200"" style = ""float:right""></p><p><img src=images/blank.png width =""800"" height = ""200""></p>","","","","","","","","","","","",""
"","702.9449999681674","sequential-stimulus-presentation","157","228066","0.0-32.0-1.2","SS1613142658150","trial","","40","800","1502.9449999681674","images/stimuli/spore_stims/complex_10_A_d.gif","images/stimuli/spore_stims/complex_10_B_d.gif","","","","","8","complex_similar","images/stimuli/spore_stims/complex_10_B_d.gif","right","","","","",""
"","null","html-keyboard-response","158","229184","0.0-32.0-0.3","SS1613142658150","","","null","","","","","<p><img src= images/blank.png width =""200"" height = ""200"" style = ""float:right""></p><p><img src=images/blank.png width =""800"" height = ""200""></p>","","","","","","","","","","","",""
"","724.5800000382587","sequential-stimulus-presentation","159","230719","0.0-32.0-1.3","SS1613142658150","trial","","40","800","1524.5800000382587","images/stimuli/spore_stims/complex_10_A_d.gif","images/stimuli/spore_stims/complex_10_B_d.gif","","","","","8","complex_similar","images/stimuli/spore_stims/complex_10_B_d.gif","right","","","","",""
"","null","html-keyboard-response","160","231676","0.0-32.0-0.4","SS1613142658150","","","null","","","","","<p><img src= images/blank.png width =""200"" height = ""200"" style = ""float:right""></p><p><img src=images/blank.png width =""800"" height = ""200""></p>","","","","","","","","","","","",""
"","933.9500000351109","sequential-stimulus-presentation","161","233419","0.0-32.0-1.4","SS1613142658150","trial","","40","800","1733.9500000351109","images/stimuli/spore_stims/complex_10_A_d.gif","images/stimuli/spore_stims/complex_10_B_d.gif","","","","","8","complex_similar","images/stimuli/spore_stims/complex_10_A_d.gif","middle","","","","",""
"","null","html-keyboard-response","162","234559","0.0-32.0-0.5","SS1613142658150","","","null","","","","","<p><img src= images/blank.png width =""200"" height = ""200"" style = ""float:right""></p><p><img src=images/blank.png width =""800"" height = ""200""></p>","","","","","","","","","","","",""
"","505.63000002875924","sequential-stimulus-presentation","163","235872","0.0-32.0-1.5","SS1613142658150","trial","","40","800","1305.6300000287592","images/stimuli/spore_stims/complex_10_A_d.gif","images/stimuli/spore_stims/complex_10_B_d.gif","","","","","8","complex_similar","images/stimuli/spore_stims/complex_10_B_d.gif","right","","","","",""
"","null","html-keyboard-response","164","236774","0.0-32.0-0.6","SS1613142658150","","","null","","","","","<p><img src= images/blank.png width =""200"" height = ""200"" style = ""float:right""></p><p><img src=images/blank.png width =""800"" height = ""200""></p>","","","","","","","","","","","",""
"","1031.409999995958","sequential-stimulus-presentation","165","238610","0.0-32.0-1.6","SS1613142658150","trial","","40","800","1831.409999995958","images/stimuli/spore_stims/complex_10_A_d.gif","images/stimuli/spore_stims/complex_10_B_d.gif","","","","","8","complex_similar","images/stimuli/spore_stims/complex_10_B_d.gif","right","","","","",""
"","null","html-keyboard-response","166","239602","0.0-32.0-0.7","SS1613142658150","","","null","","","","","<p><img src= images/blank.png width =""200"" height = ""200"" style = ""float:right""></p><p><img src=images/blank.png width =""800"" height = ""200""></p>","","","","","","","","","","","",""
"","319.4350000121631","sequential-stimulus-presentation","167","240726","0.0-32.0-1.7","SS1613142658150","trial","","40","800","1119.435000012163","images/stimuli/spore_stims/complex_10_A_d.gif","images/stimuli/spore_stims/complex_10_B_d.gif","","","","","8","complex_similar","images/stimuli/spore_stims/complex_10_B_d.gif","right","","","","",""
"","1241.1100000026636","html-keyboard-response","168","241971","0.0-33.0","SS1613142658150","pref_question","","49","","","","","<video width ='960' height = '540' style='padding-top:8%' autoplay muted><source src='images/stimuli/wall_pref.mp4' type='video/mp4'></video>","1","left","25%","8","","","","","","","",""
"","939.5200000144541","sequential-stimulus-presentation","169","243715","0.0-34.0","SS1613142658150","pref_reveal","","40","800","1739.5200000144541","null","null","","","","","8","","","","novel","","","",""
"","null","html-keyboard-response","170","244592","0.0-35.0-0.0","SS1613142658150","","","null","","","","","<p><img src= images/blank.png width =""200"" height = ""200"" style = ""float:right""></p><p><img src=images/blank.png width =""800"" height = ""200""></p>","","","","","","","","","","","",""
"","633.3149999845773","sequential-stimulus-presentation","171","246041","0.0-35.0-1.0","SS1613142658150","trial","","40","800","1433.3149999845773","images/stimuli/spore_stims/simple_17_B_d.gif","images/stimuli/spore_stims/simple_17_A_d.gif","","","","","9","simple_similar","images/stimuli/spore_stims/simple_17_A_d.gif","left","","","","",""
"","null","html-keyboard-response","172","246887","0.0-35.0-0.1","SS1613142658150","","","null","","","","","<p><img src= images/blank.png width =""200"" height = ""200"" style = ""float:right""></p><p><img src=images/blank.png width =""800"" height = ""200""></p>","","","","","","","","","","","",""
"","531.8850000039674","sequential-stimulus-presentation","173","248226","0.0-35.0-1.1","SS1613142658150","trial","","40","800","1331.8850000039674","images/stimuli/spore_stims/simple_17_B_d.gif","images/stimuli/spore_stims/simple_17_A_d.gif","","","","","9","simple_similar","images/stimuli/spore_stims/simple_17_A_d.gif","left","","","","",""
"","null","html-keyboard-response","174","249429","0.0-35.0-0.2","SS1613142658150","","","null","","","","","<p><img src= images/blank.png width =""200"" height = ""200"" style = ""float:right""></p><p><img src=images/blank.png width =""800"" height = ""200""></p>","","","","","","","","","","","",""
"","835.2699999813922","sequential-stimulus-presentation","175","251069","0.0-35.0-1.2","SS1613142658150","trial","","40","800","1635.2699999813922","images/stimuli/spore_stims/simple_17_B_d.gif","images/stimuli/spore_stims/simple_17_A_d.gif","","","","","9","simple_similar","images/stimuli/spore_stims/simple_17_A_d.gif","left","","","","",""
"","null","html-keyboard-response","176","251884","0.0-35.0-0.3","SS1613142658150","","","null","","","","","<p><img src= images/blank.png width =""200"" height = ""200"" style = ""float:right""></p><p><img src=images/blank.png width =""800"" height = ""200""></p>","","","","","","","","","","","",""
"","536.6400000057183","sequential-stimulus-presentation","177","253229","0.0-35.0-1.3","SS1613142658150","trial","","40","800","1336.6400000057183","images/stimuli/spore_stims/simple_17_B_d.gif","images/stimuli/spore_stims/simple_17_A_d.gif","","","","","9","simple_similar","images/stimuli/spore_stims/simple_17_A_d.gif","left","","","","",""
"","null","html-keyboard-response","178","254414","0.0-35.0-0.4","SS1613142658150","","","null","","","","","<p><img src= images/blank.png width =""200"" height = ""200"" style = ""float:right""></p><p><img src=images/blank.png width =""800"" height = ""200""></p>","","","","","","","","","","","",""
"","624.210000038147","sequential-stimulus-presentation","179","255843","0.0-35.0-1.4","SS1613142658150","trial","","40","800","1424.210000038147","images/stimuli/spore_stims/simple_17_B_d.gif","images/stimuli/spore_stims/simple_17_A_d.gif","","","","","9","simple_similar","images/stimuli/spore_stims/simple_17_A_d.gif","left","","","","",""
"","null","html-keyboard-response","180","256695","0.0-35.0-0.5","SS1613142658150","","","null","","","","","<p><img src= images/blank.png width =""200"" height = ""200"" style = ""float:right""></p><p><img src=images/blank.png width =""800"" height = ""200""></p>","","","","","","","","","","","",""
"","760.439999983646","sequential-stimulus-presentation","181","258264","0.0-35.0-1.5","SS1613142658150","trial","","40","800","1560.439999983646","images/stimuli/spore_stims/simple_17_B_d.gif","images/stimuli/spore_stims/simple_17_A_d.gif","","","","","9","simple_similar","images/stimuli/spore_stims/simple_17_A_d.gif","left","","","","",""
"","null","html-keyboard-response","182","259375","0.0-35.0-0.6","SS1613142658150","","","null","","","","","<p><img src= images/blank.png width =""200"" height = ""200"" style = ""float:right""></p><p><img src=images/blank.png width =""800"" height = ""200""></p>","","","","","","","","","","","",""
"","699.1350000025705","sequential-stimulus-presentation","183","260879","0.0-35.0-1.6","SS1613142658150","trial","","40","800","1499.1350000025705","images/stimuli/spore_stims/simple_17_B_d.gif","images/stimuli/spore_stims/simple_17_A_d.gif","","","","","9","simple_similar","images/stimuli/spore_stims/simple_17_A_d.gif","left","","","","",""
"","null","html-keyboard-response","184","261842","0.0-35.0-0.7","SS1613142658150","","","null","","","","","<p><img src= images/blank.png width =""200"" height = ""200"" style = ""float:right""></p><p><img src=images/blank.png width =""800"" height = ""200""></p>","","","","","","","","","","","",""
"","912.3750000144355","sequential-stimulus-presentation","185","263559","0.0-35.0-1.7","SS1613142658150","trial","","40","800","1712.3750000144355","images/stimuli/spore_stims/simple_17_B_d.gif","images/stimuli/spore_stims/simple_17_A_d.gif","","","","","9","simple_similar","images/stimuli/spore_stims/simple_17_B_d.gif","middle","","","","",""
"","1290.5100000207312","html-keyboard-response","186","264856","0.0-36.0","SS1613142658150","pref_question","","51","","","","","<video width ='960' height = '540' style='padding-top:8%' autoplay muted><source src='images/stimuli/wall_pref.mp4' type='video/mp4'></video>","3","right","66%","9","","","","","","","",""
"","1044.4850000203587","sequential-stimulus-presentation","187","266707","0.0-37.0","SS1613142658150","pref_reveal","","40","800","1844.4850000203587","null","null","","","","","9","","","","novel","","","",""
"","null","html-keyboard-response","188","267524","0.0-38.0-0.0","SS1613142658150","","","null","","","","","<p><img src= images/blank.png width =""200"" height = ""200"" style = ""float:right""></p><p><img src=images/blank.png width =""800"" height = ""200""></p>","","","","","","","","","","","",""
"","748.4650000114925","sequential-stimulus-presentation","189","269087","0.0-38.0-1.0","SS1613142658150","trial","","40","800","1548.4650000114925","images/stimuli/spore_stims/simple_06_A_b.gif","images/stimuli/spore_stims/simple_02_A_a.gif","","","","","10","simple_dissimilar","images/stimuli/spore_stims/simple_02_A_a.gif","middle","","","","",""
"","null","html-keyboard-response","190","270363","0.0-38.0-0.1","SS1613142658150","","","null","","","","","<p><img src= images/blank.png width =""200"" height = ""200"" style = ""float:right""></p><p><img src=images/blank.png width =""800"" height = ""200""></p>","","","","","","","","","","","",""
"","789.9949999991804","sequential-stimulus-presentation","191","271958","0.0-38.0-1.1","SS1613142658150","trial","","40","800","1589.9949999991804","images/stimuli/spore_stims/simple_06_A_b.gif","images/stimuli/spore_stims/simple_02_A_a.gif","","","","","10","simple_dissimilar","images/stimuli/spore_stims/simple_02_A_a.gif","middle","","","","",""
"","null","html-keyboard-response","192","272935","0.0-38.0-0.2","SS1613142658150","","","null","","","","","<p><img src= images/blank.png width =""200"" height = ""200"" style = ""float:right""></p><p><img src=images/blank.png width =""800"" height = ""200""></p>","","","","","","","","","","","",""
"","934.6350000123493","sequential-stimulus-presentation","193","274674","0.0-38.0-1.2","SS1613142658150","trial","","40","800","1734.6350000123493","images/stimuli/spore_stims/simple_06_A_b.gif","images/stimuli/spore_stims/simple_02_A_a.gif","","","","","10","simple_dissimilar","images/stimuli/spore_stims/simple_02_A_a.gif","middle","","","","",""
"","null","html-keyboard-response","194","275812","0.0-38.0-0.3","SS1613142658150","","","null","","","","","<p><img src= images/blank.png width =""200"" height = ""200"" style = ""float:right""></p><p><img src=images/blank.png width =""800"" height = ""200""></p>","","","","","","","","","","","",""
"","796.1599999689497","sequential-stimulus-presentation","195","277412","0.0-38.0-1.3","SS1613142658150","trial","","40","800","1596.1599999689497","images/stimuli/spore_stims/simple_06_A_b.gif","images/stimuli/spore_stims/simple_02_A_a.gif","","","","","10","simple_dissimilar","images/stimuli/spore_stims/simple_02_A_a.gif","middle","","","","",""
"","null","html-keyboard-response","196","278465","0.0-38.0-0.4","SS1613142658150","","","null","","","","","<p><img src= images/blank.png width =""200"" height = ""200"" style = ""float:right""></p><p><img src=images/blank.png width =""800"" height = ""200""></p>","","","","","","","","","","","",""
"","130131.68500002939","sequential-stimulus-presentation","197","409401","0.0-38.0-1.4","SS1613142658150","trial","","40","800","130931.68500002939","images/stimuli/spore_stims/simple_06_A_b.gif","images/stimuli/spore_stims/simple_02_A_a.gif","","","","","10","simple_dissimilar","images/stimuli/spore_stims/simple_02_A_a.gif","middle","","","","",""
"","null","html-keyboard-response","198","410376","0.0-38.0-0.5","SS1613142658150","","","null","","","","","<p><img src= images/blank.png width =""200"" height = ""200"" style = ""float:right""></p><p><img src=images/blank.png width =""800"" height = ""200""></p>","","","","","","","","","","","",""
"","802.1400000434369","sequential-stimulus-presentation","199","411995","0.0-38.0-1.5","SS1613142658150","trial","","40","800","1602.1400000434369","images/stimuli/spore_stims/simple_06_A_b.gif","images/stimuli/spore_stims/simple_02_A_a.gif","","","","","10","simple_dissimilar","images/stimuli/spore_stims/simple_06_A_b.gif","right","","","","",""
"","null","html-keyboard-response","200","413195","0.0-38.0-0.6","SS1613142658150","","","null","","","","","<p><img src= images/blank.png width =""200"" height = ""200"" style = ""float:right""></p><p><img src=images/blank.png width =""800"" height = ""200""></p>","","","","","","","","","","","",""
"","667.0249999733642","sequential-stimulus-presentation","201","414667","0.0-38.0-1.6","SS1613142658150","trial","","40","800","1467.0249999733642","images/stimuli/spore_stims/simple_06_A_b.gif","images/stimuli/spore_stims/simple_02_A_a.gif","","","","","10","simple_dissimilar","images/stimuli/spore_stims/simple_02_A_a.gif","middle","","","","",""
"","null","html-keyboard-response","202","415877","0.0-38.0-0.7","SS1613142658150","","","null","","","","","<p><img src= images/blank.png width =""200"" height = ""200"" style = ""float:right""></p><p><img src=images/blank.png width =""800"" height = ""200""></p>","","","","","","","","","","","",""
"","626.9600000232458","sequential-stimulus-presentation","203","417308","0.0-38.0-1.7","SS1613142658150","trial","","40","800","1426.9600000232458","images/stimuli/spore_stims/simple_06_A_b.gif","images/stimuli/spore_stims/simple_02_A_a.gif","","","","","10","simple_dissimilar","images/stimuli/spore_stims/simple_02_A_a.gif","middle","","","","",""
"","672.7700000046752","html-keyboard-response","204","417985","0.0-39.0","SS1613142658150","pref_question","","50","","","","","<video width ='960' height = '540' style='padding-top:8%' autoplay muted><source src='images/stimuli/wall_pref.mp4' type='video/mp4'></video>","2","middle","45%","10","","","","","","","",""
"","404.44000001298264","sequential-stimulus-presentation","205","419194","0.0-40.0","SS1613142658150","pref_reveal","","40","800","1204.4400000129826","null","null","","","","","10","","","","background","","","",""
"","null","html-keyboard-response","206","420366","0.0-41.0-0.0","SS1613142658150","","","null","","","","","<p><img src= images/blank.png width =""200"" height = ""200"" style = ""float:right""></p><p><img src=images/blank.png width =""800"" height = ""200""></p>","","","","","","","","","","","",""
"","656.844999990426","sequential-stimulus-presentation","207","421830","0.0-41.0-1.0","SS1613142658150","trial","","40","800","1456.844999990426","images/stimuli/spore_stims/complex_19_B_a.gif","images/stimuli/spore_stims/complex_19_A_a.gif","","","","","11","complex_similar","images/stimuli/spore_stims/complex_19_A_a.gif","left","","","","",""
"","null","html-keyboard-response","208","422637","0.0-41.0-0.1","SS1613142658150","","","null","","","","","<p><img src= images/blank.png width =""200"" height = ""200"" style = ""float:right""></p><p><img src=images/blank.png width =""800"" height = ""200""></p>","","","","","","","","","","","",""
"","4903.72500004014","sequential-stimulus-presentation","209","428345","0.0-41.0-1.1","SS1613142658150","trial","","40","800","5703.72500004014","images/stimuli/spore_stims/complex_19_B_a.gif","images/stimuli/spore_stims/complex_19_A_a.gif","","","","","11","complex_similar","images/stimuli/spore_stims/complex_19_A_a.gif","left","","","","",""
"","null","html-keyboard-response","210","429309","0.0-41.0-0.2","SS1613142658150","","","null","","","","","<p><img src= images/blank.png width =""200"" height = ""200"" style = ""float:right""></p><p><img src=images/blank.png width =""800"" height = ""200""></p>","","","","","","","","","","","",""
"","706.7699999897741","sequential-stimulus-presentation","211","430821","0.0-41.0-1.2","SS1613142658150","trial","","40","800","1506.769999989774","images/stimuli/spore_stims/complex_19_B_a.gif","images/stimuli/spore_stims/complex_19_A_a.gif","","","","","11","complex_similar","images/stimuli/spore_stims/complex_19_A_a.gif","left","","","","",""
"","null","html-keyboard-response","212","432104","0.0-41.0-0.3","SS1613142658150","","","null","","","","","<p><img src= images/blank.png width =""200"" height = ""200"" style = ""float:right""></p><p><img src=images/blank.png width =""800"" height = ""200""></p>","","","","","","","","","","","",""
"","412.81999996863306","sequential-stimulus-presentation","213","433337","0.0-41.0-1.3","SS1613142658150","trial","","40","800","1212.819999968633","images/stimuli/spore_stims/complex_19_B_a.gif","images/stimuli/spore_stims/complex_19_A_a.gif","","","","","11","complex_similar","images/stimuli/spore_stims/complex_19_A_a.gif","left","","","","",""
"","null","html-keyboard-response","214","434487","0.0-41.0-0.4","SS1613142658150","","","null","","","","","<p><img src= images/blank.png width =""200"" height = ""200"" style = ""float:right""></p><p><img src=images/blank.png width =""800"" height = ""200""></p>","","","","","","","","","","","",""
"","488.4600000223145","sequential-stimulus-presentation","215","435780","0.0-41.0-1.4","SS1613142658150","trial","","40","800","1288.4600000223145","images/stimuli/spore_stims/complex_19_B_a.gif","images/stimuli/spore_stims/complex_19_A_a.gif","","","","","11","complex_similar","images/stimuli/spore_stims/complex_19_B_a.gif","middle","","","","",""
"","null","html-keyboard-response","216","436596","0.0-41.0-0.5","SS1613142658150","","","null","","","","","<p><img src= images/blank.png width =""200"" height = ""200"" style = ""float:right""></p><p><img src=images/blank.png width =""800"" height = ""200""></p>","","","","","","","","","","","",""
"","720.8650000393391","sequential-stimulus-presentation","217","438132","0.0-41.0-1.5","SS1613142658150","trial","","40","800","1520.865000039339","images/stimuli/spore_stims/complex_19_B_a.gif","images/stimuli/spore_stims/complex_19_A_a.gif","","","","","11","complex_similar","images/stimuli/spore_stims/complex_19_A_a.gif","left","","","","",""
"","null","html-keyboard-response","218","438976","0.0-41.0-0.6","SS1613142658150","","","null","","","","","<p><img src= images/blank.png width =""200"" height = ""200"" style = ""float:right""></p><p><img src=images/blank.png width =""800"" height = ""200""></p>","","","","","","","","","","","",""
"","618.7799999606796","sequential-stimulus-presentation","219","440409","0.0-41.0-1.6","SS1613142658150","trial","","40","800","1418.7799999606796","images/stimuli/spore_stims/complex_19_B_a.gif","images/stimuli/spore_stims/complex_19_A_a.gif","","","","","11","complex_similar","images/stimuli/spore_stims/complex_19_A_a.gif","left","","","","",""
"","null","html-keyboard-response","220","441304","0.0-41.0-0.7","SS1613142658150","","","null","","","","","<p><img src= images/blank.png width =""200"" height = ""200"" style = ""float:right""></p><p><img src=images/blank.png width =""800"" height = ""200""></p>","","","","","","","","","","","",""
"","460.5650000157766","sequential-stimulus-presentation","221","442573","0.0-41.0-1.7","SS1613142658150","trial","","40","800","1260.5650000157766","images/stimuli/spore_stims/complex_19_B_a.gif","images/stimuli/spore_stims/complex_19_A_a.gif","","","","","11","complex_similar","images/stimuli/spore_stims/complex_19_A_a.gif","left","","","","",""
"","1044.6650000521913","html-keyboard-response","222","443624","0.0-42.0","SS1613142658150","pref_question","","51","","","","","<video width ='960' height = '540' style='padding-top:8%' autoplay muted><source src='images/stimuli/wall_pref.mp4' type='video/mp4'></video>","3","right","66%","11","","","","","","","",""
"","1898.014999984298","sequential-stimulus-presentation","223","446334","0.0-43.0","SS1613142658150","pref_reveal","","40","800","2698.014999984298","null","null","","","","","11","","","","novel","","","",""
"","null","html-keyboard-response","224","447365","0.0-44.0-0.0","SS1613142658150","","","null","","","","","<p><img src= images/blank.png width =""200"" height = ""200"" style = ""float:right""></p><p><img src=images/blank.png width =""800"" height = ""200""></p>","","","","","","","","","","","",""
"","1994.1950000356883","sequential-stimulus-presentation","225","450164","0.0-44.0-1.0","SS1613142658150","trial","","40","800","2794.1950000356883","images/stimuli/spore_stims/complex_05_B_a.gif","images/stimuli/spore_stims/complex_14_B_c.gif","","","","","12","complex_dissimilar","images/stimuli/spore_stims/complex_14_B_c.gif","middle","","","","",""
"","null","html-keyboard-response","226","451452","0.0-44.0-0.1","SS1613142658150","","","null","","","","","<p><img src= images/blank.png width =""200"" height = ""200"" style = ""float:right""></p><p><img src=images/blank.png width =""800"" height = ""200""></p>","","","","","","","","","","","",""
"","1052.0700000342913","sequential-stimulus-presentation","227","453309","0.0-44.0-1.1","SS1613142658150","trial","","40","800","1852.0700000342913","images/stimuli/spore_stims/complex_05_B_a.gif","images/stimuli/spore_stims/complex_14_B_c.gif","","","","","12","complex_dissimilar","images/stimuli/spore_stims/complex_14_B_c.gif","middle","","","","",""
"","null","html-keyboard-response","228","454614","0.0-44.0-0.2","SS1613142658150","","","null","","","","","<p><img src= images/blank.png width =""200"" height = ""200"" style = ""float:right""></p><p><img src=images/blank.png width =""800"" height = ""200""></p>","","","","","","","","","","","",""
"","890.3500000014901","sequential-stimulus-presentation","229","456309","0.0-44.0-1.2","SS1613142658150","trial","","40","800","1690.3500000014901","images/stimuli/spore_stims/complex_05_B_a.gif","images/stimuli/spore_stims/complex_14_B_c.gif","","","","","12","complex_dissimilar","images/stimuli/spore_stims/complex_14_B_c.gif","middle","","","","",""
"","null","html-keyboard-response","230","457469","0.0-44.0-0.3","SS1613142658150","","","null","","","","","<p><img src= images/blank.png width =""200"" height = ""200"" style = ""float:right""></p><p><img src=images/blank.png width =""800"" height = ""200""></p>","","","","","","","","","","","",""
"","649.0650000050664","sequential-stimulus-presentation","231","458923","0.0-44.0-1.3","SS1613142658150","trial","","40","800","1449.0650000050664","images/stimuli/spore_stims/complex_05_B_a.gif","images/stimuli/spore_stims/complex_14_B_c.gif","","","","","12","complex_dissimilar","images/stimuli/spore_stims/complex_14_B_c.gif","middle","","","","",""
"","null","html-keyboard-response","232","459750","0.0-44.0-0.4","SS1613142658150","","","null","","","","","<p><img src= images/blank.png width =""200"" height = ""200"" style = ""float:right""></p><p><img src=images/blank.png width =""800"" height = ""200""></p>","","","","","","","","","","","",""
"","527.8900000266731","sequential-stimulus-presentation","233","461082","0.0-44.0-1.4","SS1613142658150","trial","","40","800","1327.890000026673","images/stimuli/spore_stims/complex_05_B_a.gif","images/stimuli/spore_stims/complex_14_B_c.gif","","","","","12","complex_dissimilar","images/stimuli/spore_stims/complex_14_B_c.gif","middle","","","","",""
"","null","html-keyboard-response","234","461951","0.0-44.0-0.5","SS1613142658150","","","null","","","","","<p><img src= images/blank.png width =""200"" height = ""200"" style = ""float:right""></p><p><img src=images/blank.png width =""800"" height = ""200""></p>","","","","","","","","","","","",""
"","2568.72999999905","sequential-stimulus-presentation","235","465331","0.0-44.0-1.5","SS1613142658150","trial","","40","800","3368.72999999905","images/stimuli/spore_stims/complex_05_B_a.gif","images/stimuli/spore_stims/complex_14_B_c.gif","","","","","12","complex_dissimilar","images/stimuli/spore_stims/complex_05_B_a.gif","left","","","","",""
"","null","html-keyboard-response","236","466277","0.0-44.0-0.6","SS1613142658150","","","null","","","","","<p><img src= images/blank.png width =""200"" height = ""200"" style = ""float:right""></p><p><img src=images/blank.png width =""800"" height = ""200""></p>","","","","","","","","","","","",""
"","1688.8299999991432","sequential-stimulus-presentation","237","468771","0.0-44.0-1.6","SS1613142658150","trial","","40","800","2488.829999999143","images/stimuli/spore_stims/complex_05_B_a.gif","images/stimuli/spore_stims/complex_14_B_c.gif","","","","","12","complex_dissimilar","images/stimuli/spore_stims/complex_14_B_c.gif","middle","","","","",""
"","null","html-keyboard-response","238","470016","0.0-44.0-0.7","SS1613142658150","","","null","","","","","<p><img src= images/blank.png width =""200"" height = ""200"" style = ""float:right""></p><p><img src=images/blank.png width =""800"" height = ""200""></p>","","","","","","","","","","","",""
"","448.644999996759","sequential-stimulus-presentation","239","471271","0.0-44.0-1.7","SS1613142658150","trial","","40","800","1248.644999996759","images/stimuli/spore_stims/complex_05_B_a.gif","images/stimuli/spore_stims/complex_14_B_c.gif","","","","","12","complex_dissimilar","images/stimuli/spore_stims/complex_14_B_c.gif","middle","","","","",""
"","661.9150000042282","html-keyboard-response","240","471942","0.0-45.0","SS1613142658150","pref_question","","49","","","","","<video width ='960' height = '540' style='padding-top:8%' autoplay muted><source src='images/stimuli/wall_pref.mp4' type='video/mp4'></video>","1","left","25%","12","","","","","","","",""
"","997.014999971725","sequential-stimulus-presentation","241","473751","0.0-46.0","SS1613142658150","pref_reveal","","40","800","1797.014999971725","null","null","","","","","12","","","","deviant","","","",""
"","null","html-keyboard-response","242","474685","0.0-47.0-0.0","SS1613142658150","","","null","","","","","<p><img src= images/blank.png width =""200"" height = ""200"" style = ""float:right""></p><p><img src=images/blank.png width =""800"" height = ""200""></p>","","","","","","","","","","","",""
"","650.8349999785423","sequential-stimulus-presentation","243","476142","0.0-47.0-1.0","SS1613142658150","trial","","40","800","1450.8349999785423","images/stimuli/spore_stims/complex_20_A_c.gif","images/stimuli/spore_stims/complex_01_A_a.gif","","","","","13","complex_dissimilar","images/stimuli/spore_stims/complex_01_A_a.gif","left","","","","",""
"","null","html-keyboard-response","244","477240","0.0-47.0-0.1","SS1613142658150","","","null","","","","","<p><img src= images/blank.png width =""200"" height = ""200"" style = ""float:right""></p><p><img src=images/blank.png width =""800"" height = ""200""></p>","","","","","","","","","","","",""
"","666.8100000242703","sequential-stimulus-presentation","245","478713","0.0-47.0-1.1","SS1613142658150","trial","","40","800","1466.8100000242703","images/stimuli/spore_stims/complex_20_A_c.gif","images/stimuli/spore_stims/complex_01_A_a.gif","","","","","13","complex_dissimilar","images/stimuli/spore_stims/complex_01_A_a.gif","left","","","","",""
"","null","html-keyboard-response","246","479780","0.0-47.0-0.2","SS1613142658150","","","null","","","","","<p><img src= images/blank.png width =""200"" height = ""200"" style = ""float:right""></p><p><img src=images/blank.png width =""800"" height = ""200""></p>","","","","","","","","","","","",""
"","631.87000004109","sequential-stimulus-presentation","247","481230","0.0-47.0-1.2","SS1613142658150","trial","","40","800","1431.87000004109","images/stimuli/spore_stims/complex_20_A_c.gif","images/stimuli/spore_stims/complex_01_A_a.gif","","","","","13","complex_dissimilar","images/stimuli/spore_stims/complex_01_A_a.gif","left","","","","",""
"","null","html-keyboard-response","248","482134","0.0-47.0-0.3","SS1613142658150","","","null","","","","","<p><img src= images/blank.png width =""200"" height = ""200"" style = ""float:right""></p><p><img src=images/blank.png width =""800"" height = ""200""></p>","","","","","","","","","","","",""
"","758.3149999845773","sequential-stimulus-presentation","249","483699","0.0-47.0-1.3","SS1613142658150","trial","","40","800","1558.3149999845773","images/stimuli/spore_stims/complex_20_A_c.gif","images/stimuli/spore_stims/complex_01_A_a.gif","","","","","13","complex_dissimilar","images/stimuli/spore_stims/complex_01_A_a.gif","left","","","","",""
"","null","html-keyboard-response","250","484868","0.0-47.0-0.4","SS1613142658150","","","null","","","","","<p><img src= images/blank.png width =""200"" height = ""200"" style = ""float:right""></p><p><img src=images/blank.png width =""800"" height = ""200""></p>","","","","","","","","","","","",""
"","856.4699999988079","sequential-stimulus-presentation","251","486535","0.0-47.0-1.4","SS1613142658150","trial","","40","800","1656.469999998808","images/stimuli/spore_stims/complex_20_A_c.gif","images/stimuli/spore_stims/complex_01_A_a.gif","","","","","13","complex_dissimilar","images/stimuli/spore_stims/complex_20_A_c.gif","right","","","","",""
"","null","html-keyboard-response","252","487405","0.0-47.0-0.5","SS1613142658150","","","null","","","","","<p><img src= images/blank.png width =""200"" height = ""200"" style = ""float:right""></p><p><img src=images/blank.png width =""800"" height = ""200""></p>","","","","","","","","","","","",""
"","732.9349999781698","sequential-stimulus-presentation","253","488945","0.0-47.0-1.5","SS1613142658150","trial","","40","800","1532.9349999781698","images/stimuli/spore_stims/complex_20_A_c.gif","images/stimuli/spore_stims/complex_01_A_a.gif","","","","","13","complex_dissimilar","images/stimuli/spore_stims/complex_01_A_a.gif","left","","","","",""
"","null","html-keyboard-response","254","490106","0.0-47.0-0.6","SS1613142658150","","","null","","","","","<p><img src= images/blank.png width =""200"" height = ""200"" style = ""float:right""></p><p><img src=images/blank.png width =""800"" height = ""200""></p>","","","","","","","","","","","",""
"","368.64000000059605","sequential-stimulus-presentation","255","491280","0.0-47.0-1.6","SS1613142658150","trial","","40","800","1168.640000000596","images/stimuli/spore_stims/complex_20_A_c.gif","images/stimuli/spore_stims/complex_01_A_a.gif","","","","","13","complex_dissimilar","images/stimuli/spore_stims/complex_01_A_a.gif","left","","","","",""
"","null","html-keyboard-response","256","492335","0.0-47.0-0.7","SS1613142658150","","","null","","","","","<p><img src= images/blank.png width =""200"" height = ""200"" style = ""float:right""></p><p><img src=images/blank.png width =""800"" height = ""200""></p>","","","","","","","","","","","",""
"","482.819999975618","sequential-stimulus-presentation","257","493628","0.0-47.0-1.7","SS1613142658150","trial","","40","800","1282.819999975618","images/stimuli/spore_stims/complex_20_A_c.gif","images/stimuli/spore_stims/complex_01_A_a.gif","","","","","13","complex_dissimilar","images/stimuli/spore_stims/complex_01_A_a.gif","left","","","","",""
"","824.6250000083819","html-keyboard-response","258","494457","0.0-48.0","SS1613142658150","pref_question","","50","","","","","<video width ='960' height = '540' style='padding-top:8%' autoplay muted><source src='images/stimuli/wall_pref.mp4' type='video/mp4'></video>","2","middle","45%","13","","","","","","","",""
"","1004.9599999911152","sequential-stimulus-presentation","259","496273","0.0-49.0","SS1613142658150","pref_reveal","","40","800","1804.9599999911152","null","null","","","","","13","","","","novel","","","",""
"","null","html-keyboard-response","260","497258","0.0-50.0-0.0","SS1613142658150","","","null","","","","","<p><img src= images/blank.png width =""200"" height = ""200"" style = ""float:right""></p><p><img src=images/blank.png width =""800"" height = ""200""></p>","","","","","","","","","","","",""
"","1029.195000010077","sequential-stimulus-presentation","261","499092","0.0-50.0-1.0","SS1613142658150","trial","","40","800","1829.195000010077","images/stimuli/spore_stims/complex_15_A_b.gif","images/stimuli/spore_stims/complex_02_A_a.gif","","","","","14","complex_dissimilar","images/stimuli/spore_stims/complex_02_A_a.gif","left","","","","",""
"","null","html-keyboard-response","262","500388","0.0-50.0-0.1","SS1613142658150","","","null","","","","","<p><img src= images/blank.png width =""200"" height = ""200"" style = ""float:right""></p><p><img src=images/blank.png width =""800"" height = ""200""></p>","","","","","","","","","","","",""
"","1524.5649999706075","sequential-stimulus-presentation","263","502724","0.0-50.0-1.1","SS1613142658150","trial","","40","800","2324.5649999706075","images/stimuli/spore_stims/complex_15_A_b.gif","images/stimuli/spore_stims/complex_02_A_a.gif","","","","","14","complex_dissimilar","images/stimuli/spore_stims/complex_02_A_a.gif","left","","","","",""
"","null","html-keyboard-response","264","503556","0.0-50.0-0.2","SS1613142658150","","","null","","","","","<p><img src= images/blank.png width =""200"" height = ""200"" style = ""float:right""></p><p><img src=images/blank.png width =""800"" height = ""200""></p>","","","","","","","","","","","",""
"","862.3050000169314","sequential-stimulus-presentation","265","505226","0.0-50.0-1.2","SS1613142658150","trial","","40","800","1662.3050000169314","images/stimuli/spore_stims/complex_15_A_b.gif","images/stimuli/spore_stims/complex_02_A_a.gif","","","","","14","complex_dissimilar","images/stimuli/spore_stims/complex_02_A_a.gif","left","","","","",""
"","null","html-keyboard-response","266","506060","0.0-50.0-0.3","SS1613142658150","","","null","","","","","<p><img src= images/blank.png width =""200"" height = ""200"" style = ""float:right""></p><p><img src=images/blank.png width =""800"" height = ""200""></p>","","","","","","","","","","","",""
"","667.4300000304356","sequential-stimulus-presentation","267","507545","0.0-50.0-1.3","SS1613142658150","trial","","40","800","1467.4300000304356","images/stimuli/spore_stims/complex_15_A_b.gif","images/stimuli/spore_stims/complex_02_A_a.gif","","","","","14","complex_dissimilar","images/stimuli/spore_stims/complex_15_A_b.gif","middle","","","","",""
"","null","html-keyboard-response","268","508836","0.0-50.0-0.4","SS1613142658150","","","null","","","","","<p><img src= images/blank.png width =""200"" height = ""200"" style = ""float:right""></p><p><img src=images/blank.png width =""800"" height = ""200""></p>","","","","","","","","","","","",""
"","632.0450000348501","sequential-stimulus-presentation","269","510277","0.0-50.0-1.4","SS1613142658150","trial","","40","800","1432.04500003485","images/stimuli/spore_stims/complex_15_A_b.gif","images/stimuli/spore_stims/complex_02_A_a.gif","","","","","14","complex_dissimilar","images/stimuli/spore_stims/complex_02_A_a.gif","left","","","","",""
"","null","html-keyboard-response","270","511163","0.0-50.0-0.5","SS1613142658150","","","null","","","","","<p><img src= images/blank.png width =""200"" height = ""200"" style = ""float:right""></p><p><img src=images/blank.png width =""800"" height = ""200""></p>","","","","","","","","","","","",""
"","607.7049999730662","sequential-stimulus-presentation","271","512581","0.0-50.0-1.5","SS1613142658150","trial","","40","800","1407.7049999730662","images/stimuli/spore_stims/complex_15_A_b.gif","images/stimuli/spore_stims/complex_02_A_a.gif","","","","","14","complex_dissimilar","images/stimuli/spore_stims/complex_02_A_a.gif","left","","","","",""
"","null","html-keyboard-response","272","513862","0.0-50.0-0.6","SS1613142658150","","","null","","","","","<p><img src= images/blank.png width =""200"" height = ""200"" style = ""float:right""></p><p><img src=images/blank.png width =""800"" height = ""200""></p>","","","","","","","","","","","",""
"","621.0349999601021","sequential-stimulus-presentation","273","515293","0.0-50.0-1.6","SS1613142658150","trial","","40","800","1421.0349999601021","images/stimuli/spore_stims/complex_15_A_b.gif","images/stimuli/spore_stims/complex_02_A_a.gif","","","","","14","complex_dissimilar","images/stimuli/spore_stims/complex_02_A_a.gif","left","","","","",""
"","null","html-keyboard-response","274","516581","0.0-50.0-0.7","SS1613142658150","","","null","","","","","<p><img src= images/blank.png width =""200"" height = ""200"" style = ""float:right""></p><p><img src=images/blank.png width =""800"" height = ""200""></p>","","","","","","","","","","","",""
"","519.849999982398","sequential-stimulus-presentation","275","517906","0.0-50.0-1.7","SS1613142658150","trial","","40","800","1319.849999982398","images/stimuli/spore_stims/complex_15_A_b.gif","images/stimuli/spore_stims/complex_02_A_a.gif","","","","","14","complex_dissimilar","images/stimuli/spore_stims/complex_02_A_a.gif","left","","","","",""
"","960.0150000187568","html-keyboard-response","276","518870","0.0-51.0","SS1613142658150","pref_question","","50","","","","","<video width ='960' height = '540' style='padding-top:8%' autoplay muted><source src='images/stimuli/wall_pref.mp4' type='video/mp4'></video>","2","middle","45%","14","","","","","","","",""
"","878.5100000095554","sequential-stimulus-presentation","277","520560","0.0-52.0","SS1613142658150","pref_reveal","","40","800","1678.5100000095554","null","null","","","","","14","","","","deviant","","","",""
"","null","html-keyboard-response","278","521552","0.0-53.0-0.0","SS1613142658150","","","null","","","","","<p><img src= images/blank.png width =""200"" height = ""200"" style = ""float:right""></p><p><img src=images/blank.png width =""800"" height = ""200""></p>","","","","","","","","","","","",""
"","32821.67999999365","sequential-stimulus-presentation","279","555192","0.0-53.0-1.0","SS1613142658150","trial","","40","800","33621.67999999365","images/stimuli/spore_stims/complex_15_A_b.gif","images/stimuli/spore_stims/complex_15_B_b.gif","","","","","15","complex_similar","images/stimuli/spore_stims/complex_15_B_b.gif","left","","","","",""
"","null","html-keyboard-response","280","556478","0.0-53.0-0.1","SS1613142658150","","","null","","","","","<p><img src= images/blank.png width =""200"" height = ""200"" style = ""float:right""></p><p><img src=images/blank.png width =""800"" height = ""200""></p>","","","","","","","","","","","",""
"","647.9699999908917","sequential-stimulus-presentation","281","557931","0.0-53.0-1.1","SS1613142658150","trial","","40","800","1447.9699999908917","images/stimuli/spore_stims/complex_15_A_b.gif","images/stimuli/spore_stims/complex_15_B_b.gif","","","","","15","complex_similar","images/stimuli/spore_stims/complex_15_B_b.gif","left","","","","",""
"","null","html-keyboard-response","282","558850","0.0-53.0-0.2","SS1613142658150","","","null","","","","","<p><img src= images/blank.png width =""200"" height = ""200"" style = ""float:right""></p><p><img src=images/blank.png width =""800"" height = ""200""></p>","","","","","","","","","","","",""
"","13485.304999980144","sequential-stimulus-presentation","283","573157","0.0-53.0-1.2","SS1613142658150","trial","","40","800","14285.304999980144","images/stimuli/spore_stims/complex_15_A_b.gif","images/stimuli/spore_stims/complex_15_B_b.gif","","","","","15","complex_similar","images/stimuli/spore_stims/complex_15_B_b.gif","left","","","","",""
"","null","html-keyboard-response","284","574239","0.0-53.0-0.3","SS1613142658150","","","null","","","","","<p><img src= images/blank.png width =""200"" height = ""200"" style = ""float:right""></p><p><img src=images/blank.png width =""800"" height = ""200""></p>","","","","","","","","","","","",""
"","543.695000000298","sequential-stimulus-presentation","285","575588","0.0-53.0-1.3","SS1613142658150","trial","","40","800","1343.695000000298","images/stimuli/spore_stims/complex_15_A_b.gif","images/stimuli/spore_stims/complex_15_B_b.gif","","","","","15","complex_similar","images/stimuli/spore_stims/complex_15_B_b.gif","left","","","","",""
"","null","html-keyboard-response","286","576613","0.0-53.0-0.4","SS1613142658150","","","null","","","","","<p><img src= images/blank.png width =""200"" height = ""200"" style = ""float:right""></p><p><img src=images/blank.png width =""800"" height = ""200""></p>","","","","","","","","","","","",""
"","517.5900000031106","sequential-stimulus-presentation","287","577935","0.0-53.0-1.4","SS1613142658150","trial","","40","800","1317.5900000031106","images/stimuli/spore_stims/complex_15_A_b.gif","images/stimuli/spore_stims/complex_15_B_b.gif","","","","","15","complex_similar","images/stimuli/spore_stims/complex_15_B_b.gif","left","","","","",""
"","null","html-keyboard-response","288","578986","0.0-53.0-0.5","SS1613142658150","","","null","","","","","<p><img src= images/blank.png width =""200"" height = ""200"" style = ""float:right""></p><p><img src=images/blank.png width =""800"" height = ""200""></p>","","","","","","","","","","","",""
"","380.4799999925308","sequential-stimulus-presentation","289","580173","0.0-53.0-1.5","SS1613142658150","trial","","40","800","1180.4799999925308","images/stimuli/spore_stims/complex_15_A_b.gif","images/stimuli/spore_stims/complex_15_B_b.gif","","","","","15","complex_similar","images/stimuli/spore_stims/complex_15_B_b.gif","left","","","","",""
"","null","html-keyboard-response","290","581197","0.0-53.0-0.6","SS1613142658150","","","null","","","","","<p><img src= images/blank.png width =""200"" height = ""200"" style = ""float:right""></p><p><img src=images/blank.png width =""800"" height = ""200""></p>","","","","","","","","","","","",""
"","410.1449999725446","sequential-stimulus-presentation","291","582414","0.0-53.0-1.6","SS1613142658150","trial","","40","800","1210.1449999725446","images/stimuli/spore_stims/complex_15_A_b.gif","images/stimuli/spore_stims/complex_15_B_b.gif","","","","","15","complex_similar","images/stimuli/spore_stims/complex_15_B_b.gif","left","","","","",""
"","null","html-keyboard-response","292","583536","0.0-53.0-0.7","SS1613142658150","","","null","","","","","<p><img src= images/blank.png width =""200"" height = ""200"" style = ""float:right""></p><p><img src=images/blank.png width =""800"" height = ""200""></p>","","","","","","","","","","","",""
"","761.7249999893829","sequential-stimulus-presentation","293","585103","0.0-53.0-1.7","SS1613142658150","trial","","40","800","1561.724999989383","images/stimuli/spore_stims/complex_15_A_b.gif","images/stimuli/spore_stims/complex_15_B_b.gif","","","","","15","complex_similar","images/stimuli/spore_stims/complex_15_A_b.gif","right","","","","",""
"","1150.1849999767728","html-keyboard-response","294","586260","0.0-54.0","SS1613142658150","pref_question","","49","","","","","<video width ='960' height = '540' style='padding-top:8%' autoplay muted><source src='images/stimuli/wall_pref.mp4' type='video/mp4'></video>","1","left","25%","15","","","","","","","",""
"","565.5050000059418","sequential-stimulus-presentation","295","587631","0.0-55.0","SS1613142658150","pref_reveal","","40","800","1365.5050000059418","null","null","","","","","15","","","","background","","","",""
"","null","html-keyboard-response","296","588676","0.0-56.0-0.0","SS1613142658150","","","null","","","","","<p><img src= images/blank.png width =""200"" height = ""200"" style = ""float:right""></p><p><img src=images/blank.png width =""800"" height = ""200""></p>","","","","","","","","","","","",""
"","425.8250000420958","sequential-stimulus-presentation","297","589914","0.0-56.0-1.0","SS1613142658150","trial","","40","800","1225.8250000420958","images/stimuli/spore_stims/complex_03_A_c.gif","images/stimuli/spore_stims/complex_16_B_a.gif","","","","","16","complex_dissimilar","images/stimuli/spore_stims/complex_16_B_a.gif","middle","","","","",""
"","null","html-keyboard-response","298","590924","0.0-56.0-0.1","SS1613142658150","","","null","","","","","<p><img src= images/blank.png width =""200"" height = ""200"" style = ""float:right""></p><p><img src=images/blank.png width =""800"" height = ""200""></p>","","","","","","","","","","","",""
"","548.4549999819137","sequential-stimulus-presentation","299","592281","0.0-56.0-1.1","SS1613142658150","trial","","40","800","1348.4549999819137","images/stimuli/spore_stims/complex_03_A_c.gif","images/stimuli/spore_stims/complex_16_B_a.gif","","","","","16","complex_dissimilar","images/stimuli/spore_stims/complex_16_B_a.gif","middle","","","","",""
"","null","html-keyboard-response","300","593506","0.0-56.0-0.2","SS1613142658150","","","null","","","","","<p><img src= images/blank.png width =""200"" height = ""200"" style = ""float:right""></p><p><img src=images/blank.png width =""800"" height = ""200""></p>","","","","","","","","","","","",""
"","429.42000000039116","sequential-stimulus-presentation","301","594745","0.0-56.0-1.2","SS1613142658150","trial","","40","800","1229.4200000003912","images/stimuli/spore_stims/complex_03_A_c.gif","images/stimuli/spore_stims/complex_16_B_a.gif","","","","","16","complex_dissimilar","images/stimuli/spore_stims/complex_16_B_a.gif","middle","","","","",""
"","null","html-keyboard-response","302","595653","0.0-56.0-0.3","SS1613142658150","","","null","","","","","<p><img src= images/blank.png width =""200"" height = ""200"" style = ""float:right""></p><p><img src=images/blank.png width =""800"" height = ""200""></p>","","","","","","","","","","","",""
"","704.1750000207685","sequential-stimulus-presentation","303","597162","0.0-56.0-1.3","SS1613142658150","trial","","40","800","1504.1750000207685","images/stimuli/spore_stims/complex_03_A_c.gif","images/stimuli/spore_stims/complex_16_B_a.gif","","","","","16","complex_dissimilar","images/stimuli/spore_stims/complex_16_B_a.gif","middle","","","","",""
"","null","html-keyboard-response","304","597976","0.0-56.0-0.4","SS1613142658150","","","null","","","","","<p><img src= images/blank.png width =""200"" height = ""200"" style = ""float:right""></p><p><img src=images/blank.png width =""800"" height = ""200""></p>","","","","","","","","","","","",""
"","527.7050000149757","sequential-stimulus-presentation","305","599310","0.0-56.0-1.4","SS1613142658150","trial","","40","800","1327.7050000149757","images/stimuli/spore_stims/complex_03_A_c.gif","images/stimuli/spore_stims/complex_16_B_a.gif","","","","","16","complex_dissimilar","images/stimuli/spore_stims/complex_16_B_a.gif","middle","","","","",""
"","null","html-keyboard-response","306","600482","0.0-56.0-0.5","SS1613142658150","","","null","","","","","<p><img src= images/blank.png width =""200"" height = ""200"" style = ""float:right""></p><p><img src=images/blank.png width =""800"" height = ""200""></p>","","","","","","","","","","","",""
"","0.13000000035390258","sequential-stimulus-presentation","307","601293","0.0-56.0-1.5","SS1613142658150","trial","","40","800","800.1300000003539","images/stimuli/spore_stims/complex_03_A_c.gif","images/stimuli/spore_stims/complex_16_B_a.gif","","","","","16","complex_dissimilar","images/stimuli/spore_stims/complex_16_B_a.gif","middle","","","","",""
"","null","html-keyboard-response","308","602301","0.0-56.0-0.6","SS1613142658150","","","null","","","","","<p><img src= images/blank.png width =""200"" height = ""200"" style = ""float:right""></p><p><img src=images/blank.png width =""800"" height = ""200""></p>","","","","","","","","","","","",""
"","675.5850000190549","sequential-stimulus-presentation","309","603788","0.0-56.0-1.6","SS1613142658150","trial","","40","800","1475.5850000190549","images/stimuli/spore_stims/complex_03_A_c.gif","images/stimuli/spore_stims/complex_16_B_a.gif","","","","","16","complex_dissimilar","images/stimuli/spore_stims/complex_16_B_a.gif","middle","","","","",""
"","null","html-keyboard-response","310","604624","0.0-56.0-0.7","SS1613142658150","","","null","","","","","<p><img src= images/blank.png width =""200"" height = ""200"" style = ""float:right""></p><p><img src=images/blank.png width =""800"" height = ""200""></p>","","","","","","","","","","","",""
"","1046.1249999934807","sequential-stimulus-presentation","311","606479","0.0-56.0-1.7","SS1613142658150","trial","","40","800","1846.1249999934807","images/stimuli/spore_stims/complex_03_A_c.gif","images/stimuli/spore_stims/complex_16_B_a.gif","","","","","16","complex_dissimilar","images/stimuli/spore_stims/complex_03_A_c.gif","right","","","","",""
"","1168.1549999630079","html-keyboard-response","312","607651","0.0-57.0","SS1613142658150","pref_question","","50","","","","","<video width ='960' height = '540' style='padding-top:8%' autoplay muted><source src='images/stimuli/wall_pref.mp4' type='video/mp4'></video>","2","middle","45%","16","","","","","","","",""
