"view_history","rt","trial_type","trial_index","time_elapsed","internal_node_id","subject","stimulus_type","trial_stimulus","key_press","minimum_viewing_duration","trial_looking_time","block_deviant","block_background","stimulus","wall_pref","location","location_percent","block_number","block_type","stimulus_displayed","position_displayed","stim_type_selected"
"[{""page_index"":0,""viewing_time"":5041.999999899417}]","5044.000000227243","instructions","0","5046","0.0-0.0","SS1613099892112","","","","","","","","","","","","","","","",""
"[{""page_index"":0,""viewing_time"":2516.9999999925494},{""page_index"":1,""viewing_time"":4121.999999973923}]","6639.999999664724","instructions","1","13702","0.0-1.0","SS1613099892112","instructions","","","","","","","","","","","","","","",""
"","54410.99999984726","sequential-stimulus-presentation","2","68928","0.0-2.0","SS1613099892112","","","40","800","55210.99999984726","null","null","","","","","","","","",""
"","4196.999999694526","sequential-stimulus-presentation","3","73932","0.0-3.0","SS1613099892112","","","40","800","4996.999999694526","null","null","","","","","","","","",""
"[{""page_index"":0,""viewing_time"":9099.999999627471}]","9111.99999973178","instructions","4","83045","0.0-4.0","SS1613099892112","instructions","","","","","","","","","","","","","","",""
"","25219.00000004098","html-keyboard-response","5","108272","0.0-5.0","SS1613099892112","instructions","","50","","","","","<video width ='960' height = '540' autoplay muted><source src='images/stimuli/wall_pref.mp4' type='video/mp4'></video>","2","middle","45%","","","","",""
"","6870.000000111759","sequential-stimulus-presentation","6","115951","0.0-6.0","SS1613099892112","pref_reveal","","40","800","7670.000000111759","null","null","","","","","","","","",""
"[{""page_index"":0,""viewing_time"":4439.000000245869},{""page_index"":1,""viewing_time"":6170.999999623746},{""page_index"":2,""viewing_time"":2167.0000003650784},{""page_index"":3,""viewing_time"":2742.999999783933}]","15530.999999959022","instructions","7","131485","0.0-7.0","SS1613099892112","instructions","","","","","","","","","","","","","","",""
"","null","html-keyboard-response","8","132552","0.0-8.0-0.0","SS1613099892112","","","null","","","","","<p><img src= images/blank.png width =""200"" height = ""200"" style = ""float:right""></p><p><img src=images/blank.png width =""800"" height = ""200""></p>","","","","","","","",""
"","6945.999999996275","sequential-stimulus-presentation","9","140310","0.0-8.0-1.0","SS1613099892112","trial","","40","800","7745.999999996275","images/stimuli/spore_stims/simple_19_B_c.gif","images/stimuli/spore_stims/simple_19_A_c.gif","","","","","0","simple_similar","images/stimuli/spore_stims/simple_19_A_c.gif","left",""
"","null","html-keyboard-response","10","141590","0.0-8.0-0.1","SS1613099892112","","","null","","","","","<p><img src= images/blank.png width =""200"" height = ""200"" style = ""float:right""></p><p><img src=images/blank.png width =""800"" height = ""200""></p>","","","","","","","",""
"","3238.9999995939434","sequential-stimulus-presentation","11","145635","0.0-8.0-1.1","SS1613099892112","trial","","40","800","4038.9999995939434","images/stimuli/spore_stims/simple_19_B_c.gif","images/stimuli/spore_stims/simple_19_A_c.gif","","","","","0","simple_similar","images/stimuli/spore_stims/simple_19_A_c.gif","left",""
"","null","html-keyboard-response","12","146592","0.0-8.0-0.2","SS1613099892112","","","null","","","","","<p><img src= images/blank.png width =""200"" height = ""200"" style = ""float:right""></p><p><img src=images/blank.png width =""800"" height = ""200""></p>","","","","","","","",""
"","153.00000039860606","sequential-stimulus-presentation","13","147558","0.0-8.0-1.2","SS1613099892112","trial","","40","800","953.0000003986061","images/stimuli/spore_stims/simple_19_B_c.gif","images/stimuli/spore_stims/simple_19_A_c.gif","","","","","0","simple_similar","images/stimuli/spore_stims/simple_19_A_c.gif","left",""
"","null","html-keyboard-response","14","148659","0.0-8.0-0.3","SS1613099892112","","","null","","","","","<p><img src= images/blank.png width =""200"" height = ""200"" style = ""float:right""></p><p><img src=images/blank.png width =""800"" height = ""200""></p>","","","","","","","",""
"","665.9999997355044","sequential-stimulus-presentation","15","150140","0.0-8.0-1.3","SS1613099892112","trial","","40","800","1465.9999997355044","images/stimuli/spore_stims/simple_19_B_c.gif","images/stimuli/spore_stims/simple_19_A_c.gif","","","","","0","simple_similar","images/stimuli/spore_stims/simple_19_A_c.gif","left",""
"","null","html-keyboard-response","16","151152","0.0-8.0-0.4","SS1613099892112","","","null","","","","","<p><img src= images/blank.png width =""200"" height = ""200"" style = ""float:right""></p><p><img src=images/blank.png width =""800"" height = ""200""></p>","","","","","","","",""
"","1969.0000000409782","sequential-stimulus-presentation","17","153929","0.0-8.0-1.4","SS1613099892112","trial","","40","800","2769.000000040978","images/stimuli/spore_stims/simple_19_B_c.gif","images/stimuli/spore_stims/simple_19_A_c.gif","","","","","0","simple_similar","images/stimuli/spore_stims/simple_19_A_c.gif","left",""
"","null","html-keyboard-response","18","154759","0.0-8.0-0.5","SS1613099892112","","","null","","","","","<p><img src= images/blank.png width =""200"" height = ""200"" style = ""float:right""></p><p><img src=images/blank.png width =""800"" height = ""200""></p>","","","","","","","",""
"","1521.0000001825392","sequential-stimulus-presentation","19","157091","0.0-8.0-1.5","SS1613099892112","trial","","40","800","2321.000000182539","images/stimuli/spore_stims/simple_19_B_c.gif","images/stimuli/spore_stims/simple_19_A_c.gif","","","","","0","simple_similar","images/stimuli/spore_stims/simple_19_A_c.gif","left",""
"","null","html-keyboard-response","20","157940","0.0-8.0-0.6","SS1613099892112","","","null","","","","","<p><img src= images/blank.png width =""200"" height = ""200"" style = ""float:right""></p><p><img src=images/blank.png width =""800"" height = ""200""></p>","","","","","","","",""
"","305.00000016763806","sequential-stimulus-presentation","21","159063","0.0-8.0-1.6","SS1613099892112","trial","","40","800","1105.000000167638","images/stimuli/spore_stims/simple_19_B_c.gif","images/stimuli/spore_stims/simple_19_A_c.gif","","","","","0","simple_similar","images/stimuli/spore_stims/simple_19_B_c.gif","middle",""
"","null","html-keyboard-response","22","160094","0.0-8.0-0.7","SS1613099892112","","","null","","","","","<p><img src= images/blank.png width =""200"" height = ""200"" style = ""float:right""></p><p><img src=images/blank.png width =""800"" height = ""200""></p>","","","","","","","",""
"","907.0000001229346","sequential-stimulus-presentation","23","161807","0.0-8.0-1.7","SS1613099892112","trial","","40","800","1707.0000001229346","images/stimuli/spore_stims/simple_19_B_c.gif","images/stimuli/spore_stims/simple_19_A_c.gif","","","","","0","simple_similar","images/stimuli/spore_stims/simple_19_A_c.gif","left",""
"","8600.999999791384","html-keyboard-response","24","170408","0.0-9.0","SS1613099892112","pref_question","","50","","","","","<video width ='960' height = '540' style='padding-top:8%' autoplay muted><source src='images/stimuli/wall_pref.mp4' type='video/mp4'></video>","2","middle","45%","0","","","",""
"","17707.00000040233","sequential-stimulus-presentation","25","188916","0.0-10.0","SS1613099892112","pref_reveal","","40","800","18507.00000040233","null","null","","","","","0","","","","deviant"
"","null","html-keyboard-response","26","190017","0.0-11.0-0.0","SS1613099892112","","","null","","","","","<p><img src= images/blank.png width =""200"" height = ""200"" style = ""float:right""></p><p><img src=images/blank.png width =""800"" height = ""200""></p>","","","","","","","",""
"","4837.999999988824","sequential-stimulus-presentation","27","195670","0.0-11.0-1.0","SS1613099892112","trial","","40","800","5637.999999988824","images/stimuli/spore_stims/complex_12_B_d.gif","images/stimuli/spore_stims/complex_12_A_d.gif","","","","","1","complex_similar","images/stimuli/spore_stims/complex_12_A_d.gif","right",""
"","null","html-keyboard-response","28","196493","0.0-11.0-0.1","SS1613099892112","","","null","","","","","<p><img src= images/blank.png width =""200"" height = ""200"" style = ""float:right""></p><p><img src=images/blank.png width =""800"" height = ""200""></p>","","","","","","","",""
"","3109.0000001713634","sequential-stimulus-presentation","29","200417","0.0-11.0-1.1","SS1613099892112","trial","","40","800","3909.0000001713634","images/stimuli/spore_stims/complex_12_B_d.gif","images/stimuli/spore_stims/complex_12_A_d.gif","","","","","1","complex_similar","images/stimuli/spore_stims/complex_12_A_d.gif","right",""
"","null","html-keyboard-response","30","201565","0.0-11.0-0.2","SS1613099892112","","","null","","","","","<p><img src= images/blank.png width =""200"" height = ""200"" style = ""float:right""></p><p><img src=images/blank.png width =""800"" height = ""200""></p>","","","","","","","",""
"","5043.00000006333","sequential-stimulus-presentation","31","207417","0.0-11.0-1.2","SS1613099892112","trial","","40","800","5843.00000006333","images/stimuli/spore_stims/complex_12_B_d.gif","images/stimuli/spore_stims/complex_12_A_d.gif","","","","","1","complex_similar","images/stimuli/spore_stims/complex_12_B_d.gif","middle",""
"","null","html-keyboard-response","32","208563","0.0-11.0-0.3","SS1613099892112","","","null","","","","","<p><img src= images/blank.png width =""200"" height = ""200"" style = ""float:right""></p><p><img src=images/blank.png width =""800"" height = ""200""></p>","","","","","","","",""
"","2445.000000298023","sequential-stimulus-presentation","33","211817","0.0-11.0-1.3","SS1613099892112","trial","","40","800","3245.000000298023","images/stimuli/spore_stims/complex_12_B_d.gif","images/stimuli/spore_stims/complex_12_A_d.gif","","","","","1","complex_similar","images/stimuli/spore_stims/complex_12_A_d.gif","right",""
"","null","html-keyboard-response","34","212725","0.0-11.0-0.4","SS1613099892112","","","null","","","","","<p><img src= images/blank.png width =""200"" height = ""200"" style = ""float:right""></p><p><img src=images/blank.png width =""800"" height = ""200""></p>","","","","","","","",""
"","1814.9999999441206","sequential-stimulus-presentation","35","215354","0.0-11.0-1.4","SS1613099892112","trial","","40","800","2614.9999999441206","images/stimuli/spore_stims/complex_12_B_d.gif","images/stimuli/spore_stims/complex_12_A_d.gif","","","","","1","complex_similar","images/stimuli/spore_stims/complex_12_A_d.gif","right",""
"","null","html-keyboard-response","36","216478","0.0-11.0-0.5","SS1613099892112","","","null","","","","","<p><img src= images/blank.png width =""200"" height = ""200"" style = ""float:right""></p><p><img src=images/blank.png width =""800"" height = ""200""></p>","","","","","","","",""
"","1237.0000001974404","sequential-stimulus-presentation","37","218523","0.0-11.0-1.5","SS1613099892112","trial","","40","800","2037.0000001974404","images/stimuli/spore_stims/complex_12_B_d.gif","images/stimuli/spore_stims/complex_12_A_d.gif","","","","","1","complex_similar","images/stimuli/spore_stims/complex_12_A_d.gif","right",""
"","null","html-keyboard-response","38","219801","0.0-11.0-0.6","SS1613099892112","","","null","","","","","<p><img src= images/blank.png width =""200"" height = ""200"" style = ""float:right""></p><p><img src=images/blank.png width =""800"" height = ""200""></p>","","","","","","","",""
"","7830.000000074506","sequential-stimulus-presentation","39","228444","0.0-11.0-1.6","SS1613099892112","trial","","40","800","8630.000000074506","images/stimuli/spore_stims/complex_12_B_d.gif","images/stimuli/spore_stims/complex_12_A_d.gif","","","","","1","complex_similar","images/stimuli/spore_stims/complex_12_A_d.gif","right",""
"","null","html-keyboard-response","40","229318","0.0-11.0-0.7","SS1613099892112","","","null","","","","","<p><img src= images/blank.png width =""200"" height = ""200"" style = ""float:right""></p><p><img src=images/blank.png width =""800"" height = ""200""></p>","","","","","","","",""
"","783.0000002868474","sequential-stimulus-presentation","41","230918","0.0-11.0-1.7","SS1613099892112","trial","","40","800","1583.0000002868474","images/stimuli/spore_stims/complex_12_B_d.gif","images/stimuli/spore_stims/complex_12_A_d.gif","","","","","1","complex_similar","images/stimuli/spore_stims/complex_12_A_d.gif","right",""
"","3205.000000074506","html-keyboard-response","42","234134","0.0-12.0","SS1613099892112","pref_question","","51","","","","","<video width ='960' height = '540' style='padding-top:8%' autoplay muted><source src='images/stimuli/wall_pref.mp4' type='video/mp4'></video>","3","right","66%","1","","","",""
"","3450.999999884516","sequential-stimulus-presentation","43","238392","0.0-13.0","SS1613099892112","pref_reveal","","40","800","4250.999999884516","null","null","","","","","1","","","","background"
"","null","html-keyboard-response","44","239226","0.0-14.0-0.0","SS1613099892112","","","null","","","","","<p><img src= images/blank.png width =""200"" height = ""200"" style = ""float:right""></p><p><img src=images/blank.png width =""800"" height = ""200""></p>","","","","","","","",""
"","4206.99999993667","sequential-stimulus-presentation","45","244239","0.0-14.0-1.0","SS1613099892112","trial","","40","800","5006.99999993667","images/stimuli/spore_stims/complex_03_A_b.gif","images/stimuli/spore_stims/complex_06_A_c.gif","","","","","2","complex_dissimilar","images/stimuli/spore_stims/complex_06_A_c.gif","left",""
"","null","html-keyboard-response","46","245405","0.0-14.0-0.1","SS1613099892112","","","null","","","","","<p><img src= images/blank.png width =""200"" height = ""200"" style = ""float:right""></p><p><img src=images/blank.png width =""800"" height = ""200""></p>","","","","","","","",""
"","312.9999996162951","sequential-stimulus-presentation","47","246533","0.0-14.0-1.1","SS1613099892112","trial","","40","800","1112.999999616295","images/stimuli/spore_stims/complex_03_A_b.gif","images/stimuli/spore_stims/complex_06_A_c.gif","","","","","2","complex_dissimilar","images/stimuli/spore_stims/complex_06_A_c.gif","left",""
"","null","html-keyboard-response","48","247429","0.0-14.0-0.2","SS1613099892112","","","null","","","","","<p><img src= images/blank.png width =""200"" height = ""200"" style = ""float:right""></p><p><img src=images/blank.png width =""800"" height = ""200""></p>","","","","","","","",""
"","89.99999985098839","sequential-stimulus-presentation","49","248326","0.0-14.0-1.2","SS1613099892112","trial","","40","800","889.9999998509884","images/stimuli/spore_stims/complex_03_A_b.gif","images/stimuli/spore_stims/complex_06_A_c.gif","","","","","2","complex_dissimilar","images/stimuli/spore_stims/complex_06_A_c.gif","left",""
"","null","html-keyboard-response","50","249157","0.0-14.0-0.3","SS1613099892112","","","null","","","","","<p><img src= images/blank.png width =""200"" height = ""200"" style = ""float:right""></p><p><img src=images/blank.png width =""800"" height = ""200""></p>","","","","","","","",""
"","230.99999967962503","sequential-stimulus-presentation","51","250197","0.0-14.0-1.3","SS1613099892112","trial","","40","800","1030.999999679625","images/stimuli/spore_stims/complex_03_A_b.gif","images/stimuli/spore_stims/complex_06_A_c.gif","","","","","2","complex_dissimilar","images/stimuli/spore_stims/complex_03_A_b.gif","middle",""
"","null","html-keyboard-response","52","251128","0.0-14.0-0.4","SS1613099892112","","","null","","","","","<p><img src= images/blank.png width =""200"" height = ""200"" style = ""float:right""></p><p><img src=images/blank.png width =""800"" height = ""200""></p>","","","","","","","",""
"","1720.000000204891","sequential-stimulus-presentation","53","253657","0.0-14.0-1.4","SS1613099892112","trial","","40","800","2520.000000204891","images/stimuli/spore_stims/complex_03_A_b.gif","images/stimuli/spore_stims/complex_06_A_c.gif","","","","","2","complex_dissimilar","images/stimuli/spore_stims/complex_06_A_c.gif","left",""
"","null","html-keyboard-response","54","254649","0.0-14.0-0.5","SS1613099892112","","","null","","","","","<p><img src= images/blank.png width =""200"" height = ""200"" style = ""float:right""></p><p><img src=images/blank.png width =""800"" height = ""200""></p>","","","","","","","",""
"","239.99999975785613","sequential-stimulus-presentation","55","255712","0.0-14.0-1.5","SS1613099892112","trial","","40","800","1039.9999997578561","images/stimuli/spore_stims/complex_03_A_b.gif","images/stimuli/spore_stims/complex_06_A_c.gif","","","","","2","complex_dissimilar","images/stimuli/spore_stims/complex_06_A_c.gif","left",""
"","null","html-keyboard-response","56","256699","0.0-14.0-0.6","SS1613099892112","","","null","","","","","<p><img src= images/blank.png width =""200"" height = ""200"" style = ""float:right""></p><p><img src=images/blank.png width =""800"" height = ""200""></p>","","","","","","","",""
"","135.00000024214387","sequential-stimulus-presentation","57","257645","0.0-14.0-1.6","SS1613099892112","trial","","40","800","935.0000002421439","images/stimuli/spore_stims/complex_03_A_b.gif","images/stimuli/spore_stims/complex_06_A_c.gif","","","","","2","complex_dissimilar","images/stimuli/spore_stims/complex_06_A_c.gif","left",""
"","null","html-keyboard-response","58","258753","0.0-14.0-0.7","SS1613099892112","","","null","","","","","<p><img src= images/blank.png width =""200"" height = ""200"" style = ""float:right""></p><p><img src=images/blank.png width =""800"" height = ""200""></p>","","","","","","","",""
"","152.99999993294477","sequential-stimulus-presentation","59","259712","0.0-14.0-1.7","SS1613099892112","trial","","40","800","952.9999999329448","images/stimuli/spore_stims/complex_03_A_b.gif","images/stimuli/spore_stims/complex_06_A_c.gif","","","","","2","complex_dissimilar","images/stimuli/spore_stims/complex_06_A_c.gif","left",""
"","3216.9999997131526","html-keyboard-response","60","262938","0.0-15.0","SS1613099892112","pref_question","","50","","","","","<video width ='960' height = '540' style='padding-top:8%' autoplay muted><source src='images/stimuli/wall_pref.mp4' type='video/mp4'></video>","2","middle","45%","2","","","",""
"","2330.000000074506","sequential-stimulus-presentation","61","266075","0.0-16.0","SS1613099892112","pref_reveal","","40","800","3130.000000074506","null","null","","","","","2","","","","deviant"
"","null","html-keyboard-response","62","267142","0.0-17.0-0.0","SS1613099892112","","","null","","","","","<p><img src= images/blank.png width =""200"" height = ""200"" style = ""float:right""></p><p><img src=images/blank.png width =""800"" height = ""200""></p>","","","","","","","",""
"","524.9999999068677","sequential-stimulus-presentation","63","268473","0.0-17.0-1.0","SS1613099892112","trial","","40","800","1324.9999999068677","images/stimuli/spore_stims/simple_05_A_d.gif","images/stimuli/spore_stims/simple_20_B_a.gif","","","","","3","simple_dissimilar","images/stimuli/spore_stims/simple_20_B_a.gif","right",""
"","null","html-keyboard-response","64","269761","0.0-17.0-0.1","SS1613099892112","","","null","","","","","<p><img src= images/blank.png width =""200"" height = ""200"" style = ""float:right""></p><p><img src=images/blank.png width =""800"" height = ""200""></p>","","","","","","","",""
"","115.9999999217689","sequential-stimulus-presentation","65","270702","0.0-17.0-1.1","SS1613099892112","trial","","40","800","915.9999999217689","images/stimuli/spore_stims/simple_05_A_d.gif","images/stimuli/spore_stims/simple_20_B_a.gif","","","","","3","simple_dissimilar","images/stimuli/spore_stims/simple_20_B_a.gif","right",""
"","null","html-keyboard-response","66","271939","0.0-17.0-0.2","SS1613099892112","","","null","","","","","<p><img src= images/blank.png width =""200"" height = ""200"" style = ""float:right""></p><p><img src=images/blank.png width =""800"" height = ""200""></p>","","","","","","","",""
"","521.0000001825392","sequential-stimulus-presentation","67","273267","0.0-17.0-1.2","SS1613099892112","trial","","40","800","1321.0000001825392","images/stimuli/spore_stims/simple_05_A_d.gif","images/stimuli/spore_stims/simple_20_B_a.gif","","","","","3","simple_dissimilar","images/stimuli/spore_stims/simple_20_B_a.gif","right",""
"","null","html-keyboard-response","68","274294","0.0-17.0-0.3","SS1613099892112","","","null","","","","","<p><img src= images/blank.png width =""200"" height = ""200"" style = ""float:right""></p><p><img src=images/blank.png width =""800"" height = ""200""></p>","","","","","","","",""
"","2002.0000003278255","sequential-stimulus-presentation","69","277105","0.0-17.0-1.3","SS1613099892112","trial","","40","800","2802.0000003278255","images/stimuli/spore_stims/simple_05_A_d.gif","images/stimuli/spore_stims/simple_20_B_a.gif","","","","","3","simple_dissimilar","images/stimuli/spore_stims/simple_20_B_a.gif","right",""
"","null","html-keyboard-response","70","277918","0.0-17.0-0.4","SS1613099892112","","","null","","","","","<p><img src= images/blank.png width =""200"" height = ""200"" style = ""float:right""></p><p><img src=images/blank.png width =""800"" height = ""200""></p>","","","","","","","",""
"","1141.000000294298","sequential-stimulus-presentation","71","279870","0.0-17.0-1.4","SS1613099892112","trial","","40","800","1941.000000294298","images/stimuli/spore_stims/simple_05_A_d.gif","images/stimuli/spore_stims/simple_20_B_a.gif","","","","","3","simple_dissimilar","images/stimuli/spore_stims/simple_20_B_a.gif","right",""
"","null","html-keyboard-response","72","280864","0.0-17.0-0.5","SS1613099892112","","","null","","","","","<p><img src= images/blank.png width =""200"" height = ""200"" style = ""float:right""></p><p><img src=images/blank.png width =""800"" height = ""200""></p>","","","","","","","",""
"","716.0000000149012","sequential-stimulus-presentation","73","282390","0.0-17.0-1.5","SS1613099892112","trial","","40","800","1516.0000000149012","images/stimuli/spore_stims/simple_05_A_d.gif","images/stimuli/spore_stims/simple_20_B_a.gif","","","","","3","simple_dissimilar","images/stimuli/spore_stims/simple_05_A_d.gif","middle",""
"","null","html-keyboard-response","74","283219","0.0-17.0-0.6","SS1613099892112","","","null","","","","","<p><img src= images/blank.png width =""200"" height = ""200"" style = ""float:right""></p><p><img src=images/blank.png width =""800"" height = ""200""></p>","","","","","","","",""
"","381.00000005215406","sequential-stimulus-presentation","75","284409","0.0-17.0-1.6","SS1613099892112","trial","","40","800","1181.000000052154","images/stimuli/spore_stims/simple_05_A_d.gif","images/stimuli/spore_stims/simple_20_B_a.gif","","","","","3","simple_dissimilar","images/stimuli/spore_stims/simple_20_B_a.gif","right",""
"","null","html-keyboard-response","76","285650","0.0-17.0-0.7","SS1613099892112","","","null","","","","","<p><img src= images/blank.png width =""200"" height = ""200"" style = ""float:right""></p><p><img src=images/blank.png width =""800"" height = ""200""></p>","","","","","","","",""
"","1560.9999997541308","sequential-stimulus-presentation","77","288017","0.0-17.0-1.7","SS1613099892112","trial","","40","800","2360.999999754131","images/stimuli/spore_stims/simple_05_A_d.gif","images/stimuli/spore_stims/simple_20_B_a.gif","","","","","3","simple_dissimilar","images/stimuli/spore_stims/simple_20_B_a.gif","right",""
"","2416.0000002011657","html-keyboard-response","78","290438","0.0-18.0","SS1613099892112","pref_question","","49","","","","","<video width ='960' height = '540' style='padding-top:8%' autoplay muted><source src='images/stimuli/wall_pref.mp4' type='video/mp4'></video>","1","left","25%","3","","","",""
"","822.0000001601875","sequential-stimulus-presentation","79","292068","0.0-19.0","SS1613099892112","pref_reveal","","40","800","1622.0000001601875","null","null","","","","","3","","","","novel"
"","null","html-keyboard-response","80","293197","0.0-20.0-0.0","SS1613099892112","","","null","","","","","<p><img src= images/blank.png width =""200"" height = ""200"" style = ""float:right""></p><p><img src=images/blank.png width =""800"" height = ""200""></p>","","","","","","","",""
"","423.9999996498227","sequential-stimulus-presentation","81","294439","0.0-20.0-1.0","SS1613099892112","trial","","40","800","1223.9999996498227","images/stimuli/spore_stims/complex_14_B_c.gif","images/stimuli/spore_stims/complex_14_A_c.gif","","","","","4","complex_similar","images/stimuli/spore_stims/complex_14_A_c.gif","right",""
"","null","html-keyboard-response","82","295253","0.0-20.0-0.1","SS1613099892112","","","null","","","","","<p><img src= images/blank.png width =""200"" height = ""200"" style = ""float:right""></p><p><img src=images/blank.png width =""800"" height = ""200""></p>","","","","","","","",""
"","308.9999998919666","sequential-stimulus-presentation","83","296371","0.0-20.0-1.1","SS1613099892112","trial","","40","800","1108.9999998919666","images/stimuli/spore_stims/complex_14_B_c.gif","images/stimuli/spore_stims/complex_14_A_c.gif","","","","","4","complex_similar","images/stimuli/spore_stims/complex_14_A_c.gif","right",""
"","null","html-keyboard-response","84","297238","0.0-20.0-0.2","SS1613099892112","","","null","","","","","<p><img src= images/blank.png width =""200"" height = ""200"" style = ""float:right""></p><p><img src=images/blank.png width =""800"" height = ""200""></p>","","","","","","","",""
"","166.99999989941716","sequential-stimulus-presentation","85","298219","0.0-20.0-1.2","SS1613099892112","trial","","40","800","966.9999998994172","images/stimuli/spore_stims/complex_14_B_c.gif","images/stimuli/spore_stims/complex_14_A_c.gif","","","","","4","complex_similar","images/stimuli/spore_stims/complex_14_A_c.gif","right",""
"","null","html-keyboard-response","86","299287","0.0-20.0-0.3","SS1613099892112","","","null","","","","","<p><img src= images/blank.png width =""200"" height = ""200"" style = ""float:right""></p><p><img src=images/blank.png width =""800"" height = ""200""></p>","","","","","","","",""
"","1841.9999997131526","sequential-stimulus-presentation","87","302046","0.0-20.0-1.3","SS1613099892112","trial","","40","800","2641.9999997131526","images/stimuli/spore_stims/complex_14_B_c.gif","images/stimuli/spore_stims/complex_14_A_c.gif","","","","","4","complex_similar","images/stimuli/spore_stims/complex_14_A_c.gif","right",""
"","null","html-keyboard-response","88","303242","0.0-20.0-0.4","SS1613099892112","","","null","","","","","<p><img src= images/blank.png width =""200"" height = ""200"" style = ""float:right""></p><p><img src=images/blank.png width =""800"" height = ""200""></p>","","","","","","","",""
"","33.99999998509884","sequential-stimulus-presentation","89","304082","0.0-20.0-1.4","SS1613099892112","trial","","40","800","833.9999999850988","images/stimuli/spore_stims/complex_14_B_c.gif","images/stimuli/spore_stims/complex_14_A_c.gif","","","","","4","complex_similar","images/stimuli/spore_stims/complex_14_A_c.gif","right",""
"","null","html-keyboard-response","90","304952","0.0-20.0-0.5","SS1613099892112","","","null","","","","","<p><img src= images/blank.png width =""200"" height = ""200"" style = ""float:right""></p><p><img src=images/blank.png width =""800"" height = ""200""></p>","","","","","","","",""
"","475.00000009313226","sequential-stimulus-presentation","91","306235","0.0-20.0-1.5","SS1613099892112","trial","","40","800","1275.0000000931323","images/stimuli/spore_stims/complex_14_B_c.gif","images/stimuli/spore_stims/complex_14_A_c.gif","","","","","4","complex_similar","images/stimuli/spore_stims/complex_14_A_c.gif","right",""
"","null","html-keyboard-response","92","307164","0.0-20.0-0.6","SS1613099892112","","","null","","","","","<p><img src= images/blank.png width =""200"" height = ""200"" style = ""float:right""></p><p><img src=images/blank.png width =""800"" height = ""200""></p>","","","","","","","",""
"","324.00000002235174","sequential-stimulus-presentation","93","308299","0.0-20.0-1.6","SS1613099892112","trial","","40","800","1124.0000000223517","images/stimuli/spore_stims/complex_14_B_c.gif","images/stimuli/spore_stims/complex_14_A_c.gif","","","","","4","complex_similar","images/stimuli/spore_stims/complex_14_B_c.gif","middle",""
"","null","html-keyboard-response","94","309224","0.0-20.0-0.7","SS1613099892112","","","null","","","","","<p><img src= images/blank.png width =""200"" height = ""200"" style = ""float:right""></p><p><img src=images/blank.png width =""800"" height = ""200""></p>","","","","","","","",""
"","2382.000000216067","sequential-stimulus-presentation","95","312411","0.0-20.0-1.7","SS1613099892112","trial","","40","800","3182.000000216067","images/stimuli/spore_stims/complex_14_B_c.gif","images/stimuli/spore_stims/complex_14_A_c.gif","","","","","4","complex_similar","images/stimuli/spore_stims/complex_14_A_c.gif","right",""
"","3041.0000002011657","html-keyboard-response","96","315459","0.0-21.0","SS1613099892112","pref_question","","51","","","","","<video width ='960' height = '540' style='padding-top:8%' autoplay muted><source src='images/stimuli/wall_pref.mp4' type='video/mp4'></video>","3","right","66%","4","","","",""
"","37.99999970942736","sequential-stimulus-presentation","97","316312","0.0-22.0","SS1613099892112","pref_reveal","","40","800","837.9999997094274","null","null","","","","","4","","","","background"
"","null","html-keyboard-response","98","317347","0.0-23.0-0.0","SS1613099892112","","","null","","","","","<p><img src= images/blank.png width =""200"" height = ""200"" style = ""float:right""></p><p><img src=images/blank.png width =""800"" height = ""200""></p>","","","","","","","",""
"","1486.0000000335276","sequential-stimulus-presentation","99","319642","0.0-23.0-1.0","SS1613099892112","trial","","40","800","2286.0000000335276","images/stimuli/spore_stims/simple_06_A_a.gif","images/stimuli/spore_stims/simple_17_A_b.gif","","","","","5","simple_dissimilar","images/stimuli/spore_stims/simple_17_A_b.gif","left",""
"","null","html-keyboard-response","100","320631","0.0-23.0-0.1","SS1613099892112","","","null","","","","","<p><img src= images/blank.png width =""200"" height = ""200"" style = ""float:right""></p><p><img src=images/blank.png width =""800"" height = ""200""></p>","","","","","","","",""
"","473.9999999292195","sequential-stimulus-presentation","101","321910","0.0-23.0-1.1","SS1613099892112","trial","","40","800","1273.9999999292195","images/stimuli/spore_stims/simple_06_A_a.gif","images/stimuli/spore_stims/simple_17_A_b.gif","","","","","5","simple_dissimilar","images/stimuli/spore_stims/simple_17_A_b.gif","left",""
"","null","html-keyboard-response","102","322739","0.0-23.0-0.2","SS1613099892112","","","null","","","","","<p><img src= images/blank.png width =""200"" height = ""200"" style = ""float:right""></p><p><img src=images/blank.png width =""800"" height = ""200""></p>","","","","","","","",""
"","682.0000000298023","sequential-stimulus-presentation","103","324229","0.0-23.0-1.2","SS1613099892112","trial","","40","800","1482.0000000298023","images/stimuli/spore_stims/simple_06_A_a.gif","images/stimuli/spore_stims/simple_17_A_b.gif","","","","","5","simple_dissimilar","images/stimuli/spore_stims/simple_17_A_b.gif","left",""
"","null","html-keyboard-response","104","325051","0.0-23.0-0.3","SS1613099892112","","","null","","","","","<p><img src= images/blank.png width =""200"" height = ""200"" style = ""float:right""></p><p><img src=images/blank.png width =""800"" height = ""200""></p>","","","","","","","",""
"","183.0000001937151","sequential-stimulus-presentation","105","326040","0.0-23.0-1.3","SS1613099892112","trial","","40","800","983.0000001937151","images/stimuli/spore_stims/simple_06_A_a.gif","images/stimuli/spore_stims/simple_17_A_b.gif","","","","","5","simple_dissimilar","images/stimuli/spore_stims/simple_06_A_a.gif","right",""
"","null","html-keyboard-response","106","327235","0.0-23.0-0.4","SS1613099892112","","","null","","","","","<p><img src= images/blank.png width =""200"" height = ""200"" style = ""float:right""></p><p><img src=images/blank.png width =""800"" height = ""200""></p>","","","","","","","",""
"","80.0000000745058","sequential-stimulus-presentation","107","328122","0.0-23.0-1.4","SS1613099892112","trial","","40","800","880.0000000745058","images/stimuli/spore_stims/simple_06_A_a.gif","images/stimuli/spore_stims/simple_17_A_b.gif","","","","","5","simple_dissimilar","images/stimuli/spore_stims/simple_17_A_b.gif","left",""
"","null","html-keyboard-response","108","329069","0.0-23.0-0.5","SS1613099892112","","","null","","","","","<p><img src= images/blank.png width =""200"" height = ""200"" style = ""float:right""></p><p><img src=images/blank.png width =""800"" height = ""200""></p>","","","","","","","",""
"","452.0000000484288","sequential-stimulus-presentation","109","330339","0.0-23.0-1.5","SS1613099892112","trial","","40","800","1252.0000000484288","images/stimuli/spore_stims/simple_06_A_a.gif","images/stimuli/spore_stims/simple_17_A_b.gif","","","","","5","simple_dissimilar","images/stimuli/spore_stims/simple_17_A_b.gif","left",""
"","null","html-keyboard-response","110","331170","0.0-23.0-0.6","SS1613099892112","","","null","","","","","<p><img src= images/blank.png width =""200"" height = ""200"" style = ""float:right""></p><p><img src=images/blank.png width =""800"" height = ""200""></p>","","","","","","","",""
"","240.00000022351742","sequential-stimulus-presentation","111","332218","0.0-23.0-1.6","SS1613099892112","trial","","40","800","1040.0000002235174","images/stimuli/spore_stims/simple_06_A_a.gif","images/stimuli/spore_stims/simple_17_A_b.gif","","","","","5","simple_dissimilar","images/stimuli/spore_stims/simple_17_A_b.gif","left",""
"","null","html-keyboard-response","112","333327","0.0-23.0-0.7","SS1613099892112","","","null","","","","","<p><img src= images/blank.png width =""200"" height = ""200"" style = ""float:right""></p><p><img src=images/blank.png width =""800"" height = ""200""></p>","","","","","","","",""
"","151.999999769032","sequential-stimulus-presentation","113","334288","0.0-23.0-1.7","SS1613099892112","trial","","40","800","951.999999769032","images/stimuli/spore_stims/simple_06_A_a.gif","images/stimuli/spore_stims/simple_17_A_b.gif","","","","","5","simple_dissimilar","images/stimuli/spore_stims/simple_17_A_b.gif","left",""
"","3611.999999731779","html-keyboard-response","114","337905","0.0-24.0","SS1613099892112","pref_question","","49","","","","","<video width ='960' height = '540' style='padding-top:8%' autoplay muted><source src='images/stimuli/wall_pref.mp4' type='video/mp4'></video>","1","left","25%","5","","","",""
"","222.00000006705523","sequential-stimulus-presentation","115","338935","0.0-25.0","SS1613099892112","pref_reveal","","40","800","1022.0000000670552","null","null","","","","","5","","","","background"
"","null","html-keyboard-response","116","340237","0.0-26.0-0.0","SS1613099892112","","","null","","","","","<p><img src= images/blank.png width =""200"" height = ""200"" style = ""float:right""></p><p><img src=images/blank.png width =""800"" height = ""200""></p>","","","","","","","",""
"","131.99999975040555","sequential-stimulus-presentation","117","341188","0.0-26.0-1.0","SS1613099892112","trial","","40","800","931.9999997504056","images/stimuli/spore_stims/complex_13_A_d.gif","images/stimuli/spore_stims/complex_06_B_a.gif","","","","","6","complex_dissimilar","images/stimuli/spore_stims/complex_06_B_a.gif","right",""
"","null","html-keyboard-response","118","342488","0.0-26.0-0.1","SS1613099892112","","","null","","","","","<p><img src= images/blank.png width =""200"" height = ""200"" style = ""float:right""></p><p><img src=images/blank.png width =""800"" height = ""200""></p>","","","","","","","",""
"","14572.999999858439","sequential-stimulus-presentation","119","357907","0.0-26.0-1.1","SS1613099892112","trial","","40","800","15372.999999858439","images/stimuli/spore_stims/complex_13_A_d.gif","images/stimuli/spore_stims/complex_06_B_a.gif","","","","","6","complex_dissimilar","images/stimuli/spore_stims/complex_06_B_a.gif","right",""
"","null","html-keyboard-response","120","358853","0.0-26.0-0.2","SS1613099892112","","","null","","","","","<p><img src= images/blank.png width =""200"" height = ""200"" style = ""float:right""></p><p><img src=images/blank.png width =""800"" height = ""200""></p>","","","","","","","",""
"","2109.0000001713634","sequential-stimulus-presentation","121","361780","0.0-26.0-1.2","SS1613099892112","trial","","40","800","2909.0000001713634","images/stimuli/spore_stims/complex_13_A_d.gif","images/stimuli/spore_stims/complex_06_B_a.gif","","","","","6","complex_dissimilar","images/stimuli/spore_stims/complex_06_B_a.gif","right",""
"","null","html-keyboard-response","122","362974","0.0-26.0-0.3","SS1613099892112","","","null","","","","","<p><img src= images/blank.png width =""200"" height = ""200"" style = ""float:right""></p><p><img src=images/blank.png width =""800"" height = ""200""></p>","","","","","","","",""
"","1016.9999999925494","sequential-stimulus-presentation","123","364803","0.0-26.0-1.3","SS1613099892112","trial","","40","800","1816.9999999925494","images/stimuli/spore_stims/complex_13_A_d.gif","images/stimuli/spore_stims/complex_06_B_a.gif","","","","","6","complex_dissimilar","images/stimuli/spore_stims/complex_13_A_d.gif","left",""
"","null","html-keyboard-response","124","365636","0.0-26.0-0.4","SS1613099892112","","","null","","","","","<p><img src= images/blank.png width =""200"" height = ""200"" style = ""float:right""></p><p><img src=images/blank.png width =""800"" height = ""200""></p>","","","","","","","",""
"","138.9999999664724","sequential-stimulus-presentation","125","366588","0.0-26.0-1.4","SS1613099892112","trial","","40","800","938.9999999664724","images/stimuli/spore_stims/complex_13_A_d.gif","images/stimuli/spore_stims/complex_06_B_a.gif","","","","","6","complex_dissimilar","images/stimuli/spore_stims/complex_06_B_a.gif","right",""
"","null","html-keyboard-response","126","367613","0.0-26.0-0.5","SS1613099892112","","","null","","","","","<p><img src= images/blank.png width =""200"" height = ""200"" style = ""float:right""></p><p><img src=images/blank.png width =""800"" height = ""200""></p>","","","","","","","",""
"","378.00000002607703","sequential-stimulus-presentation","127","368799","0.0-26.0-1.5","SS1613099892112","trial","","40","800","1178.000000026077","images/stimuli/spore_stims/complex_13_A_d.gif","images/stimuli/spore_stims/complex_06_B_a.gif","","","","","6","complex_dissimilar","images/stimuli/spore_stims/complex_06_B_a.gif","right",""
"","null","html-keyboard-response","128","369900","0.0-26.0-0.6","SS1613099892112","","","null","","","","","<p><img src= images/blank.png width =""200"" height = ""200"" style = ""float:right""></p><p><img src=images/blank.png width =""800"" height = ""200""></p>","","","","","","","",""
"","338.9999996870756","sequential-stimulus-presentation","129","371044","0.0-26.0-1.6","SS1613099892112","trial","","40","800","1138.9999996870756","images/stimuli/spore_stims/complex_13_A_d.gif","images/stimuli/spore_stims/complex_06_B_a.gif","","","","","6","complex_dissimilar","images/stimuli/spore_stims/complex_06_B_a.gif","right",""
"","null","html-keyboard-response","130","372068","0.0-26.0-0.7","SS1613099892112","","","null","","","","","<p><img src= images/blank.png width =""200"" height = ""200"" style = ""float:right""></p><p><img src=images/blank.png width =""800"" height = ""200""></p>","","","","","","","",""
"","733.0000000074506","sequential-stimulus-presentation","131","373609","0.0-26.0-1.7","SS1613099892112","trial","","40","800","1533.0000000074506","images/stimuli/spore_stims/complex_13_A_d.gif","images/stimuli/spore_stims/complex_06_B_a.gif","","","","","6","complex_dissimilar","images/stimuli/spore_stims/complex_06_B_a.gif","right",""
"","2578.999999910593","html-keyboard-response","132","376194","0.0-27.0","SS1613099892112","pref_question","","51","","","","","<video width ='960' height = '540' style='padding-top:8%' autoplay muted><source src='images/stimuli/wall_pref.mp4' type='video/mp4'></video>","3","right","66%","6","","","",""
"","427.00000014156103","sequential-stimulus-presentation","133","377432","0.0-28.0","SS1613099892112","pref_reveal","","40","800","1227.000000141561","null","null","","","","","6","","","","background"
"","null","html-keyboard-response","134","378508","0.0-29.0-0.0","SS1613099892112","","","null","","","","","<p><img src= images/blank.png width =""200"" height = ""200"" style = ""float:right""></p><p><img src=images/blank.png width =""800"" height = ""200""></p>","","","","","","","",""
"","44.999999925494194","sequential-stimulus-presentation","135","379368","0.0-29.0-1.0","SS1613099892112","trial","","40","800","844.9999999254942","images/stimuli/spore_stims/simple_11_B_c.gif","images/stimuli/spore_stims/simple_11_A_c.gif","","","","","7","simple_similar","images/stimuli/spore_stims/simple_11_A_c.gif","left",""
"","null","html-keyboard-response","136","380252","0.0-29.0-0.1","SS1613099892112","","","null","","","","","<p><img src= images/blank.png width =""200"" height = ""200"" style = ""float:right""></p><p><img src=images/blank.png width =""800"" height = ""200""></p>","","","","","","","",""
"","237.99999989569187","sequential-stimulus-presentation","137","381297","0.0-29.0-1.1","SS1613099892112","trial","","40","800","1037.9999998956919","images/stimuli/spore_stims/simple_11_B_c.gif","images/stimuli/spore_stims/simple_11_A_c.gif","","","","","7","simple_similar","images/stimuli/spore_stims/simple_11_A_c.gif","left",""
"","null","html-keyboard-response","138","382265","0.0-29.0-0.2","SS1613099892112","","","null","","","","","<p><img src= images/blank.png width =""200"" height = ""200"" style = ""float:right""></p><p><img src=images/blank.png width =""800"" height = ""200""></p>","","","","","","","",""
"","435.00000005587935","sequential-stimulus-presentation","139","383509","0.0-29.0-1.2","SS1613099892112","trial","","40","800","1235.0000000558794","images/stimuli/spore_stims/simple_11_B_c.gif","images/stimuli/spore_stims/simple_11_A_c.gif","","","","","7","simple_similar","images/stimuli/spore_stims/simple_11_A_c.gif","left",""
"","null","html-keyboard-response","140","384325","0.0-29.0-0.3","SS1613099892112","","","null","","","","","<p><img src= images/blank.png width =""200"" height = ""200"" style = ""float:right""></p><p><img src=images/blank.png width =""800"" height = ""200""></p>","","","","","","","",""
"","33.99999998509884","sequential-stimulus-presentation","141","385166","0.0-29.0-1.3","SS1613099892112","trial","","40","800","833.9999999850988","images/stimuli/spore_stims/simple_11_B_c.gif","images/stimuli/spore_stims/simple_11_A_c.gif","","","","","7","simple_similar","images/stimuli/spore_stims/simple_11_A_c.gif","left",""
"","null","html-keyboard-response","142","386293","0.0-29.0-0.4","SS1613099892112","","","null","","","","","<p><img src= images/blank.png width =""200"" height = ""200"" style = ""float:right""></p><p><img src=images/blank.png width =""800"" height = ""200""></p>","","","","","","","",""
"","2952.9999997466803","sequential-stimulus-presentation","143","390055","0.0-29.0-1.4","SS1613099892112","trial","","40","800","3752.9999997466803","images/stimuli/spore_stims/simple_11_B_c.gif","images/stimuli/spore_stims/simple_11_A_c.gif","","","","","7","simple_similar","images/stimuli/spore_stims/simple_11_A_c.gif","left",""
"","null","html-keyboard-response","144","390874","0.0-29.0-0.5","SS1613099892112","","","null","","","","","<p><img src= images/blank.png width =""200"" height = ""200"" style = ""float:right""></p><p><img src=images/blank.png width =""800"" height = ""200""></p>","","","","","","","",""
"","52.99999983981252","sequential-stimulus-presentation","145","391740","0.0-29.0-1.5","SS1613099892112","trial","","40","800","852.9999998398125","images/stimuli/spore_stims/simple_11_B_c.gif","images/stimuli/spore_stims/simple_11_A_c.gif","","","","","7","simple_similar","images/stimuli/spore_stims/simple_11_B_c.gif","middle",""
"","null","html-keyboard-response","146","392871","0.0-29.0-0.6","SS1613099892112","","","null","","","","","<p><img src= images/blank.png width =""200"" height = ""200"" style = ""float:right""></p><p><img src=images/blank.png width =""800"" height = ""200""></p>","","","","","","","",""
"","486.0000000335276","sequential-stimulus-presentation","147","394167","0.0-29.0-1.6","SS1613099892112","trial","","40","800","1286.0000000335276","images/stimuli/spore_stims/simple_11_B_c.gif","images/stimuli/spore_stims/simple_11_A_c.gif","","","","","7","simple_similar","images/stimuli/spore_stims/simple_11_A_c.gif","left",""
"","null","html-keyboard-response","148","395225","0.0-29.0-0.7","SS1613099892112","","","null","","","","","<p><img src= images/blank.png width =""200"" height = ""200"" style = ""float:right""></p><p><img src=images/blank.png width =""800"" height = ""200""></p>","","","","","","","",""
"","22.999999579042196","sequential-stimulus-presentation","149","396066","0.0-29.0-1.7","SS1613099892112","trial","","40","800","822.9999995790422","images/stimuli/spore_stims/simple_11_B_c.gif","images/stimuli/spore_stims/simple_11_A_c.gif","","","","","7","simple_similar","images/stimuli/spore_stims/simple_11_A_c.gif","left",""
"","4177.000000141561","html-keyboard-response","150","400255","0.0-30.0","SS1613099892112","pref_question","","51","","","","","<video width ='960' height = '540' style='padding-top:8%' autoplay muted><source src='images/stimuli/wall_pref.mp4' type='video/mp4'></video>","3","right","66%","7","","","",""
"","663.0000001750886","sequential-stimulus-presentation","151","401777","0.0-31.0","SS1613099892112","pref_reveal","","40","800","1463.0000001750886","null","null","","","","","7","","","","novel"
"","null","html-keyboard-response","152","402895","0.0-32.0-0.0","SS1613099892112","","","null","","","","","<p><img src= images/blank.png width =""200"" height = ""200"" style = ""float:right""></p><p><img src=images/blank.png width =""800"" height = ""200""></p>","","","","","","","",""
"","469.9999997392297","sequential-stimulus-presentation","153","404175","0.0-32.0-1.0","SS1613099892112","trial","","40","800","1269.9999997392297","images/stimuli/spore_stims/simple_05_B_c.gif","images/stimuli/spore_stims/simple_01_B_c.gif","","","","","8","simple_dissimilar","images/stimuli/spore_stims/simple_01_B_c.gif","left",""
"","null","html-keyboard-response","154","405098","0.0-32.0-0.1","SS1613099892112","","","null","","","","","<p><img src= images/blank.png width =""200"" height = ""200"" style = ""float:right""></p><p><img src=images/blank.png width =""800"" height = ""200""></p>","","","","","","","",""
"","587.9999999888241","sequential-stimulus-presentation","155","406494","0.0-32.0-1.1","SS1613099892112","trial","","40","800","1387.9999999888241","images/stimuli/spore_stims/simple_05_B_c.gif","images/stimuli/spore_stims/simple_01_B_c.gif","","","","","8","simple_dissimilar","images/stimuli/spore_stims/simple_01_B_c.gif","left",""
"","null","html-keyboard-response","156","407451","0.0-32.0-0.2","SS1613099892112","","","null","","","","","<p><img src= images/blank.png width =""200"" height = ""200"" style = ""float:right""></p><p><img src=images/blank.png width =""800"" height = ""200""></p>","","","","","","","",""
"","90.00000031664968","sequential-stimulus-presentation","157","408392","0.0-32.0-1.2","SS1613099892112","trial","","40","800","890.0000003166497","images/stimuli/spore_stims/simple_05_B_c.gif","images/stimuli/spore_stims/simple_01_B_c.gif","","","","","8","simple_dissimilar","images/stimuli/spore_stims/simple_01_B_c.gif","left",""
"","null","html-keyboard-response","158","409429","0.0-32.0-0.3","SS1613099892112","","","null","","","","","<p><img src= images/blank.png width =""200"" height = ""200"" style = ""float:right""></p><p><img src=images/blank.png width =""800"" height = ""200""></p>","","","","","","","",""
"","501.0000001639128","sequential-stimulus-presentation","159","410738","0.0-32.0-1.3","SS1613099892112","trial","","40","800","1301.0000001639128","images/stimuli/spore_stims/simple_05_B_c.gif","images/stimuli/spore_stims/simple_01_B_c.gif","","","","","8","simple_dissimilar","images/stimuli/spore_stims/simple_01_B_c.gif","left",""
"","null","html-keyboard-response","160","411963","0.0-32.0-0.4","SS1613099892112","","","null","","","","","<p><img src= images/blank.png width =""200"" height = ""200"" style = ""float:right""></p><p><img src=images/blank.png width =""800"" height = ""200""></p>","","","","","","","",""
"","185.00000005587935","sequential-stimulus-presentation","161","412963","0.0-32.0-1.4","SS1613099892112","trial","","40","800","985.0000000558794","images/stimuli/spore_stims/simple_05_B_c.gif","images/stimuli/spore_stims/simple_01_B_c.gif","","","","","8","simple_dissimilar","images/stimuli/spore_stims/simple_01_B_c.gif","left",""
"","null","html-keyboard-response","162","414122","0.0-32.0-0.5","SS1613099892112","","","null","","","","","<p><img src= images/blank.png width =""200"" height = ""200"" style = ""float:right""></p><p><img src=images/blank.png width =""800"" height = ""200""></p>","","","","","","","",""
"","171.99999978765845","sequential-stimulus-presentation","163","415100","0.0-32.0-1.5","SS1613099892112","trial","","40","800","971.9999997876585","images/stimuli/spore_stims/simple_05_B_c.gif","images/stimuli/spore_stims/simple_01_B_c.gif","","","","","8","simple_dissimilar","images/stimuli/spore_stims/simple_05_B_c.gif","right",""
"","null","html-keyboard-response","164","416241","0.0-32.0-0.6","SS1613099892112","","","null","","","","","<p><img src= images/blank.png width =""200"" height = ""200"" style = ""float:right""></p><p><img src=images/blank.png width =""800"" height = ""200""></p>","","","","","","","",""
"","152.99999993294477","sequential-stimulus-presentation","165","417203","0.0-32.0-1.6","SS1613099892112","trial","","40","800","952.9999999329448","images/stimuli/spore_stims/simple_05_B_c.gif","images/stimuli/spore_stims/simple_01_B_c.gif","","","","","8","simple_dissimilar","images/stimuli/spore_stims/simple_01_B_c.gif","left",""
"","null","html-keyboard-response","166","418246","0.0-32.0-0.7","SS1613099892112","","","null","","","","","<p><img src= images/blank.png width =""200"" height = ""200"" style = ""float:right""></p><p><img src=images/blank.png width =""800"" height = ""200""></p>","","","","","","","",""
"","319.00000013411045","sequential-stimulus-presentation","167","419373","0.0-32.0-1.7","SS1613099892112","trial","","40","800","1119.0000001341105","images/stimuli/spore_stims/simple_05_B_c.gif","images/stimuli/spore_stims/simple_01_B_c.gif","","","","","8","simple_dissimilar","images/stimuli/spore_stims/simple_01_B_c.gif","left",""
"","2538.99999987334","html-keyboard-response","168","421914","0.0-33.0","SS1613099892112","pref_question","","50","","","","","<video width ='960' height = '540' style='padding-top:8%' autoplay muted><source src='images/stimuli/wall_pref.mp4' type='video/mp4'></video>","2","middle","45%","8","","","",""
"","363.00000036135316","sequential-stimulus-presentation","169","423093","0.0-34.0","SS1613099892112","pref_reveal","","40","800","1163.0000003613532","null","null","","","","","8","","","","novel"
"","null","html-keyboard-response","170","424172","0.0-35.0-0.0","SS1613099892112","","","null","","","","","<p><img src= images/blank.png width =""200"" height = ""200"" style = ""float:right""></p><p><img src=images/blank.png width =""800"" height = ""200""></p>","","","","","","","",""
"","160.0000001490116","sequential-stimulus-presentation","171","425140","0.0-35.0-1.0","SS1613099892112","trial","","40","800","960.0000001490116","images/stimuli/spore_stims/simple_13_B_a.gif","images/stimuli/spore_stims/simple_13_A_a.gif","","","","","9","simple_similar","images/stimuli/spore_stims/simple_13_A_a.gif","right",""
"","null","html-keyboard-response","172","426241","0.0-35.0-0.1","SS1613099892112","","","null","","","","","<p><img src= images/blank.png width =""200"" height = ""200"" style = ""float:right""></p><p><img src=images/blank.png width =""800"" height = ""200""></p>","","","","","","","",""
"","205.9999997727573","sequential-stimulus-presentation","173","427258","0.0-35.0-1.1","SS1613099892112","trial","","40","800","1005.9999997727573","images/stimuli/spore_stims/simple_13_B_a.gif","images/stimuli/spore_stims/simple_13_A_a.gif","","","","","9","simple_similar","images/stimuli/spore_stims/simple_13_A_a.gif","right",""
"","null","html-keyboard-response","174","428335","0.0-35.0-0.2","SS1613099892112","","","null","","","","","<p><img src= images/blank.png width =""200"" height = ""200"" style = ""float:right""></p><p><img src=images/blank.png width =""800"" height = ""200""></p>","","","","","","","",""
"","108.00000000745058","sequential-stimulus-presentation","175","429261","0.0-35.0-1.2","SS1613099892112","trial","","40","800","908.0000000074506","images/stimuli/spore_stims/simple_13_B_a.gif","images/stimuli/spore_stims/simple_13_A_a.gif","","","","","9","simple_similar","images/stimuli/spore_stims/simple_13_A_a.gif","right",""
"","null","html-keyboard-response","176","430080","0.0-35.0-0.3","SS1613099892112","","","null","","","","","<p><img src= images/blank.png width =""200"" height = ""200"" style = ""float:right""></p><p><img src=images/blank.png width =""800"" height = ""200""></p>","","","","","","","",""
"","316.0000001080334","sequential-stimulus-presentation","177","431232","0.0-35.0-1.3","SS1613099892112","trial","","40","800","1116.0000001080334","images/stimuli/spore_stims/simple_13_B_a.gif","images/stimuli/spore_stims/simple_13_A_a.gif","","","","","9","simple_similar","images/stimuli/spore_stims/simple_13_A_a.gif","right",""
"","null","html-keyboard-response","178","432526","0.0-35.0-0.4","SS1613099892112","","","null","","","","","<p><img src= images/blank.png width =""200"" height = ""200"" style = ""float:right""></p><p><img src=images/blank.png width =""800"" height = ""200""></p>","","","","","","","",""
"","517.9999996908009","sequential-stimulus-presentation","179","433855","0.0-35.0-1.4","SS1613099892112","trial","","40","800","1317.999999690801","images/stimuli/spore_stims/simple_13_B_a.gif","images/stimuli/spore_stims/simple_13_A_a.gif","","","","","9","simple_similar","images/stimuli/spore_stims/simple_13_A_a.gif","right",""
"","null","html-keyboard-response","180","435055","0.0-35.0-0.5","SS1613099892112","","","null","","","","","<p><img src= images/blank.png width =""200"" height = ""200"" style = ""float:right""></p><p><img src=images/blank.png width =""800"" height = ""200""></p>","","","","","","","",""
"","30.00000026077032","sequential-stimulus-presentation","181","435902","0.0-35.0-1.5","SS1613099892112","trial","","40","800","830.0000002607703","images/stimuli/spore_stims/simple_13_B_a.gif","images/stimuli/spore_stims/simple_13_A_a.gif","","","","","9","simple_similar","images/stimuli/spore_stims/simple_13_B_a.gif","left",""
"","null","html-keyboard-response","182","437142","0.0-35.0-0.6","SS1613099892112","","","null","","","","","<p><img src= images/blank.png width =""200"" height = ""200"" style = ""float:right""></p><p><img src=images/blank.png width =""800"" height = ""200""></p>","","","","","","","",""
