"view_history","rt","trial_type","trial_index","time_elapsed","internal_node_id","subject","stimulus_type","trial_stimulus","key_press","minimum_viewing_duration","trial_looking_time","block_deviant","block_background","stimulus","wall_pref","location","location_percent","block_number","block_type","stimulus_displayed","position_displayed","stim_type_selected","responses","question_order","stimulus_left","stimulus_right"
"[{""page_index"":0,""viewing_time"":7081}]","7081","instructions","0","7087","0.0-0.0","SS1613138191364","","","","","","","","","","","","","","","","","","","",""
"[{""page_index"":0,""viewing_time"":13005},{""page_index"":1,""viewing_time"":7599}]","20604","instructions","1","29701","0.0-1.0","SS1613138191364","instructions","","","","","","","","","","","","","","","","","","",""
"","8568","sequential-stimulus-presentation","2","39083","0.0-2.0","SS1613138191364","","","40","800","9368","null","null","","","","","","","","","","","","",""
"","5166","sequential-stimulus-presentation","3","45056","0.0-3.0","SS1613138191364","","","40","800","5966","null","null","","","","","","","","","","","","",""
"[{""page_index"":0,""viewing_time"":6142}]","6142","instructions","4","51199","0.0-4.0","SS1613138191364","instructions","","","","","","","","","","","","","","","","","","",""
"","10749","html-keyboard-response","5","61952","0.0-5.0","SS1613138191364","instructions","","49","","","","","<video width ='960' height = '540' autoplay muted><source src='images/stimuli/wall_pref.mp4' type='video/mp4'></video>","1","left","25%","","","","","","","","",""
"","3562","sequential-stimulus-presentation","6","66327","0.0-6.0","SS1613138191364","pref_reveal","","40","800","4362","null","null","","","","","","","","","","","","",""
"[{""page_index"":0,""viewing_time"":14189},{""page_index"":1,""viewing_time"":7146},{""page_index"":2,""viewing_time"":1298},{""page_index"":3,""viewing_time"":1122}]","23755","instructions","7","90083","0.0-7.0","SS1613138191364","instructions","","","","","","","","","","","","","","","","","","",""
"","null","html-keyboard-response","8","91141","0.0-8.0-0.0","SS1613138191364","","","null","","","","","<p><img src= images/blank.png width =""200"" height = ""200"" style = ""float:right""></p><p><img src=images/blank.png width =""800"" height = ""200""></p>","","","","","","","","","","","",""
"","5431","sequential-stimulus-presentation","9","97391","0.0-8.0-1.0","SS1613138191364","trial","","40","800","6231","images/stimuli/spore_stims/complex_18_B_a.gif","images/stimuli/spore_stims/complex_07_A_b.gif","","","","","0","complex_dissimilar","images/stimuli/spore_stims/complex_07_A_b.gif","middle","","","","",""
"","null","html-keyboard-response","10","98378","0.0-8.0-0.1","SS1613138191364","","","null","","","","","<p><img src= images/blank.png width =""200"" height = ""200"" style = ""float:right""></p><p><img src=images/blank.png width =""800"" height = ""200""></p>","","","","","","","","","","","",""
"","1967","sequential-stimulus-presentation","11","101160","0.0-8.0-1.1","SS1613138191364","trial","","40","800","2767","images/stimuli/spore_stims/complex_18_B_a.gif","images/stimuli/spore_stims/complex_07_A_b.gif","","","","","0","complex_dissimilar","images/stimuli/spore_stims/complex_07_A_b.gif","middle","","","","",""
"","null","html-keyboard-response","12","102008","0.0-8.0-0.2","SS1613138191364","","","null","","","","","<p><img src= images/blank.png width =""200"" height = ""200"" style = ""float:right""></p><p><img src=images/blank.png width =""800"" height = ""200""></p>","","","","","","","","","","","",""
"","3725","sequential-stimulus-presentation","13","106542","0.0-8.0-1.2","SS1613138191364","trial","","40","800","4525","images/stimuli/spore_stims/complex_18_B_a.gif","images/stimuli/spore_stims/complex_07_A_b.gif","","","","","0","complex_dissimilar","images/stimuli/spore_stims/complex_07_A_b.gif","middle","","","","",""
"","null","html-keyboard-response","14","107613","0.0-8.0-0.3","SS1613138191364","","","null","","","","","<p><img src= images/blank.png width =""200"" height = ""200"" style = ""float:right""></p><p><img src=images/blank.png width =""800"" height = ""200""></p>","","","","","","","","","","","",""
"","2451","sequential-stimulus-presentation","15","110878","0.0-8.0-1.3","SS1613138191364","trial","","40","800","3251","images/stimuli/spore_stims/complex_18_B_a.gif","images/stimuli/spore_stims/complex_07_A_b.gif","","","","","0","complex_dissimilar","images/stimuli/spore_stims/complex_07_A_b.gif","middle","","","","",""
"","null","html-keyboard-response","16","111737","0.0-8.0-0.4","SS1613138191364","","","null","","","","","<p><img src= images/blank.png width =""200"" height = ""200"" style = ""float:right""></p><p><img src=images/blank.png width =""800"" height = ""200""></p>","","","","","","","","","","","",""
"","2518","sequential-stimulus-presentation","17","115073","0.0-8.0-1.4","SS1613138191364","trial","","40","800","3318","images/stimuli/spore_stims/complex_18_B_a.gif","images/stimuli/spore_stims/complex_07_A_b.gif","","","","","0","complex_dissimilar","images/stimuli/spore_stims/complex_07_A_b.gif","middle","","","","",""
"","null","html-keyboard-response","18","115954","0.0-8.0-0.5","SS1613138191364","","","null","","","","","<p><img src= images/blank.png width =""200"" height = ""200"" style = ""float:right""></p><p><img src=images/blank.png width =""800"" height = ""200""></p>","","","","","","","","","","","",""
"","1380","sequential-stimulus-presentation","19","118150","0.0-8.0-1.5","SS1613138191364","trial","","40","800","2180","images/stimuli/spore_stims/complex_18_B_a.gif","images/stimuli/spore_stims/complex_07_A_b.gif","","","","","0","complex_dissimilar","images/stimuli/spore_stims/complex_07_A_b.gif","middle","","","","",""
"","null","html-keyboard-response","20","119040","0.0-8.0-0.6","SS1613138191364","","","null","","","","","<p><img src= images/blank.png width =""200"" height = ""200"" style = ""float:right""></p><p><img src=images/blank.png width =""800"" height = ""200""></p>","","","","","","","","","","","",""
"","1493","sequential-stimulus-presentation","21","121343","0.0-8.0-1.6","SS1613138191364","trial","","40","800","2293","images/stimuli/spore_stims/complex_18_B_a.gif","images/stimuli/spore_stims/complex_07_A_b.gif","","","","","0","complex_dissimilar","images/stimuli/spore_stims/complex_07_A_b.gif","middle","","","","",""
"","null","html-keyboard-response","22","122324","0.0-8.0-0.7","SS1613138191364","","","null","","","","","<p><img src= images/blank.png width =""200"" height = ""200"" style = ""float:right""></p><p><img src=images/blank.png width =""800"" height = ""200""></p>","","","","","","","","","","","",""
"","5423","sequential-stimulus-presentation","23","128550","0.0-8.0-1.7","SS1613138191364","trial","","40","800","6223","images/stimuli/spore_stims/complex_18_B_a.gif","images/stimuli/spore_stims/complex_07_A_b.gif","","","","","0","complex_dissimilar","images/stimuli/spore_stims/complex_18_B_a.gif","left","","","","",""
"","2500","html-keyboard-response","24","131051","0.0-9.0","SS1613138191364","pref_question","","50","","","","","<video width ='960' height = '540' style='padding-top:8%' autoplay muted><source src='images/stimuli/wall_pref.mp4' type='video/mp4'></video>","2","middle","45%","0","","","","","","","",""
"","2107","sequential-stimulus-presentation","25","133968","0.0-10.0","SS1613138191364","pref_reveal","","40","800","2907","null","null","","","","","0","","","","background","","","",""
"","null","html-keyboard-response","26","134837","0.0-11.0-0.0","SS1613138191364","","","null","","","","","<p><img src= images/blank.png width =""200"" height = ""200"" style = ""float:right""></p><p><img src=images/blank.png width =""800"" height = ""200""></p>","","","","","","","","","","","",""
"","4160","sequential-stimulus-presentation","27","139801","0.0-11.0-1.0","SS1613138191364","trial","","40","800","4960","images/stimuli/spore_stims/simple_01_A_a.gif","images/stimuli/spore_stims/simple_12_A_b.gif","","","","","1","simple_dissimilar","images/stimuli/spore_stims/simple_12_A_b.gif","left","","","","",""
"","null","html-keyboard-response","28","140792","0.0-11.0-0.1","SS1613138191364","","","null","","","","","<p><img src= images/blank.png width =""200"" height = ""200"" style = ""float:right""></p><p><img src=images/blank.png width =""800"" height = ""200""></p>","","","","","","","","","","","",""
"","99","sequential-stimulus-presentation","29","141696","0.0-11.0-1.1","SS1613138191364","trial","","40","800","899","images/stimuli/spore_stims/simple_01_A_a.gif","images/stimuli/spore_stims/simple_12_A_b.gif","","","","","1","simple_dissimilar","images/stimuli/spore_stims/simple_12_A_b.gif","left","","","","",""
"","null","html-keyboard-response","30","142728","0.0-11.0-0.2","SS1613138191364","","","null","","","","","<p><img src= images/blank.png width =""200"" height = ""200"" style = ""float:right""></p><p><img src=images/blank.png width =""800"" height = ""200""></p>","","","","","","","","","","","",""
"","917","sequential-stimulus-presentation","31","144447","0.0-11.0-1.2","SS1613138191364","trial","","40","800","1717","images/stimuli/spore_stims/simple_01_A_a.gif","images/stimuli/spore_stims/simple_12_A_b.gif","","","","","1","simple_dissimilar","images/stimuli/spore_stims/simple_12_A_b.gif","left","","","","",""
"","null","html-keyboard-response","32","145359","0.0-11.0-0.3","SS1613138191364","","","null","","","","","<p><img src= images/blank.png width =""200"" height = ""200"" style = ""float:right""></p><p><img src=images/blank.png width =""800"" height = ""200""></p>","","","","","","","","","","","",""
"","4527","sequential-stimulus-presentation","33","150701","0.0-11.0-1.3","SS1613138191364","trial","","40","800","5327","images/stimuli/spore_stims/simple_01_A_a.gif","images/stimuli/spore_stims/simple_12_A_b.gif","","","","","1","simple_dissimilar","images/stimuli/spore_stims/simple_01_A_a.gif","middle","","","","",""
"","null","html-keyboard-response","34","151620","0.0-11.0-0.4","SS1613138191364","","","null","","","","","<p><img src= images/blank.png width =""200"" height = ""200"" style = ""float:right""></p><p><img src=images/blank.png width =""800"" height = ""200""></p>","","","","","","","","","","","",""
"","1238","sequential-stimulus-presentation","35","153664","0.0-11.0-1.4","SS1613138191364","trial","","40","800","2038","images/stimuli/spore_stims/simple_01_A_a.gif","images/stimuli/spore_stims/simple_12_A_b.gif","","","","","1","simple_dissimilar","images/stimuli/spore_stims/simple_12_A_b.gif","left","","","","",""
"","null","html-keyboard-response","36","154727","0.0-11.0-0.5","SS1613138191364","","","null","","","","","<p><img src= images/blank.png width =""200"" height = ""200"" style = ""float:right""></p><p><img src=images/blank.png width =""800"" height = ""200""></p>","","","","","","","","","","","",""
"","651","sequential-stimulus-presentation","37","156185","0.0-11.0-1.5","SS1613138191364","trial","","40","800","1451","images/stimuli/spore_stims/simple_01_A_a.gif","images/stimuli/spore_stims/simple_12_A_b.gif","","","","","1","simple_dissimilar","images/stimuli/spore_stims/simple_12_A_b.gif","left","","","","",""
"","null","html-keyboard-response","38","157374","0.0-11.0-0.6","SS1613138191364","","","null","","","","","<p><img src= images/blank.png width =""200"" height = ""200"" style = ""float:right""></p><p><img src=images/blank.png width =""800"" height = ""200""></p>","","","","","","","","","","","",""
"","997","sequential-stimulus-presentation","39","159188","0.0-11.0-1.6","SS1613138191364","trial","","40","800","1797","images/stimuli/spore_stims/simple_01_A_a.gif","images/stimuli/spore_stims/simple_12_A_b.gif","","","","","1","simple_dissimilar","images/stimuli/spore_stims/simple_12_A_b.gif","left","","","","",""
"","null","html-keyboard-response","40","160365","0.0-11.0-0.7","SS1613138191364","","","null","","","","","<p><img src= images/blank.png width =""200"" height = ""200"" style = ""float:right""></p><p><img src=images/blank.png width =""800"" height = ""200""></p>","","","","","","","","","","","",""
"","1317","sequential-stimulus-presentation","41","162484","0.0-11.0-1.7","SS1613138191364","trial","","40","800","2117","images/stimuli/spore_stims/simple_01_A_a.gif","images/stimuli/spore_stims/simple_12_A_b.gif","","","","","1","simple_dissimilar","images/stimuli/spore_stims/simple_12_A_b.gif","left","","","","",""
"","2518","html-keyboard-response","42","165006","0.0-12.0","SS1613138191364","pref_question","","51","","","","","<video width ='960' height = '540' style='padding-top:8%' autoplay muted><source src='images/stimuli/wall_pref.mp4' type='video/mp4'></video>","3","right","66%","1","","","","","","","",""
"","5990","sequential-stimulus-presentation","43","171802","0.0-13.0","SS1613138191364","pref_reveal","","40","800","6790","null","null","","","","","1","","","","novel","","","",""
"","null","html-keyboard-response","44","172662","0.0-14.0-0.0","SS1613138191364","","","null","","","","","<p><img src= images/blank.png width =""200"" height = ""200"" style = ""float:right""></p><p><img src=images/blank.png width =""800"" height = ""200""></p>","","","","","","","","","","","",""
"","2541","sequential-stimulus-presentation","45","176008","0.0-14.0-1.0","SS1613138191364","trial","","40","800","3341","images/stimuli/spore_stims/simple_08_A_b.gif","images/stimuli/spore_stims/simple_07_B_a.gif","","","","","2","simple_dissimilar","images/stimuli/spore_stims/simple_07_B_a.gif","right","","","","",""
"","null","html-keyboard-response","46","177268","0.0-14.0-0.1","SS1613138191364","","","null","","","","","<p><img src= images/blank.png width =""200"" height = ""200"" style = ""float:right""></p><p><img src=images/blank.png width =""800"" height = ""200""></p>","","","","","","","","","","","",""
"","1881","sequential-stimulus-presentation","47","179966","0.0-14.0-1.1","SS1613138191364","trial","","40","800","2681","images/stimuli/spore_stims/simple_08_A_b.gif","images/stimuli/spore_stims/simple_07_B_a.gif","","","","","2","simple_dissimilar","images/stimuli/spore_stims/simple_07_B_a.gif","right","","","","",""
"","null","html-keyboard-response","48","181189","0.0-14.0-0.2","SS1613138191364","","","null","","","","","<p><img src= images/blank.png width =""200"" height = ""200"" style = ""float:right""></p><p><img src=images/blank.png width =""800"" height = ""200""></p>","","","","","","","","","","","",""
"","2531","sequential-stimulus-presentation","49","184527","0.0-14.0-1.2","SS1613138191364","trial","","40","800","3331","images/stimuli/spore_stims/simple_08_A_b.gif","images/stimuli/spore_stims/simple_07_B_a.gif","","","","","2","simple_dissimilar","images/stimuli/spore_stims/simple_07_B_a.gif","right","","","","",""
"","null","html-keyboard-response","50","185728","0.0-14.0-0.3","SS1613138191364","","","null","","","","","<p><img src= images/blank.png width =""200"" height = ""200"" style = ""float:right""></p><p><img src=images/blank.png width =""800"" height = ""200""></p>","","","","","","","","","","","",""
"","1606","sequential-stimulus-presentation","51","188135","0.0-14.0-1.3","SS1613138191364","trial","","40","800","2406","images/stimuli/spore_stims/simple_08_A_b.gif","images/stimuli/spore_stims/simple_07_B_a.gif","","","","","2","simple_dissimilar","images/stimuli/spore_stims/simple_07_B_a.gif","right","","","","",""
"","null","html-keyboard-response","52","189381","0.0-14.0-0.4","SS1613138191364","","","null","","","","","<p><img src= images/blank.png width =""200"" height = ""200"" style = ""float:right""></p><p><img src=images/blank.png width =""800"" height = ""200""></p>","","","","","","","","","","","",""
"","5394","sequential-stimulus-presentation","53","195588","0.0-14.0-1.4","SS1613138191364","trial","","40","800","6194","images/stimuli/spore_stims/simple_08_A_b.gif","images/stimuli/spore_stims/simple_07_B_a.gif","","","","","2","simple_dissimilar","images/stimuli/spore_stims/simple_08_A_b.gif","left","","","","",""
"","null","html-keyboard-response","54","196487","0.0-14.0-0.5","SS1613138191364","","","null","","","","","<p><img src= images/blank.png width =""200"" height = ""200"" style = ""float:right""></p><p><img src=images/blank.png width =""800"" height = ""200""></p>","","","","","","","","","","","",""
"","2133","sequential-stimulus-presentation","55","199427","0.0-14.0-1.5","SS1613138191364","trial","","40","800","2933","images/stimuli/spore_stims/simple_08_A_b.gif","images/stimuli/spore_stims/simple_07_B_a.gif","","","","","2","simple_dissimilar","images/stimuli/spore_stims/simple_07_B_a.gif","right","","","","",""
"","null","html-keyboard-response","56","200546","0.0-14.0-0.6","SS1613138191364","","","null","","","","","<p><img src= images/blank.png width =""200"" height = ""200"" style = ""float:right""></p><p><img src=images/blank.png width =""800"" height = ""200""></p>","","","","","","","","","","","",""
"","1730","sequential-stimulus-presentation","57","203091","0.0-14.0-1.6","SS1613138191364","trial","","40","800","2530","images/stimuli/spore_stims/simple_08_A_b.gif","images/stimuli/spore_stims/simple_07_B_a.gif","","","","","2","simple_dissimilar","images/stimuli/spore_stims/simple_07_B_a.gif","right","","","","",""
"","null","html-keyboard-response","58","204054","0.0-14.0-0.7","SS1613138191364","","","null","","","","","<p><img src= images/blank.png width =""200"" height = ""200"" style = ""float:right""></p><p><img src=images/blank.png width =""800"" height = ""200""></p>","","","","","","","","","","","",""
"","2019","sequential-stimulus-presentation","59","206890","0.0-14.0-1.7","SS1613138191364","trial","","40","800","2819","images/stimuli/spore_stims/simple_08_A_b.gif","images/stimuli/spore_stims/simple_07_B_a.gif","","","","","2","simple_dissimilar","images/stimuli/spore_stims/simple_07_B_a.gif","right","","","","",""
"","2849","html-keyboard-response","60","209743","0.0-15.0","SS1613138191364","pref_question","","49","","","","","<video width ='960' height = '540' style='padding-top:8%' autoplay muted><source src='images/stimuli/wall_pref.mp4' type='video/mp4'></video>","1","left","25%","2","","","","","","","",""
"","1669","sequential-stimulus-presentation","61","212218","0.0-16.0","SS1613138191364","pref_reveal","","40","800","2469","null","null","","","","","2","","","","deviant","","","",""
"","null","html-keyboard-response","62","213355","0.0-17.0-0.0","SS1613138191364","","","null","","","","","<p><img src= images/blank.png width =""200"" height = ""200"" style = ""float:right""></p><p><img src=images/blank.png width =""800"" height = ""200""></p>","","","","","","","","","","","",""
"","4644","sequential-stimulus-presentation","63","218803","0.0-17.0-1.0","SS1613138191364","trial","","40","800","5444","images/stimuli/spore_stims/complex_08_B_b.gif","images/stimuli/spore_stims/complex_08_A_b.gif","","","","","3","complex_similar","images/stimuli/spore_stims/complex_08_A_b.gif","right","","","","",""
"","null","html-keyboard-response","64","219668","0.0-17.0-0.1","SS1613138191364","","","null","","","","","<p><img src= images/blank.png width =""200"" height = ""200"" style = ""float:right""></p><p><img src=images/blank.png width =""800"" height = ""200""></p>","","","","","","","","","","","",""
"","1186","sequential-stimulus-presentation","65","221669","0.0-17.0-1.1","SS1613138191364","trial","","40","800","1986","images/stimuli/spore_stims/complex_08_B_b.gif","images/stimuli/spore_stims/complex_08_A_b.gif","","","","","3","complex_similar","images/stimuli/spore_stims/complex_08_A_b.gif","right","","","","",""
"","null","html-keyboard-response","66","222578","0.0-17.0-0.2","SS1613138191364","","","null","","","","","<p><img src= images/blank.png width =""200"" height = ""200"" style = ""float:right""></p><p><img src=images/blank.png width =""800"" height = ""200""></p>","","","","","","","","","","","",""
"","1084","sequential-stimulus-presentation","67","224476","0.0-17.0-1.2","SS1613138191364","trial","","40","800","1884","images/stimuli/spore_stims/complex_08_B_b.gif","images/stimuli/spore_stims/complex_08_A_b.gif","","","","","3","complex_similar","images/stimuli/spore_stims/complex_08_A_b.gif","right","","","","",""
"","null","html-keyboard-response","68","225564","0.0-17.0-0.3","SS1613138191364","","","null","","","","","<p><img src= images/blank.png width =""200"" height = ""200"" style = ""float:right""></p><p><img src=images/blank.png width =""800"" height = ""200""></p>","","","","","","","","","","","",""
"","592","sequential-stimulus-presentation","69","226972","0.0-17.0-1.3","SS1613138191364","trial","","40","800","1392","images/stimuli/spore_stims/complex_08_B_b.gif","images/stimuli/spore_stims/complex_08_A_b.gif","","","","","3","complex_similar","images/stimuli/spore_stims/complex_08_A_b.gif","right","","","","",""
"","null","html-keyboard-response","70","227999","0.0-17.0-0.4","SS1613138191364","","","null","","","","","<p><img src= images/blank.png width =""200"" height = ""200"" style = ""float:right""></p><p><img src=images/blank.png width =""800"" height = ""200""></p>","","","","","","","","","","","",""
"","1509","sequential-stimulus-presentation","71","230326","0.0-17.0-1.4","SS1613138191364","trial","","40","800","2309","images/stimuli/spore_stims/complex_08_B_b.gif","images/stimuli/spore_stims/complex_08_A_b.gif","","","","","3","complex_similar","images/stimuli/spore_stims/complex_08_A_b.gif","right","","","","",""
"","null","html-keyboard-response","72","231286","0.0-17.0-0.5","SS1613138191364","","","null","","","","","<p><img src= images/blank.png width =""200"" height = ""200"" style = ""float:right""></p><p><img src=images/blank.png width =""800"" height = ""200""></p>","","","","","","","","","","","",""
"","979","sequential-stimulus-presentation","73","233077","0.0-17.0-1.5","SS1613138191364","trial","","40","800","1779","images/stimuli/spore_stims/complex_08_B_b.gif","images/stimuli/spore_stims/complex_08_A_b.gif","","","","","3","complex_similar","images/stimuli/spore_stims/complex_08_A_b.gif","right","","","","",""
"","null","html-keyboard-response","74","234252","0.0-17.0-0.6","SS1613138191364","","","null","","","","","<p><img src= images/blank.png width =""200"" height = ""200"" style = ""float:right""></p><p><img src=images/blank.png width =""800"" height = ""200""></p>","","","","","","","","","","","",""
"","617","sequential-stimulus-presentation","75","235673","0.0-17.0-1.6","SS1613138191364","trial","","40","800","1417","images/stimuli/spore_stims/complex_08_B_b.gif","images/stimuli/spore_stims/complex_08_A_b.gif","","","","","3","complex_similar","images/stimuli/spore_stims/complex_08_A_b.gif","right","","","","",""
"","null","html-keyboard-response","76","236707","0.0-17.0-0.7","SS1613138191364","","","null","","","","","<p><img src= images/blank.png width =""200"" height = ""200"" style = ""float:right""></p><p><img src=images/blank.png width =""800"" height = ""200""></p>","","","","","","","","","","","",""
"","5587","sequential-stimulus-presentation","77","243096","0.0-17.0-1.7","SS1613138191364","trial","","40","800","6387","images/stimuli/spore_stims/complex_08_B_b.gif","images/stimuli/spore_stims/complex_08_A_b.gif","","","","","3","complex_similar","images/stimuli/spore_stims/complex_08_B_b.gif","left","","","","",""
"","2389","html-keyboard-response","78","245487","0.0-18.0","SS1613138191364","pref_question","","50","","","","","<video width ='960' height = '540' style='padding-top:8%' autoplay muted><source src='images/stimuli/wall_pref.mp4' type='video/mp4'></video>","2","middle","45%","3","","","","","","","",""
"","4570","sequential-stimulus-presentation","79","250870","0.0-19.0","SS1613138191364","pref_reveal","","40","800","5370","null","null","","","","","3","","","","novel","","","",""
"","null","html-keyboard-response","80","252095","0.0-20.0-0.0","SS1613138191364","","","null","","","","","<p><img src= images/blank.png width =""200"" height = ""200"" style = ""float:right""></p><p><img src=images/blank.png width =""800"" height = ""200""></p>","","","","","","","","","","","",""
"","3975","sequential-stimulus-presentation","81","256874","0.0-20.0-1.0","SS1613138191364","trial","","40","800","4775","images/stimuli/spore_stims/simple_06_B_a.gif","images/stimuli/spore_stims/simple_18_A_a.gif","","","","","4","simple_dissimilar","images/stimuli/spore_stims/simple_18_A_a.gif","right","","","","",""
"","null","html-keyboard-response","82","257934","0.0-20.0-0.1","SS1613138191364","","","null","","","","","<p><img src= images/blank.png width =""200"" height = ""200"" style = ""float:right""></p><p><img src=images/blank.png width =""800"" height = ""200""></p>","","","","","","","","","","","",""
"","1017","sequential-stimulus-presentation","83","259765","0.0-20.0-1.1","SS1613138191364","trial","","40","800","1817","images/stimuli/spore_stims/simple_06_B_a.gif","images/stimuli/spore_stims/simple_18_A_a.gif","","","","","4","simple_dissimilar","images/stimuli/spore_stims/simple_18_A_a.gif","right","","","","",""
"","null","html-keyboard-response","84","261050","0.0-20.0-0.2","SS1613138191364","","","null","","","","","<p><img src= images/blank.png width =""200"" height = ""200"" style = ""float:right""></p><p><img src=images/blank.png width =""800"" height = ""200""></p>","","","","","","","","","","","",""
"","1163","sequential-stimulus-presentation","85","263022","0.0-20.0-1.2","SS1613138191364","trial","","40","800","1963","images/stimuli/spore_stims/simple_06_B_a.gif","images/stimuli/spore_stims/simple_18_A_a.gif","","","","","4","simple_dissimilar","images/stimuli/spore_stims/simple_18_A_a.gif","right","","","","",""
"","null","html-keyboard-response","86","263901","0.0-20.0-0.3","SS1613138191364","","","null","","","","","<p><img src= images/blank.png width =""200"" height = ""200"" style = ""float:right""></p><p><img src=images/blank.png width =""800"" height = ""200""></p>","","","","","","","","","","","",""
"","1324","sequential-stimulus-presentation","87","266029","0.0-20.0-1.3","SS1613138191364","trial","","40","800","2124","images/stimuli/spore_stims/simple_06_B_a.gif","images/stimuli/spore_stims/simple_18_A_a.gif","","","","","4","simple_dissimilar","images/stimuli/spore_stims/simple_18_A_a.gif","right","","","","",""
"","null","html-keyboard-response","88","267266","0.0-20.0-0.4","SS1613138191364","","","null","","","","","<p><img src= images/blank.png width =""200"" height = ""200"" style = ""float:right""></p><p><img src=images/blank.png width =""800"" height = ""200""></p>","","","","","","","","","","","",""
"","1406","sequential-stimulus-presentation","89","269489","0.0-20.0-1.4","SS1613138191364","trial","","40","800","2206","images/stimuli/spore_stims/simple_06_B_a.gif","images/stimuli/spore_stims/simple_18_A_a.gif","","","","","4","simple_dissimilar","images/stimuli/spore_stims/simple_18_A_a.gif","right","","","","",""
"","null","html-keyboard-response","90","270788","0.0-20.0-0.5","SS1613138191364","","","null","","","","","<p><img src= images/blank.png width =""200"" height = ""200"" style = ""float:right""></p><p><img src=images/blank.png width =""800"" height = ""200""></p>","","","","","","","","","","","",""
"","432","sequential-stimulus-presentation","91","272030","0.0-20.0-1.5","SS1613138191364","trial","","40","800","1232","images/stimuli/spore_stims/simple_06_B_a.gif","images/stimuli/spore_stims/simple_18_A_a.gif","","","","","4","simple_dissimilar","images/stimuli/spore_stims/simple_18_A_a.gif","right","","","","",""
"","null","html-keyboard-response","92","272896","0.0-20.0-0.6","SS1613138191364","","","null","","","","","<p><img src= images/blank.png width =""200"" height = ""200"" style = ""float:right""></p><p><img src=images/blank.png width =""800"" height = ""200""></p>","","","","","","","","","","","",""
"","924","sequential-stimulus-presentation","93","274631","0.0-20.0-1.6","SS1613138191364","trial","","40","800","1724","images/stimuli/spore_stims/simple_06_B_a.gif","images/stimuli/spore_stims/simple_18_A_a.gif","","","","","4","simple_dissimilar","images/stimuli/spore_stims/simple_18_A_a.gif","right","","","","",""
"","null","html-keyboard-response","94","275644","0.0-20.0-0.7","SS1613138191364","","","null","","","","","<p><img src= images/blank.png width =""200"" height = ""200"" style = ""float:right""></p><p><img src=images/blank.png width =""800"" height = ""200""></p>","","","","","","","","","","","",""
"","5116","sequential-stimulus-presentation","95","281571","0.0-20.0-1.7","SS1613138191364","trial","","40","800","5916","images/stimuli/spore_stims/simple_06_B_a.gif","images/stimuli/spore_stims/simple_18_A_a.gif","","","","","4","simple_dissimilar","images/stimuli/spore_stims/simple_06_B_a.gif","left","","","","",""
"","2619","html-keyboard-response","96","284193","0.0-21.0","SS1613138191364","pref_question","","50","","","","","<video width ='960' height = '540' style='padding-top:8%' autoplay muted><source src='images/stimuli/wall_pref.mp4' type='video/mp4'></video>","2","middle","45%","4","","","","","","","",""
"","6078","sequential-stimulus-presentation","97","291084","0.0-22.0","SS1613138191364","pref_reveal","","40","800","6878","null","null","","","","","4","","","","novel","","","",""
"","null","html-keyboard-response","98","292098","0.0-23.0-0.0","SS1613138191364","","","null","","","","","<p><img src= images/blank.png width =""200"" height = ""200"" style = ""float:right""></p><p><img src=images/blank.png width =""800"" height = ""200""></p>","","","","","","","","","","","",""
"","3786","sequential-stimulus-presentation","99","296698","0.0-23.0-1.0","SS1613138191364","trial","","40","800","4586","images/stimuli/spore_stims/complex_13_A_b.gif","images/stimuli/spore_stims/complex_13_B_b.gif","","","","","5","complex_similar","images/stimuli/spore_stims/complex_13_B_b.gif","middle","","","","",""
"","null","html-keyboard-response","100","297939","0.0-23.0-0.1","SS1613138191364","","","null","","","","","<p><img src= images/blank.png width =""200"" height = ""200"" style = ""float:right""></p><p><img src=images/blank.png width =""800"" height = ""200""></p>","","","","","","","","","","","",""
"","1133","sequential-stimulus-presentation","101","299885","0.0-23.0-1.1","SS1613138191364","trial","","40","800","1933","images/stimuli/spore_stims/complex_13_A_b.gif","images/stimuli/spore_stims/complex_13_B_b.gif","","","","","5","complex_similar","images/stimuli/spore_stims/complex_13_B_b.gif","middle","","","","",""
"","null","html-keyboard-response","102","300912","0.0-23.0-0.2","SS1613138191364","","","null","","","","","<p><img src= images/blank.png width =""200"" height = ""200"" style = ""float:right""></p><p><img src=images/blank.png width =""800"" height = ""200""></p>","","","","","","","","","","","",""
"","1996","sequential-stimulus-presentation","103","303719","0.0-23.0-1.2","SS1613138191364","trial","","40","800","2796","images/stimuli/spore_stims/complex_13_A_b.gif","images/stimuli/spore_stims/complex_13_B_b.gif","","","","","5","complex_similar","images/stimuli/spore_stims/complex_13_B_b.gif","middle","","","","",""
"","null","html-keyboard-response","104","304801","0.0-23.0-0.3","SS1613138191364","","","null","","","","","<p><img src= images/blank.png width =""200"" height = ""200"" style = ""float:right""></p><p><img src=images/blank.png width =""800"" height = ""200""></p>","","","","","","","","","","","",""
"","1569","sequential-stimulus-presentation","105","307187","0.0-23.0-1.3","SS1613138191364","trial","","40","800","2369","images/stimuli/spore_stims/complex_13_A_b.gif","images/stimuli/spore_stims/complex_13_B_b.gif","","","","","5","complex_similar","images/stimuli/spore_stims/complex_13_B_b.gif","middle","","","","",""
"","null","html-keyboard-response","106","308015","0.0-23.0-0.4","SS1613138191364","","","null","","","","","<p><img src= images/blank.png width =""200"" height = ""200"" style = ""float:right""></p><p><img src=images/blank.png width =""800"" height = ""200""></p>","","","","","","","","","","","",""
"","1586","sequential-stimulus-presentation","107","310416","0.0-23.0-1.4","SS1613138191364","trial","","40","800","2386","images/stimuli/spore_stims/complex_13_A_b.gif","images/stimuli/spore_stims/complex_13_B_b.gif","","","","","5","complex_similar","images/stimuli/spore_stims/complex_13_B_b.gif","middle","","","","",""
"","null","html-keyboard-response","108","311630","0.0-23.0-0.5","SS1613138191364","","","null","","","","","<p><img src= images/blank.png width =""200"" height = ""200"" style = ""float:right""></p><p><img src=images/blank.png width =""800"" height = ""200""></p>","","","","","","","","","","","",""
"","1340","sequential-stimulus-presentation","109","313783","0.0-23.0-1.5","SS1613138191364","trial","","40","800","2140","images/stimuli/spore_stims/complex_13_A_b.gif","images/stimuli/spore_stims/complex_13_B_b.gif","","","","","5","complex_similar","images/stimuli/spore_stims/complex_13_B_b.gif","middle","","","","",""
"","null","html-keyboard-response","110","314833","0.0-23.0-0.6","SS1613138191364","","","null","","","","","<p><img src= images/blank.png width =""200"" height = ""200"" style = ""float:right""></p><p><img src=images/blank.png width =""800"" height = ""200""></p>","","","","","","","","","","","",""
"","1670","sequential-stimulus-presentation","111","317306","0.0-23.0-1.6","SS1613138191364","trial","","40","800","2470","images/stimuli/spore_stims/complex_13_A_b.gif","images/stimuli/spore_stims/complex_13_B_b.gif","","","","","5","complex_similar","images/stimuli/spore_stims/complex_13_B_b.gif","middle","","","","",""
"","null","html-keyboard-response","112","318245","0.0-23.0-0.7","SS1613138191364","","","null","","","","","<p><img src= images/blank.png width =""200"" height = ""200"" style = ""float:right""></p><p><img src=images/blank.png width =""800"" height = ""200""></p>","","","","","","","","","","","",""
"","4491","sequential-stimulus-presentation","113","323541","0.0-23.0-1.7","SS1613138191364","trial","","40","800","5291","images/stimuli/spore_stims/complex_13_A_b.gif","images/stimuli/spore_stims/complex_13_B_b.gif","","","","","5","complex_similar","images/stimuli/spore_stims/complex_13_A_b.gif","right","","","","",""
"","2478","html-keyboard-response","114","326022","0.0-24.0","SS1613138191364","pref_question","","49","","","","","<video width ='960' height = '540' style='padding-top:8%' autoplay muted><source src='images/stimuli/wall_pref.mp4' type='video/mp4'></video>","1","left","25%","5","","","","","","","",""
"","4478","sequential-stimulus-presentation","115","331311","0.0-25.0","SS1613138191364","pref_reveal","","40","800","5278","null","null","","","","","5","","","","novel","","","",""
"","null","html-keyboard-response","116","332599","0.0-26.0-0.0","SS1613138191364","","","null","","","","","<p><img src= images/blank.png width =""200"" height = ""200"" style = ""float:right""></p><p><img src=images/blank.png width =""800"" height = ""200""></p>","","","","","","","","","","","",""
"","3688","sequential-stimulus-presentation","117","337098","0.0-26.0-1.0","SS1613138191364","trial","","40","800","4488","images/stimuli/spore_stims/simple_04_A_c.gif","images/stimuli/spore_stims/simple_06_A_c.gif","","","","","6","simple_dissimilar","images/stimuli/spore_stims/simple_06_A_c.gif","right","","","","",""
"","null","html-keyboard-response","118","338166","0.0-26.0-0.1","SS1613138191364","","","null","","","","","<p><img src= images/blank.png width =""200"" height = ""200"" style = ""float:right""></p><p><img src=images/blank.png width =""800"" height = ""200""></p>","","","","","","","","","","","",""
"","3526","sequential-stimulus-presentation","119","342496","0.0-26.0-1.1","SS1613138191364","trial","","40","800","4326","images/stimuli/spore_stims/simple_04_A_c.gif","images/stimuli/spore_stims/simple_06_A_c.gif","","","","","6","simple_dissimilar","images/stimuli/spore_stims/simple_06_A_c.gif","right","","","","",""
"","null","html-keyboard-response","120","343576","0.0-26.0-0.2","SS1613138191364","","","null","","","","","<p><img src= images/blank.png width =""200"" height = ""200"" style = ""float:right""></p><p><img src=images/blank.png width =""800"" height = ""200""></p>","","","","","","","","","","","",""
"","901","sequential-stimulus-presentation","121","345283","0.0-26.0-1.2","SS1613138191364","trial","","40","800","1701","images/stimuli/spore_stims/simple_04_A_c.gif","images/stimuli/spore_stims/simple_06_A_c.gif","","","","","6","simple_dissimilar","images/stimuli/spore_stims/simple_06_A_c.gif","right","","","","",""
"","null","html-keyboard-response","122","346542","0.0-26.0-0.3","SS1613138191364","","","null","","","","","<p><img src= images/blank.png width =""200"" height = ""200"" style = ""float:right""></p><p><img src=images/blank.png width =""800"" height = ""200""></p>","","","","","","","","","","","",""
"","608","sequential-stimulus-presentation","123","347954","0.0-26.0-1.3","SS1613138191364","trial","","40","800","1408","images/stimuli/spore_stims/simple_04_A_c.gif","images/stimuli/spore_stims/simple_06_A_c.gif","","","","","6","simple_dissimilar","images/stimuli/spore_stims/simple_06_A_c.gif","right","","","","",""
"","null","html-keyboard-response","124","348806","0.0-26.0-0.4","SS1613138191364","","","null","","","","","<p><img src= images/blank.png width =""200"" height = ""200"" style = ""float:right""></p><p><img src=images/blank.png width =""800"" height = ""200""></p>","","","","","","","","","","","",""
"","573","sequential-stimulus-presentation","125","350184","0.0-26.0-1.4","SS1613138191364","trial","","40","800","1373","images/stimuli/spore_stims/simple_04_A_c.gif","images/stimuli/spore_stims/simple_06_A_c.gif","","","","","6","simple_dissimilar","images/stimuli/spore_stims/simple_06_A_c.gif","right","","","","",""
"","null","html-keyboard-response","126","351274","0.0-26.0-0.5","SS1613138191364","","","null","","","","","<p><img src= images/blank.png width =""200"" height = ""200"" style = ""float:right""></p><p><img src=images/blank.png width =""800"" height = ""200""></p>","","","","","","","","","","","",""
"","493","sequential-stimulus-presentation","127","352585","0.0-26.0-1.5","SS1613138191364","trial","","40","800","1293","images/stimuli/spore_stims/simple_04_A_c.gif","images/stimuli/spore_stims/simple_06_A_c.gif","","","","","6","simple_dissimilar","images/stimuli/spore_stims/simple_06_A_c.gif","right","","","","",""
"","null","html-keyboard-response","128","353583","0.0-26.0-0.6","SS1613138191364","","","null","","","","","<p><img src= images/blank.png width =""200"" height = ""200"" style = ""float:right""></p><p><img src=images/blank.png width =""800"" height = ""200""></p>","","","","","","","","","","","",""
"","3785","sequential-stimulus-presentation","129","358178","0.0-26.0-1.6","SS1613138191364","trial","","40","800","4585","images/stimuli/spore_stims/simple_04_A_c.gif","images/stimuli/spore_stims/simple_06_A_c.gif","","","","","6","simple_dissimilar","images/stimuli/spore_stims/simple_04_A_c.gif","middle","","","","",""
"","null","html-keyboard-response","130","359106","0.0-26.0-0.7","SS1613138191364","","","null","","","","","<p><img src= images/blank.png width =""200"" height = ""200"" style = ""float:right""></p><p><img src=images/blank.png width =""800"" height = ""200""></p>","","","","","","","","","","","",""
"","1012","sequential-stimulus-presentation","131","360925","0.0-26.0-1.7","SS1613138191364","trial","","40","800","1812","images/stimuli/spore_stims/simple_04_A_c.gif","images/stimuli/spore_stims/simple_06_A_c.gif","","","","","6","simple_dissimilar","images/stimuli/spore_stims/simple_06_A_c.gif","right","","","","",""
"","2477","html-keyboard-response","132","363406","0.0-27.0","SS1613138191364","pref_question","","49","","","","","<video width ='960' height = '540' style='padding-top:8%' autoplay muted><source src='images/stimuli/wall_pref.mp4' type='video/mp4'></video>","1","left","25%","6","","","","","","","",""
"","3713","sequential-stimulus-presentation","133","367937","0.0-28.0","SS1613138191364","pref_reveal","","40","800","4513","null","null","","","","","6","","","","novel","","","",""
"","null","html-keyboard-response","134","369133","0.0-29.0-0.0","SS1613138191364","","","null","","","","","<p><img src= images/blank.png width =""200"" height = ""200"" style = ""float:right""></p><p><img src=images/blank.png width =""800"" height = ""200""></p>","","","","","","","","","","","",""
"","4720","sequential-stimulus-presentation","135","374668","0.0-29.0-1.0","SS1613138191364","trial","","40","800","5520","images/stimuli/spore_stims/simple_12_A_c.gif","images/stimuli/spore_stims/simple_12_B_c.gif","","","","","7","simple_similar","images/stimuli/spore_stims/simple_12_B_c.gif","middle","","","","",""
"","null","html-keyboard-response","136","375875","0.0-29.0-0.1","SS1613138191364","","","null","","","","","<p><img src= images/blank.png width =""200"" height = ""200"" style = ""float:right""></p><p><img src=images/blank.png width =""800"" height = ""200""></p>","","","","","","","","","","","",""
"","5630","sequential-stimulus-presentation","137","382321","0.0-29.0-1.1","SS1613138191364","trial","","40","800","6430","images/stimuli/spore_stims/simple_12_A_c.gif","images/stimuli/spore_stims/simple_12_B_c.gif","","","","","7","simple_similar","images/stimuli/spore_stims/simple_12_B_c.gif","middle","","","","",""
"","null","html-keyboard-response","138","383408","0.0-29.0-0.2","SS1613138191364","","","null","","","","","<p><img src= images/blank.png width =""200"" height = ""200"" style = ""float:right""></p><p><img src=images/blank.png width =""800"" height = ""200""></p>","","","","","","","","","","","",""
"","1617","sequential-stimulus-presentation","139","385839","0.0-29.0-1.2","SS1613138191364","trial","","40","800","2417","images/stimuli/spore_stims/simple_12_A_c.gif","images/stimuli/spore_stims/simple_12_B_c.gif","","","","","7","simple_similar","images/stimuli/spore_stims/simple_12_B_c.gif","middle","","","","",""
"","null","html-keyboard-response","140","386847","0.0-29.0-0.3","SS1613138191364","","","null","","","","","<p><img src= images/blank.png width =""200"" height = ""200"" style = ""float:right""></p><p><img src=images/blank.png width =""800"" height = ""200""></p>","","","","","","","","","","","",""
"","512","sequential-stimulus-presentation","141","388175","0.0-29.0-1.3","SS1613138191364","trial","","40","800","1312","images/stimuli/spore_stims/simple_12_A_c.gif","images/stimuli/spore_stims/simple_12_B_c.gif","","","","","7","simple_similar","images/stimuli/spore_stims/simple_12_B_c.gif","middle","","","","",""
"","null","html-keyboard-response","142","389223","0.0-29.0-0.4","SS1613138191364","","","null","","","","","<p><img src= images/blank.png width =""200"" height = ""200"" style = ""float:right""></p><p><img src=images/blank.png width =""800"" height = ""200""></p>","","","","","","","","","","","",""
"","449","sequential-stimulus-presentation","143","390484","0.0-29.0-1.4","SS1613138191364","trial","","40","800","1249","images/stimuli/spore_stims/simple_12_A_c.gif","images/stimuli/spore_stims/simple_12_B_c.gif","","","","","7","simple_similar","images/stimuli/spore_stims/simple_12_B_c.gif","middle","","","","",""
"","null","html-keyboard-response","144","391599","0.0-29.0-0.5","SS1613138191364","","","null","","","","","<p><img src= images/blank.png width =""200"" height = ""200"" style = ""float:right""></p><p><img src=images/blank.png width =""800"" height = ""200""></p>","","","","","","","","","","","",""
"","547","sequential-stimulus-presentation","145","392951","0.0-29.0-1.5","SS1613138191364","trial","","40","800","1347","images/stimuli/spore_stims/simple_12_A_c.gif","images/stimuli/spore_stims/simple_12_B_c.gif","","","","","7","simple_similar","images/stimuli/spore_stims/simple_12_B_c.gif","middle","","","","",""
"","null","html-keyboard-response","146","394004","0.0-29.0-0.6","SS1613138191364","","","null","","","","","<p><img src= images/blank.png width =""200"" height = ""200"" style = ""float:right""></p><p><img src=images/blank.png width =""800"" height = ""200""></p>","","","","","","","","","","","",""
"","811","sequential-stimulus-presentation","147","395627","0.0-29.0-1.6","SS1613138191364","trial","","40","800","1611","images/stimuli/spore_stims/simple_12_A_c.gif","images/stimuli/spore_stims/simple_12_B_c.gif","","","","","7","simple_similar","images/stimuli/spore_stims/simple_12_B_c.gif","middle","","","","",""
"","null","html-keyboard-response","148","396691","0.0-29.0-0.7","SS1613138191364","","","null","","","","","<p><img src= images/blank.png width =""200"" height = ""200"" style = ""float:right""></p><p><img src=images/blank.png width =""800"" height = ""200""></p>","","","","","","","","","","","",""
"","2040","sequential-stimulus-presentation","149","399547","0.0-29.0-1.7","SS1613138191364","trial","","40","800","2840","images/stimuli/spore_stims/simple_12_A_c.gif","images/stimuli/spore_stims/simple_12_B_c.gif","","","","","7","simple_similar","images/stimuli/spore_stims/simple_12_A_c.gif","right","","","","",""
"","2307","html-keyboard-response","150","401857","0.0-30.0","SS1613138191364","pref_question","","49","","","","","<video width ='960' height = '540' style='padding-top:8%' autoplay muted><source src='images/stimuli/wall_pref.mp4' type='video/mp4'></video>","1","left","25%","7","","","","","","","",""
"","2348","sequential-stimulus-presentation","151","405019","0.0-31.0","SS1613138191364","pref_reveal","","40","800","3148","null","null","","","","","7","","","","novel","","","",""
"","null","html-keyboard-response","152","406024","0.0-32.0-0.0","SS1613138191364","","","null","","","","","<p><img src= images/blank.png width =""200"" height = ""200"" style = ""float:right""></p><p><img src=images/blank.png width =""800"" height = ""200""></p>","","","","","","","","","","","",""
"","4534","sequential-stimulus-presentation","153","411370","0.0-32.0-1.0","SS1613138191364","trial","","40","800","5334","images/stimuli/spore_stims/complex_16_A_c.gif","images/stimuli/spore_stims/complex_16_B_c.gif","","","","","8","complex_similar","images/stimuli/spore_stims/complex_16_B_c.gif","middle","","","","",""
"","null","html-keyboard-response","154","412276","0.0-32.0-0.1","SS1613138191364","","","null","","","","","<p><img src= images/blank.png width =""200"" height = ""200"" style = ""float:right""></p><p><img src=images/blank.png width =""800"" height = ""200""></p>","","","","","","","","","","","",""
"","2309","sequential-stimulus-presentation","155","415389","0.0-32.0-1.1","SS1613138191364","trial","","40","800","3109","images/stimuli/spore_stims/complex_16_A_c.gif","images/stimuli/spore_stims/complex_16_B_c.gif","","","","","8","complex_similar","images/stimuli/spore_stims/complex_16_B_c.gif","middle","","","","",""
"","null","html-keyboard-response","156","416390","0.0-32.0-0.2","SS1613138191364","","","null","","","","","<p><img src= images/blank.png width =""200"" height = ""200"" style = ""float:right""></p><p><img src=images/blank.png width =""800"" height = ""200""></p>","","","","","","","","","","","",""
"","492","sequential-stimulus-presentation","157","417699","0.0-32.0-1.2","SS1613138191364","trial","","40","800","1292","images/stimuli/spore_stims/complex_16_A_c.gif","images/stimuli/spore_stims/complex_16_B_c.gif","","","","","8","complex_similar","images/stimuli/spore_stims/complex_16_B_c.gif","middle","","","","",""
"","null","html-keyboard-response","158","418693","0.0-32.0-0.3","SS1613138191364","","","null","","","","","<p><img src= images/blank.png width =""200"" height = ""200"" style = ""float:right""></p><p><img src=images/blank.png width =""800"" height = ""200""></p>","","","","","","","","","","","",""
"","483","sequential-stimulus-presentation","159","419995","0.0-32.0-1.3","SS1613138191364","trial","","40","800","1283","images/stimuli/spore_stims/complex_16_A_c.gif","images/stimuli/spore_stims/complex_16_B_c.gif","","","","","8","complex_similar","images/stimuli/spore_stims/complex_16_B_c.gif","middle","","","","",""
"","null","html-keyboard-response","160","421160","0.0-32.0-0.4","SS1613138191364","","","null","","","","","<p><img src= images/blank.png width =""200"" height = ""200"" style = ""float:right""></p><p><img src=images/blank.png width =""800"" height = ""200""></p>","","","","","","","","","","","",""
"","3321","sequential-stimulus-presentation","161","425293","0.0-32.0-1.4","SS1613138191364","trial","","40","800","4121","images/stimuli/spore_stims/complex_16_A_c.gif","images/stimuli/spore_stims/complex_16_B_c.gif","","","","","8","complex_similar","images/stimuli/spore_stims/complex_16_A_c.gif","right","","","","",""
"","null","html-keyboard-response","162","426360","0.0-32.0-0.5","SS1613138191364","","","null","","","","","<p><img src= images/blank.png width =""200"" height = ""200"" style = ""float:right""></p><p><img src=images/blank.png width =""800"" height = ""200""></p>","","","","","","","","","","","",""
"","3915","sequential-stimulus-presentation","163","431092","0.0-32.0-1.5","SS1613138191364","trial","","40","800","4715","images/stimuli/spore_stims/complex_16_A_c.gif","images/stimuli/spore_stims/complex_16_B_c.gif","","","","","8","complex_similar","images/stimuli/spore_stims/complex_16_B_c.gif","middle","","","","",""
"","null","html-keyboard-response","164","431913","0.0-32.0-0.6","SS1613138191364","","","null","","","","","<p><img src= images/blank.png width =""200"" height = ""200"" style = ""float:right""></p><p><img src=images/blank.png width =""800"" height = ""200""></p>","","","","","","","","","","","",""
"","1042","sequential-stimulus-presentation","165","433772","0.0-32.0-1.6","SS1613138191364","trial","","40","800","1842","images/stimuli/spore_stims/complex_16_A_c.gif","images/stimuli/spore_stims/complex_16_B_c.gif","","","","","8","complex_similar","images/stimuli/spore_stims/complex_16_B_c.gif","middle","","","","",""
"","null","html-keyboard-response","166","435002","0.0-32.0-0.7","SS1613138191364","","","null","","","","","<p><img src= images/blank.png width =""200"" height = ""200"" style = ""float:right""></p><p><img src=images/blank.png width =""800"" height = ""200""></p>","","","","","","","","","","","",""
"","1343","sequential-stimulus-presentation","167","437160","0.0-32.0-1.7","SS1613138191364","trial","","40","800","2143","images/stimuli/spore_stims/complex_16_A_c.gif","images/stimuli/spore_stims/complex_16_B_c.gif","","","","","8","complex_similar","images/stimuli/spore_stims/complex_16_B_c.gif","middle","","","","",""
"","2708","html-keyboard-response","168","439872","0.0-33.0","SS1613138191364","pref_question","","49","","","","","<video width ='960' height = '540' style='padding-top:8%' autoplay muted><source src='images/stimuli/wall_pref.mp4' type='video/mp4'></video>","1","left","25%","8","","","","","","","",""
"","4654","sequential-stimulus-presentation","169","445345","0.0-34.0","SS1613138191364","pref_reveal","","40","800","5454","null","null","","","","","8","","","","novel","","","",""
"","null","html-keyboard-response","170","446465","0.0-35.0-0.0","SS1613138191364","","","null","","","","","<p><img src= images/blank.png width =""200"" height = ""200"" style = ""float:right""></p><p><img src=images/blank.png width =""800"" height = ""200""></p>","","","","","","","","","","","",""
"","3667","sequential-stimulus-presentation","171","450939","0.0-35.0-1.0","SS1613138191364","trial","","40","800","4467","images/stimuli/spore_stims/complex_20_B_d.gif","images/stimuli/spore_stims/complex_20_A_d.gif","","","","","9","complex_similar","images/stimuli/spore_stims/complex_20_A_d.gif","middle","","","","",""
"","null","html-keyboard-response","172","452116","0.0-35.0-0.1","SS1613138191364","","","null","","","","","<p><img src= images/blank.png width =""200"" height = ""200"" style = ""float:right""></p><p><img src=images/blank.png width =""800"" height = ""200""></p>","","","","","","","","","","","",""
"","1348","sequential-stimulus-presentation","173","454271","0.0-35.0-1.1","SS1613138191364","trial","","40","800","2148","images/stimuli/spore_stims/complex_20_B_d.gif","images/stimuli/spore_stims/complex_20_A_d.gif","","","","","9","complex_similar","images/stimuli/spore_stims/complex_20_A_d.gif","middle","","","","",""
"","null","html-keyboard-response","174","455533","0.0-35.0-0.2","SS1613138191364","","","null","","","","","<p><img src= images/blank.png width =""200"" height = ""200"" style = ""float:right""></p><p><img src=images/blank.png width =""800"" height = ""200""></p>","","","","","","","","","","","",""
"","1146","sequential-stimulus-presentation","175","457500","0.0-35.0-1.2","SS1613138191364","trial","","40","800","1946","images/stimuli/spore_stims/complex_20_B_d.gif","images/stimuli/spore_stims/complex_20_A_d.gif","","","","","9","complex_similar","images/stimuli/spore_stims/complex_20_A_d.gif","middle","","","","",""
"","null","html-keyboard-response","176","458426","0.0-35.0-0.3","SS1613138191364","","","null","","","","","<p><img src= images/blank.png width =""200"" height = ""200"" style = ""float:right""></p><p><img src=images/blank.png width =""800"" height = ""200""></p>","","","","","","","","","","","",""
"","513","sequential-stimulus-presentation","177","459755","0.0-35.0-1.3","SS1613138191364","trial","","40","800","1313","images/stimuli/spore_stims/complex_20_B_d.gif","images/stimuli/spore_stims/complex_20_A_d.gif","","","","","9","complex_similar","images/stimuli/spore_stims/complex_20_A_d.gif","middle","","","","",""
"","null","html-keyboard-response","178","460657","0.0-35.0-0.4","SS1613138191364","","","null","","","","","<p><img src= images/blank.png width =""200"" height = ""200"" style = ""float:right""></p><p><img src=images/blank.png width =""800"" height = ""200""></p>","","","","","","","","","","","",""
"","1839","sequential-stimulus-presentation","179","463312","0.0-35.0-1.4","SS1613138191364","trial","","40","800","2639","images/stimuli/spore_stims/complex_20_B_d.gif","images/stimuli/spore_stims/complex_20_A_d.gif","","","","","9","complex_similar","images/stimuli/spore_stims/complex_20_A_d.gif","middle","","","","",""
"","null","html-keyboard-response","180","464254","0.0-35.0-0.5","SS1613138191364","","","null","","","","","<p><img src= images/blank.png width =""200"" height = ""200"" style = ""float:right""></p><p><img src=images/blank.png width =""800"" height = ""200""></p>","","","","","","","","","","","",""
"","1142","sequential-stimulus-presentation","181","466205","0.0-35.0-1.5","SS1613138191364","trial","","40","800","1942","images/stimuli/spore_stims/complex_20_B_d.gif","images/stimuli/spore_stims/complex_20_A_d.gif","","","","","9","complex_similar","images/stimuli/spore_stims/complex_20_A_d.gif","middle","","","","",""
"","null","html-keyboard-response","182","467462","0.0-35.0-0.6","SS1613138191364","","","null","","","","","<p><img src= images/blank.png width =""200"" height = ""200"" style = ""float:right""></p><p><img src=images/blank.png width =""800"" height = ""200""></p>","","","","","","","","","","","",""
"","1203","sequential-stimulus-presentation","183","469482","0.0-35.0-1.6","SS1613138191364","trial","","40","800","2003","images/stimuli/spore_stims/complex_20_B_d.gif","images/stimuli/spore_stims/complex_20_A_d.gif","","","","","9","complex_similar","images/stimuli/spore_stims/complex_20_A_d.gif","middle","","","","",""
"","null","html-keyboard-response","184","470733","0.0-35.0-0.7","SS1613138191364","","","null","","","","","<p><img src= images/blank.png width =""200"" height = ""200"" style = ""float:right""></p><p><img src=images/blank.png width =""800"" height = ""200""></p>","","","","","","","","","","","",""
"","3979","sequential-stimulus-presentation","185","475526","0.0-35.0-1.7","SS1613138191364","trial","","40","800","4779","images/stimuli/spore_stims/complex_20_B_d.gif","images/stimuli/spore_stims/complex_20_A_d.gif","","","","","9","complex_similar","images/stimuli/spore_stims/complex_20_B_d.gif","right","","","","",""
"","2673","html-keyboard-response","186","478203","0.0-36.0","SS1613138191364","pref_question","","49","","","","","<video width ='960' height = '540' style='padding-top:8%' autoplay muted><source src='images/stimuli/wall_pref.mp4' type='video/mp4'></video>","1","left","25%","9","","","","","","","",""
"","4020","sequential-stimulus-presentation","187","483039","0.0-37.0","SS1613138191364","pref_reveal","","40","800","4820","null","null","","","","","9","","","","novel","","","",""
"","null","html-keyboard-response","188","484319","0.0-38.0-0.0","SS1613138191364","","","null","","","","","<p><img src= images/blank.png width =""200"" height = ""200"" style = ""float:right""></p><p><img src=images/blank.png width =""800"" height = ""200""></p>","","","","","","","","","","","",""
"","3344","sequential-stimulus-presentation","189","488482","0.0-38.0-1.0","SS1613138191364","trial","","40","800","4144","images/stimuli/spore_stims/simple_11_B_b.gif","images/stimuli/spore_stims/simple_05_A_d.gif","","","","","10","simple_dissimilar","images/stimuli/spore_stims/simple_05_A_d.gif","left","","","","",""
"","null","html-keyboard-response","190","489506","0.0-38.0-0.1","SS1613138191364","","","null","","","","","<p><img src= images/blank.png width =""200"" height = ""200"" style = ""float:right""></p><p><img src=images/blank.png width =""800"" height = ""200""></p>","","","","","","","","","","","",""
"","2662","sequential-stimulus-presentation","191","492978","0.0-38.0-1.1","SS1613138191364","trial","","40","800","3462","images/stimuli/spore_stims/simple_11_B_b.gif","images/stimuli/spore_stims/simple_05_A_d.gif","","","","","10","simple_dissimilar","images/stimuli/spore_stims/simple_05_A_d.gif","left","","","","",""
"","null","html-keyboard-response","192","494238","0.0-38.0-0.2","SS1613138191364","","","null","","","","","<p><img src= images/blank.png width =""200"" height = ""200"" style = ""float:right""></p><p><img src=images/blank.png width =""800"" height = ""200""></p>","","","","","","","","","","","",""
"","986","sequential-stimulus-presentation","193","496040","0.0-38.0-1.2","SS1613138191364","trial","","40","800","1786","images/stimuli/spore_stims/simple_11_B_b.gif","images/stimuli/spore_stims/simple_05_A_d.gif","","","","","10","simple_dissimilar","images/stimuli/spore_stims/simple_05_A_d.gif","left","","","","",""
"","null","html-keyboard-response","194","497181","0.0-38.0-0.3","SS1613138191364","","","null","","","","","<p><img src= images/blank.png width =""200"" height = ""200"" style = ""float:right""></p><p><img src=images/blank.png width =""800"" height = ""200""></p>","","","","","","","","","","","",""
"","768","sequential-stimulus-presentation","195","498767","0.0-38.0-1.3","SS1613138191364","trial","","40","800","1568","images/stimuli/spore_stims/simple_11_B_b.gif","images/stimuli/spore_stims/simple_05_A_d.gif","","","","","10","simple_dissimilar","images/stimuli/spore_stims/simple_05_A_d.gif","left","","","","",""
"","null","html-keyboard-response","196","499823","0.0-38.0-0.4","SS1613138191364","","","null","","","","","<p><img src= images/blank.png width =""200"" height = ""200"" style = ""float:right""></p><p><img src=images/blank.png width =""800"" height = ""200""></p>","","","","","","","","","","","",""
"","1026","sequential-stimulus-presentation","197","501667","0.0-38.0-1.4","SS1613138191364","trial","","40","800","1826","images/stimuli/spore_stims/simple_11_B_b.gif","images/stimuli/spore_stims/simple_05_A_d.gif","","","","","10","simple_dissimilar","images/stimuli/spore_stims/simple_05_A_d.gif","left","","","","",""
"","null","html-keyboard-response","198","502910","0.0-38.0-0.5","SS1613138191364","","","null","","","","","<p><img src= images/blank.png width =""200"" height = ""200"" style = ""float:right""></p><p><img src=images/blank.png width =""800"" height = ""200""></p>","","","","","","","","","","","",""
"","3174","sequential-stimulus-presentation","199","506896","0.0-38.0-1.5","SS1613138191364","trial","","40","800","3974","images/stimuli/spore_stims/simple_11_B_b.gif","images/stimuli/spore_stims/simple_05_A_d.gif","","","","","10","simple_dissimilar","images/stimuli/spore_stims/simple_11_B_b.gif","middle","","","","",""
"","null","html-keyboard-response","200","508021","0.0-38.0-0.6","SS1613138191364","","","null","","","","","<p><img src= images/blank.png width =""200"" height = ""200"" style = ""float:right""></p><p><img src=images/blank.png width =""800"" height = ""200""></p>","","","","","","","","","","","",""
"","1289","sequential-stimulus-presentation","201","510129","0.0-38.0-1.6","SS1613138191364","trial","","40","800","2089","images/stimuli/spore_stims/simple_11_B_b.gif","images/stimuli/spore_stims/simple_05_A_d.gif","","","","","10","simple_dissimilar","images/stimuli/spore_stims/simple_05_A_d.gif","left","","","","",""
"","null","html-keyboard-response","202","511107","0.0-38.0-0.7","SS1613138191364","","","null","","","","","<p><img src= images/blank.png width =""200"" height = ""200"" style = ""float:right""></p><p><img src=images/blank.png width =""800"" height = ""200""></p>","","","","","","","","","","","",""
"","1004","sequential-stimulus-presentation","203","512930","0.0-38.0-1.7","SS1613138191364","trial","","40","800","1804","images/stimuli/spore_stims/simple_11_B_b.gif","images/stimuli/spore_stims/simple_05_A_d.gif","","","","","10","simple_dissimilar","images/stimuli/spore_stims/simple_05_A_d.gif","left","","","","",""
"","2722","html-keyboard-response","204","515657","0.0-39.0","SS1613138191364","pref_question","","51","","","","","<video width ='960' height = '540' style='padding-top:8%' autoplay muted><source src='images/stimuli/wall_pref.mp4' type='video/mp4'></video>","3","right","66%","10","","","","","","","",""
"","3596","sequential-stimulus-presentation","205","520072","0.0-40.0","SS1613138191364","pref_reveal","","40","800","4396","null","null","","","","","10","","","","novel","","","",""
"","null","html-keyboard-response","206","521334","0.0-41.0-0.0","SS1613138191364","","","null","","","","","<p><img src= images/blank.png width =""200"" height = ""200"" style = ""float:right""></p><p><img src=images/blank.png width =""800"" height = ""200""></p>","","","","","","","","","","","",""
"","2981","sequential-stimulus-presentation","207","525129","0.0-41.0-1.0","SS1613138191364","trial","","40","800","3781","images/stimuli/spore_stims/complex_19_B_a.gif","images/stimuli/spore_stims/complex_19_A_a.gif","","","","","11","complex_similar","images/stimuli/spore_stims/complex_19_A_a.gif","left","","","","",""
"","null","html-keyboard-response","208","526328","0.0-41.0-0.1","SS1613138191364","","","null","","","","","<p><img src= images/blank.png width =""200"" height = ""200"" style = ""float:right""></p><p><img src=images/blank.png width =""800"" height = ""200""></p>","","","","","","","","","","","",""
"","1192","sequential-stimulus-presentation","209","528337","0.0-41.0-1.1","SS1613138191364","trial","","40","800","1992","images/stimuli/spore_stims/complex_19_B_a.gif","images/stimuli/spore_stims/complex_19_A_a.gif","","","","","11","complex_similar","images/stimuli/spore_stims/complex_19_A_a.gif","left","","","","",""
"","null","html-keyboard-response","210","529534","0.0-41.0-0.2","SS1613138191364","","","null","","","","","<p><img src= images/blank.png width =""200"" height = ""200"" style = ""float:right""></p><p><img src=images/blank.png width =""800"" height = ""200""></p>","","","","","","","","","","","",""
"","789","sequential-stimulus-presentation","211","531128","0.0-41.0-1.2","SS1613138191364","trial","","40","800","1589","images/stimuli/spore_stims/complex_19_B_a.gif","images/stimuli/spore_stims/complex_19_A_a.gif","","","","","11","complex_similar","images/stimuli/spore_stims/complex_19_A_a.gif","left","","","","",""
"","null","html-keyboard-response","212","532157","0.0-41.0-0.3","SS1613138191364","","","null","","","","","<p><img src= images/blank.png width =""200"" height = ""200"" style = ""float:right""></p><p><img src=images/blank.png width =""800"" height = ""200""></p>","","","","","","","","","","","",""
"","972","sequential-stimulus-presentation","213","533935","0.0-41.0-1.3","SS1613138191364","trial","","40","800","1772","images/stimuli/spore_stims/complex_19_B_a.gif","images/stimuli/spore_stims/complex_19_A_a.gif","","","","","11","complex_similar","images/stimuli/spore_stims/complex_19_A_a.gif","left","","","","",""
"","null","html-keyboard-response","214","534976","0.0-41.0-0.4","SS1613138191364","","","null","","","","","<p><img src= images/blank.png width =""200"" height = ""200"" style = ""float:right""></p><p><img src=images/blank.png width =""800"" height = ""200""></p>","","","","","","","","","","","",""
"","2137","sequential-stimulus-presentation","215","537935","0.0-41.0-1.4","SS1613138191364","trial","","40","800","2937","images/stimuli/spore_stims/complex_19_B_a.gif","images/stimuli/spore_stims/complex_19_A_a.gif","","","","","11","complex_similar","images/stimuli/spore_stims/complex_19_A_a.gif","left","","","","",""
"","null","html-keyboard-response","216","538913","0.0-41.0-0.5","SS1613138191364","","","null","","","","","<p><img src= images/blank.png width =""200"" height = ""200"" style = ""float:right""></p><p><img src=images/blank.png width =""800"" height = ""200""></p>","","","","","","","","","","","",""
"","2575","sequential-stimulus-presentation","217","542305","0.0-41.0-1.5","SS1613138191364","trial","","40","800","3375","images/stimuli/spore_stims/complex_19_B_a.gif","images/stimuli/spore_stims/complex_19_A_a.gif","","","","","11","complex_similar","images/stimuli/spore_stims/complex_19_A_a.gif","left","","","","",""
"","null","html-keyboard-response","218","543537","0.0-41.0-0.6","SS1613138191364","","","null","","","","","<p><img src= images/blank.png width =""200"" height = ""200"" style = ""float:right""></p><p><img src=images/blank.png width =""800"" height = ""200""></p>","","","","","","","","","","","",""
"","549","sequential-stimulus-presentation","219","544901","0.0-41.0-1.6","SS1613138191364","trial","","40","800","1349","images/stimuli/spore_stims/complex_19_B_a.gif","images/stimuli/spore_stims/complex_19_A_a.gif","","","","","11","complex_similar","images/stimuli/spore_stims/complex_19_A_a.gif","left","","","","",""
"","null","html-keyboard-response","220","546119","0.0-41.0-0.7","SS1613138191364","","","null","","","","","<p><img src= images/blank.png width =""200"" height = ""200"" style = ""float:right""></p><p><img src=images/blank.png width =""800"" height = ""200""></p>","","","","","","","","","","","",""
"","484","sequential-stimulus-presentation","221","547422","0.0-41.0-1.7","SS1613138191364","trial","","40","800","1284","images/stimuli/spore_stims/complex_19_B_a.gif","images/stimuli/spore_stims/complex_19_A_a.gif","","","","","11","complex_similar","images/stimuli/spore_stims/complex_19_B_a.gif","middle","","","","",""
"","2692","html-keyboard-response","222","550118","0.0-42.0","SS1613138191364","pref_question","","51","","","","","<video width ='960' height = '540' style='padding-top:8%' autoplay muted><source src='images/stimuli/wall_pref.mp4' type='video/mp4'></video>","3","right","66%","11","","","","","","","",""
"","3617","sequential-stimulus-presentation","223","554548","0.0-43.0","SS1613138191364","pref_reveal","","40","800","4417","null","null","","","","","11","","","","novel","","","",""
"","null","html-keyboard-response","224","555631","0.0-44.0-0.0","SS1613138191364","","","null","","","","","<p><img src= images/blank.png width =""200"" height = ""200"" style = ""float:right""></p><p><img src=images/blank.png width =""800"" height = ""200""></p>","","","","","","","","","","","",""
"","3415","sequential-stimulus-presentation","225","559857","0.0-44.0-1.0","SS1613138191364","trial","","40","800","4215","images/stimuli/spore_stims/simple_10_A_a.gif","images/stimuli/spore_stims/simple_10_B_a.gif","","","","","12","simple_similar","images/stimuli/spore_stims/simple_10_B_a.gif","right","","","","",""
"","null","html-keyboard-response","226","560855","0.0-44.0-0.1","SS1613138191364","","","null","","","","","<p><img src= images/blank.png width =""200"" height = ""200"" style = ""float:right""></p><p><img src=images/blank.png width =""800"" height = ""200""></p>","","","","","","","","","","","",""
"","1542","sequential-stimulus-presentation","227","563215","0.0-44.0-1.1","SS1613138191364","trial","","40","800","2342","images/stimuli/spore_stims/simple_10_A_a.gif","images/stimuli/spore_stims/simple_10_B_a.gif","","","","","12","simple_similar","images/stimuli/spore_stims/simple_10_B_a.gif","right","","","","",""
"","null","html-keyboard-response","228","564376","0.0-44.0-0.2","SS1613138191364","","","null","","","","","<p><img src= images/blank.png width =""200"" height = ""200"" style = ""float:right""></p><p><img src=images/blank.png width =""800"" height = ""200""></p>","","","","","","","","","","","",""
"","970","sequential-stimulus-presentation","229","566166","0.0-44.0-1.2","SS1613138191364","trial","","40","800","1770","images/stimuli/spore_stims/simple_10_A_a.gif","images/stimuli/spore_stims/simple_10_B_a.gif","","","","","12","simple_similar","images/stimuli/spore_stims/simple_10_B_a.gif","right","","","","",""
"","null","html-keyboard-response","230","567459","0.0-44.0-0.3","SS1613138191364","","","null","","","","","<p><img src= images/blank.png width =""200"" height = ""200"" style = ""float:right""></p><p><img src=images/blank.png width =""800"" height = ""200""></p>","","","","","","","","","","","",""
"","502","sequential-stimulus-presentation","231","568778","0.0-44.0-1.3","SS1613138191364","trial","","40","800","1302","images/stimuli/spore_stims/simple_10_A_a.gif","images/stimuli/spore_stims/simple_10_B_a.gif","","","","","12","simple_similar","images/stimuli/spore_stims/simple_10_B_a.gif","right","","","","",""
"","null","html-keyboard-response","232","569730","0.0-44.0-0.4","SS1613138191364","","","null","","","","","<p><img src= images/blank.png width =""200"" height = ""200"" style = ""float:right""></p><p><img src=images/blank.png width =""800"" height = ""200""></p>","","","","","","","","","","","",""
"","3363","sequential-stimulus-presentation","233","573900","0.0-44.0-1.4","SS1613138191364","trial","","40","800","4163","images/stimuli/spore_stims/simple_10_A_a.gif","images/stimuli/spore_stims/simple_10_B_a.gif","","","","","12","simple_similar","images/stimuli/spore_stims/simple_10_A_a.gif","middle","","","","",""
"","null","html-keyboard-response","234","575149","0.0-44.0-0.5","SS1613138191364","","","null","","","","","<p><img src= images/blank.png width =""200"" height = ""200"" style = ""float:right""></p><p><img src=images/blank.png width =""800"" height = ""200""></p>","","","","","","","","","","","",""
"","1915","sequential-stimulus-presentation","235","577875","0.0-44.0-1.5","SS1613138191364","trial","","40","800","2715","images/stimuli/spore_stims/simple_10_A_a.gif","images/stimuli/spore_stims/simple_10_B_a.gif","","","","","12","simple_similar","images/stimuli/spore_stims/simple_10_B_a.gif","right","","","","",""
"","null","html-keyboard-response","236","579048","0.0-44.0-0.6","SS1613138191364","","","null","","","","","<p><img src= images/blank.png width =""200"" height = ""200"" style = ""float:right""></p><p><img src=images/blank.png width =""800"" height = ""200""></p>","","","","","","","","","","","",""
"","660","sequential-stimulus-presentation","237","580520","0.0-44.0-1.6","SS1613138191364","trial","","40","800","1460","images/stimuli/spore_stims/simple_10_A_a.gif","images/stimuli/spore_stims/simple_10_B_a.gif","","","","","12","simple_similar","images/stimuli/spore_stims/simple_10_B_a.gif","right","","","","",""
"","null","html-keyboard-response","238","581813","0.0-44.0-0.7","SS1613138191364","","","null","","","","","<p><img src= images/blank.png width =""200"" height = ""200"" style = ""float:right""></p><p><img src=images/blank.png width =""800"" height = ""200""></p>","","","","","","","","","","","",""
"","693","sequential-stimulus-presentation","239","583322","0.0-44.0-1.7","SS1613138191364","trial","","40","800","1493","images/stimuli/spore_stims/simple_10_A_a.gif","images/stimuli/spore_stims/simple_10_B_a.gif","","","","","12","simple_similar","images/stimuli/spore_stims/simple_10_B_a.gif","right","","","","",""
"","2185","html-keyboard-response","240","585512","0.0-45.0","SS1613138191364","pref_question","","49","","","","","<video width ='960' height = '540' style='padding-top:8%' autoplay muted><source src='images/stimuli/wall_pref.mp4' type='video/mp4'></video>","1","left","25%","12","","","","","","","",""
"","4655","sequential-stimulus-presentation","241","590975","0.0-46.0","SS1613138191364","pref_reveal","","40","800","5455","null","null","","","","","12","","","","novel","","","",""
"","null","html-keyboard-response","242","592037","0.0-47.0-0.0","SS1613138191364","","","null","","","","","<p><img src= images/blank.png width =""200"" height = ""200"" style = ""float:right""></p><p><img src=images/blank.png width =""800"" height = ""200""></p>","","","","","","","","","","","",""
"","3070","sequential-stimulus-presentation","243","595911","0.0-47.0-1.0","SS1613138191364","trial","","40","800","3870","images/stimuli/spore_stims/complex_01_A_d.gif","images/stimuli/spore_stims/complex_15_B_a.gif","","","","","13","complex_dissimilar","images/stimuli/spore_stims/complex_15_B_a.gif","right","","","","",""
"","null","html-keyboard-response","244","596861","0.0-47.0-0.1","SS1613138191364","","","null","","","","","<p><img src= images/blank.png width =""200"" height = ""200"" style = ""float:right""></p><p><img src=images/blank.png width =""800"" height = ""200""></p>","","","","","","","","","","","",""
"","2884","sequential-stimulus-presentation","245","600558","0.0-47.0-1.1","SS1613138191364","trial","","40","800","3684","images/stimuli/spore_stims/complex_01_A_d.gif","images/stimuli/spore_stims/complex_15_B_a.gif","","","","","13","complex_dissimilar","images/stimuli/spore_stims/complex_15_B_a.gif","right","","","","",""
"","null","html-keyboard-response","246","601533","0.0-47.0-0.2","SS1613138191364","","","null","","","","","<p><img src= images/blank.png width =""200"" height = ""200"" style = ""float:right""></p><p><img src=images/blank.png width =""800"" height = ""200""></p>","","","","","","","","","","","",""
"","3811","sequential-stimulus-presentation","247","606157","0.0-47.0-1.2","SS1613138191364","trial","","40","800","4611","images/stimuli/spore_stims/complex_01_A_d.gif","images/stimuli/spore_stims/complex_15_B_a.gif","","","","","13","complex_dissimilar","images/stimuli/spore_stims/complex_01_A_d.gif","middle","","","","",""
"","null","html-keyboard-response","248","607435","0.0-47.0-0.3","SS1613138191364","","","null","","","","","<p><img src= images/blank.png width =""200"" height = ""200"" style = ""float:right""></p><p><img src=images/blank.png width =""800"" height = ""200""></p>","","","","","","","","","","","",""
"","866","sequential-stimulus-presentation","249","609118","0.0-47.0-1.3","SS1613138191364","trial","","40","800","1666","images/stimuli/spore_stims/complex_01_A_d.gif","images/stimuli/spore_stims/complex_15_B_a.gif","","","","","13","complex_dissimilar","images/stimuli/spore_stims/complex_15_B_a.gif","right","","","","",""
"","null","html-keyboard-response","250","610425","0.0-47.0-0.4","SS1613138191364","","","null","","","","","<p><img src= images/blank.png width =""200"" height = ""200"" style = ""float:right""></p><p><img src=images/blank.png width =""800"" height = ""200""></p>","","","","","","","","","","","",""
"","510","sequential-stimulus-presentation","251","611744","0.0-47.0-1.4","SS1613138191364","trial","","40","800","1310","images/stimuli/spore_stims/complex_01_A_d.gif","images/stimuli/spore_stims/complex_15_B_a.gif","","","","","13","complex_dissimilar","images/stimuli/spore_stims/complex_15_B_a.gif","right","","","","",""
"","null","html-keyboard-response","252","612881","0.0-47.0-0.5","SS1613138191364","","","null","","","","","<p><img src= images/blank.png width =""200"" height = ""200"" style = ""float:right""></p><p><img src=images/blank.png width =""800"" height = ""200""></p>","","","","","","","","","","","",""
"","2153","sequential-stimulus-presentation","253","615844","0.0-47.0-1.5","SS1613138191364","trial","","40","800","2953","images/stimuli/spore_stims/complex_01_A_d.gif","images/stimuli/spore_stims/complex_15_B_a.gif","","","","","13","complex_dissimilar","images/stimuli/spore_stims/complex_15_B_a.gif","right","","","","",""
"","null","html-keyboard-response","254","616988","0.0-47.0-0.6","SS1613138191364","","","null","","","","","<p><img src= images/blank.png width =""200"" height = ""200"" style = ""float:right""></p><p><img src=images/blank.png width =""800"" height = ""200""></p>","","","","","","","","","","","",""
"","730","sequential-stimulus-presentation","255","618536","0.0-47.0-1.6","SS1613138191364","trial","","40","800","1530","images/stimuli/spore_stims/complex_01_A_d.gif","images/stimuli/spore_stims/complex_15_B_a.gif","","","","","13","complex_dissimilar","images/stimuli/spore_stims/complex_15_B_a.gif","right","","","","",""
"","null","html-keyboard-response","256","619391","0.0-47.0-0.7","SS1613138191364","","","null","","","","","<p><img src= images/blank.png width =""200"" height = ""200"" style = ""float:right""></p><p><img src=images/blank.png width =""800"" height = ""200""></p>","","","","","","","","","","","",""
"","493","sequential-stimulus-presentation","257","620690","0.0-47.0-1.7","SS1613138191364","trial","","40","800","1293","images/stimuli/spore_stims/complex_01_A_d.gif","images/stimuli/spore_stims/complex_15_B_a.gif","","","","","13","complex_dissimilar","images/stimuli/spore_stims/complex_15_B_a.gif","right","","","","",""
"","2421","html-keyboard-response","258","623116","0.0-48.0","SS1613138191364","pref_question","","50","","","","","<video width ='960' height = '540' style='padding-top:8%' autoplay muted><source src='images/stimuli/wall_pref.mp4' type='video/mp4'></video>","2","middle","45%","13","","","","","","","",""
"","1303","sequential-stimulus-presentation","259","625226","0.0-49.0","SS1613138191364","pref_reveal","","40","800","2103","null","null","","","","","13","","","","deviant","","","",""
"","null","html-keyboard-response","260","626084","0.0-50.0-0.0","SS1613138191364","","","null","","","","","<p><img src= images/blank.png width =""200"" height = ""200"" style = ""float:right""></p><p><img src=images/blank.png width =""800"" height = ""200""></p>","","","","","","","","","","","",""
"","3067","sequential-stimulus-presentation","261","629967","0.0-50.0-1.0","SS1613138191364","trial","","40","800","3867","images/stimuli/spore_stims/complex_17_A_c.gif","images/stimuli/spore_stims/complex_12_A_b.gif","","","","","14","complex_dissimilar","images/stimuli/spore_stims/complex_12_A_b.gif","right","","","","",""
"","null","html-keyboard-response","262","631249","0.0-50.0-0.1","SS1613138191364","","","null","","","","","<p><img src= images/blank.png width =""200"" height = ""200"" style = ""float:right""></p><p><img src=images/blank.png width =""800"" height = ""200""></p>","","","","","","","","","","","",""
"","1454","sequential-stimulus-presentation","263","633522","0.0-50.0-1.1","SS1613138191364","trial","","40","800","2254","images/stimuli/spore_stims/complex_17_A_c.gif","images/stimuli/spore_stims/complex_12_A_b.gif","","","","","14","complex_dissimilar","images/stimuli/spore_stims/complex_12_A_b.gif","right","","","","",""
"","null","html-keyboard-response","264","634692","0.0-50.0-0.2","SS1613138191364","","","null","","","","","<p><img src= images/blank.png width =""200"" height = ""200"" style = ""float:right""></p><p><img src=images/blank.png width =""800"" height = ""200""></p>","","","","","","","","","","","",""
"","1343","sequential-stimulus-presentation","265","636854","0.0-50.0-1.2","SS1613138191364","trial","","40","800","2143","images/stimuli/spore_stims/complex_17_A_c.gif","images/stimuli/spore_stims/complex_12_A_b.gif","","","","","14","complex_dissimilar","images/stimuli/spore_stims/complex_12_A_b.gif","right","","","","",""
"","null","html-keyboard-response","266","637998","0.0-50.0-0.3","SS1613138191364","","","null","","","","","<p><img src= images/blank.png width =""200"" height = ""200"" style = ""float:right""></p><p><img src=images/blank.png width =""800"" height = ""200""></p>","","","","","","","","","","","",""
"","931","sequential-stimulus-presentation","267","639746","0.0-50.0-1.3","SS1613138191364","trial","","40","800","1731","images/stimuli/spore_stims/complex_17_A_c.gif","images/stimuli/spore_stims/complex_12_A_b.gif","","","","","14","complex_dissimilar","images/stimuli/spore_stims/complex_12_A_b.gif","right","","","","",""
"","null","html-keyboard-response","268","640686","0.0-50.0-0.4","SS1613138191364","","","null","","","","","<p><img src= images/blank.png width =""200"" height = ""200"" style = ""float:right""></p><p><img src=images/blank.png width =""800"" height = ""200""></p>","","","","","","","","","","","",""
"","3052","sequential-stimulus-presentation","269","644558","0.0-50.0-1.4","SS1613138191364","trial","","40","800","3852","images/stimuli/spore_stims/complex_17_A_c.gif","images/stimuli/spore_stims/complex_12_A_b.gif","","","","","14","complex_dissimilar","images/stimuli/spore_stims/complex_17_A_c.gif","middle","","","","",""
"","null","html-keyboard-response","270","645771","0.0-50.0-0.5","SS1613138191364","","","null","","","","","<p><img src= images/blank.png width =""200"" height = ""200"" style = ""float:right""></p><p><img src=images/blank.png width =""800"" height = ""200""></p>","","","","","","","","","","","",""
"","702","sequential-stimulus-presentation","271","647279","0.0-50.0-1.5","SS1613138191364","trial","","40","800","1502","images/stimuli/spore_stims/complex_17_A_c.gif","images/stimuli/spore_stims/complex_12_A_b.gif","","","","","14","complex_dissimilar","images/stimuli/spore_stims/complex_12_A_b.gif","right","","","","",""
"","null","html-keyboard-response","272","648258","0.0-50.0-0.6","SS1613138191364","","","null","","","","","<p><img src= images/blank.png width =""200"" height = ""200"" style = ""float:right""></p><p><img src=images/blank.png width =""800"" height = ""200""></p>","","","","","","","","","","","",""
"","618","sequential-stimulus-presentation","273","649694","0.0-50.0-1.6","SS1613138191364","trial","","40","800","1418","images/stimuli/spore_stims/complex_17_A_c.gif","images/stimuli/spore_stims/complex_12_A_b.gif","","","","","14","complex_dissimilar","images/stimuli/spore_stims/complex_12_A_b.gif","right","","","","",""
"","null","html-keyboard-response","274","650983","0.0-50.0-0.7","SS1613138191364","","","null","","","","","<p><img src= images/blank.png width =""200"" height = ""200"" style = ""float:right""></p><p><img src=images/blank.png width =""800"" height = ""200""></p>","","","","","","","","","","","",""
"","557","sequential-stimulus-presentation","275","652351","0.0-50.0-1.7","SS1613138191364","trial","","40","800","1357","images/stimuli/spore_stims/complex_17_A_c.gif","images/stimuli/spore_stims/complex_12_A_b.gif","","","","","14","complex_dissimilar","images/stimuli/spore_stims/complex_12_A_b.gif","right","","","","",""
"","14018","html-keyboard-response","276","666374","0.0-51.0","SS1613138191364","pref_question","","49","","","","","<video width ='960' height = '540' style='padding-top:8%' autoplay muted><source src='images/stimuli/wall_pref.mp4' type='video/mp4'></video>","1","left","25%","14","","","","","","","",""
"","2570","sequential-stimulus-presentation","277","669762","0.0-52.0","SS1613138191364","pref_reveal","","40","800","3370","null","null","","","","","14","","","","novel","","","",""
"","null","html-keyboard-response","278","671021","0.0-53.0-0.0","SS1613138191364","","","null","","","","","<p><img src= images/blank.png width =""200"" height = ""200"" style = ""float:right""></p><p><img src=images/blank.png width =""800"" height = ""200""></p>","","","","","","","","","","","",""
"","2342","sequential-stimulus-presentation","279","674177","0.0-53.0-1.0","SS1613138191364","trial","","40","800","3142","images/stimuli/spore_stims/simple_17_A_a.gif","images/stimuli/spore_stims/simple_17_B_a.gif","","","","","15","simple_similar","images/stimuli/spore_stims/simple_17_B_a.gif","left","","","","",""
"","null","html-keyboard-response","280","675049","0.0-53.0-0.1","SS1613138191364","","","null","","","","","<p><img src= images/blank.png width =""200"" height = ""200"" style = ""float:right""></p><p><img src=images/blank.png width =""800"" height = ""200""></p>","","","","","","","","","","","",""
"","913","sequential-stimulus-presentation","281","676773","0.0-53.0-1.1","SS1613138191364","trial","","40","800","1713","images/stimuli/spore_stims/simple_17_A_a.gif","images/stimuli/spore_stims/simple_17_B_a.gif","","","","","15","simple_similar","images/stimuli/spore_stims/simple_17_B_a.gif","left","","","","",""
"","null","html-keyboard-response","282","677986","0.0-53.0-0.2","SS1613138191364","","","null","","","","","<p><img src= images/blank.png width =""200"" height = ""200"" style = ""float:right""></p><p><img src=images/blank.png width =""800"" height = ""200""></p>","","","","","","","","","","","",""
"","503","sequential-stimulus-presentation","283","679295","0.0-53.0-1.2","SS1613138191364","trial","","40","800","1303","images/stimuli/spore_stims/simple_17_A_a.gif","images/stimuli/spore_stims/simple_17_B_a.gif","","","","","15","simple_similar","images/stimuli/spore_stims/simple_17_B_a.gif","left","","","","",""
"","null","html-keyboard-response","284","680127","0.0-53.0-0.3","SS1613138191364","","","null","","","","","<p><img src= images/blank.png width =""200"" height = ""200"" style = ""float:right""></p><p><img src=images/blank.png width =""800"" height = ""200""></p>","","","","","","","","","","","",""
"","766","sequential-stimulus-presentation","285","681710","0.0-53.0-1.3","SS1613138191364","trial","","40","800","1566","images/stimuli/spore_stims/simple_17_A_a.gif","images/stimuli/spore_stims/simple_17_B_a.gif","","","","","15","simple_similar","images/stimuli/spore_stims/simple_17_B_a.gif","left","","","","",""
"","null","html-keyboard-response","286","683008","0.0-53.0-0.4","SS1613138191364","","","null","","","","","<p><img src= images/blank.png width =""200"" height = ""200"" style = ""float:right""></p><p><img src=images/blank.png width =""800"" height = ""200""></p>","","","","","","","","","","","",""
"","529","sequential-stimulus-presentation","287","684357","0.0-53.0-1.4","SS1613138191364","trial","","40","800","1329","images/stimuli/spore_stims/simple_17_A_a.gif","images/stimuli/spore_stims/simple_17_B_a.gif","","","","","15","simple_similar","images/stimuli/spore_stims/simple_17_B_a.gif","left","","","","",""
"","null","html-keyboard-response","288","685500","0.0-53.0-0.5","SS1613138191364","","","null","","","","","<p><img src= images/blank.png width =""200"" height = ""200"" style = ""float:right""></p><p><img src=images/blank.png width =""800"" height = ""200""></p>","","","","","","","","","","","",""
"","528","sequential-stimulus-presentation","289","686837","0.0-53.0-1.5","SS1613138191364","trial","","40","800","1328","images/stimuli/spore_stims/simple_17_A_a.gif","images/stimuli/spore_stims/simple_17_B_a.gif","","","","","15","simple_similar","images/stimuli/spore_stims/simple_17_B_a.gif","left","","","","",""
"","null","html-keyboard-response","290","687752","0.0-53.0-0.6","SS1613138191364","","","null","","","","","<p><img src= images/blank.png width =""200"" height = ""200"" style = ""float:right""></p><p><img src=images/blank.png width =""800"" height = ""200""></p>","","","","","","","","","","","",""
"","526","sequential-stimulus-presentation","291","689092","0.0-53.0-1.6","SS1613138191364","trial","","40","800","1326","images/stimuli/spore_stims/simple_17_A_a.gif","images/stimuli/spore_stims/simple_17_B_a.gif","","","","","15","simple_similar","images/stimuli/spore_stims/simple_17_B_a.gif","left","","","","",""
"","null","html-keyboard-response","292","689985","0.0-53.0-0.7","SS1613138191364","","","null","","","","","<p><img src= images/blank.png width =""200"" height = ""200"" style = ""float:right""></p><p><img src=images/blank.png width =""800"" height = ""200""></p>","","","","","","","","","","","",""
"","1921","sequential-stimulus-presentation","293","692721","0.0-53.0-1.7","SS1613138191364","trial","","40","800","2721","images/stimuli/spore_stims/simple_17_A_a.gif","images/stimuli/spore_stims/simple_17_B_a.gif","","","","","15","simple_similar","images/stimuli/spore_stims/simple_17_A_a.gif","middle","","","","",""
"","2494","html-keyboard-response","294","695221","0.0-54.0","SS1613138191364","pref_question","","51","","","","","<video width ='960' height = '540' style='padding-top:8%' autoplay muted><source src='images/stimuli/wall_pref.mp4' type='video/mp4'></video>","3","right","66%","15","","","","","","","",""
"","2612","sequential-stimulus-presentation","295","698645","0.0-55.0","SS1613138191364","pref_reveal","","40","800","3412","null","null","","","","","15","","","","novel","","","",""
"","null","html-keyboard-response","296","699897","0.0-56.0-0.0","SS1613138191364","","","null","","","","","<p><img src= images/blank.png width =""200"" height = ""200"" style = ""float:right""></p><p><img src=images/blank.png width =""800"" height = ""200""></p>","","","","","","","","","","","",""
"","3537","sequential-stimulus-presentation","297","704249","0.0-56.0-1.0","SS1613138191364","trial","","40","800","4337","images/stimuli/spore_stims/complex_14_B_a.gif","images/stimuli/spore_stims/complex_19_B_b.gif","","","","","16","complex_dissimilar","images/stimuli/spore_stims/complex_19_B_b.gif","right","","","","",""
"","null","html-keyboard-response","298","705368","0.0-56.0-0.1","SS1613138191364","","","null","","","","","<p><img src= images/blank.png width =""200"" height = ""200"" style = ""float:right""></p><p><img src=images/blank.png width =""800"" height = ""200""></p>","","","","","","","","","","","",""
"","822","sequential-stimulus-presentation","299","707010","0.0-56.0-1.1","SS1613138191364","trial","","40","800","1622","images/stimuli/spore_stims/complex_14_B_a.gif","images/stimuli/spore_stims/complex_19_B_b.gif","","","","","16","complex_dissimilar","images/stimuli/spore_stims/complex_19_B_b.gif","right","","","","",""
"","null","html-keyboard-response","300","708211","0.0-56.0-0.2","SS1613138191364","","","null","","","","","<p><img src= images/blank.png width =""200"" height = ""200"" style = ""float:right""></p><p><img src=images/blank.png width =""800"" height = ""200""></p>","","","","","","","","","","","",""
"","504","sequential-stimulus-presentation","301","709531","0.0-56.0-1.2","SS1613138191364","trial","","40","800","1304","images/stimuli/spore_stims/complex_14_B_a.gif","images/stimuli/spore_stims/complex_19_B_b.gif","","","","","16","complex_dissimilar","images/stimuli/spore_stims/complex_19_B_b.gif","right","","","","",""
"","null","html-keyboard-response","302","710832","0.0-56.0-0.3","SS1613138191364","","","null","","","","","<p><img src= images/blank.png width =""200"" height = ""200"" style = ""float:right""></p><p><img src=images/blank.png width =""800"" height = ""200""></p>","","","","","","","","","","","",""
"","372","sequential-stimulus-presentation","303","712022","0.0-56.0-1.3","SS1613138191364","trial","","40","800","1172","images/stimuli/spore_stims/complex_14_B_a.gif","images/stimuli/spore_stims/complex_19_B_b.gif","","","","","16","complex_dissimilar","images/stimuli/spore_stims/complex_19_B_b.gif","right","","","","",""
"","null","html-keyboard-response","304","712937","0.0-56.0-0.4","SS1613138191364","","","null","","","","","<p><img src= images/blank.png width =""200"" height = ""200"" style = ""float:right""></p><p><img src=images/blank.png width =""800"" height = ""200""></p>","","","","","","","","","","","",""
"","551","sequential-stimulus-presentation","305","714303","0.0-56.0-1.4","SS1613138191364","trial","","40","800","1351","images/stimuli/spore_stims/complex_14_B_a.gif","images/stimuli/spore_stims/complex_19_B_b.gif","","","","","16","complex_dissimilar","images/stimuli/spore_stims/complex_19_B_b.gif","right","","","","",""
"","null","html-keyboard-response","306","715153","0.0-56.0-0.5","SS1613138191364","","","null","","","","","<p><img src= images/blank.png width =""200"" height = ""200"" style = ""float:right""></p><p><img src=images/blank.png width =""800"" height = ""200""></p>","","","","","","","","","","","",""
"","482","sequential-stimulus-presentation","307","716453","0.0-56.0-1.5","SS1613138191364","trial","","40","800","1282","images/stimuli/spore_stims/complex_14_B_a.gif","images/stimuli/spore_stims/complex_19_B_b.gif","","","","","16","complex_dissimilar","images/stimuli/spore_stims/complex_19_B_b.gif","right","","","","",""
"","null","html-keyboard-response","308","717271","0.0-56.0-0.6","SS1613138191364","","","null","","","","","<p><img src= images/blank.png width =""200"" height = ""200"" style = ""float:right""></p><p><img src=images/blank.png width =""800"" height = ""200""></p>","","","","","","","","","","","",""
"","498","sequential-stimulus-presentation","309","718582","0.0-56.0-1.6","SS1613138191364","trial","","40","800","1298","images/stimuli/spore_stims/complex_14_B_a.gif","images/stimuli/spore_stims/complex_19_B_b.gif","","","","","16","complex_dissimilar","images/stimuli/spore_stims/complex_19_B_b.gif","right","","","","",""
"","null","html-keyboard-response","310","719445","0.0-56.0-0.7","SS1613138191364","","","null","","","","","<p><img src= images/blank.png width =""200"" height = ""200"" style = ""float:right""></p><p><img src=images/blank.png width =""800"" height = ""200""></p>","","","","","","","","","","","",""
"","3621","sequential-stimulus-presentation","311","723881","0.0-56.0-1.7","SS1613138191364","trial","","40","800","4421","images/stimuli/spore_stims/complex_14_B_a.gif","images/stimuli/spore_stims/complex_19_B_b.gif","","","","","16","complex_dissimilar","images/stimuli/spore_stims/complex_14_B_a.gif","middle","","","","",""
"","2033","html-keyboard-response","312","725920","0.0-57.0","SS1613138191364","pref_question","","49","","","","","<video width ='960' height = '540' style='padding-top:8%' autoplay muted><source src='images/stimuli/wall_pref.mp4' type='video/mp4'></video>","1","left","25%","16","","","","","","","",""
"","1705","sequential-stimulus-presentation","313","728441","0.0-58.0","SS1613138191364","pref_reveal","","40","800","2505","null","null","","","","","16","","","","novel","","","",""
"","null","html-keyboard-response","314","729289","0.0-59.0-0.0","SS1613138191364","","","null","","","","","<p><img src= images/blank.png width =""200"" height = ""200"" style = ""float:right""></p><p><img src=images/blank.png width =""800"" height = ""200""></p>","","","","","","","","","","","",""
"","3830","sequential-stimulus-presentation","315","733933","0.0-59.0-1.0","SS1613138191364","trial","","40","800","4630","images/stimuli/spore_stims/simple_03_A_c.gif","images/stimuli/spore_stims/simple_03_B_c.gif","","","","","17","simple_similar","images/stimuli/spore_stims/simple_03_B_c.gif","middle","","","","",""
"","null","html-keyboard-response","316","735192","0.0-59.0-0.1","SS1613138191364","","","null","","","","","<p><img src= images/blank.png width =""200"" height = ""200"" style = ""float:right""></p><p><img src=images/blank.png width =""800"" height = ""200""></p>","","","","","","","","","","","",""
"","431","sequential-stimulus-presentation","317","736434","0.0-59.0-1.1","SS1613138191364","trial","","40","800","1231","images/stimuli/spore_stims/simple_03_A_c.gif","images/stimuli/spore_stims/simple_03_B_c.gif","","","","","17","simple_similar","images/stimuli/spore_stims/simple_03_B_c.gif","middle","","","","",""
"","null","html-keyboard-response","318","737691","0.0-59.0-0.2","SS1613138191364","","","null","","","","","<p><img src= images/blank.png width =""200"" height = ""200"" style = ""float:right""></p><p><img src=images/blank.png width =""800"" height = ""200""></p>","","","","","","","","","","","",""
"","1566","sequential-stimulus-presentation","319","740068","0.0-59.0-1.2","SS1613138191364","trial","","40","800","2366","images/stimuli/spore_stims/simple_03_A_c.gif","images/stimuli/spore_stims/simple_03_B_c.gif","","","","","17","simple_similar","images/stimuli/spore_stims/simple_03_A_c.gif","right","","","","",""
"","null","html-keyboard-response","320","740902","0.0-59.0-0.3","SS1613138191364","","","null","","","","","<p><img src= images/blank.png width =""200"" height = ""200"" style = ""float:right""></p><p><img src=images/blank.png width =""800"" height = ""200""></p>","","","","","","","","","","","",""
"","984","sequential-stimulus-presentation","321","742699","0.0-59.0-1.3","SS1613138191364","trial","","40","800","1784","images/stimuli/spore_stims/simple_03_A_c.gif","images/stimuli/spore_stims/simple_03_B_c.gif","","","","","17","simple_similar","images/stimuli/spore_stims/simple_03_B_c.gif","middle","","","","",""
"","null","html-keyboard-response","322","743708","0.0-59.0-0.4","SS1613138191364","","","null","","","","","<p><img src= images/blank.png width =""200"" height = ""200"" style = ""float:right""></p><p><img src=images/blank.png width =""800"" height = ""200""></p>","","","","","","","","","","","",""
"","514","sequential-stimulus-presentation","323","745035","0.0-59.0-1.4","SS1613138191364","trial","","40","800","1314","images/stimuli/spore_stims/simple_03_A_c.gif","images/stimuli/spore_stims/simple_03_B_c.gif","","","","","17","simple_similar","images/stimuli/spore_stims/simple_03_B_c.gif","middle","","","","",""
"","null","html-keyboard-response","324","746207","0.0-59.0-0.5","SS1613138191364","","","null","","","","","<p><img src= images/blank.png width =""200"" height = ""200"" style = ""float:right""></p><p><img src=images/blank.png width =""800"" height = ""200""></p>","","","","","","","","","","","",""
"","489","sequential-stimulus-presentation","325","747516","0.0-59.0-1.5","SS1613138191364","trial","","40","800","1289","images/stimuli/spore_stims/simple_03_A_c.gif","images/stimuli/spore_stims/simple_03_B_c.gif","","","","","17","simple_similar","images/stimuli/spore_stims/simple_03_B_c.gif","middle","","","","",""
"","null","html-keyboard-response","326","748583","0.0-59.0-0.6","SS1613138191364","","","null","","","","","<p><img src= images/blank.png width =""200"" height = ""200"" style = ""float:right""></p><p><img src=images/blank.png width =""800"" height = ""200""></p>","","","","","","","","","","","",""
"","518","sequential-stimulus-presentation","327","749916","0.0-59.0-1.6","SS1613138191364","trial","","40","800","1318","images/stimuli/spore_stims/simple_03_A_c.gif","images/stimuli/spore_stims/simple_03_B_c.gif","","","","","17","simple_similar","images/stimuli/spore_stims/simple_03_B_c.gif","middle","","","","",""
