"view_history","rt","trial_type","trial_index","time_elapsed","internal_node_id","subject","stimulus_type","trial_stimulus","key_press","minimum_viewing_duration","trial_looking_time","block_deviant","block_background","stimulus","wall_pref","location","location_percent","block_number","block_type","stimulus_displayed","position_displayed","stim_type_selected","responses","question_order","stimulus_left","stimulus_right"
"[{""page_index"":0,""viewing_time"":11312.595000024885}]","11313.269999809563","instructions","0","11316","0.0-0.0","SS1613138510260","","","","","","","","","","","","","","","","","","","",""
"[{""page_index"":0,""viewing_time"":16078.774999827147},{""page_index"":1,""viewing_time"":7906.8249999545515}]","23985.83499994129","instructions","1","37306","0.0-1.0","SS1613138510260","instructions","","","","","","","","","","","","","","","","","","",""
"","9401.670000050217","sequential-stimulus-presentation","2","47517","0.0-2.0","SS1613138510260","","","40","800","10201.670000050217","null","null","","","","","","","","","","","","",""
"","3609.470000024885","sequential-stimulus-presentation","3","51929","0.0-3.0","SS1613138510260","","","40","800","4409.470000024885","null","null","","","","","","","","","","","","",""
"[{""page_index"":0,""viewing_time"":4359.174999874085}]","4359.375","instructions","4","56289","0.0-4.0","SS1613138510260","instructions","","","","","","","","","","","","","","","","","","",""
"","12753.124999813735","html-keyboard-response","5","69046","0.0-5.0","SS1613138510260","instructions","","49","","","","","<video width ='960' height = '540' autoplay muted><source src='images/stimuli/wall_pref.mp4' type='video/mp4'></video>","1","left","25%","","","","","","","","",""
"","2891.2700000219047","sequential-stimulus-presentation","6","72744","0.0-6.0","SS1613138510260","pref_reveal","","40","800","3691.2700000219047","null","null","","","","","","","","","","","","",""
"[{""page_index"":0,""viewing_time"":10347.854999825358},{""page_index"":1,""viewing_time"":4841.450000181794},{""page_index"":2,""viewing_time"":1359.2500002123415},{""page_index"":3,""viewing_time"":1321.0899997502565}]","17869.91500016302","instructions","7","90616","0.0-7.0","SS1613138510260","instructions","","","","","","","","","","","","","","","","","","",""
"","null","html-keyboard-response","8","91641","0.0-8.0-0.0","SS1613138510260","","","null","","","","","<p><img src= images/blank.png width =""200"" height = ""200"" style = ""float:right""></p><p><img src=images/blank.png width =""800"" height = ""200""></p>","","","","","","","","","","","",""
"","1525.5199996754527","sequential-stimulus-presentation","9","93984","0.0-8.0-1.0","SS1613138510260","trial","","40","800","2325.5199996754527","images/stimuli/spore_stims/simple_12_B_d.gif","images/stimuli/spore_stims/simple_20_A_d.gif","","","","","0","simple_dissimilar","images/stimuli/spore_stims/simple_20_A_d.gif","right","","","","",""
"","null","html-keyboard-response","10","95001","0.0-8.0-0.1","SS1613138510260","","","null","","","","","<p><img src= images/blank.png width =""200"" height = ""200"" style = ""float:right""></p><p><img src=images/blank.png width =""800"" height = ""200""></p>","","","","","","","","","","","",""
"","2023.4249997884035","sequential-stimulus-presentation","11","97830","0.0-8.0-1.1","SS1613138510260","trial","","40","800","2823.4249997884035","images/stimuli/spore_stims/simple_12_B_d.gif","images/stimuli/spore_stims/simple_20_A_d.gif","","","","","0","simple_dissimilar","images/stimuli/spore_stims/simple_20_A_d.gif","right","","","","",""
"","null","html-keyboard-response","12","99003","0.0-8.0-0.2","SS1613138510260","","","null","","","","","<p><img src= images/blank.png width =""200"" height = ""200"" style = ""float:right""></p><p><img src=images/blank.png width =""800"" height = ""200""></p>","","","","","","","","","","","",""
"","2177.2300000302494","sequential-stimulus-presentation","13","101986","0.0-8.0-1.2","SS1613138510260","trial","","40","800","2977.2300000302494","images/stimuli/spore_stims/simple_12_B_d.gif","images/stimuli/spore_stims/simple_20_A_d.gif","","","","","0","simple_dissimilar","images/stimuli/spore_stims/simple_20_A_d.gif","right","","","","",""
"","null","html-keyboard-response","14","102890","0.0-8.0-0.3","SS1613138510260","","","null","","","","","<p><img src= images/blank.png width =""200"" height = ""200"" style = ""float:right""></p><p><img src=images/blank.png width =""800"" height = ""200""></p>","","","","","","","","","","","",""
"","957.3150002397597","sequential-stimulus-presentation","15","104653","0.0-8.0-1.3","SS1613138510260","trial","","40","800","1757.3150002397597","images/stimuli/spore_stims/simple_12_B_d.gif","images/stimuli/spore_stims/simple_20_A_d.gif","","","","","0","simple_dissimilar","images/stimuli/spore_stims/simple_20_A_d.gif","right","","","","",""
"","null","html-keyboard-response","16","105780","0.0-8.0-0.4","SS1613138510260","","","null","","","","","<p><img src= images/blank.png width =""200"" height = ""200"" style = ""float:right""></p><p><img src=images/blank.png width =""800"" height = ""200""></p>","","","","","","","","","","","",""
"","300.4549997858703","sequential-stimulus-presentation","17","106887","0.0-8.0-1.4","SS1613138510260","trial","","40","800","1100.4549997858703","images/stimuli/spore_stims/simple_12_B_d.gif","images/stimuli/spore_stims/simple_20_A_d.gif","","","","","0","simple_dissimilar","images/stimuli/spore_stims/simple_20_A_d.gif","right","","","","",""
"","null","html-keyboard-response","18","107744","0.0-8.0-0.5","SS1613138510260","","","null","","","","","<p><img src= images/blank.png width =""200"" height = ""200"" style = ""float:right""></p><p><img src=images/blank.png width =""800"" height = ""200""></p>","","","","","","","","","","","",""
"","406.58999979496","sequential-stimulus-presentation","19","108956","0.0-8.0-1.5","SS1613138510260","trial","","40","800","1206.58999979496","images/stimuli/spore_stims/simple_12_B_d.gif","images/stimuli/spore_stims/simple_20_A_d.gif","","","","","0","simple_dissimilar","images/stimuli/spore_stims/simple_20_A_d.gif","right","","","","",""
"","null","html-keyboard-response","20","110000","0.0-8.0-0.6","SS1613138510260","","","null","","","","","<p><img src= images/blank.png width =""200"" height = ""200"" style = ""float:right""></p><p><img src=images/blank.png width =""800"" height = ""200""></p>","","","","","","","","","","","",""
"","3044.9649998918176","sequential-stimulus-presentation","21","113849","0.0-8.0-1.6","SS1613138510260","trial","","40","800","3844.9649998918176","images/stimuli/spore_stims/simple_12_B_d.gif","images/stimuli/spore_stims/simple_20_A_d.gif","","","","","0","simple_dissimilar","images/stimuli/spore_stims/simple_12_B_d.gif","left","","","","",""
"","null","html-keyboard-response","22","114659","0.0-8.0-0.7","SS1613138510260","","","null","","","","","<p><img src= images/blank.png width =""200"" height = ""200"" style = ""float:right""></p><p><img src=images/blank.png width =""800"" height = ""200""></p>","","","","","","","","","","","",""
"","559.6900000236928","sequential-stimulus-presentation","23","116024","0.0-8.0-1.7","SS1613138510260","trial","","40","800","1359.6900000236928","images/stimuli/spore_stims/simple_12_B_d.gif","images/stimuli/spore_stims/simple_20_A_d.gif","","","","","0","simple_dissimilar","images/stimuli/spore_stims/simple_20_A_d.gif","right","","","","",""
"","2123.575000092387","html-keyboard-response","24","118152","0.0-9.0","SS1613138510260","pref_question","","50","","","","","<video width ='960' height = '540' style='padding-top:8%' autoplay muted><source src='images/stimuli/wall_pref.mp4' type='video/mp4'></video>","2","middle","45%","0","","","","","","","",""
"","2383.6000002920628","sequential-stimulus-presentation","25","121345","0.0-10.0","SS1613138510260","pref_reveal","","40","800","3183.6000002920628","null","null","","","","","0","","","","novel","","","",""
"","null","html-keyboard-response","26","122318","0.0-11.0-0.0","SS1613138510260","","","null","","","","","<p><img src= images/blank.png width =""200"" height = ""200"" style = ""float:right""></p><p><img src=images/blank.png width =""800"" height = ""200""></p>","","","","","","","","","","","",""
"","2552.3950001224875","sequential-stimulus-presentation","27","125675","0.0-11.0-1.0","SS1613138510260","trial","","40","800","3352.3950001224875","images/stimuli/spore_stims/complex_05_B_a.gif","images/stimuli/spore_stims/complex_15_A_a.gif","","","","","1","complex_dissimilar","images/stimuli/spore_stims/complex_15_A_a.gif","middle","","","","",""
"","null","html-keyboard-response","28","126558","0.0-11.0-0.1","SS1613138510260","","","null","","","","","<p><img src= images/blank.png width =""200"" height = ""200"" style = ""float:right""></p><p><img src=images/blank.png width =""800"" height = ""200""></p>","","","","","","","","","","","",""
"","468.2499999180436","sequential-stimulus-presentation","29","127832","0.0-11.0-1.1","SS1613138510260","trial","","40","800","1268.2499999180436","images/stimuli/spore_stims/complex_05_B_a.gif","images/stimuli/spore_stims/complex_15_A_a.gif","","","","","1","complex_dissimilar","images/stimuli/spore_stims/complex_15_A_a.gif","middle","","","","",""
"","null","html-keyboard-response","30","128663","0.0-11.0-0.2","SS1613138510260","","","null","","","","","<p><img src= images/blank.png width =""200"" height = ""200"" style = ""float:right""></p><p><img src=images/blank.png width =""800"" height = ""200""></p>","","","","","","","","","","","",""
"","1072.2699998877943","sequential-stimulus-presentation","31","130542","0.0-11.0-1.2","SS1613138510260","trial","","40","800","1872.2699998877943","images/stimuli/spore_stims/complex_05_B_a.gif","images/stimuli/spore_stims/complex_15_A_a.gif","","","","","1","complex_dissimilar","images/stimuli/spore_stims/complex_15_A_a.gif","middle","","","","",""
"","null","html-keyboard-response","32","131788","0.0-11.0-0.3","SS1613138510260","","","null","","","","","<p><img src= images/blank.png width =""200"" height = ""200"" style = ""float:right""></p><p><img src=images/blank.png width =""800"" height = ""200""></p>","","","","","","","","","","","",""
"","3303.9750000461936","sequential-stimulus-presentation","33","135899","0.0-11.0-1.3","SS1613138510260","trial","","40","800","4103.975000046194","images/stimuli/spore_stims/complex_05_B_a.gif","images/stimuli/spore_stims/complex_15_A_a.gif","","","","","1","complex_dissimilar","images/stimuli/spore_stims/complex_15_A_a.gif","middle","","","","",""
"","null","html-keyboard-response","34","136728","0.0-11.0-0.4","SS1613138510260","","","null","","","","","<p><img src= images/blank.png width =""200"" height = ""200"" style = ""float:right""></p><p><img src=images/blank.png width =""800"" height = ""200""></p>","","","","","","","","","","","",""
"","2532.6149999164045","sequential-stimulus-presentation","35","140087","0.0-11.0-1.4","SS1613138510260","trial","","40","800","3332.6149999164045","images/stimuli/spore_stims/complex_05_B_a.gif","images/stimuli/spore_stims/complex_15_A_a.gif","","","","","1","complex_dissimilar","images/stimuli/spore_stims/complex_05_B_a.gif","right","","","","",""
"","null","html-keyboard-response","36","140907","0.0-11.0-0.5","SS1613138510260","","","null","","","","","<p><img src= images/blank.png width =""200"" height = ""200"" style = ""float:right""></p><p><img src=images/blank.png width =""800"" height = ""200""></p>","","","","","","","","","","","",""
"","3617.6999998278916","sequential-stimulus-presentation","37","145331","0.0-11.0-1.5","SS1613138510260","trial","","40","800","4417.699999827892","images/stimuli/spore_stims/complex_05_B_a.gif","images/stimuli/spore_stims/complex_15_A_a.gif","","","","","1","complex_dissimilar","images/stimuli/spore_stims/complex_15_A_a.gif","middle","","","","",""
"","null","html-keyboard-response","38","146475","0.0-11.0-0.6","SS1613138510260","","","null","","","","","<p><img src= images/blank.png width =""200"" height = ""200"" style = ""float:right""></p><p><img src=images/blank.png width =""800"" height = ""200""></p>","","","","","","","","","","","",""
"","813.1699999794364","sequential-stimulus-presentation","39","148096","0.0-11.0-1.6","SS1613138510260","trial","","40","800","1613.1699999794364","images/stimuli/spore_stims/complex_05_B_a.gif","images/stimuli/spore_stims/complex_15_A_a.gif","","","","","1","complex_dissimilar","images/stimuli/spore_stims/complex_15_A_a.gif","middle","","","","",""
"","null","html-keyboard-response","40","149230","0.0-11.0-0.7","SS1613138510260","","","null","","","","","<p><img src= images/blank.png width =""200"" height = ""200"" style = ""float:right""></p><p><img src=images/blank.png width =""800"" height = ""200""></p>","","","","","","","","","","","",""
"","194.49499994516373","sequential-stimulus-presentation","41","150231","0.0-11.0-1.7","SS1613138510260","trial","","40","800","994.4949999451637","images/stimuli/spore_stims/complex_05_B_a.gif","images/stimuli/spore_stims/complex_15_A_a.gif","","","","","1","complex_dissimilar","images/stimuli/spore_stims/complex_15_A_a.gif","middle","","","","",""
"","1756.3450001180172","html-keyboard-response","42","151990","0.0-12.0","SS1613138510260","pref_question","","49","","","","","<video width ='960' height = '540' style='padding-top:8%' autoplay muted><source src='images/stimuli/wall_pref.mp4' type='video/mp4'></video>","1","left","25%","1","","","","","","","",""
"","1887.7500002272427","sequential-stimulus-presentation","43","154684","0.0-13.0","SS1613138510260","pref_reveal","","40","800","2687.7500002272427","null","null","","","","","1","","","","novel","","","",""
"","null","html-keyboard-response","44","155619","0.0-14.0-0.0","SS1613138510260","","","null","","","","","<p><img src= images/blank.png width =""200"" height = ""200"" style = ""float:right""></p><p><img src=images/blank.png width =""800"" height = ""200""></p>","","","","","","","","","","","",""
"","2541.914999950677","sequential-stimulus-presentation","45","158967","0.0-14.0-1.0","SS1613138510260","trial","","40","800","3341.914999950677","images/stimuli/spore_stims/simple_17_B_d.gif","images/stimuli/spore_stims/simple_03_A_d.gif","","","","","2","simple_dissimilar","images/stimuli/spore_stims/simple_03_A_d.gif","right","","","","",""
"","null","html-keyboard-response","46","160072","0.0-14.0-0.1","SS1613138510260","","","null","","","","","<p><img src= images/blank.png width =""200"" height = ""200"" style = ""float:right""></p><p><img src=images/blank.png width =""800"" height = ""200""></p>","","","","","","","","","","","",""
"","552.519999910146","sequential-stimulus-presentation","47","161429","0.0-14.0-1.1","SS1613138510260","trial","","40","800","1352.519999910146","images/stimuli/spore_stims/simple_17_B_d.gif","images/stimuli/spore_stims/simple_03_A_d.gif","","","","","2","simple_dissimilar","images/stimuli/spore_stims/simple_03_A_d.gif","right","","","","",""
"","null","html-keyboard-response","48","162272","0.0-14.0-0.2","SS1613138510260","","","null","","","","","<p><img src= images/blank.png width =""200"" height = ""200"" style = ""float:right""></p><p><img src=images/blank.png width =""800"" height = ""200""></p>","","","","","","","","","","","",""
"","383.6349998600781","sequential-stimulus-presentation","49","163461","0.0-14.0-1.2","SS1613138510260","trial","","40","800","1183.634999860078","images/stimuli/spore_stims/simple_17_B_d.gif","images/stimuli/spore_stims/simple_03_A_d.gif","","","","","2","simple_dissimilar","images/stimuli/spore_stims/simple_03_A_d.gif","right","","","","",""
"","null","html-keyboard-response","50","164532","0.0-14.0-0.3","SS1613138510260","","","null","","","","","<p><img src= images/blank.png width =""200"" height = ""200"" style = ""float:right""></p><p><img src=images/blank.png width =""800"" height = ""200""></p>","","","","","","","","","","","",""
"","482.6400000602007","sequential-stimulus-presentation","51","165822","0.0-14.0-1.3","SS1613138510260","trial","","40","800","1282.6400000602007","images/stimuli/spore_stims/simple_17_B_d.gif","images/stimuli/spore_stims/simple_03_A_d.gif","","","","","2","simple_dissimilar","images/stimuli/spore_stims/simple_03_A_d.gif","right","","","","",""
"","null","html-keyboard-response","52","166819","0.0-14.0-0.4","SS1613138510260","","","null","","","","","<p><img src= images/blank.png width =""200"" height = ""200"" style = ""float:right""></p><p><img src=images/blank.png width =""800"" height = ""200""></p>","","","","","","","","","","","",""
"","474.18999997898936","sequential-stimulus-presentation","53","168100","0.0-14.0-1.4","SS1613138510260","trial","","40","800","1274.1899999789894","images/stimuli/spore_stims/simple_17_B_d.gif","images/stimuli/spore_stims/simple_03_A_d.gif","","","","","2","simple_dissimilar","images/stimuli/spore_stims/simple_03_A_d.gif","right","","","","",""
"","null","html-keyboard-response","54","168951","0.0-14.0-0.5","SS1613138510260","","","null","","","","","<p><img src= images/blank.png width =""200"" height = ""200"" style = ""float:right""></p><p><img src=images/blank.png width =""800"" height = ""200""></p>","","","","","","","","","","","",""
"","360.1350001990795","sequential-stimulus-presentation","55","170118","0.0-14.0-1.5","SS1613138510260","trial","","40","800","1160.1350001990795","images/stimuli/spore_stims/simple_17_B_d.gif","images/stimuli/spore_stims/simple_03_A_d.gif","","","","","2","simple_dissimilar","images/stimuli/spore_stims/simple_03_A_d.gif","right","","","","",""
"","null","html-keyboard-response","56","171110","0.0-14.0-0.6","SS1613138510260","","","null","","","","","<p><img src= images/blank.png width =""200"" height = ""200"" style = ""float:right""></p><p><img src=images/blank.png width =""800"" height = ""200""></p>","","","","","","","","","","","",""
"","1249.1699997335672","sequential-stimulus-presentation","57","173167","0.0-14.0-1.6","SS1613138510260","trial","","40","800","2049.1699997335672","images/stimuli/spore_stims/simple_17_B_d.gif","images/stimuli/spore_stims/simple_03_A_d.gif","","","","","2","simple_dissimilar","images/stimuli/spore_stims/simple_17_B_d.gif","left","","","","",""
"","null","html-keyboard-response","58","174113","0.0-14.0-0.7","SS1613138510260","","","null","","","","","<p><img src= images/blank.png width =""200"" height = ""200"" style = ""float:right""></p><p><img src=images/blank.png width =""800"" height = ""200""></p>","","","","","","","","","","","",""
"","333.28000036999583","sequential-stimulus-presentation","59","175252","0.0-14.0-1.7","SS1613138510260","trial","","40","800","1133.2800003699958","images/stimuli/spore_stims/simple_17_B_d.gif","images/stimuli/spore_stims/simple_03_A_d.gif","","","","","2","simple_dissimilar","images/stimuli/spore_stims/simple_03_A_d.gif","right","","","","",""
"","1750.4549999721348","html-keyboard-response","60","177008","0.0-15.0","SS1613138510260","pref_question","","50","","","","","<video width ='960' height = '540' style='padding-top:8%' autoplay muted><source src='images/stimuli/wall_pref.mp4' type='video/mp4'></video>","2","middle","45%","2","","","","","","","",""
"","1704.7350001521409","sequential-stimulus-presentation","61","179521","0.0-16.0","SS1613138510260","pref_reveal","","40","800","2504.735000152141","null","null","","","","","2","","","","novel","","","",""
"","null","html-keyboard-response","62","180729","0.0-17.0-0.0","SS1613138510260","","","null","","","","","<p><img src= images/blank.png width =""200"" height = ""200"" style = ""float:right""></p><p><img src=images/blank.png width =""800"" height = ""200""></p>","","","","","","","","","","","",""
"","2013.6750000528991","sequential-stimulus-presentation","63","183576","0.0-17.0-1.0","SS1613138510260","trial","","40","800","2813.675000052899","images/stimuli/spore_stims/simple_03_B_d.gif","images/stimuli/spore_stims/simple_19_A_d.gif","","","","","3","simple_dissimilar","images/stimuli/spore_stims/simple_19_A_d.gif","right","","","","",""
"","null","html-keyboard-response","64","184393","0.0-17.0-0.1","SS1613138510260","","","null","","","","","<p><img src= images/blank.png width =""200"" height = ""200"" style = ""float:right""></p><p><img src=images/blank.png width =""800"" height = ""200""></p>","","","","","","","","","","","",""
"","255.77999977394938","sequential-stimulus-presentation","65","185454","0.0-17.0-1.1","SS1613138510260","trial","","40","800","1055.7799997739494","images/stimuli/spore_stims/simple_03_B_d.gif","images/stimuli/spore_stims/simple_19_A_d.gif","","","","","3","simple_dissimilar","images/stimuli/spore_stims/simple_19_A_d.gif","right","","","","",""
"","null","html-keyboard-response","66","186690","0.0-17.0-0.2","SS1613138510260","","","null","","","","","<p><img src= images/blank.png width =""200"" height = ""200"" style = ""float:right""></p><p><img src=images/blank.png width =""800"" height = ""200""></p>","","","","","","","","","","","",""
"","154.9100000411272","sequential-stimulus-presentation","67","187650","0.0-17.0-1.2","SS1613138510260","trial","","40","800","954.9100000411272","images/stimuli/spore_stims/simple_03_B_d.gif","images/stimuli/spore_stims/simple_19_A_d.gif","","","","","3","simple_dissimilar","images/stimuli/spore_stims/simple_19_A_d.gif","right","","","","",""
"","null","html-keyboard-response","68","188766","0.0-17.0-0.3","SS1613138510260","","","null","","","","","<p><img src= images/blank.png width =""200"" height = ""200"" style = ""float:right""></p><p><img src=images/blank.png width =""800"" height = ""200""></p>","","","","","","","","","","","",""
"","314.60499996319413","sequential-stimulus-presentation","69","189888","0.0-17.0-1.3","SS1613138510260","trial","","40","800","1114.6049999631941","images/stimuli/spore_stims/simple_03_B_d.gif","images/stimuli/spore_stims/simple_19_A_d.gif","","","","","3","simple_dissimilar","images/stimuli/spore_stims/simple_03_B_d.gif","middle","","","","",""
"","null","html-keyboard-response","70","190776","0.0-17.0-0.4","SS1613138510260","","","null","","","","","<p><img src= images/blank.png width =""200"" height = ""200"" style = ""float:right""></p><p><img src=images/blank.png width =""800"" height = ""200""></p>","","","","","","","","","","","",""
"","228.13499998301268","sequential-stimulus-presentation","71","191810","0.0-17.0-1.4","SS1613138510260","trial","","40","800","1028.1349999830127","images/stimuli/spore_stims/simple_03_B_d.gif","images/stimuli/spore_stims/simple_19_A_d.gif","","","","","3","simple_dissimilar","images/stimuli/spore_stims/simple_19_A_d.gif","right","","","","",""
"","null","html-keyboard-response","72","192745","0.0-17.0-0.5","SS1613138510260","","","null","","","","","<p><img src= images/blank.png width =""200"" height = ""200"" style = ""float:right""></p><p><img src=images/blank.png width =""800"" height = ""200""></p>","","","","","","","","","","","",""
"","356.69999988749623","sequential-stimulus-presentation","73","193928","0.0-17.0-1.5","SS1613138510260","trial","","40","800","1156.6999998874962","images/stimuli/spore_stims/simple_03_B_d.gif","images/stimuli/spore_stims/simple_19_A_d.gif","","","","","3","simple_dissimilar","images/stimuli/spore_stims/simple_19_A_d.gif","right","","","","",""
"","null","html-keyboard-response","74","194778","0.0-17.0-0.6","SS1613138510260","","","null","","","","","<p><img src= images/blank.png width =""200"" height = ""200"" style = ""float:right""></p><p><img src=images/blank.png width =""800"" height = ""200""></p>","","","","","","","","","","","",""
"","277.815000154078","sequential-stimulus-presentation","75","195862","0.0-17.0-1.6","SS1613138510260","trial","","40","800","1077.815000154078","images/stimuli/spore_stims/simple_03_B_d.gif","images/stimuli/spore_stims/simple_19_A_d.gif","","","","","3","simple_dissimilar","images/stimuli/spore_stims/simple_19_A_d.gif","right","","","","",""
"","null","html-keyboard-response","76","197025","0.0-17.0-0.7","SS1613138510260","","","null","","","","","<p><img src= images/blank.png width =""200"" height = ""200"" style = ""float:right""></p><p><img src=images/blank.png width =""800"" height = ""200""></p>","","","","","","","","","","","",""
"","162.5950001180172","sequential-stimulus-presentation","77","197994","0.0-17.0-1.7","SS1613138510260","trial","","40","800","962.5950001180172","images/stimuli/spore_stims/simple_03_B_d.gif","images/stimuli/spore_stims/simple_19_A_d.gif","","","","","3","simple_dissimilar","images/stimuli/spore_stims/simple_19_A_d.gif","right","","","","",""
"","2059.5400002785027","html-keyboard-response","78","200059","0.0-18.0","SS1613138510260","pref_question","","49","","","","","<video width ='960' height = '540' style='padding-top:8%' autoplay muted><source src='images/stimuli/wall_pref.mp4' type='video/mp4'></video>","1","left","25%","3","","","","","","","",""
"","1852.7350001968443","sequential-stimulus-presentation","79","202716","0.0-19.0","SS1613138510260","pref_reveal","","40","800","2652.7350001968443","null","null","","","","","3","","","","novel","","","",""
"","null","html-keyboard-response","80","203759","0.0-20.0-0.0","SS1613138510260","","","null","","","","","<p><img src= images/blank.png width =""200"" height = ""200"" style = ""float:right""></p><p><img src=images/blank.png width =""800"" height = ""200""></p>","","","","","","","","","","","",""
"","298.4100002795458","sequential-stimulus-presentation","81","204865","0.0-20.0-1.0","SS1613138510260","trial","","40","800","1098.4100002795458","images/stimuli/spore_stims/simple_07_B_b.gif","images/stimuli/spore_stims/simple_20_B_d.gif","","","","","4","simple_dissimilar","images/stimuli/spore_stims/simple_20_B_d.gif","right","","","","",""
"","null","html-keyboard-response","82","205703","0.0-20.0-0.1","SS1613138510260","","","null","","","","","<p><img src= images/blank.png width =""200"" height = ""200"" style = ""float:right""></p><p><img src=images/blank.png width =""800"" height = ""200""></p>","","","","","","","","","","","",""
"","283.53000013157725","sequential-stimulus-presentation","83","206793","0.0-20.0-1.1","SS1613138510260","trial","","40","800","1083.5300001315773","images/stimuli/spore_stims/simple_07_B_b.gif","images/stimuli/spore_stims/simple_20_B_d.gif","","","","","4","simple_dissimilar","images/stimuli/spore_stims/simple_20_B_d.gif","right","","","","",""
"","null","html-keyboard-response","84","208009","0.0-20.0-0.2","SS1613138510260","","","null","","","","","<p><img src= images/blank.png width =""200"" height = ""200"" style = ""float:right""></p><p><img src=images/blank.png width =""800"" height = ""200""></p>","","","","","","","","","","","",""
"","153.85499969124794","sequential-stimulus-presentation","85","208970","0.0-20.0-1.2","SS1613138510260","trial","","40","800","953.8549996912479","images/stimuli/spore_stims/simple_07_B_b.gif","images/stimuli/spore_stims/simple_20_B_d.gif","","","","","4","simple_dissimilar","images/stimuli/spore_stims/simple_20_B_d.gif","right","","","","",""
"","null","html-keyboard-response","86","210221","0.0-20.0-0.3","SS1613138510260","","","null","","","","","<p><img src= images/blank.png width =""200"" height = ""200"" style = ""float:right""></p><p><img src=images/blank.png width =""800"" height = ""200""></p>","","","","","","","","","","","",""
"","396.79000014439225","sequential-stimulus-presentation","87","211425","0.0-20.0-1.3","SS1613138510260","trial","","40","800","1196.7900001443923","images/stimuli/spore_stims/simple_07_B_b.gif","images/stimuli/spore_stims/simple_20_B_d.gif","","","","","4","simple_dissimilar","images/stimuli/spore_stims/simple_07_B_b.gif","left","","","","",""
"","null","html-keyboard-response","88","212583","0.0-20.0-0.4","SS1613138510260","","","null","","","","","<p><img src= images/blank.png width =""200"" height = ""200"" style = ""float:right""></p><p><img src=images/blank.png width =""800"" height = ""200""></p>","","","","","","","","","","","",""
"","280.60000017285347","sequential-stimulus-presentation","89","213670","0.0-20.0-1.4","SS1613138510260","trial","","40","800","1080.6000001728535","images/stimuli/spore_stims/simple_07_B_b.gif","images/stimuli/spore_stims/simple_20_B_d.gif","","","","","4","simple_dissimilar","images/stimuli/spore_stims/simple_20_B_d.gif","right","","","","",""
"","null","html-keyboard-response","90","214843","0.0-20.0-0.5","SS1613138510260","","","null","","","","","<p><img src= images/blank.png width =""200"" height = ""200"" style = ""float:right""></p><p><img src=images/blank.png width =""800"" height = ""200""></p>","","","","","","","","","","","",""
"","196.38000009581447","sequential-stimulus-presentation","91","215859","0.0-20.0-1.5","SS1613138510260","trial","","40","800","996.3800000958145","images/stimuli/spore_stims/simple_07_B_b.gif","images/stimuli/spore_stims/simple_20_B_d.gif","","","","","4","simple_dissimilar","images/stimuli/spore_stims/simple_20_B_d.gif","right","","","","",""
"","null","html-keyboard-response","92","217086","0.0-20.0-0.6","SS1613138510260","","","null","","","","","<p><img src= images/blank.png width =""200"" height = ""200"" style = ""float:right""></p><p><img src=images/blank.png width =""800"" height = ""200""></p>","","","","","","","","","","","",""
"","129.19000023975968","sequential-stimulus-presentation","93","218021","0.0-20.0-1.6","SS1613138510260","trial","","40","800","929.1900002397597","images/stimuli/spore_stims/simple_07_B_b.gif","images/stimuli/spore_stims/simple_20_B_d.gif","","","","","4","simple_dissimilar","images/stimuli/spore_stims/simple_20_B_d.gif","right","","","","",""
"","null","html-keyboard-response","94","218850","0.0-20.0-0.7","SS1613138510260","","","null","","","","","<p><img src= images/blank.png width =""200"" height = ""200"" style = ""float:right""></p><p><img src=images/blank.png width =""800"" height = ""200""></p>","","","","","","","","","","","",""
"","294.26499968394637","sequential-stimulus-presentation","95","219950","0.0-20.0-1.7","SS1613138510260","trial","","40","800","1094.2649996839464","images/stimuli/spore_stims/simple_07_B_b.gif","images/stimuli/spore_stims/simple_20_B_d.gif","","","","","4","simple_dissimilar","images/stimuli/spore_stims/simple_20_B_d.gif","right","","","","",""
"","1967.9849999956787","html-keyboard-response","96","221925","0.0-21.0","SS1613138510260","pref_question","","50","","","","","<video width ='960' height = '540' style='padding-top:8%' autoplay muted><source src='images/stimuli/wall_pref.mp4' type='video/mp4'></video>","2","middle","45%","4","","","","","","","",""
"","1373.2900000177324","sequential-stimulus-presentation","97","224105","0.0-22.0","SS1613138510260","pref_reveal","","40","800","2173.2900000177324","null","null","","","","","4","","","","novel","","","",""
"","null","html-keyboard-response","98","225078","0.0-23.0-0.0","SS1613138510260","","","null","","","","","<p><img src= images/blank.png width =""200"" height = ""200"" style = ""float:right""></p><p><img src=images/blank.png width =""800"" height = ""200""></p>","","","","","","","","","","","",""
"","197.81999988481402","sequential-stimulus-presentation","99","226081","0.0-23.0-1.0","SS1613138510260","trial","","40","800","997.819999884814","images/stimuli/spore_stims/simple_04_A_b.gif","images/stimuli/spore_stims/simple_04_B_b.gif","","","","","5","simple_similar","images/stimuli/spore_stims/simple_04_B_b.gif","right","","","","",""
"","null","html-keyboard-response","100","227342","0.0-23.0-0.1","SS1613138510260","","","null","","","","","<p><img src= images/blank.png width =""200"" height = ""200"" style = ""float:right""></p><p><img src=images/blank.png width =""800"" height = ""200""></p>","","","","","","","","","","","",""
"","375.68499986082315","sequential-stimulus-presentation","101","228523","0.0-23.0-1.1","SS1613138510260","trial","","40","800","1175.6849998608232","images/stimuli/spore_stims/simple_04_A_b.gif","images/stimuli/spore_stims/simple_04_B_b.gif","","","","","5","simple_similar","images/stimuli/spore_stims/simple_04_B_b.gif","right","","","","",""
"","null","html-keyboard-response","102","229631","0.0-23.0-0.2","SS1613138510260","","","null","","","","","<p><img src= images/blank.png width =""200"" height = ""200"" style = ""float:right""></p><p><img src=images/blank.png width =""800"" height = ""200""></p>","","","","","","","","","","","",""
"","478.40500017628074","sequential-stimulus-presentation","103","230933","0.0-23.0-1.2","SS1613138510260","trial","","40","800","1278.4050001762807","images/stimuli/spore_stims/simple_04_A_b.gif","images/stimuli/spore_stims/simple_04_B_b.gif","","","","","5","simple_similar","images/stimuli/spore_stims/simple_04_B_b.gif","right","","","","",""
"","null","html-keyboard-response","104","231944","0.0-23.0-0.3","SS1613138510260","","","null","","","","","<p><img src= images/blank.png width =""200"" height = ""200"" style = ""float:right""></p><p><img src=images/blank.png width =""800"" height = ""200""></p>","","","","","","","","","","","",""
"","271.3899998925626","sequential-stimulus-presentation","105","233022","0.0-23.0-1.3","SS1613138510260","trial","","40","800","1071.3899998925626","images/stimuli/spore_stims/simple_04_A_b.gif","images/stimuli/spore_stims/simple_04_B_b.gif","","","","","5","simple_similar","images/stimuli/spore_stims/simple_04_B_b.gif","right","","","","",""
"","null","html-keyboard-response","106","234169","0.0-23.0-0.4","SS1613138510260","","","null","","","","","<p><img src= images/blank.png width =""200"" height = ""200"" style = ""float:right""></p><p><img src=images/blank.png width =""800"" height = ""200""></p>","","","","","","","","","","","",""
"","271.5749996714294","sequential-stimulus-presentation","107","235248","0.0-23.0-1.4","SS1613138510260","trial","","40","800","1071.5749996714294","images/stimuli/spore_stims/simple_04_A_b.gif","images/stimuli/spore_stims/simple_04_B_b.gif","","","","","5","simple_similar","images/stimuli/spore_stims/simple_04_A_b.gif","middle","","","","",""
"","null","html-keyboard-response","108","236408","0.0-23.0-0.5","SS1613138510260","","","null","","","","","<p><img src= images/blank.png width =""200"" height = ""200"" style = ""float:right""></p><p><img src=images/blank.png width =""800"" height = ""200""></p>","","","","","","","","","","","",""
"","274.1749999113381","sequential-stimulus-presentation","109","237496","0.0-23.0-1.5","SS1613138510260","trial","","40","800","1074.174999911338","images/stimuli/spore_stims/simple_04_A_b.gif","images/stimuli/spore_stims/simple_04_B_b.gif","","","","","5","simple_similar","images/stimuli/spore_stims/simple_04_B_b.gif","right","","","","",""
"","null","html-keyboard-response","110","238699","0.0-23.0-0.6","SS1613138510260","","","null","","","","","<p><img src= images/blank.png width =""200"" height = ""200"" style = ""float:right""></p><p><img src=images/blank.png width =""800"" height = ""200""></p>","","","","","","","","","","","",""
"","245.87999982759356","sequential-stimulus-presentation","111","239753","0.0-23.0-1.6","SS1613138510260","trial","","40","800","1045.8799998275936","images/stimuli/spore_stims/simple_04_A_b.gif","images/stimuli/spore_stims/simple_04_B_b.gif","","","","","5","simple_similar","images/stimuli/spore_stims/simple_04_B_b.gif","right","","","","",""
"","null","html-keyboard-response","112","240869","0.0-23.0-0.7","SS1613138510260","","","null","","","","","<p><img src= images/blank.png width =""200"" height = ""200"" style = ""float:right""></p><p><img src=images/blank.png width =""800"" height = ""200""></p>","","","","","","","","","","","",""
"","196.11999997869134","sequential-stimulus-presentation","113","241873","0.0-23.0-1.7","SS1613138510260","trial","","40","800","996.1199999786913","images/stimuli/spore_stims/simple_04_A_b.gif","images/stimuli/spore_stims/simple_04_B_b.gif","","","","","5","simple_similar","images/stimuli/spore_stims/simple_04_B_b.gif","right","","","","",""
"","2253.4699998795986","html-keyboard-response","114","244130","0.0-24.0","SS1613138510260","pref_question","","49","","","","","<video width ='960' height = '540' style='padding-top:8%' autoplay muted><source src='images/stimuli/wall_pref.mp4' type='video/mp4'></video>","1","left","25%","5","","","","","","","",""
"","1180.0999999977648","sequential-stimulus-presentation","115","246117","0.0-25.0","SS1613138510260","pref_reveal","","40","800","1980.0999999977648","null","null","","","","","5","","","","novel","","","",""
"","null","html-keyboard-response","116","246975","0.0-26.0-0.0","SS1613138510260","","","null","","","","","<p><img src= images/blank.png width =""200"" height = ""200"" style = ""float:right""></p><p><img src=images/blank.png width =""800"" height = ""200""></p>","","","","","","","","","","","",""
"","373.50500002503395","sequential-stimulus-presentation","117","248158","0.0-26.0-1.0","SS1613138510260","trial","","40","800","1173.505000025034","images/stimuli/spore_stims/simple_07_A_a.gif","images/stimuli/spore_stims/simple_16_B_d.gif","","","","","6","simple_dissimilar","images/stimuli/spore_stims/simple_16_B_d.gif","left","","","","",""
"","null","html-keyboard-response","118","249399","0.0-26.0-0.1","SS1613138510260","","","null","","","","","<p><img src= images/blank.png width =""200"" height = ""200"" style = ""float:right""></p><p><img src=images/blank.png width =""800"" height = ""200""></p>","","","","","","","","","","","",""
"","300.0949998386204","sequential-stimulus-presentation","119","250506","0.0-26.0-1.1","SS1613138510260","trial","","40","800","1100.0949998386204","images/stimuli/spore_stims/simple_07_A_a.gif","images/stimuli/spore_stims/simple_16_B_d.gif","","","","","6","simple_dissimilar","images/stimuli/spore_stims/simple_16_B_d.gif","left","","","","",""
"","null","html-keyboard-response","120","251593","0.0-26.0-0.2","SS1613138510260","","","null","","","","","<p><img src= images/blank.png width =""200"" height = ""200"" style = ""float:right""></p><p><img src=images/blank.png width =""800"" height = ""200""></p>","","","","","","","","","","","",""
"","218.3550000190735","sequential-stimulus-presentation","121","252635","0.0-26.0-1.2","SS1613138510260","trial","","40","800","1018.3550000190735","images/stimuli/spore_stims/simple_07_A_a.gif","images/stimuli/spore_stims/simple_16_B_d.gif","","","","","6","simple_dissimilar","images/stimuli/spore_stims/simple_16_B_d.gif","left","","","","",""
"","null","html-keyboard-response","122","253715","0.0-26.0-0.3","SS1613138510260","","","null","","","","","<p><img src= images/blank.png width =""200"" height = ""200"" style = ""float:right""></p><p><img src=images/blank.png width =""800"" height = ""200""></p>","","","","","","","","","","","",""
"","167.18499967828393","sequential-stimulus-presentation","123","254689","0.0-26.0-1.3","SS1613138510260","trial","","40","800","967.1849996782839","images/stimuli/spore_stims/simple_07_A_a.gif","images/stimuli/spore_stims/simple_16_B_d.gif","","","","","6","simple_dissimilar","images/stimuli/spore_stims/simple_16_B_d.gif","left","","","","",""
"","null","html-keyboard-response","124","255786","0.0-26.0-0.4","SS1613138510260","","","null","","","","","<p><img src= images/blank.png width =""200"" height = ""200"" style = ""float:right""></p><p><img src=images/blank.png width =""800"" height = ""200""></p>","","","","","","","","","","","",""
"","216.5649998933077","sequential-stimulus-presentation","125","256811","0.0-26.0-1.4","SS1613138510260","trial","","40","800","1016.5649998933077","images/stimuli/spore_stims/simple_07_A_a.gif","images/stimuli/spore_stims/simple_16_B_d.gif","","","","","6","simple_dissimilar","images/stimuli/spore_stims/simple_07_A_a.gif","middle","","","","",""
"","null","html-keyboard-response","126","257920","0.0-26.0-0.5","SS1613138510260","","","null","","","","","<p><img src= images/blank.png width =""200"" height = ""200"" style = ""float:right""></p><p><img src=images/blank.png width =""800"" height = ""200""></p>","","","","","","","","","","","",""
"","196.9250002875924","sequential-stimulus-presentation","127","258925","0.0-26.0-1.5","SS1613138510260","trial","","40","800","996.9250002875924","images/stimuli/spore_stims/simple_07_A_a.gif","images/stimuli/spore_stims/simple_16_B_d.gif","","","","","6","simple_dissimilar","images/stimuli/spore_stims/simple_16_B_d.gif","left","","","","",""
"","null","html-keyboard-response","128","260016","0.0-26.0-0.6","SS1613138510260","","","null","","","","","<p><img src= images/blank.png width =""200"" height = ""200"" style = ""float:right""></p><p><img src=images/blank.png width =""800"" height = ""200""></p>","","","","","","","","","","","",""
"","371.02000042796135","sequential-stimulus-presentation","129","261217","0.0-26.0-1.6","SS1613138510260","trial","","40","800","1171.0200004279613","images/stimuli/spore_stims/simple_07_A_a.gif","images/stimuli/spore_stims/simple_16_B_d.gif","","","","","6","simple_dissimilar","images/stimuli/spore_stims/simple_16_B_d.gif","left","","","","",""
"","null","html-keyboard-response","130","262148","0.0-26.0-0.7","SS1613138510260","","","null","","","","","<p><img src= images/blank.png width =""200"" height = ""200"" style = ""float:right""></p><p><img src=images/blank.png width =""800"" height = ""200""></p>","","","","","","","","","","","",""
"","277.1449997089803","sequential-stimulus-presentation","131","263232","0.0-26.0-1.7","SS1613138510260","trial","","40","800","1077.1449997089803","images/stimuli/spore_stims/simple_07_A_a.gif","images/stimuli/spore_stims/simple_16_B_d.gif","","","","","6","simple_dissimilar","images/stimuli/spore_stims/simple_16_B_d.gif","left","","","","",""
"","2095.089999958873","html-keyboard-response","132","265333","0.0-27.0","SS1613138510260","pref_question","","50","","","","","<video width ='960' height = '540' style='padding-top:8%' autoplay muted><source src='images/stimuli/wall_pref.mp4' type='video/mp4'></video>","2","middle","45%","6","","","","","","","",""
"","1231.9900002330542","sequential-stimulus-presentation","133","267372","0.0-28.0","SS1613138510260","pref_reveal","","40","800","2031.9900002330542","null","null","","","","","6","","","","deviant","","","",""
"","null","html-keyboard-response","134","268637","0.0-29.0-0.0","SS1613138510260","","","null","","","","","<p><img src= images/blank.png width =""200"" height = ""200"" style = ""float:right""></p><p><img src=images/blank.png width =""800"" height = ""200""></p>","","","","","","","","","","","",""
"","187.92500020936131","sequential-stimulus-presentation","135","269635","0.0-29.0-1.0","SS1613138510260","trial","","40","800","987.9250002093613","images/stimuli/spore_stims/complex_06_B_d.gif","images/stimuli/spore_stims/complex_06_A_d.gif","","","","","7","complex_similar","images/stimuli/spore_stims/complex_06_A_d.gif","right","","","","",""
"","null","html-keyboard-response","136","270928","0.0-29.0-0.1","SS1613138510260","","","null","","","","","<p><img src= images/blank.png width =""200"" height = ""200"" style = ""float:right""></p><p><img src=images/blank.png width =""800"" height = ""200""></p>","","","","","","","","","","","",""
"","156.45499993115664","sequential-stimulus-presentation","137","271894","0.0-29.0-1.1","SS1613138510260","trial","","40","800","956.4549999311566","images/stimuli/spore_stims/complex_06_B_d.gif","images/stimuli/spore_stims/complex_06_A_d.gif","","","","","7","complex_similar","images/stimuli/spore_stims/complex_06_A_d.gif","right","","","","",""
"","null","html-keyboard-response","138","272878","0.0-29.0-0.2","SS1613138510260","","","null","","","","","<p><img src= images/blank.png width =""200"" height = ""200"" style = ""float:right""></p><p><img src=images/blank.png width =""800"" height = ""200""></p>","","","","","","","","","","","",""
"","173.60000032931566","sequential-stimulus-presentation","139","273860","0.0-29.0-1.2","SS1613138510260","trial","","40","800","973.6000003293157","images/stimuli/spore_stims/complex_06_B_d.gif","images/stimuli/spore_stims/complex_06_A_d.gif","","","","","7","complex_similar","images/stimuli/spore_stims/complex_06_A_d.gif","right","","","","",""
"","null","html-keyboard-response","140","274694","0.0-29.0-0.3","SS1613138510260","","","null","","","","","<p><img src= images/blank.png width =""200"" height = ""200"" style = ""float:right""></p><p><img src=images/blank.png width =""800"" height = ""200""></p>","","","","","","","","","","","",""
"","205.1400002092123","sequential-stimulus-presentation","141","275725","0.0-29.0-1.3","SS1613138510260","trial","","40","800","1005.1400002092123","images/stimuli/spore_stims/complex_06_B_d.gif","images/stimuli/spore_stims/complex_06_A_d.gif","","","","","7","complex_similar","images/stimuli/spore_stims/complex_06_B_d.gif","middle","","","","",""
"","null","html-keyboard-response","142","276867","0.0-29.0-0.4","SS1613138510260","","","null","","","","","<p><img src= images/blank.png width =""200"" height = ""200"" style = ""float:right""></p><p><img src=images/blank.png width =""800"" height = ""200""></p>","","","","","","","","","","","",""
"","174.5299999602139","sequential-stimulus-presentation","143","277851","0.0-29.0-1.4","SS1613138510260","trial","","40","800","974.5299999602139","images/stimuli/spore_stims/complex_06_B_d.gif","images/stimuli/spore_stims/complex_06_A_d.gif","","","","","7","complex_similar","images/stimuli/spore_stims/complex_06_A_d.gif","right","","","","",""
"","null","html-keyboard-response","144","278669","0.0-29.0-0.5","SS1613138510260","","","null","","","","","<p><img src= images/blank.png width =""200"" height = ""200"" style = ""float:right""></p><p><img src=images/blank.png width =""800"" height = ""200""></p>","","","","","","","","","","","",""
"","147.8949999436736","sequential-stimulus-presentation","145","279624","0.0-29.0-1.5","SS1613138510260","trial","","40","800","947.8949999436736","images/stimuli/spore_stims/complex_06_B_d.gif","images/stimuli/spore_stims/complex_06_A_d.gif","","","","","7","complex_similar","images/stimuli/spore_stims/complex_06_A_d.gif","right","","","","",""
"","null","html-keyboard-response","146","280459","0.0-29.0-0.6","SS1613138510260","","","null","","","","","<p><img src= images/blank.png width =""200"" height = ""200"" style = ""float:right""></p><p><img src=images/blank.png width =""800"" height = ""200""></p>","","","","","","","","","","","",""
"","166.91000014543533","sequential-stimulus-presentation","147","281434","0.0-29.0-1.6","SS1613138510260","trial","","40","800","966.9100001454353","images/stimuli/spore_stims/complex_06_B_d.gif","images/stimuli/spore_stims/complex_06_A_d.gif","","","","","7","complex_similar","images/stimuli/spore_stims/complex_06_A_d.gif","right","","","","",""
"","null","html-keyboard-response","148","282495","0.0-29.0-0.7","SS1613138510260","","","null","","","","","<p><img src= images/blank.png width =""200"" height = ""200"" style = ""float:right""></p><p><img src=images/blank.png width =""800"" height = ""200""></p>","","","","","","","","","","","",""
"","191.85000006109476","sequential-stimulus-presentation","149","283495","0.0-29.0-1.7","SS1613138510260","trial","","40","800","991.8500000610948","images/stimuli/spore_stims/complex_06_B_d.gif","images/stimuli/spore_stims/complex_06_A_d.gif","","","","","7","complex_similar","images/stimuli/spore_stims/complex_06_A_d.gif","right","","","","",""
"","2510.070000309497","html-keyboard-response","150","286009","0.0-30.0","SS1613138510260","pref_question","","49","","","","","<video width ='960' height = '540' style='padding-top:8%' autoplay muted><source src='images/stimuli/wall_pref.mp4' type='video/mp4'></video>","1","left","25%","7","","","","","","","",""
"","1486.7300000041723","sequential-stimulus-presentation","151","288305","0.0-31.0","SS1613138510260","pref_reveal","","40","800","2286.7300000041723","null","null","","","","","7","","","","novel","","","",""
"","null","html-keyboard-response","152","289314","0.0-32.0-0.0","SS1613138510260","","","null","","","","","<p><img src= images/blank.png width =""200"" height = ""200"" style = ""float:right""></p><p><img src=images/blank.png width =""800"" height = ""200""></p>","","","","","","","","","","","",""
"","1107.9500000923872","sequential-stimulus-presentation","153","291232","0.0-32.0-1.0","SS1613138510260","trial","","40","800","1907.9500000923872","images/stimuli/spore_stims/complex_17_B_d.gif","images/stimuli/spore_stims/complex_19_A_d.gif","","","","","8","complex_dissimilar","images/stimuli/spore_stims/complex_19_A_d.gif","right","","","","",""
"","null","html-keyboard-response","154","292339","0.0-32.0-0.1","SS1613138510260","","","null","","","","","<p><img src= images/blank.png width =""200"" height = ""200"" style = ""float:right""></p><p><img src=images/blank.png width =""800"" height = ""200""></p>","","","","","","","","","","","",""
"","210.95999982208014","sequential-stimulus-presentation","155","293355","0.0-32.0-1.1","SS1613138510260","trial","","40","800","1010.9599998220801","images/stimuli/spore_stims/complex_17_B_d.gif","images/stimuli/spore_stims/complex_19_A_d.gif","","","","","8","complex_dissimilar","images/stimuli/spore_stims/complex_19_A_d.gif","right","","","","",""
"","null","html-keyboard-response","156","294266","0.0-32.0-0.2","SS1613138510260","","","null","","","","","<p><img src= images/blank.png width =""200"" height = ""200"" style = ""float:right""></p><p><img src=images/blank.png width =""800"" height = ""200""></p>","","","","","","","","","","","",""
"","247.49499978497624","sequential-stimulus-presentation","157","295319","0.0-32.0-1.2","SS1613138510260","trial","","40","800","1047.4949997849762","images/stimuli/spore_stims/complex_17_B_d.gif","images/stimuli/spore_stims/complex_19_A_d.gif","","","","","8","complex_dissimilar","images/stimuli/spore_stims/complex_19_A_d.gif","right","","","","",""
"","null","html-keyboard-response","158","296415","0.0-32.0-0.3","SS1613138510260","","","null","","","","","<p><img src= images/blank.png width =""200"" height = ""200"" style = ""float:right""></p><p><img src=images/blank.png width =""800"" height = ""200""></p>","","","","","","","","","","","",""
"","177.27999994531274","sequential-stimulus-presentation","159","297398","0.0-32.0-1.3","SS1613138510260","trial","","40","800","977.2799999453127","images/stimuli/spore_stims/complex_17_B_d.gif","images/stimuli/spore_stims/complex_19_A_d.gif","","","","","8","complex_dissimilar","images/stimuli/spore_stims/complex_19_A_d.gif","right","","","","",""
"","null","html-keyboard-response","160","298219","0.0-32.0-0.4","SS1613138510260","","","null","","","","","<p><img src= images/blank.png width =""200"" height = ""200"" style = ""float:right""></p><p><img src=images/blank.png width =""800"" height = ""200""></p>","","","","","","","","","","","",""
"","333.95499968901277","sequential-stimulus-presentation","161","299364","0.0-32.0-1.4","SS1613138510260","trial","","40","800","1133.9549996890128","images/stimuli/spore_stims/complex_17_B_d.gif","images/stimuli/spore_stims/complex_19_A_d.gif","","","","","8","complex_dissimilar","images/stimuli/spore_stims/complex_17_B_d.gif","left","","","","",""
"","null","html-keyboard-response","162","300404","0.0-32.0-0.5","SS1613138510260","","","null","","","","","<p><img src= images/blank.png width =""200"" height = ""200"" style = ""float:right""></p><p><img src=images/blank.png width =""800"" height = ""200""></p>","","","","","","","","","","","",""
"","222.69999980926514","sequential-stimulus-presentation","163","301433","0.0-32.0-1.5","SS1613138510260","trial","","40","800","1022.6999998092651","images/stimuli/spore_stims/complex_17_B_d.gif","images/stimuli/spore_stims/complex_19_A_d.gif","","","","","8","complex_dissimilar","images/stimuli/spore_stims/complex_19_A_d.gif","right","","","","",""
"","null","html-keyboard-response","164","302463","0.0-32.0-0.6","SS1613138510260","","","null","","","","","<p><img src= images/blank.png width =""200"" height = ""200"" style = ""float:right""></p><p><img src=images/blank.png width =""800"" height = ""200""></p>","","","","","","","","","","","",""
"","176.93000007420778","sequential-stimulus-presentation","165","303446","0.0-32.0-1.6","SS1613138510260","trial","","40","800","976.9300000742078","images/stimuli/spore_stims/complex_17_B_d.gif","images/stimuli/spore_stims/complex_19_A_d.gif","","","","","8","complex_dissimilar","images/stimuli/spore_stims/complex_19_A_d.gif","right","","","","",""
"","null","html-keyboard-response","166","304548","0.0-32.0-0.7","SS1613138510260","","","null","","","","","<p><img src= images/blank.png width =""200"" height = ""200"" style = ""float:right""></p><p><img src=images/blank.png width =""800"" height = ""200""></p>","","","","","","","","","","","",""
"","170.76999973505735","sequential-stimulus-presentation","167","305527","0.0-32.0-1.7","SS1613138510260","trial","","40","800","970.7699997350574","images/stimuli/spore_stims/complex_17_B_d.gif","images/stimuli/spore_stims/complex_19_A_d.gif","","","","","8","complex_dissimilar","images/stimuli/spore_stims/complex_19_A_d.gif","right","","","","",""
"","2017.8549997508526","html-keyboard-response","168","307553","0.0-33.0","SS1613138510260","pref_question","","50","","","","","<video width ='960' height = '540' style='padding-top:8%' autoplay muted><source src='images/stimuli/wall_pref.mp4' type='video/mp4'></video>","2","middle","45%","8","","","","","","","",""
"","1484.9450001493096","sequential-stimulus-presentation","169","309844","0.0-34.0","SS1613138510260","pref_reveal","","40","800","2284.9450001493096","null","null","","","","","8","","","","novel","","","",""
"","null","html-keyboard-response","170","310666","0.0-35.0-0.0","SS1613138510260","","","null","","","","","<p><img src= images/blank.png width =""200"" height = ""200"" style = ""float:right""></p><p><img src=images/blank.png width =""800"" height = ""200""></p>","","","","","","","","","","","",""
"","367.69500002264977","sequential-stimulus-presentation","171","311866","0.0-35.0-1.0","SS1613138510260","trial","","40","800","1167.6950000226498","images/stimuli/spore_stims/complex_19_B_d.gif","images/stimuli/spore_stims/complex_13_A_a.gif","","","","","9","complex_dissimilar","images/stimuli/spore_stims/complex_13_A_a.gif","right","","","","",""
"","null","html-keyboard-response","172","313135","0.0-35.0-0.1","SS1613138510260","","","null","","","","","<p><img src= images/blank.png width =""200"" height = ""200"" style = ""float:right""></p><p><img src=images/blank.png width =""800"" height = ""200""></p>","","","","","","","","","","","",""
"","33.6000001989305","sequential-stimulus-presentation","173","313979","0.0-35.0-1.1","SS1613138510260","trial","","40","800","833.6000001989305","images/stimuli/spore_stims/complex_19_B_d.gif","images/stimuli/spore_stims/complex_13_A_a.gif","","","","","9","complex_dissimilar","images/stimuli/spore_stims/complex_13_A_a.gif","right","","","","",""
"","null","html-keyboard-response","174","315242","0.0-35.0-0.2","SS1613138510260","","","null","","","","","<p><img src= images/blank.png width =""200"" height = ""200"" style = ""float:right""></p><p><img src=images/blank.png width =""800"" height = ""200""></p>","","","","","","","","","","","",""
"","383.2950000651181","sequential-stimulus-presentation","175","316434","0.0-35.0-1.2","SS1613138510260","trial","","40","800","1183.295000065118","images/stimuli/spore_stims/complex_19_B_d.gif","images/stimuli/spore_stims/complex_13_A_a.gif","","","","","9","complex_dissimilar","images/stimuli/spore_stims/complex_13_A_a.gif","right","","","","",""
"","null","html-keyboard-response","176","317604","0.0-35.0-0.3","SS1613138510260","","","null","","","","","<p><img src= images/blank.png width =""200"" height = ""200"" style = ""float:right""></p><p><img src=images/blank.png width =""800"" height = ""200""></p>","","","","","","","","","","","",""
"","452.30000000447035","sequential-stimulus-presentation","177","318865","0.0-35.0-1.3","SS1613138510260","trial","","40","800","1252.3000000044703","images/stimuli/spore_stims/complex_19_B_d.gif","images/stimuli/spore_stims/complex_13_A_a.gif","","","","","9","complex_dissimilar","images/stimuli/spore_stims/complex_19_B_d.gif","left","","","","",""
"","null","html-keyboard-response","178","319891","0.0-35.0-0.4","SS1613138510260","","","null","","","","","<p><img src= images/blank.png width =""200"" height = ""200"" style = ""float:right""></p><p><img src=images/blank.png width =""800"" height = ""200""></p>","","","","","","","","","","","",""
"","279.2650000192225","sequential-stimulus-presentation","179","320979","0.0-35.0-1.4","SS1613138510260","trial","","40","800","1079.2650000192225","images/stimuli/spore_stims/complex_19_B_d.gif","images/stimuli/spore_stims/complex_13_A_a.gif","","","","","9","complex_dissimilar","images/stimuli/spore_stims/complex_13_A_a.gif","right","","","","",""
"","null","html-keyboard-response","180","322246","0.0-35.0-0.5","SS1613138510260","","","null","","","","","<p><img src= images/blank.png width =""200"" height = ""200"" style = ""float:right""></p><p><img src=images/blank.png width =""800"" height = ""200""></p>","","","","","","","","","","","",""
"","426.899999845773","sequential-stimulus-presentation","181","323479","0.0-35.0-1.5","SS1613138510260","trial","","40","800","1226.899999845773","images/stimuli/spore_stims/complex_19_B_d.gif","images/stimuli/spore_stims/complex_13_A_a.gif","","","","","9","complex_dissimilar","images/stimuli/spore_stims/complex_13_A_a.gif","right","","","","",""
"","null","html-keyboard-response","182","324770","0.0-35.0-0.6","SS1613138510260","","","null","","","","","<p><img src= images/blank.png width =""200"" height = ""200"" style = ""float:right""></p><p><img src=images/blank.png width =""800"" height = ""200""></p>","","","","","","","","","","","",""
"","257.53000006079674","sequential-stimulus-presentation","183","325833","0.0-35.0-1.6","SS1613138510260","trial","","40","800","1057.5300000607967","images/stimuli/spore_stims/complex_19_B_d.gif","images/stimuli/spore_stims/complex_13_A_a.gif","","","","","9","complex_dissimilar","images/stimuli/spore_stims/complex_13_A_a.gif","right","","","","",""
"","null","html-keyboard-response","184","326733","0.0-35.0-0.7","SS1613138510260","","","null","","","","","<p><img src= images/blank.png width =""200"" height = ""200"" style = ""float:right""></p><p><img src=images/blank.png width =""800"" height = ""200""></p>","","","","","","","","","","","",""
"","730.4099998436868","sequential-stimulus-presentation","185","328274","0.0-35.0-1.7","SS1613138510260","trial","","40","800","1530.4099998436868","images/stimuli/spore_stims/complex_19_B_d.gif","images/stimuli/spore_stims/complex_13_A_a.gif","","","","","9","complex_dissimilar","images/stimuli/spore_stims/complex_13_A_a.gif","right","","","","",""
"","2026.490000076592","html-keyboard-response","186","330305","0.0-36.0","SS1613138510260","pref_question","","50","","","","","<video width ='960' height = '540' style='padding-top:8%' autoplay muted><source src='images/stimuli/wall_pref.mp4' type='video/mp4'></video>","2","middle","45%","9","","","","","","","",""
"","925.4899998195469","sequential-stimulus-presentation","187","332036","0.0-37.0","SS1613138510260","pref_reveal","","40","800","1725.489999819547","null","null","","","","","9","","","","novel","","","",""
"","null","html-keyboard-response","188","333301","0.0-38.0-0.0","SS1613138510260","","","null","","","","","<p><img src= images/blank.png width =""200"" height = ""200"" style = ""float:right""></p><p><img src=images/blank.png width =""800"" height = ""200""></p>","","","","","","","","","","","",""
"","311.6099997423589","sequential-stimulus-presentation","189","334423","0.0-38.0-1.0","SS1613138510260","trial","","40","800","1111.609999742359","images/stimuli/spore_stims/complex_20_B_c.gif","images/stimuli/spore_stims/complex_20_A_c.gif","","","","","10","complex_similar","images/stimuli/spore_stims/complex_20_A_c.gif","left","","","","",""
"","null","html-keyboard-response","190","335486","0.0-38.0-0.1","SS1613138510260","","","null","","","","","<p><img src= images/blank.png width =""200"" height = ""200"" style = ""float:right""></p><p><img src=images/blank.png width =""800"" height = ""200""></p>","","","","","","","","","","","",""
"","334.6099997870624","sequential-stimulus-presentation","191","336641","0.0-38.0-1.1","SS1613138510260","trial","","40","800","1134.6099997870624","images/stimuli/spore_stims/complex_20_B_c.gif","images/stimuli/spore_stims/complex_20_A_c.gif","","","","","10","complex_similar","images/stimuli/spore_stims/complex_20_A_c.gif","left","","","","",""
"","null","html-keyboard-response","192","337719","0.0-38.0-0.2","SS1613138510260","","","null","","","","","<p><img src= images/blank.png width =""200"" height = ""200"" style = ""float:right""></p><p><img src=images/blank.png width =""800"" height = ""200""></p>","","","","","","","","","","","",""
"","324.5699997060001","sequential-stimulus-presentation","193","338853","0.0-38.0-1.2","SS1613138510260","trial","","40","800","1124.569999706","images/stimuli/spore_stims/complex_20_B_c.gif","images/stimuli/spore_stims/complex_20_A_c.gif","","","","","10","complex_similar","images/stimuli/spore_stims/complex_20_A_c.gif","left","","","","",""
"","null","html-keyboard-response","194","340104","0.0-38.0-0.3","SS1613138510260","","","null","","","","","<p><img src= images/blank.png width =""200"" height = ""200"" style = ""float:right""></p><p><img src=images/blank.png width =""800"" height = ""200""></p>","","","","","","","","","","","",""
"","258.93499981611967","sequential-stimulus-presentation","195","341168","0.0-38.0-1.3","SS1613138510260","trial","","40","800","1058.9349998161197","images/stimuli/spore_stims/complex_20_B_c.gif","images/stimuli/spore_stims/complex_20_A_c.gif","","","","","10","complex_similar","images/stimuli/spore_stims/complex_20_A_c.gif","left","","","","",""
"","null","html-keyboard-response","196","342169","0.0-38.0-0.4","SS1613138510260","","","null","","","","","<p><img src= images/blank.png width =""200"" height = ""200"" style = ""float:right""></p><p><img src=images/blank.png width =""800"" height = ""200""></p>","","","","","","","","","","","",""
"","341.4850002154708","sequential-stimulus-presentation","197","343320","0.0-38.0-1.4","SS1613138510260","trial","","40","800","1141.4850002154708","images/stimuli/spore_stims/complex_20_B_c.gif","images/stimuli/spore_stims/complex_20_A_c.gif","","","","","10","complex_similar","images/stimuli/spore_stims/complex_20_A_c.gif","left","","","","",""
"","null","html-keyboard-response","198","344211","0.0-38.0-0.5","SS1613138510260","","","null","","","","","<p><img src= images/blank.png width =""200"" height = ""200"" style = ""float:right""></p><p><img src=images/blank.png width =""800"" height = ""200""></p>","","","","","","","","","","","",""
"","691.469999961555","sequential-stimulus-presentation","199","345726","0.0-38.0-1.5","SS1613138510260","trial","","40","800","1491.469999961555","images/stimuli/spore_stims/complex_20_B_c.gif","images/stimuli/spore_stims/complex_20_A_c.gif","","","","","10","complex_similar","images/stimuli/spore_stims/complex_20_A_c.gif","left","","","","",""
"","null","html-keyboard-response","200","346921","0.0-38.0-0.6","SS1613138510260","","","null","","","","","<p><img src= images/blank.png width =""200"" height = ""200"" style = ""float:right""></p><p><img src=images/blank.png width =""800"" height = ""200""></p>","","","","","","","","","","","",""
"","442.455000244081","sequential-stimulus-presentation","201","348177","0.0-38.0-1.6","SS1613138510260","trial","","40","800","1242.455000244081","images/stimuli/spore_stims/complex_20_B_c.gif","images/stimuli/spore_stims/complex_20_A_c.gif","","","","","10","complex_similar","images/stimuli/spore_stims/complex_20_B_c.gif","right","","","","",""
"","null","html-keyboard-response","202","349034","0.0-38.0-0.7","SS1613138510260","","","null","","","","","<p><img src= images/blank.png width =""200"" height = ""200"" style = ""float:right""></p><p><img src=images/blank.png width =""800"" height = ""200""></p>","","","","","","","","","","","",""
"","820.6050000153482","sequential-stimulus-presentation","203","350664","0.0-38.0-1.7","SS1613138510260","trial","","40","800","1620.6050000153482","images/stimuli/spore_stims/complex_20_B_c.gif","images/stimuli/spore_stims/complex_20_A_c.gif","","","","","10","complex_similar","images/stimuli/spore_stims/complex_20_A_c.gif","left","","","","",""
"","1792.2500004060566","html-keyboard-response","204","352465","0.0-39.0","SS1613138510260","pref_question","","50","","","","","<video width ='960' height = '540' style='padding-top:8%' autoplay muted><source src='images/stimuli/wall_pref.mp4' type='video/mp4'></video>","2","middle","45%","10","","","","","","","",""
"","1367.585000116378","sequential-stimulus-presentation","205","354638","0.0-40.0","SS1613138510260","pref_reveal","","40","800","2167.585000116378","null","null","","","","","10","","","","novel","","","",""
"","null","html-keyboard-response","206","355583","0.0-41.0-0.0","SS1613138510260","","","null","","","","","<p><img src= images/blank.png width =""200"" height = ""200"" style = ""float:right""></p><p><img src=images/blank.png width =""800"" height = ""200""></p>","","","","","","","","","","","",""
"","422.39499976858497","sequential-stimulus-presentation","207","356816","0.0-41.0-1.0","SS1613138510260","trial","","40","800","1222.394999768585","images/stimuli/spore_stims/complex_08_A_a.gif","images/stimuli/spore_stims/complex_08_B_a.gif","","","","","11","complex_similar","images/stimuli/spore_stims/complex_08_B_a.gif","middle","","","","",""
"","null","html-keyboard-response","208","358055","0.0-41.0-0.1","SS1613138510260","","","null","","","","","<p><img src= images/blank.png width =""200"" height = ""200"" style = ""float:right""></p><p><img src=images/blank.png width =""800"" height = ""200""></p>","","","","","","","","","","","",""
"","231.390000320971","sequential-stimulus-presentation","209","359092","0.0-41.0-1.1","SS1613138510260","trial","","40","800","1031.390000320971","images/stimuli/spore_stims/complex_08_A_a.gif","images/stimuli/spore_stims/complex_08_B_a.gif","","","","","11","complex_similar","images/stimuli/spore_stims/complex_08_B_a.gif","middle","","","","",""
"","null","html-keyboard-response","210","360169","0.0-41.0-0.2","SS1613138510260","","","null","","","","","<p><img src= images/blank.png width =""200"" height = ""200"" style = ""float:right""></p><p><img src=images/blank.png width =""800"" height = ""200""></p>","","","","","","","","","","","",""
"","351.0999996215105","sequential-stimulus-presentation","211","361339","0.0-41.0-1.2","SS1613138510260","trial","","40","800","1151.0999996215105","images/stimuli/spore_stims/complex_08_A_a.gif","images/stimuli/spore_stims/complex_08_B_a.gif","","","","","11","complex_similar","images/stimuli/spore_stims/complex_08_B_a.gif","middle","","","","",""
"","null","html-keyboard-response","212","362192","0.0-41.0-0.3","SS1613138510260","","","null","","","","","<p><img src= images/blank.png width =""200"" height = ""200"" style = ""float:right""></p><p><img src=images/blank.png width =""800"" height = ""200""></p>","","","","","","","","","","","",""
"","269.764999859035","sequential-stimulus-presentation","213","363268","0.0-41.0-1.3","SS1613138510260","trial","","40","800","1069.764999859035","images/stimuli/spore_stims/complex_08_A_a.gif","images/stimuli/spore_stims/complex_08_B_a.gif","","","","","11","complex_similar","images/stimuli/spore_stims/complex_08_B_a.gif","middle","","","","",""
"","null","html-keyboard-response","214","364307","0.0-41.0-0.4","SS1613138510260","","","null","","","","","<p><img src= images/blank.png width =""200"" height = ""200"" style = ""float:right""></p><p><img src=images/blank.png width =""800"" height = ""200""></p>","","","","","","","","","","","",""
"","236.56499991193414","sequential-stimulus-presentation","215","365350","0.0-41.0-1.4","SS1613138510260","trial","","40","800","1036.5649999119341","images/stimuli/spore_stims/complex_08_A_a.gif","images/stimuli/spore_stims/complex_08_B_a.gif","","","","","11","complex_similar","images/stimuli/spore_stims/complex_08_A_a.gif","left","","","","",""
"","null","html-keyboard-response","216","366394","0.0-41.0-0.5","SS1613138510260","","","null","","","","","<p><img src= images/blank.png width =""200"" height = ""200"" style = ""float:right""></p><p><img src=images/blank.png width =""800"" height = ""200""></p>","","","","","","","","","","","",""
"","205.85500029847026","sequential-stimulus-presentation","217","367407","0.0-41.0-1.5","SS1613138510260","trial","","40","800","1005.8550002984703","images/stimuli/spore_stims/complex_08_A_a.gif","images/stimuli/spore_stims/complex_08_B_a.gif","","","","","11","complex_similar","images/stimuli/spore_stims/complex_08_B_a.gif","middle","","","","",""
"","null","html-keyboard-response","218","368270","0.0-41.0-0.6","SS1613138510260","","","null","","","","","<p><img src= images/blank.png width =""200"" height = ""200"" style = ""float:right""></p><p><img src=images/blank.png width =""800"" height = ""200""></p>","","","","","","","","","","","",""
"","81.16499986499548","sequential-stimulus-presentation","219","369166","0.0-41.0-1.6","SS1613138510260","trial","","40","800","881.1649998649955","images/stimuli/spore_stims/complex_08_A_a.gif","images/stimuli/spore_stims/complex_08_B_a.gif","","","","","11","complex_similar","images/stimuli/spore_stims/complex_08_B_a.gif","middle","","","","",""
"","null","html-keyboard-response","220","370019","0.0-41.0-0.7","SS1613138510260","","","null","","","","","<p><img src= images/blank.png width =""200"" height = ""200"" style = ""float:right""></p><p><img src=images/blank.png width =""800"" height = ""200""></p>","","","","","","","","","","","",""
"","239.28999993950129","sequential-stimulus-presentation","221","371069","0.0-41.0-1.7","SS1613138510260","trial","","40","800","1039.2899999395013","images/stimuli/spore_stims/complex_08_A_a.gif","images/stimuli/spore_stims/complex_08_B_a.gif","","","","","11","complex_similar","images/stimuli/spore_stims/complex_08_B_a.gif","middle","","","","",""
"","1933.9499999769032","html-keyboard-response","222","373011","0.0-42.0","SS1613138510260","pref_question","","51","","","","","<video width ='960' height = '540' style='padding-top:8%' autoplay muted><source src='images/stimuli/wall_pref.mp4' type='video/mp4'></video>","3","right","66%","11","","","","","","","",""
"","1787.7350002527237","sequential-stimulus-presentation","223","375608","0.0-43.0","SS1613138510260","pref_reveal","","40","800","2587.7350002527237","null","null","","","","","11","","","","novel","","","",""
"","null","html-keyboard-response","224","376514","0.0-44.0-0.0","SS1613138510260","","","null","","","","","<p><img src= images/blank.png width =""200"" height = ""200"" style = ""float:right""></p><p><img src=images/blank.png width =""800"" height = ""200""></p>","","","","","","","","","","","",""
"","261.24999998137355","sequential-stimulus-presentation","225","377581","0.0-44.0-1.0","SS1613138510260","trial","","40","800","1061.2499999813735","images/stimuli/spore_stims/simple_18_B_c.gif","images/stimuli/spore_stims/simple_18_A_c.gif","","","","","12","simple_similar","images/stimuli/spore_stims/simple_18_A_c.gif","middle","","","","",""
"","null","html-keyboard-response","226","378557","0.0-44.0-0.1","SS1613138510260","","","null","","","","","<p><img src= images/blank.png width =""200"" height = ""200"" style = ""float:right""></p><p><img src=images/blank.png width =""800"" height = ""200""></p>","","","","","","","","","","","",""
"","443.32499988377094","sequential-stimulus-presentation","227","379829","0.0-44.0-1.1","SS1613138510260","trial","","40","800","1243.324999883771","images/stimuli/spore_stims/simple_18_B_c.gif","images/stimuli/spore_stims/simple_18_A_c.gif","","","","","12","simple_similar","images/stimuli/spore_stims/simple_18_A_c.gif","middle","","","","",""
"","null","html-keyboard-response","228","380779","0.0-44.0-0.2","SS1613138510260","","","null","","","","","<p><img src= images/blank.png width =""200"" height = ""200"" style = ""float:right""></p><p><img src=images/blank.png width =""800"" height = ""200""></p>","","","","","","","","","","","",""
"","265.9950000233948","sequential-stimulus-presentation","229","381856","0.0-44.0-1.2","SS1613138510260","trial","","40","800","1065.9950000233948","images/stimuli/spore_stims/simple_18_B_c.gif","images/stimuli/spore_stims/simple_18_A_c.gif","","","","","12","simple_similar","images/stimuli/spore_stims/simple_18_A_c.gif","middle","","","","",""
"","null","html-keyboard-response","230","382929","0.0-44.0-0.3","SS1613138510260","","","null","","","","","<p><img src= images/blank.png width =""200"" height = ""200"" style = ""float:right""></p><p><img src=images/blank.png width =""800"" height = ""200""></p>","","","","","","","","","","","",""
"","161.52000008150935","sequential-stimulus-presentation","231","383901","0.0-44.0-1.3","SS1613138510260","trial","","40","800","961.5200000815094","images/stimuli/spore_stims/simple_18_B_c.gif","images/stimuli/spore_stims/simple_18_A_c.gif","","","","","12","simple_similar","images/stimuli/spore_stims/simple_18_A_c.gif","middle","","","","",""
"","null","html-keyboard-response","232","384877","0.0-44.0-0.4","SS1613138510260","","","null","","","","","<p><img src= images/blank.png width =""200"" height = ""200"" style = ""float:right""></p><p><img src=images/blank.png width =""800"" height = ""200""></p>","","","","","","","","","","","",""
"","465.315000154078","sequential-stimulus-presentation","233","386165","0.0-44.0-1.4","SS1613138510260","trial","","40","800","1265.315000154078","images/stimuli/spore_stims/simple_18_B_c.gif","images/stimuli/spore_stims/simple_18_A_c.gif","","","","","12","simple_similar","images/stimuli/spore_stims/simple_18_B_c.gif","left","","","","",""
"","null","html-keyboard-response","234","387091","0.0-44.0-0.5","SS1613138510260","","","null","","","","","<p><img src= images/blank.png width =""200"" height = ""200"" style = ""float:right""></p><p><img src=images/blank.png width =""800"" height = ""200""></p>","","","","","","","","","","","",""
"","375.57000014930964","sequential-stimulus-presentation","235","388276","0.0-44.0-1.5","SS1613138510260","trial","","40","800","1175.5700001493096","images/stimuli/spore_stims/simple_18_B_c.gif","images/stimuli/spore_stims/simple_18_A_c.gif","","","","","12","simple_similar","images/stimuli/spore_stims/simple_18_A_c.gif","middle","","","","",""
"","null","html-keyboard-response","236","389131","0.0-44.0-0.6","SS1613138510260","","","null","","","","","<p><img src= images/blank.png width =""200"" height = ""200"" style = ""float:right""></p><p><img src=images/blank.png width =""800"" height = ""200""></p>","","","","","","","","","","","",""
"","278.93999963998795","sequential-stimulus-presentation","237","390217","0.0-44.0-1.6","SS1613138510260","trial","","40","800","1078.939999639988","images/stimuli/spore_stims/simple_18_B_c.gif","images/stimuli/spore_stims/simple_18_A_c.gif","","","","","12","simple_similar","images/stimuli/spore_stims/simple_18_A_c.gif","middle","","","","",""
"","null","html-keyboard-response","238","391321","0.0-44.0-0.7","SS1613138510260","","","null","","","","","<p><img src= images/blank.png width =""200"" height = ""200"" style = ""float:right""></p><p><img src=images/blank.png width =""800"" height = ""200""></p>","","","","","","","","","","","",""
"","345.8199999295175","sequential-stimulus-presentation","239","392474","0.0-44.0-1.7","SS1613138510260","trial","","40","800","1145.8199999295175","images/stimuli/spore_stims/simple_18_B_c.gif","images/stimuli/spore_stims/simple_18_A_c.gif","","","","","12","simple_similar","images/stimuli/spore_stims/simple_18_A_c.gif","middle","","","","",""
"","1602.760000154376","html-keyboard-response","240","394082","0.0-45.0","SS1613138510260","pref_question","","51","","","","","<video width ='960' height = '540' style='padding-top:8%' autoplay muted><source src='images/stimuli/wall_pref.mp4' type='video/mp4'></video>","3","right","66%","12","","","","","","","",""
"","599.1650000214577","sequential-stimulus-presentation","241","395489","0.0-46.0","SS1613138510260","pref_reveal","","40","800","1399.1650000214577","null","null","","","","","12","","","","novel","","","",""
"","null","html-keyboard-response","242","396697","0.0-47.0-0.0","SS1613138510260","","","null","","","","","<p><img src= images/blank.png width =""200"" height = ""200"" style = ""float:right""></p><p><img src=images/blank.png width =""800"" height = ""200""></p>","","","","","","","","","","","",""
"","245.6400003284216","sequential-stimulus-presentation","243","397754","0.0-47.0-1.0","SS1613138510260","trial","","40","800","1045.6400003284216","images/stimuli/spore_stims/simple_19_A_a.gif","images/stimuli/spore_stims/simple_19_B_a.gif","","","","","13","simple_similar","images/stimuli/spore_stims/simple_19_B_a.gif","middle","","","","",""
"","null","html-keyboard-response","244","398795","0.0-47.0-0.1","SS1613138510260","","","null","","","","","<p><img src= images/blank.png width =""200"" height = ""200"" style = ""float:right""></p><p><img src=images/blank.png width =""800"" height = ""200""></p>","","","","","","","","","","","",""
"","250.34500006586313","sequential-stimulus-presentation","245","399854","0.0-47.0-1.1","SS1613138510260","trial","","40","800","1050.3450000658631","images/stimuli/spore_stims/simple_19_A_a.gif","images/stimuli/spore_stims/simple_19_B_a.gif","","","","","13","simple_similar","images/stimuli/spore_stims/simple_19_B_a.gif","middle","","","","",""
"","null","html-keyboard-response","246","400678","0.0-47.0-0.2","SS1613138510260","","","null","","","","","<p><img src= images/blank.png width =""200"" height = ""200"" style = ""float:right""></p><p><img src=images/blank.png width =""800"" height = ""200""></p>","","","","","","","","","","","",""
"","461.4050001837313","sequential-stimulus-presentation","247","401949","0.0-47.0-1.2","SS1613138510260","trial","","40","800","1261.4050001837313","images/stimuli/spore_stims/simple_19_A_a.gif","images/stimuli/spore_stims/simple_19_B_a.gif","","","","","13","simple_similar","images/stimuli/spore_stims/simple_19_B_a.gif","middle","","","","",""
"","null","html-keyboard-response","248","402883","0.0-47.0-0.3","SS1613138510260","","","null","","","","","<p><img src= images/blank.png width =""200"" height = ""200"" style = ""float:right""></p><p><img src=images/blank.png width =""800"" height = ""200""></p>","","","","","","","","","","","",""
"","190.2949996292591","sequential-stimulus-presentation","249","403885","0.0-47.0-1.3","SS1613138510260","trial","","40","800","990.2949996292591","images/stimuli/spore_stims/simple_19_A_a.gif","images/stimuli/spore_stims/simple_19_B_a.gif","","","","","13","simple_similar","images/stimuli/spore_stims/simple_19_B_a.gif","middle","","","","",""
"","null","html-keyboard-response","250","404820","0.0-47.0-0.4","SS1613138510260","","","null","","","","","<p><img src= images/blank.png width =""200"" height = ""200"" style = ""float:right""></p><p><img src=images/blank.png width =""800"" height = ""200""></p>","","","","","","","","","","","",""
"","224.55500019714236","sequential-stimulus-presentation","251","405854","0.0-47.0-1.4","SS1613138510260","trial","","40","800","1024.5550001971424","images/stimuli/spore_stims/simple_19_A_a.gif","images/stimuli/spore_stims/simple_19_B_a.gif","","","","","13","simple_similar","images/stimuli/spore_stims/simple_19_B_a.gif","middle","","","","",""
"","null","html-keyboard-response","252","406694","0.0-47.0-0.5","SS1613138510260","","","null","","","","","<p><img src= images/blank.png width =""200"" height = ""200"" style = ""float:right""></p><p><img src=images/blank.png width =""800"" height = ""200""></p>","","","","","","","","","","","",""
"","223.2749997638166","sequential-stimulus-presentation","253","407728","0.0-47.0-1.5","SS1613138510260","trial","","40","800","1023.2749997638166","images/stimuli/spore_stims/simple_19_A_a.gif","images/stimuli/spore_stims/simple_19_B_a.gif","","","","","13","simple_similar","images/stimuli/spore_stims/simple_19_B_a.gif","middle","","","","",""
"","null","html-keyboard-response","254","408555","0.0-47.0-0.6","SS1613138510260","","","null","","","","","<p><img src= images/blank.png width =""200"" height = ""200"" style = ""float:right""></p><p><img src=images/blank.png width =""800"" height = ""200""></p>","","","","","","","","","","","",""
"","193.2600000873208","sequential-stimulus-presentation","255","409554","0.0-47.0-1.6","SS1613138510260","trial","","40","800","993.2600000873208","images/stimuli/spore_stims/simple_19_A_a.gif","images/stimuli/spore_stims/simple_19_B_a.gif","","","","","13","simple_similar","images/stimuli/spore_stims/simple_19_B_a.gif","middle","","","","",""
"","null","html-keyboard-response","256","410676","0.0-47.0-0.7","SS1613138510260","","","null","","","","","<p><img src= images/blank.png width =""200"" height = ""200"" style = ""float:right""></p><p><img src=images/blank.png width =""800"" height = ""200""></p>","","","","","","","","","","","",""
"","480.7649999856949","sequential-stimulus-presentation","257","411966","0.0-47.0-1.7","SS1613138510260","trial","","40","800","1280.7649999856949","images/stimuli/spore_stims/simple_19_A_a.gif","images/stimuli/spore_stims/simple_19_B_a.gif","","","","","13","simple_similar","images/stimuli/spore_stims/simple_19_A_a.gif","left","","","","",""
"","1863.344999961555","html-keyboard-response","258","413838","0.0-48.0","SS1613138510260","pref_question","","51","","","","","<video width ='960' height = '540' style='padding-top:8%' autoplay muted><source src='images/stimuli/wall_pref.mp4' type='video/mp4'></video>","3","right","66%","13","","","","","","","",""
"","75.09500021114945","sequential-stimulus-presentation","259","414719","0.0-49.0","SS1613138510260","pref_reveal","","40","800","875.0950002111495","null","null","","","","","13","","","","novel","","","",""
"","null","html-keyboard-response","260","415627","0.0-50.0-0.0","SS1613138510260","","","null","","","","","<p><img src= images/blank.png width =""200"" height = ""200"" style = ""float:right""></p><p><img src=images/blank.png width =""800"" height = ""200""></p>","","","","","","","","","","","",""
"","152.50999992713332","sequential-stimulus-presentation","261","416603","0.0-50.0-1.0","SS1613138510260","trial","","40","800","952.5099999271333","images/stimuli/spore_stims/simple_10_B_b.gif","images/stimuli/spore_stims/simple_10_A_b.gif","","","","","14","simple_similar","images/stimuli/spore_stims/simple_10_A_b.gif","left","","","","",""
"","null","html-keyboard-response","262","417751","0.0-50.0-0.1","SS1613138510260","","","null","","","","","<p><img src= images/blank.png width =""200"" height = ""200"" style = ""float:right""></p><p><img src=images/blank.png width =""800"" height = ""200""></p>","","","","","","","","","","","",""
"","153.50499982014298","sequential-stimulus-presentation","263","418725","0.0-50.0-1.1","SS1613138510260","trial","","40","800","953.504999820143","images/stimuli/spore_stims/simple_10_B_b.gif","images/stimuli/spore_stims/simple_10_A_b.gif","","","","","14","simple_similar","images/stimuli/spore_stims/simple_10_A_b.gif","left","","","","",""
"","null","html-keyboard-response","264","419615","0.0-50.0-0.2","SS1613138510260","","","null","","","","","<p><img src= images/blank.png width =""200"" height = ""200"" style = ""float:right""></p><p><img src=images/blank.png width =""800"" height = ""200""></p>","","","","","","","","","","","",""
"","288.9649998396635","sequential-stimulus-presentation","265","420714","0.0-50.0-1.2","SS1613138510260","trial","","40","800","1088.9649998396635","images/stimuli/spore_stims/simple_10_B_b.gif","images/stimuli/spore_stims/simple_10_A_b.gif","","","","","14","simple_similar","images/stimuli/spore_stims/simple_10_A_b.gif","left","","","","",""
"","null","html-keyboard-response","266","421645","0.0-50.0-0.3","SS1613138510260","","","null","","","","","<p><img src= images/blank.png width =""200"" height = ""200"" style = ""float:right""></p><p><img src=images/blank.png width =""800"" height = ""200""></p>","","","","","","","","","","","",""
"","313.68499994277954","sequential-stimulus-presentation","267","422769","0.0-50.0-1.3","SS1613138510260","trial","","40","800","1113.6849999427795","images/stimuli/spore_stims/simple_10_B_b.gif","images/stimuli/spore_stims/simple_10_A_b.gif","","","","","14","simple_similar","images/stimuli/spore_stims/simple_10_A_b.gif","left","","","","",""
"","null","html-keyboard-response","268","423736","0.0-50.0-0.4","SS1613138510260","","","null","","","","","<p><img src= images/blank.png width =""200"" height = ""200"" style = ""float:right""></p><p><img src=images/blank.png width =""800"" height = ""200""></p>","","","","","","","","","","","",""
"","141.07000036165118","sequential-stimulus-presentation","269","424687","0.0-50.0-1.4","SS1613138510260","trial","","40","800","941.0700003616512","images/stimuli/spore_stims/simple_10_B_b.gif","images/stimuli/spore_stims/simple_10_A_b.gif","","","","","14","simple_similar","images/stimuli/spore_stims/simple_10_B_b.gif","middle","","","","",""
"","null","html-keyboard-response","270","425746","0.0-50.0-0.5","SS1613138510260","","","null","","","","","<p><img src= images/blank.png width =""200"" height = ""200"" style = ""float:right""></p><p><img src=images/blank.png width =""800"" height = ""200""></p>","","","","","","","","","","","",""
"","190.0450000539422","sequential-stimulus-presentation","271","426747","0.0-50.0-1.5","SS1613138510260","trial","","40","800","990.0450000539422","images/stimuli/spore_stims/simple_10_B_b.gif","images/stimuli/spore_stims/simple_10_A_b.gif","","","","","14","simple_similar","images/stimuli/spore_stims/simple_10_A_b.gif","left","","","","",""
"","null","html-keyboard-response","272","427629","0.0-50.0-0.6","SS1613138510260","","","null","","","","","<p><img src= images/blank.png width =""200"" height = ""200"" style = ""float:right""></p><p><img src=images/blank.png width =""800"" height = ""200""></p>","","","","","","","","","","","",""
"","319.83499974012375","sequential-stimulus-presentation","273","428767","0.0-50.0-1.6","SS1613138510260","trial","","40","800","1119.8349997401237","images/stimuli/spore_stims/simple_10_B_b.gif","images/stimuli/spore_stims/simple_10_A_b.gif","","","","","14","simple_similar","images/stimuli/spore_stims/simple_10_A_b.gif","left","","","","",""
"","null","html-keyboard-response","274","429852","0.0-50.0-0.7","SS1613138510260","","","null","","","","","<p><img src= images/blank.png width =""200"" height = ""200"" style = ""float:right""></p><p><img src=images/blank.png width =""800"" height = ""200""></p>","","","","","","","","","","","",""
"","291.86000023037195","sequential-stimulus-presentation","275","430955","0.0-50.0-1.7","SS1613138510260","trial","","40","800","1091.860000230372","images/stimuli/spore_stims/simple_10_B_b.gif","images/stimuli/spore_stims/simple_10_A_b.gif","","","","","14","simple_similar","images/stimuli/spore_stims/simple_10_A_b.gif","left","","","","",""
"","987.0699997991323","html-keyboard-response","276","431951","0.0-51.0","SS1613138510260","pref_question","","51","","","","","<video width ='960' height = '540' style='padding-top:8%' autoplay muted><source src='images/stimuli/wall_pref.mp4' type='video/mp4'></video>","3","right","66%","14","","","","","","","",""
"","638.9799998141825","sequential-stimulus-presentation","277","433395","0.0-52.0","SS1613138510260","pref_reveal","","40","800","1438.9799998141825","null","null","","","","","14","","","","novel","","","",""
"","null","html-keyboard-response","278","434663","0.0-53.0-0.0","SS1613138510260","","","null","","","","","<p><img src= images/blank.png width =""200"" height = ""200"" style = ""float:right""></p><p><img src=images/blank.png width =""800"" height = ""200""></p>","","","","","","","","","","","",""
"","299.8649999499321","sequential-stimulus-presentation","279","435772","0.0-53.0-1.0","SS1613138510260","trial","","40","800","1099.864999949932","images/stimuli/spore_stims/simple_14_A_a.gif","images/stimuli/spore_stims/simple_14_B_a.gif","","","","","15","simple_similar","images/stimuli/spore_stims/simple_14_B_a.gif","middle","","","","",""
"","null","html-keyboard-response","280","436947","0.0-53.0-0.1","SS1613138510260","","","null","","","","","<p><img src= images/blank.png width =""200"" height = ""200"" style = ""float:right""></p><p><img src=images/blank.png width =""800"" height = ""200""></p>","","","","","","","","","","","",""
"","186.5499997511506","sequential-stimulus-presentation","281","437945","0.0-53.0-1.1","SS1613138510260","trial","","40","800","986.5499997511506","images/stimuli/spore_stims/simple_14_A_a.gif","images/stimuli/spore_stims/simple_14_B_a.gif","","","","","15","simple_similar","images/stimuli/spore_stims/simple_14_B_a.gif","middle","","","","",""
"","null","html-keyboard-response","282","439160","0.0-53.0-0.2","SS1613138510260","","","null","","","","","<p><img src= images/blank.png width =""200"" height = ""200"" style = ""float:right""></p><p><img src=images/blank.png width =""800"" height = ""200""></p>","","","","","","","","","","","",""
"","369.25500025972724","sequential-stimulus-presentation","283","440361","0.0-53.0-1.2","SS1613138510260","trial","","40","800","1169.2550002597272","images/stimuli/spore_stims/simple_14_A_a.gif","images/stimuli/spore_stims/simple_14_B_a.gif","","","","","15","simple_similar","images/stimuli/spore_stims/simple_14_B_a.gif","middle","","","","",""
"","null","html-keyboard-response","284","441602","0.0-53.0-0.3","SS1613138510260","","","null","","","","","<p><img src= images/blank.png width =""200"" height = ""200"" style = ""float:right""></p><p><img src=images/blank.png width =""800"" height = ""200""></p>","","","","","","","","","","","",""
"","270.47500014305115","sequential-stimulus-presentation","285","442683","0.0-53.0-1.3","SS1613138510260","trial","","40","800","1070.4750001430511","images/stimuli/spore_stims/simple_14_A_a.gif","images/stimuli/spore_stims/simple_14_B_a.gif","","","","","15","simple_similar","images/stimuli/spore_stims/simple_14_B_a.gif","middle","","","","",""
"","null","html-keyboard-response","286","443555","0.0-53.0-0.4","SS1613138510260","","","null","","","","","<p><img src= images/blank.png width =""200"" height = ""200"" style = ""float:right""></p><p><img src=images/blank.png width =""800"" height = ""200""></p>","","","","","","","","","","","",""
"","361.59999994561076","sequential-stimulus-presentation","287","444737","0.0-53.0-1.4","SS1613138510260","trial","","40","800","1161.5999999456108","images/stimuli/spore_stims/simple_14_A_a.gif","images/stimuli/spore_stims/simple_14_B_a.gif","","","","","15","simple_similar","images/stimuli/spore_stims/simple_14_B_a.gif","middle","","","","",""
"","null","html-keyboard-response","288","445609","0.0-53.0-0.5","SS1613138510260","","","null","","","","","<p><img src= images/blank.png width =""200"" height = ""200"" style = ""float:right""></p><p><img src=images/blank.png width =""800"" height = ""200""></p>","","","","","","","","","","","",""
"","268.63500010222197","sequential-stimulus-presentation","289","446687","0.0-53.0-1.5","SS1613138510260","trial","","40","800","1068.635000102222","images/stimuli/spore_stims/simple_14_A_a.gif","images/stimuli/spore_stims/simple_14_B_a.gif","","","","","15","simple_similar","images/stimuli/spore_stims/simple_14_B_a.gif","middle","","","","",""
"","null","html-keyboard-response","290","447541","0.0-53.0-0.6","SS1613138510260","","","null","","","","","<p><img src= images/blank.png width =""200"" height = ""200"" style = ""float:right""></p><p><img src=images/blank.png width =""800"" height = ""200""></p>","","","","","","","","","","","",""
"","271.92499954253435","sequential-stimulus-presentation","291","448619","0.0-53.0-1.6","SS1613138510260","trial","","40","800","1071.9249995425344","images/stimuli/spore_stims/simple_14_A_a.gif","images/stimuli/spore_stims/simple_14_B_a.gif","","","","","15","simple_similar","images/stimuli/spore_stims/simple_14_B_a.gif","middle","","","","",""
"","null","html-keyboard-response","292","449452","0.0-53.0-0.7","SS1613138510260","","","null","","","","","<p><img src= images/blank.png width =""200"" height = ""200"" style = ""float:right""></p><p><img src=images/blank.png width =""800"" height = ""200""></p>","","","","","","","","","","","",""
"","795.2250000089407","sequential-stimulus-presentation","293","451059","0.0-53.0-1.7","SS1613138510260","trial","","40","800","1595.2250000089407","images/stimuli/spore_stims/simple_14_A_a.gif","images/stimuli/spore_stims/simple_14_B_a.gif","","","","","15","simple_similar","images/stimuli/spore_stims/simple_14_A_a.gif","right","","","","",""
"","610.9750000759959","html-keyboard-response","294","451680","0.0-54.0","SS1613138510260","pref_question","","49","","","","","<video width ='960' height = '540' style='padding-top:8%' autoplay muted><source src='images/stimuli/wall_pref.mp4' type='video/mp4'></video>","1","left","25%","15","","","","","","","",""
"","618.1550002656877","sequential-stimulus-presentation","295","453132","0.0-55.0","SS1613138510260","pref_reveal","","40","800","1418.1550002656877","null","null","","","","","15","","","","novel","","","",""
"","null","html-keyboard-response","296","454261","0.0-56.0-0.0","SS1613138510260","","","null","","","","","<p><img src= images/blank.png width =""200"" height = ""200"" style = ""float:right""></p><p><img src=images/blank.png width =""800"" height = ""200""></p>","","","","","","","","","","","",""
"","144.27000004798174","sequential-stimulus-presentation","297","455213","0.0-56.0-1.0","SS1613138510260","trial","","40","800","944.2700000479817","images/stimuli/spore_stims/complex_07_B_b.gif","images/stimuli/spore_stims/complex_03_B_b.gif","","","","","16","complex_dissimilar","images/stimuli/spore_stims/complex_03_B_b.gif","left","","","","",""
"","null","html-keyboard-response","298","456103","0.0-56.0-0.1","SS1613138510260","","","null","","","","","<p><img src= images/blank.png width =""200"" height = ""200"" style = ""float:right""></p><p><img src=images/blank.png width =""800"" height = ""200""></p>","","","","","","","","","","","",""
"","275.61999997124076","sequential-stimulus-presentation","299","457186","0.0-56.0-1.1","SS1613138510260","trial","","40","800","1075.6199999712408","images/stimuli/spore_stims/complex_07_B_b.gif","images/stimuli/spore_stims/complex_03_B_b.gif","","","","","16","complex_dissimilar","images/stimuli/spore_stims/complex_03_B_b.gif","left","","","","",""
"","null","html-keyboard-response","300","458121","0.0-56.0-0.2","SS1613138510260","","","null","","","","","<p><img src= images/blank.png width =""200"" height = ""200"" style = ""float:right""></p><p><img src=images/blank.png width =""800"" height = ""200""></p>","","","","","","","","","","","",""
"","196.81499991565943","sequential-stimulus-presentation","301","459125","0.0-56.0-1.2","SS1613138510260","trial","","40","800","996.8149999156594","images/stimuli/spore_stims/complex_07_B_b.gif","images/stimuli/spore_stims/complex_03_B_b.gif","","","","","16","complex_dissimilar","images/stimuli/spore_stims/complex_07_B_b.gif","middle","","","","",""
"","null","html-keyboard-response","302","460250","0.0-56.0-0.3","SS1613138510260","","","null","","","","","<p><img src= images/blank.png width =""200"" height = ""200"" style = ""float:right""></p><p><img src=images/blank.png width =""800"" height = ""200""></p>","","","","","","","","","","","",""
"","190.81499986350536","sequential-stimulus-presentation","303","461250","0.0-56.0-1.3","SS1613138510260","trial","","40","800","990.8149998635054","images/stimuli/spore_stims/complex_07_B_b.gif","images/stimuli/spore_stims/complex_03_B_b.gif","","","","","16","complex_dissimilar","images/stimuli/spore_stims/complex_03_B_b.gif","left","","","","",""
"","null","html-keyboard-response","304","462256","0.0-56.0-0.4","SS1613138510260","","","null","","","","","<p><img src= images/blank.png width =""200"" height = ""200"" style = ""float:right""></p><p><img src=images/blank.png width =""800"" height = ""200""></p>","","","","","","","","","","","",""
"","475.5949997343123","sequential-stimulus-presentation","305","463557","0.0-56.0-1.4","SS1613138510260","trial","","40","800","1275.5949997343123","images/stimuli/spore_stims/complex_07_B_b.gif","images/stimuli/spore_stims/complex_03_B_b.gif","","","","","16","complex_dissimilar","images/stimuli/spore_stims/complex_03_B_b.gif","left","","","","",""
"","null","html-keyboard-response","306","464534","0.0-56.0-0.5","SS1613138510260","","","null","","","","","<p><img src= images/blank.png width =""200"" height = ""200"" style = ""float:right""></p><p><img src=images/blank.png width =""800"" height = ""200""></p>","","","","","","","","","","","",""
"","278.2299998216331","sequential-stimulus-presentation","307","465622","0.0-56.0-1.5","SS1613138510260","trial","","40","800","1078.229999821633","images/stimuli/spore_stims/complex_07_B_b.gif","images/stimuli/spore_stims/complex_03_B_b.gif","","","","","16","complex_dissimilar","images/stimuli/spore_stims/complex_03_B_b.gif","left","","","","",""
"","null","html-keyboard-response","308","466562","0.0-56.0-0.6","SS1613138510260","","","null","","","","","<p><img src= images/blank.png width =""200"" height = ""200"" style = ""float:right""></p><p><img src=images/blank.png width =""800"" height = ""200""></p>","","","","","","","","","","","",""
"","464.8299999535084","sequential-stimulus-presentation","309","467837","0.0-56.0-1.6","SS1613138510260","trial","","40","800","1264.8299999535084","images/stimuli/spore_stims/complex_07_B_b.gif","images/stimuli/spore_stims/complex_03_B_b.gif","","","","","16","complex_dissimilar","images/stimuli/spore_stims/complex_03_B_b.gif","left","","","","",""
"","null","html-keyboard-response","310","469052","0.0-56.0-0.7","SS1613138510260","","","null","","","","","<p><img src= images/blank.png width =""200"" height = ""200"" style = ""float:right""></p><p><img src=images/blank.png width =""800"" height = ""200""></p>","","","","","","","","","","","",""
"","222.91000001132488","sequential-stimulus-presentation","311","470085","0.0-56.0-1.7","SS1613138510260","trial","","40","800","1022.9100000113249","images/stimuli/spore_stims/complex_07_B_b.gif","images/stimuli/spore_stims/complex_03_B_b.gif","","","","","16","complex_dissimilar","images/stimuli/spore_stims/complex_03_B_b.gif","left","","","","",""
"","948.6650000326335","html-keyboard-response","312","471039","0.0-57.0","SS1613138510260","pref_question","","51","","","","","<video width ='960' height = '540' style='padding-top:8%' autoplay muted><source src='images/stimuli/wall_pref.mp4' type='video/mp4'></video>","3","right","66%","16","","","","","","","",""
