"view_history","rt","trial_type","trial_index","time_elapsed","internal_node_id","subject","stimulus_type","trial_stimulus","key_press","minimum_viewing_duration","trial_looking_time","block_deviant","block_background","stimulus","wall_pref","location","location_percent","block_number","block_type","stimulus_displayed","position_displayed","stim_type_selected","responses","question_order","stimulus_left","stimulus_right"
"[{""page_index"":0,""viewing_time"":2802.6600000011967}]","2802.895000000717","instructions","0","2805","0.0-0.0","SS1613098651089","","","","","","","","","","","","","","","","","","","",""
"[{""page_index"":0,""viewing_time"":10244.79500000598},{""page_index"":1,""viewing_time"":11215.85999999661}]","21460.8150000131","instructions","1","26269","0.0-1.0","SS1613098651089","instructions","","","","","","","","","","","","","","","","","","",""
"","16914.459999999963","sequential-stimulus-presentation","2","43989","0.0-2.0","SS1613098651089","","","40","800","17714.459999999963","null","null","","","","","","","","","","","","",""
"","2182.955000011134","sequential-stimulus-presentation","3","46978","0.0-3.0","SS1613098651089","","","40","800","2982.955000011134","null","null","","","","","","","","","","","","",""
"[{""page_index"":0,""viewing_time"":9936.649999988731}]","9936.804999990272","instructions","4","56917","0.0-4.0","SS1613098651089","instructions","","","","","","","","","","","","","","","","","","",""
"","3523.2600000017555","html-keyboard-response","5","60443","0.0-5.0","SS1613098651089","instructions","","98","","","","","<video width ='960' height = '540' autoplay muted><source src='images/stimuli/wall_pref.mp4' type='video/mp4'></video>","2","middle","45%","","","","","","","","",""
"","2791.1999999923864","sequential-stimulus-presentation","6","64058","0.0-6.0","SS1613098651089","pref_reveal","","40","800","3591.1999999923864","null","null","","","","","","","","","","","","",""
"[{""page_index"":0,""viewing_time"":15720.24500000407},{""page_index"":1,""viewing_time"":2823.8600000040606},{""page_index"":2,""viewing_time"":1616.1299999948824},{""page_index"":3,""viewing_time"":1856.0850000067148}]","22016.480000005686","instructions","7","86076","0.0-7.0","SS1613098651089","instructions","","","","","","","","","","","","","","","","","","",""
"","null","html-keyboard-response","8","87117","0.0-8.0-0.0","SS1613098651089","","","null","","","","","<p><img src= images/blank.png width =""200"" height = ""200"" style = ""float:right""></p><p><img src=images/blank.png width =""800"" height = ""200""></p>","","","","","","","","","","","",""
"","3532.3950000019977","sequential-stimulus-presentation","9","91459","0.0-8.0-1.0","SS1613098651089","trial","","40","800","4332.395000001998","images/stimuli/spore_stims/simple_14_A_c.gif","images/stimuli/spore_stims/simple_15_A_c.gif","","","","","0","simple_dissimilar","images/stimuli/spore_stims/simple_15_A_c.gif","right","","","","",""
"","null","html-keyboard-response","10","92743","0.0-8.0-0.1","SS1613098651089","","","null","","","","","<p><img src= images/blank.png width =""200"" height = ""200"" style = ""float:right""></p><p><img src=images/blank.png width =""800"" height = ""200""></p>","","","","","","","","","","","",""
"","842.3150000016904","sequential-stimulus-presentation","11","94394","0.0-8.0-1.1","SS1613098651089","trial","","40","800","1642.3150000016904","images/stimuli/spore_stims/simple_14_A_c.gif","images/stimuli/spore_stims/simple_15_A_c.gif","","","","","0","simple_dissimilar","images/stimuli/spore_stims/simple_15_A_c.gif","right","","","","",""
"","null","html-keyboard-response","12","95247","0.0-8.0-0.2","SS1613098651089","","","null","","","","","<p><img src= images/blank.png width =""200"" height = ""200"" style = ""float:right""></p><p><img src=images/blank.png width =""800"" height = ""200""></p>","","","","","","","","","","","",""
"","803.6649999994552","sequential-stimulus-presentation","13","96866","0.0-8.0-1.2","SS1613098651089","trial","","40","800","1603.6649999994552","images/stimuli/spore_stims/simple_14_A_c.gif","images/stimuli/spore_stims/simple_15_A_c.gif","","","","","0","simple_dissimilar","images/stimuli/spore_stims/simple_15_A_c.gif","right","","","","",""
"","null","html-keyboard-response","14","97847","0.0-8.0-0.3","SS1613098651089","","","null","","","","","<p><img src= images/blank.png width =""200"" height = ""200"" style = ""float:right""></p><p><img src=images/blank.png width =""800"" height = ""200""></p>","","","","","","","","","","","",""
"","520.9600000089267","sequential-stimulus-presentation","15","99186","0.0-8.0-1.3","SS1613098651089","trial","","40","800","1320.9600000089267","images/stimuli/spore_stims/simple_14_A_c.gif","images/stimuli/spore_stims/simple_15_A_c.gif","","","","","0","simple_dissimilar","images/stimuli/spore_stims/simple_15_A_c.gif","right","","","","",""
"","null","html-keyboard-response","16","100312","0.0-8.0-0.4","SS1613098651089","","","null","","","","","<p><img src= images/blank.png width =""200"" height = ""200"" style = ""float:right""></p><p><img src=images/blank.png width =""800"" height = ""200""></p>","","","","","","","","","","","",""
"","10848.575000010896","sequential-stimulus-presentation","17","111970","0.0-8.0-1.4","SS1613098651089","trial","","40","800","11648.575000010896","images/stimuli/spore_stims/simple_14_A_c.gif","images/stimuli/spore_stims/simple_15_A_c.gif","","","","","0","simple_dissimilar","images/stimuli/spore_stims/simple_15_A_c.gif","right","","","","",""
"","null","html-keyboard-response","18","113134","0.0-8.0-0.5","SS1613098651089","","","null","","","","","<p><img src= images/blank.png width =""200"" height = ""200"" style = ""float:right""></p><p><img src=images/blank.png width =""800"" height = ""200""></p>","","","","","","","","","","","",""
"","464.1750000009779","sequential-stimulus-presentation","19","114418","0.0-8.0-1.5","SS1613098651089","trial","","40","800","1264.175000000978","images/stimuli/spore_stims/simple_14_A_c.gif","images/stimuli/spore_stims/simple_15_A_c.gif","","","","","0","simple_dissimilar","images/stimuli/spore_stims/simple_15_A_c.gif","right","","","","",""
"","null","html-keyboard-response","20","115328","0.0-8.0-0.6","SS1613098651089","","","null","","","","","<p><img src= images/blank.png width =""200"" height = ""200"" style = ""float:right""></p><p><img src=images/blank.png width =""800"" height = ""200""></p>","","","","","","","","","","","",""
"","1006.1649999988731","sequential-stimulus-presentation","21","117146","0.0-8.0-1.6","SS1613098651089","trial","","40","800","1806.164999998873","images/stimuli/spore_stims/simple_14_A_c.gif","images/stimuli/spore_stims/simple_15_A_c.gif","","","","","0","simple_dissimilar","images/stimuli/spore_stims/simple_14_A_c.gif","middle","","","","",""
"","null","html-keyboard-response","22","118336","0.0-8.0-0.7","SS1613098651089","","","null","","","","","<p><img src= images/blank.png width =""200"" height = ""200"" style = ""float:right""></p><p><img src=images/blank.png width =""800"" height = ""200""></p>","","","","","","","","","","","",""
"","1074.2449999961536","sequential-stimulus-presentation","23","120218","0.0-8.0-1.7","SS1613098651089","trial","","40","800","1874.2449999961536","images/stimuli/spore_stims/simple_14_A_c.gif","images/stimuli/spore_stims/simple_15_A_c.gif","","","","","0","simple_dissimilar","images/stimuli/spore_stims/simple_15_A_c.gif","right","","","","",""
"","2162.3449999897275","html-keyboard-response","24","122386","0.0-9.0","SS1613098651089","pref_question","","99","","","","","<video width ='960' height = '540' style='padding-top:8%' autoplay muted><source src='images/stimuli/wall_pref.mp4' type='video/mp4'></video>","3","right","66%","0","","","","","","","",""
"","841.4950000005774","sequential-stimulus-presentation","25","124058","0.0-10.0","SS1613098651089","pref_reveal","","40","800","1641.4950000005774","null","null","","","","","0","","","","background","","","",""
"","null","html-keyboard-response","26","125026","0.0-11.0-0.0","SS1613098651089","","","null","","","","","<p><img src= images/blank.png width =""200"" height = ""200"" style = ""float:right""></p><p><img src=images/blank.png width =""800"" height = ""200""></p>","","","","","","","","","","","",""
"","551.9900000072084","sequential-stimulus-presentation","27","126394","0.0-11.0-1.0","SS1613098651089","trial","","40","800","1351.9900000072084","images/stimuli/spore_stims/complex_01_B_c.gif","images/stimuli/spore_stims/complex_01_A_c.gif","","","","","1","complex_similar","images/stimuli/spore_stims/complex_01_A_c.gif","right","","","","",""
"","null","html-keyboard-response","28","127240","0.0-11.0-0.1","SS1613098651089","","","null","","","","","<p><img src= images/blank.png width =""200"" height = ""200"" style = ""float:right""></p><p><img src=images/blank.png width =""800"" height = ""200""></p>","","","","","","","","","","","",""
"","517.1749999863096","sequential-stimulus-presentation","29","128578","0.0-11.0-1.1","SS1613098651089","trial","","40","800","1317.1749999863096","images/stimuli/spore_stims/complex_01_B_c.gif","images/stimuli/spore_stims/complex_01_A_c.gif","","","","","1","complex_similar","images/stimuli/spore_stims/complex_01_A_c.gif","right","","","","",""
"","null","html-keyboard-response","30","129688","0.0-11.0-0.2","SS1613098651089","","","null","","","","","<p><img src= images/blank.png width =""200"" height = ""200"" style = ""float:right""></p><p><img src=images/blank.png width =""800"" height = ""200""></p>","","","","","","","","","","","",""
"","135.68999999552034","sequential-stimulus-presentation","31","130634","0.0-11.0-1.2","SS1613098651089","trial","","40","800","935.6899999955203","images/stimuli/spore_stims/complex_01_B_c.gif","images/stimuli/spore_stims/complex_01_A_c.gif","","","","","1","complex_similar","images/stimuli/spore_stims/complex_01_A_c.gif","right","","","","",""
"","null","html-keyboard-response","32","131537","0.0-11.0-0.3","SS1613098651089","","","null","","","","","<p><img src= images/blank.png width =""200"" height = ""200"" style = ""float:right""></p><p><img src=images/blank.png width =""800"" height = ""200""></p>","","","","","","","","","","","",""
"","1266.4050000021234","sequential-stimulus-presentation","33","133618","0.0-11.0-1.3","SS1613098651089","trial","","40","800","2066.4050000021234","images/stimuli/spore_stims/complex_01_B_c.gif","images/stimuli/spore_stims/complex_01_A_c.gif","","","","","1","complex_similar","images/stimuli/spore_stims/complex_01_B_c.gif","middle","","","","",""
"","null","html-keyboard-response","34","134555","0.0-11.0-0.4","SS1613098651089","","","null","","","","","<p><img src= images/blank.png width =""200"" height = ""200"" style = ""float:right""></p><p><img src=images/blank.png width =""800"" height = ""200""></p>","","","","","","","","","","","",""
"","366.0900000104448","sequential-stimulus-presentation","35","135729","0.0-11.0-1.4","SS1613098651089","trial","","40","800","1166.0900000104448","images/stimuli/spore_stims/complex_01_B_c.gif","images/stimuli/spore_stims/complex_01_A_c.gif","","","","","1","complex_similar","images/stimuli/spore_stims/complex_01_A_c.gif","right","","","","",""
"","null","html-keyboard-response","36","136835","0.0-11.0-0.5","SS1613098651089","","","null","","","","","<p><img src= images/blank.png width =""200"" height = ""200"" style = ""float:right""></p><p><img src=images/blank.png width =""800"" height = ""200""></p>","","","","","","","","","","","",""
"","448.6200000101235","sequential-stimulus-presentation","37","138098","0.0-11.0-1.5","SS1613098651089","trial","","40","800","1248.6200000101235","images/stimuli/spore_stims/complex_01_B_c.gif","images/stimuli/spore_stims/complex_01_A_c.gif","","","","","1","complex_similar","images/stimuli/spore_stims/complex_01_A_c.gif","right","","","","",""
"","null","html-keyboard-response","38","139110","0.0-11.0-0.6","SS1613098651089","","","null","","","","","<p><img src= images/blank.png width =""200"" height = ""200"" style = ""float:right""></p><p><img src=images/blank.png width =""800"" height = ""200""></p>","","","","","","","","","","","",""
"","12.814999994589016","sequential-stimulus-presentation","39","139962","0.0-11.0-1.6","SS1613098651089","trial","","40","800","812.814999994589","images/stimuli/spore_stims/complex_01_B_c.gif","images/stimuli/spore_stims/complex_01_A_c.gif","","","","","1","complex_similar","images/stimuli/spore_stims/complex_01_A_c.gif","right","","","","",""
"","null","html-keyboard-response","40","141050","0.0-11.0-0.7","SS1613098651089","","","null","","","","","<p><img src= images/blank.png width =""200"" height = ""200"" style = ""float:right""></p><p><img src=images/blank.png width =""800"" height = ""200""></p>","","","","","","","","","","","",""
"","668.5649999999441","sequential-stimulus-presentation","41","142537","0.0-11.0-1.7","SS1613098651089","trial","","40","800","1468.5649999999441","images/stimuli/spore_stims/complex_01_B_c.gif","images/stimuli/spore_stims/complex_01_A_c.gif","","","","","1","complex_similar","images/stimuli/spore_stims/complex_01_A_c.gif","right","","","","",""
"","3442.2599999961676","html-keyboard-response","42","145986","0.0-12.0","SS1613098651089","pref_question","","98","","","","","<video width ='960' height = '540' style='padding-top:8%' autoplay muted><source src='images/stimuli/wall_pref.mp4' type='video/mp4'></video>","2","middle","45%","1","","","","","","","",""
"","1019.5949999906588","sequential-stimulus-presentation","43","147818","0.0-13.0","SS1613098651089","pref_reveal","","40","800","1819.5949999906588","null","null","","","","","1","","","","deviant","","","",""
"","null","html-keyboard-response","44","148691","0.0-14.0-0.0","SS1613098651089","","","null","","","","","<p><img src= images/blank.png width =""200"" height = ""200"" style = ""float:right""></p><p><img src=images/blank.png width =""800"" height = ""200""></p>","","","","","","","","","","","",""
"","637.5299999926938","sequential-stimulus-presentation","45","150138","0.0-14.0-1.0","SS1613098651089","trial","","40","800","1437.5299999926938","images/stimuli/spore_stims/simple_13_B_d.gif","images/stimuli/spore_stims/simple_12_B_b.gif","","","","","2","simple_dissimilar","images/stimuli/spore_stims/simple_12_B_b.gif","middle","","","","",""
"","null","html-keyboard-response","46","151193","0.0-14.0-0.1","SS1613098651089","","","null","","","","","<p><img src= images/blank.png width =""200"" height = ""200"" style = ""float:right""></p><p><img src=images/blank.png width =""800"" height = ""200""></p>","","","","","","","","","","","",""
"","387.74499999999534","sequential-stimulus-presentation","47","152396","0.0-14.0-1.1","SS1613098651089","trial","","40","800","1187.7449999999953","images/stimuli/spore_stims/simple_13_B_d.gif","images/stimuli/spore_stims/simple_12_B_b.gif","","","","","2","simple_dissimilar","images/stimuli/spore_stims/simple_12_B_b.gif","middle","","","","",""
"","null","html-keyboard-response","48","153233","0.0-14.0-0.2","SS1613098651089","","","null","","","","","<p><img src= images/blank.png width =""200"" height = ""200"" style = ""float:right""></p><p><img src=images/blank.png width =""800"" height = ""200""></p>","","","","","","","","","","","",""
"","435.21999999939","sequential-stimulus-presentation","49","154482","0.0-14.0-1.2","SS1613098651089","trial","","40","800","1235.21999999939","images/stimuli/spore_stims/simple_13_B_d.gif","images/stimuli/spore_stims/simple_12_B_b.gif","","","","","2","simple_dissimilar","images/stimuli/spore_stims/simple_12_B_b.gif","middle","","","","",""
"","null","html-keyboard-response","50","155462","0.0-14.0-0.3","SS1613098651089","","","null","","","","","<p><img src= images/blank.png width =""200"" height = ""200"" style = ""float:right""></p><p><img src=images/blank.png width =""800"" height = ""200""></p>","","","","","","","","","","","",""
"","1124.179999998887","sequential-stimulus-presentation","51","157402","0.0-14.0-1.3","SS1613098651089","trial","","40","800","1924.179999998887","images/stimuli/spore_stims/simple_13_B_d.gif","images/stimuli/spore_stims/simple_12_B_b.gif","","","","","2","simple_dissimilar","images/stimuli/spore_stims/simple_12_B_b.gif","middle","","","","",""
"","null","html-keyboard-response","52","158395","0.0-14.0-0.4","SS1613098651089","","","null","","","","","<p><img src= images/blank.png width =""200"" height = ""200"" style = ""float:right""></p><p><img src=images/blank.png width =""800"" height = ""200""></p>","","","","","","","","","","","",""
"","537.6649999961955","sequential-stimulus-presentation","53","159754","0.0-14.0-1.4","SS1613098651089","trial","","40","800","1337.6649999961955","images/stimuli/spore_stims/simple_13_B_d.gif","images/stimuli/spore_stims/simple_12_B_b.gif","","","","","2","simple_dissimilar","images/stimuli/spore_stims/simple_12_B_b.gif","middle","","","","",""
"","null","html-keyboard-response","54","160627","0.0-14.0-0.5","SS1613098651089","","","null","","","","","<p><img src= images/blank.png width =""200"" height = ""200"" style = ""float:right""></p><p><img src=images/blank.png width =""800"" height = ""200""></p>","","","","","","","","","","","",""
"","175.68499999470077","sequential-stimulus-presentation","55","161625","0.0-14.0-1.5","SS1613098651089","trial","","40","800","975.6849999947008","images/stimuli/spore_stims/simple_13_B_d.gif","images/stimuli/spore_stims/simple_12_B_b.gif","","","","","2","simple_dissimilar","images/stimuli/spore_stims/simple_12_B_b.gif","middle","","","","",""
"","null","html-keyboard-response","56","162667","0.0-14.0-0.6","SS1613098651089","","","null","","","","","<p><img src= images/blank.png width =""200"" height = ""200"" style = ""float:right""></p><p><img src=images/blank.png width =""800"" height = ""200""></p>","","","","","","","","","","","",""
"","109.02999999234453","sequential-stimulus-presentation","57","163587","0.0-14.0-1.6","SS1613098651089","trial","","40","800","909.0299999923445","images/stimuli/spore_stims/simple_13_B_d.gif","images/stimuli/spore_stims/simple_12_B_b.gif","","","","","2","simple_dissimilar","images/stimuli/spore_stims/simple_13_B_d.gif","right","","","","",""
"","null","html-keyboard-response","58","164658","0.0-14.0-0.7","SS1613098651089","","","null","","","","","<p><img src= images/blank.png width =""200"" height = ""200"" style = ""float:right""></p><p><img src=images/blank.png width =""800"" height = ""200""></p>","","","","","","","","","","","",""
"","2649.505000008503","sequential-stimulus-presentation","59","168122","0.0-14.0-1.7","SS1613098651089","trial","","40","800","3449.505000008503","images/stimuli/spore_stims/simple_13_B_d.gif","images/stimuli/spore_stims/simple_12_B_b.gif","","","","","2","simple_dissimilar","images/stimuli/spore_stims/simple_12_B_b.gif","middle","","","","",""
"","1984.9300000059884","html-keyboard-response","60","170115","0.0-15.0","SS1613098651089","pref_question","","99","","","","","<video width ='960' height = '540' style='padding-top:8%' autoplay muted><source src='images/stimuli/wall_pref.mp4' type='video/mp4'></video>","3","right","66%","2","","","","","","","",""
"","652.7349999960279","sequential-stimulus-presentation","61","171587","0.0-16.0","SS1613098651089","pref_reveal","","40","800","1452.734999996028","null","null","","","","","2","","","","deviant","","","",""
"","null","html-keyboard-response","62","172563","0.0-17.0-0.0","SS1613098651089","","","null","","","","","<p><img src= images/blank.png width =""200"" height = ""200"" style = ""float:right""></p><p><img src=images/blank.png width =""800"" height = ""200""></p>","","","","","","","","","","","",""
"","726.330000004964","sequential-stimulus-presentation","63","174099","0.0-17.0-1.0","SS1613098651089","trial","","40","800","1526.330000004964","images/stimuli/spore_stims/simple_08_A_d.gif","images/stimuli/spore_stims/simple_08_B_d.gif","","","","","3","simple_similar","images/stimuli/spore_stims/simple_08_B_d.gif","left","","","","",""
"","null","html-keyboard-response","64","175393","0.0-17.0-0.1","SS1613098651089","","","null","","","","","<p><img src= images/blank.png width =""200"" height = ""200"" style = ""float:right""></p><p><img src=images/blank.png width =""800"" height = ""200""></p>","","","","","","","","","","","",""
"","557.7749999938533","sequential-stimulus-presentation","65","176770","0.0-17.0-1.1","SS1613098651089","trial","","40","800","1357.7749999938533","images/stimuli/spore_stims/simple_08_A_d.gif","images/stimuli/spore_stims/simple_08_B_d.gif","","","","","3","simple_similar","images/stimuli/spore_stims/simple_08_B_d.gif","left","","","","",""
"","null","html-keyboard-response","66","177815","0.0-17.0-0.2","SS1613098651089","","","null","","","","","<p><img src= images/blank.png width =""200"" height = ""200"" style = ""float:right""></p><p><img src=images/blank.png width =""800"" height = ""200""></p>","","","","","","","","","","","",""
"","11.85500000428874","sequential-stimulus-presentation","67","178650","0.0-17.0-1.2","SS1613098651089","trial","","40","800","811.8550000042887","images/stimuli/spore_stims/simple_08_A_d.gif","images/stimuli/spore_stims/simple_08_B_d.gif","","","","","3","simple_similar","images/stimuli/spore_stims/simple_08_B_d.gif","left","","","","",""
"","null","html-keyboard-response","68","179824","0.0-17.0-0.3","SS1613098651089","","","null","","","","","<p><img src= images/blank.png width =""200"" height = ""200"" style = ""float:right""></p><p><img src=images/blank.png width =""800"" height = ""200""></p>","","","","","","","","","","","",""
"","489.04500000935514","sequential-stimulus-presentation","69","181130","0.0-17.0-1.3","SS1613098651089","trial","","40","800","1289.0450000093551","images/stimuli/spore_stims/simple_08_A_d.gif","images/stimuli/spore_stims/simple_08_B_d.gif","","","","","3","simple_similar","images/stimuli/spore_stims/simple_08_B_d.gif","left","","","","",""
"","null","html-keyboard-response","70","182052","0.0-17.0-0.4","SS1613098651089","","","null","","","","","<p><img src= images/blank.png width =""200"" height = ""200"" style = ""float:right""></p><p><img src=images/blank.png width =""800"" height = ""200""></p>","","","","","","","","","","","",""
"","718.7600000033854","sequential-stimulus-presentation","71","183586","0.0-17.0-1.4","SS1613098651089","trial","","40","800","1518.7600000033854","images/stimuli/spore_stims/simple_08_A_d.gif","images/stimuli/spore_stims/simple_08_B_d.gif","","","","","3","simple_similar","images/stimuli/spore_stims/simple_08_A_d.gif","right","","","","",""
"","null","html-keyboard-response","72","184419","0.0-17.0-0.5","SS1613098651089","","","null","","","","","<p><img src= images/blank.png width =""200"" height = ""200"" style = ""float:right""></p><p><img src=images/blank.png width =""800"" height = ""200""></p>","","","","","","","","","","","",""
"","261.72999999835156","sequential-stimulus-presentation","73","185490","0.0-17.0-1.5","SS1613098651089","trial","","40","800","1061.7299999983516","images/stimuli/spore_stims/simple_08_A_d.gif","images/stimuli/spore_stims/simple_08_B_d.gif","","","","","3","simple_similar","images/stimuli/spore_stims/simple_08_B_d.gif","left","","","","",""
"","null","html-keyboard-response","74","186621","0.0-17.0-0.6","SS1613098651089","","","null","","","","","<p><img src= images/blank.png width =""200"" height = ""200"" style = ""float:right""></p><p><img src=images/blank.png width =""800"" height = ""200""></p>","","","","","","","","","","","",""
"","83.0300000088755","sequential-stimulus-presentation","75","187521","0.0-17.0-1.6","SS1613098651089","trial","","40","800","883.0300000088755","images/stimuli/spore_stims/simple_08_A_d.gif","images/stimuli/spore_stims/simple_08_B_d.gif","","","","","3","simple_similar","images/stimuli/spore_stims/simple_08_B_d.gif","left","","","","",""
"","null","html-keyboard-response","76","188426","0.0-17.0-0.7","SS1613098651089","","","null","","","","","<p><img src= images/blank.png width =""200"" height = ""200"" style = ""float:right""></p><p><img src=images/blank.png width =""800"" height = ""200""></p>","","","","","","","","","","","",""
"","112.25000000558794","sequential-stimulus-presentation","77","189354","0.0-17.0-1.7","SS1613098651089","trial","","40","800","912.2500000055879","images/stimuli/spore_stims/simple_08_A_d.gif","images/stimuli/spore_stims/simple_08_B_d.gif","","","","","3","simple_similar","images/stimuli/spore_stims/simple_08_B_d.gif","left","","","","",""
"","2334.6699999965494","html-keyboard-response","78","191698","0.0-18.0","SS1613098651089","pref_question","","98","","","","","<video width ='960' height = '540' style='padding-top:8%' autoplay muted><source src='images/stimuli/wall_pref.mp4' type='video/mp4'></video>","2","middle","45%","3","","","","","","","",""
"","419.12500000034925","sequential-stimulus-presentation","79","192930","0.0-19.0","SS1613098651089","pref_reveal","","40","800","1219.1250000003492","null","null","","","","","3","","","","novel","","","",""
"","null","html-keyboard-response","80","193862","0.0-20.0-0.0","SS1613098651089","","","null","","","","","<p><img src= images/blank.png width =""200"" height = ""200"" style = ""float:right""></p><p><img src=images/blank.png width =""800"" height = ""200""></p>","","","","","","","","","","","",""
"","856.4550000010058","sequential-stimulus-presentation","81","195563","0.0-20.0-1.0","SS1613098651089","trial","","40","800","1656.4550000010058","images/stimuli/spore_stims/simple_19_A_c.gif","images/stimuli/spore_stims/simple_19_B_c.gif","","","","","4","simple_similar","images/stimuli/spore_stims/simple_19_B_c.gif","left","","","","",""
"","null","html-keyboard-response","82","196872","0.0-20.0-0.1","SS1613098651089","","","null","","","","","<p><img src= images/blank.png width =""200"" height = ""200"" style = ""float:right""></p><p><img src=images/blank.png width =""800"" height = ""200""></p>","","","","","","","","","","","",""
"","127.23500000720378","sequential-stimulus-presentation","83","197818","0.0-20.0-1.1","SS1613098651089","trial","","40","800","927.2350000072038","images/stimuli/spore_stims/simple_19_A_c.gif","images/stimuli/spore_stims/simple_19_B_c.gif","","","","","4","simple_similar","images/stimuli/spore_stims/simple_19_B_c.gif","left","","","","",""
"","null","html-keyboard-response","84","198942","0.0-20.0-0.2","SS1613098651089","","","null","","","","","<p><img src= images/blank.png width =""200"" height = ""200"" style = ""float:right""></p><p><img src=images/blank.png width =""800"" height = ""200""></p>","","","","","","","","","","","",""
"","94.29999999701977","sequential-stimulus-presentation","85","199858","0.0-20.0-1.2","SS1613098651089","trial","","40","800","894.2999999970198","images/stimuli/spore_stims/simple_19_A_c.gif","images/stimuli/spore_stims/simple_19_B_c.gif","","","","","4","simple_similar","images/stimuli/spore_stims/simple_19_B_c.gif","left","","","","",""
"","null","html-keyboard-response","86","200721","0.0-20.0-0.3","SS1613098651089","","","null","","","","","<p><img src= images/blank.png width =""200"" height = ""200"" style = ""float:right""></p><p><img src=images/blank.png width =""800"" height = ""200""></p>","","","","","","","","","","","",""
"","415.68499999993946","sequential-stimulus-presentation","87","201946","0.0-20.0-1.3","SS1613098651089","trial","","40","800","1215.6849999999395","images/stimuli/spore_stims/simple_19_A_c.gif","images/stimuli/spore_stims/simple_19_B_c.gif","","","","","4","simple_similar","images/stimuli/spore_stims/simple_19_B_c.gif","left","","","","",""
"","null","html-keyboard-response","88","202966","0.0-20.0-0.4","SS1613098651089","","","null","","","","","<p><img src= images/blank.png width =""200"" height = ""200"" style = ""float:right""></p><p><img src=images/blank.png width =""800"" height = ""200""></p>","","","","","","","","","","","",""
"","481.67999999714084","sequential-stimulus-presentation","89","204266","0.0-20.0-1.4","SS1613098651089","trial","","40","800","1281.6799999971408","images/stimuli/spore_stims/simple_19_A_c.gif","images/stimuli/spore_stims/simple_19_B_c.gif","","","","","4","simple_similar","images/stimuli/spore_stims/simple_19_B_c.gif","left","","","","",""
"","null","html-keyboard-response","90","205583","0.0-20.0-0.5","SS1613098651089","","","null","","","","","<p><img src= images/blank.png width =""200"" height = ""200"" style = ""float:right""></p><p><img src=images/blank.png width =""800"" height = ""200""></p>","","","","","","","","","","","",""
"","508.3100000047125","sequential-stimulus-presentation","91","206915","0.0-20.0-1.5","SS1613098651089","trial","","40","800","1308.3100000047125","images/stimuli/spore_stims/simple_19_A_c.gif","images/stimuli/spore_stims/simple_19_B_c.gif","","","","","4","simple_similar","images/stimuli/spore_stims/simple_19_B_c.gif","left","","","","",""
"","null","html-keyboard-response","92","207839","0.0-20.0-0.6","SS1613098651089","","","null","","","","","<p><img src= images/blank.png width =""200"" height = ""200"" style = ""float:right""></p><p><img src=images/blank.png width =""800"" height = ""200""></p>","","","","","","","","","","","",""
"","715.6600000016624","sequential-stimulus-presentation","93","209370","0.0-20.0-1.6","SS1613098651089","trial","","40","800","1515.6600000016624","images/stimuli/spore_stims/simple_19_A_c.gif","images/stimuli/spore_stims/simple_19_B_c.gif","","","","","4","simple_similar","images/stimuli/spore_stims/simple_19_A_c.gif","middle","","","","",""
"","null","html-keyboard-response","94","210451","0.0-20.0-0.7","SS1613098651089","","","null","","","","","<p><img src= images/blank.png width =""200"" height = ""200"" style = ""float:right""></p><p><img src=images/blank.png width =""800"" height = ""200""></p>","","","","","","","","","","","",""
"","219.7899999882793","sequential-stimulus-presentation","95","211483","0.0-20.0-1.7","SS1613098651089","trial","","40","800","1019.7899999882793","images/stimuli/spore_stims/simple_19_A_c.gif","images/stimuli/spore_stims/simple_19_B_c.gif","","","","","4","simple_similar","images/stimuli/spore_stims/simple_19_B_c.gif","left","","","","",""
"","1647.3649999970803","html-keyboard-response","96","213138","0.0-21.0","SS1613098651089","pref_question","","97","","","","","<video width ='960' height = '540' style='padding-top:8%' autoplay muted><source src='images/stimuli/wall_pref.mp4' type='video/mp4'></video>","1","left","25%","4","","","","","","","",""
"","258.4050000004936","sequential-stimulus-presentation","97","214218","0.0-22.0","SS1613098651089","pref_reveal","","40","800","1058.4050000004936","null","null","","","","","4","","","","background","","","",""
"","null","html-keyboard-response","98","215442","0.0-23.0-0.0","SS1613098651089","","","null","","","","","<p><img src= images/blank.png width =""200"" height = ""200"" style = ""float:right""></p><p><img src=images/blank.png width =""800"" height = ""200""></p>","","","","","","","","","","","",""
"","377.93999999121297","sequential-stimulus-presentation","99","216635","0.0-23.0-1.0","SS1613098651089","trial","","40","800","1177.939999991213","images/stimuli/spore_stims/simple_02_B_a.gif","images/stimuli/spore_stims/simple_02_A_a.gif","","","","","5","simple_similar","images/stimuli/spore_stims/simple_02_A_a.gif","left","","","","",""
"","null","html-keyboard-response","100","217533","0.0-23.0-0.1","SS1613098651089","","","null","","","","","<p><img src= images/blank.png width =""200"" height = ""200"" style = ""float:right""></p><p><img src=images/blank.png width =""800"" height = ""200""></p>","","","","","","","","","","","",""
"","31.10500000184402","sequential-stimulus-presentation","101","218378","0.0-23.0-1.1","SS1613098651089","trial","","40","800","831.105000001844","images/stimuli/spore_stims/simple_02_B_a.gif","images/stimuli/spore_stims/simple_02_A_a.gif","","","","","5","simple_similar","images/stimuli/spore_stims/simple_02_A_a.gif","left","","","","",""
"","null","html-keyboard-response","102","219196","0.0-23.0-0.2","SS1613098651089","","","null","","","","","<p><img src= images/blank.png width =""200"" height = ""200"" style = ""float:right""></p><p><img src=images/blank.png width =""800"" height = ""200""></p>","","","","","","","","","","","",""
"","475.7899999967776","sequential-stimulus-presentation","103","220482","0.0-23.0-1.2","SS1613098651089","trial","","40","800","1275.7899999967776","images/stimuli/spore_stims/simple_02_B_a.gif","images/stimuli/spore_stims/simple_02_A_a.gif","","","","","5","simple_similar","images/stimuli/spore_stims/simple_02_A_a.gif","left","","","","",""
"","null","html-keyboard-response","104","221613","0.0-23.0-0.3","SS1613098651089","","","null","","","","","<p><img src= images/blank.png width =""200"" height = ""200"" style = ""float:right""></p><p><img src=images/blank.png width =""800"" height = ""200""></p>","","","","","","","","","","","",""
"","843.8400000013644","sequential-stimulus-presentation","105","223266","0.0-23.0-1.3","SS1613098651089","trial","","40","800","1643.8400000013644","images/stimuli/spore_stims/simple_02_B_a.gif","images/stimuli/spore_stims/simple_02_A_a.gif","","","","","5","simple_similar","images/stimuli/spore_stims/simple_02_A_a.gif","left","","","","",""
"","null","html-keyboard-response","106","224527","0.0-23.0-0.4","SS1613098651089","","","null","","","","","<p><img src= images/blank.png width =""200"" height = ""200"" style = ""float:right""></p><p><img src=images/blank.png width =""800"" height = ""200""></p>","","","","","","","","","","","",""
"","1480.955000006361","sequential-stimulus-presentation","107","226819","0.0-23.0-1.4","SS1613098651089","trial","","40","800","2280.955000006361","images/stimuli/spore_stims/simple_02_B_a.gif","images/stimuli/spore_stims/simple_02_A_a.gif","","","","","5","simple_similar","images/stimuli/spore_stims/simple_02_B_a.gif","middle","","","","",""
"","null","html-keyboard-response","108","227977","0.0-23.0-0.5","SS1613098651089","","","null","","","","","<p><img src= images/blank.png width =""200"" height = ""200"" style = ""float:right""></p><p><img src=images/blank.png width =""800"" height = ""200""></p>","","","","","","","","","","","",""
"","981.3100000028498","sequential-stimulus-presentation","109","229778","0.0-23.0-1.5","SS1613098651089","trial","","40","800","1781.3100000028498","images/stimuli/spore_stims/simple_02_B_a.gif","images/stimuli/spore_stims/simple_02_A_a.gif","","","","","5","simple_similar","images/stimuli/spore_stims/simple_02_A_a.gif","left","","","","",""
"","null","html-keyboard-response","110","230935","0.0-23.0-0.6","SS1613098651089","","","null","","","","","<p><img src= images/blank.png width =""200"" height = ""200"" style = ""float:right""></p><p><img src=images/blank.png width =""800"" height = ""200""></p>","","","","","","","","","","","",""
"","456.6599999961909","sequential-stimulus-presentation","111","232202","0.0-23.0-1.6","SS1613098651089","trial","","40","800","1256.659999996191","images/stimuli/spore_stims/simple_02_B_a.gif","images/stimuli/spore_stims/simple_02_A_a.gif","","","","","5","simple_similar","images/stimuli/spore_stims/simple_02_A_a.gif","left","","","","",""
"","null","html-keyboard-response","112","233359","0.0-23.0-0.7","SS1613098651089","","","null","","","","","<p><img src= images/blank.png width =""200"" height = ""200"" style = ""float:right""></p><p><img src=images/blank.png width =""800"" height = ""200""></p>","","","","","","","","","","","",""
"","3757.165000002715","sequential-stimulus-presentation","113","237931","0.0-23.0-1.7","SS1613098651089","trial","","40","800","4557.165000002715","images/stimuli/spore_stims/simple_02_B_a.gif","images/stimuli/spore_stims/simple_02_A_a.gif","","","","","5","simple_similar","images/stimuli/spore_stims/simple_02_A_a.gif","left","","","","",""
"","1669.1549999959534","html-keyboard-response","114","239610","0.0-24.0","SS1613098651089","pref_question","","97","","","","","<video width ='960' height = '540' style='padding-top:8%' autoplay muted><source src='images/stimuli/wall_pref.mp4' type='video/mp4'></video>","1","left","25%","5","","","","","","","",""
"","247.93000001227483","sequential-stimulus-presentation","115","240675","0.0-25.0","SS1613098651089","pref_reveal","","40","800","1047.9300000122748","null","null","","","","","5","","","","background","","","",""
"","null","html-keyboard-response","116","241702","0.0-26.0-0.0","SS1613098651089","","","null","","","","","<p><img src= images/blank.png width =""200"" height = ""200"" style = ""float:right""></p><p><img src=images/blank.png width =""800"" height = ""200""></p>","","","","","","","","","","","",""
"","350.7499999977881","sequential-stimulus-presentation","117","242875","0.0-26.0-1.0","SS1613098651089","trial","","40","800","1150.749999997788","images/stimuli/spore_stims/complex_10_A_b.gif","images/stimuli/spore_stims/complex_10_B_b.gif","","","","","6","complex_similar","images/stimuli/spore_stims/complex_10_B_b.gif","middle","","","","",""
"","null","html-keyboard-response","118","243806","0.0-26.0-0.1","SS1613098651089","","","null","","","","","<p><img src= images/blank.png width =""200"" height = ""200"" style = ""float:right""></p><p><img src=images/blank.png width =""800"" height = ""200""></p>","","","","","","","","","","","",""
"","360.1150000031339","sequential-stimulus-presentation","119","244978","0.0-26.0-1.1","SS1613098651089","trial","","40","800","1160.115000003134","images/stimuli/spore_stims/complex_10_A_b.gif","images/stimuli/spore_stims/complex_10_B_b.gif","","","","","6","complex_similar","images/stimuli/spore_stims/complex_10_B_b.gif","middle","","","","",""
"","null","html-keyboard-response","120","246273","0.0-26.0-0.2","SS1613098651089","","","null","","","","","<p><img src= images/blank.png width =""200"" height = ""200"" style = ""float:right""></p><p><img src=images/blank.png width =""800"" height = ""200""></p>","","","","","","","","","","","",""
"","555.5500000045868","sequential-stimulus-presentation","121","247650","0.0-26.0-1.2","SS1613098651089","trial","","40","800","1355.5500000045868","images/stimuli/spore_stims/complex_10_A_b.gif","images/stimuli/spore_stims/complex_10_B_b.gif","","","","","6","complex_similar","images/stimuli/spore_stims/complex_10_A_b.gif","right","","","","",""
"","null","html-keyboard-response","122","248712","0.0-26.0-0.3","SS1613098651089","","","null","","","","","<p><img src= images/blank.png width =""200"" height = ""200"" style = ""float:right""></p><p><img src=images/blank.png width =""800"" height = ""200""></p>","","","","","","","","","","","",""
"","438.3150000066962","sequential-stimulus-presentation","123","249985","0.0-26.0-1.3","SS1613098651089","trial","","40","800","1238.3150000066962","images/stimuli/spore_stims/complex_10_A_b.gif","images/stimuli/spore_stims/complex_10_B_b.gif","","","","","6","complex_similar","images/stimuli/spore_stims/complex_10_B_b.gif","middle","","","","",""
"","null","html-keyboard-response","124","251246","0.0-26.0-0.4","SS1613098651089","","","null","","","","","<p><img src= images/blank.png width =""200"" height = ""200"" style = ""float:right""></p><p><img src=images/blank.png width =""800"" height = ""200""></p>","","","","","","","","","","","",""
"","378.0499999993481","sequential-stimulus-presentation","125","252435","0.0-26.0-1.4","SS1613098651089","trial","","40","800","1178.049999999348","images/stimuli/spore_stims/complex_10_A_b.gif","images/stimuli/spore_stims/complex_10_B_b.gif","","","","","6","complex_similar","images/stimuli/spore_stims/complex_10_B_b.gif","middle","","","","",""
"","null","html-keyboard-response","126","253318","0.0-26.0-0.5","SS1613098651089","","","null","","","","","<p><img src= images/blank.png width =""200"" height = ""200"" style = ""float:right""></p><p><img src=images/blank.png width =""800"" height = ""200""></p>","","","","","","","","","","","",""
"","410.6549999996787","sequential-stimulus-presentation","127","254546","0.0-26.0-1.5","SS1613098651089","trial","","40","800","1210.6549999996787","images/stimuli/spore_stims/complex_10_A_b.gif","images/stimuli/spore_stims/complex_10_B_b.gif","","","","","6","complex_similar","images/stimuli/spore_stims/complex_10_B_b.gif","middle","","","","",""
"","null","html-keyboard-response","128","255582","0.0-26.0-0.6","SS1613098651089","","","null","","","","","<p><img src= images/blank.png width =""200"" height = ""200"" style = ""float:right""></p><p><img src=images/blank.png width =""800"" height = ""200""></p>","","","","","","","","","","","",""
"","454.6200000040699","sequential-stimulus-presentation","129","256849","0.0-26.0-1.6","SS1613098651089","trial","","40","800","1254.6200000040699","images/stimuli/spore_stims/complex_10_A_b.gif","images/stimuli/spore_stims/complex_10_B_b.gif","","","","","6","complex_similar","images/stimuli/spore_stims/complex_10_B_b.gif","middle","","","","",""
"","null","html-keyboard-response","130","257722","0.0-26.0-0.7","SS1613098651089","","","null","","","","","<p><img src= images/blank.png width =""200"" height = ""200"" style = ""float:right""></p><p><img src=images/blank.png width =""800"" height = ""200""></p>","","","","","","","","","","","",""
"","643.3900000120047","sequential-stimulus-presentation","131","259186","0.0-26.0-1.7","SS1613098651089","trial","","40","800","1443.3900000120047","images/stimuli/spore_stims/complex_10_A_b.gif","images/stimuli/spore_stims/complex_10_B_b.gif","","","","","6","complex_similar","images/stimuli/spore_stims/complex_10_B_b.gif","middle","","","","",""
"","1382.4900000035996","html-keyboard-response","132","260579","0.0-27.0","SS1613098651089","pref_question","","98","","","","","<video width ='960' height = '540' style='padding-top:8%' autoplay muted><source src='images/stimuli/wall_pref.mp4' type='video/mp4'></video>","2","middle","45%","6","","","","","","","",""
"","184.81999999494292","sequential-stimulus-presentation","133","261579","0.0-28.0","SS1613098651089","pref_reveal","","40","800","984.8199999949429","null","null","","","","","6","","","","background","","","",""
"","null","html-keyboard-response","134","262759","0.0-29.0-0.0","SS1613098651089","","","null","","","","","<p><img src= images/blank.png width =""200"" height = ""200"" style = ""float:right""></p><p><img src=images/blank.png width =""800"" height = ""200""></p>","","","","","","","","","","","",""
"","609.1049999959068","sequential-stimulus-presentation","135","264186","0.0-29.0-1.0","SS1613098651089","trial","","40","800","1409.1049999959068","images/stimuli/spore_stims/simple_01_A_c.gif","images/stimuli/spore_stims/simple_01_B_c.gif","","","","","7","simple_similar","images/stimuli/spore_stims/simple_01_B_c.gif","left","","","","",""
"","null","html-keyboard-response","136","265232","0.0-29.0-0.1","SS1613098651089","","","null","","","","","<p><img src= images/blank.png width =""200"" height = ""200"" style = ""float:right""></p><p><img src=images/blank.png width =""800"" height = ""200""></p>","","","","","","","","","","","",""
"","1015.5999999988126","sequential-stimulus-presentation","137","267058","0.0-29.0-1.1","SS1613098651089","trial","","40","800","1815.5999999988126","images/stimuli/spore_stims/simple_01_A_c.gif","images/stimuli/spore_stims/simple_01_B_c.gif","","","","","7","simple_similar","images/stimuli/spore_stims/simple_01_B_c.gif","left","","","","",""
"","null","html-keyboard-response","138","267903","0.0-29.0-0.2","SS1613098651089","","","null","","","","","<p><img src= images/blank.png width =""200"" height = ""200"" style = ""float:right""></p><p><img src=images/blank.png width =""800"" height = ""200""></p>","","","","","","","","","","","",""
"","345.660000006319","sequential-stimulus-presentation","139","269074","0.0-29.0-1.2","SS1613098651089","trial","","40","800","1145.660000006319","images/stimuli/spore_stims/simple_01_A_c.gif","images/stimuli/spore_stims/simple_01_B_c.gif","","","","","7","simple_similar","images/stimuli/spore_stims/simple_01_B_c.gif","left","","","","",""
"","null","html-keyboard-response","140","270374","0.0-29.0-0.3","SS1613098651089","","","null","","","","","<p><img src= images/blank.png width =""200"" height = ""200"" style = ""float:right""></p><p><img src=images/blank.png width =""800"" height = ""200""></p>","","","","","","","","","","","",""
"","585.3400000050897","sequential-stimulus-presentation","141","271778","0.0-29.0-1.3","SS1613098651089","trial","","40","800","1385.3400000050897","images/stimuli/spore_stims/simple_01_A_c.gif","images/stimuli/spore_stims/simple_01_B_c.gif","","","","","7","simple_similar","images/stimuli/spore_stims/simple_01_B_c.gif","left","","","","",""
"","null","html-keyboard-response","142","272903","0.0-29.0-0.4","SS1613098651089","","","null","","","","","<p><img src= images/blank.png width =""200"" height = ""200"" style = ""float:right""></p><p><img src=images/blank.png width =""800"" height = ""200""></p>","","","","","","","","","","","",""
"","449.5500000048196","sequential-stimulus-presentation","143","274178","0.0-29.0-1.4","SS1613098651089","trial","","40","800","1249.5500000048196","images/stimuli/spore_stims/simple_01_A_c.gif","images/stimuli/spore_stims/simple_01_B_c.gif","","","","","7","simple_similar","images/stimuli/spore_stims/simple_01_B_c.gif","left","","","","",""
"","null","html-keyboard-response","144","275222","0.0-29.0-0.5","SS1613098651089","","","null","","","","","<p><img src= images/blank.png width =""200"" height = ""200"" style = ""float:right""></p><p><img src=images/blank.png width =""800"" height = ""200""></p>","","","","","","","","","","","",""
"","48.05500000657048","sequential-stimulus-presentation","145","276082","0.0-29.0-1.5","SS1613098651089","trial","","40","800","848.0550000065705","images/stimuli/spore_stims/simple_01_A_c.gif","images/stimuli/spore_stims/simple_01_B_c.gif","","","","","7","simple_similar","images/stimuli/spore_stims/simple_01_B_c.gif","left","","","","",""
"","null","html-keyboard-response","146","277030","0.0-29.0-0.6","SS1613098651089","","","null","","","","","<p><img src= images/blank.png width =""200"" height = ""200"" style = ""float:right""></p><p><img src=images/blank.png width =""800"" height = ""200""></p>","","","","","","","","","","","",""
"","218.3950000035111","sequential-stimulus-presentation","147","278066","0.0-29.0-1.6","SS1613098651089","trial","","40","800","1018.3950000035111","images/stimuli/spore_stims/simple_01_A_c.gif","images/stimuli/spore_stims/simple_01_B_c.gif","","","","","7","simple_similar","images/stimuli/spore_stims/simple_01_B_c.gif","left","","","","",""
"","null","html-keyboard-response","148","279153","0.0-29.0-0.7","SS1613098651089","","","null","","","","","<p><img src= images/blank.png width =""200"" height = ""200"" style = ""float:right""></p><p><img src=images/blank.png width =""800"" height = ""200""></p>","","","","","","","","","","","",""
"","417.92500000155997","sequential-stimulus-presentation","149","280395","0.0-29.0-1.7","SS1613098651089","trial","","40","800","1217.92500000156","images/stimuli/spore_stims/simple_01_A_c.gif","images/stimuli/spore_stims/simple_01_B_c.gif","","","","","7","simple_similar","images/stimuli/spore_stims/simple_01_A_c.gif","right","","","","",""
"","1751.1200000008103","html-keyboard-response","150","282155","0.0-30.0","SS1613098651089","pref_question","","99","","","","","<video width ='960' height = '540' style='padding-top:8%' autoplay muted><source src='images/stimuli/wall_pref.mp4' type='video/mp4'></video>","3","right","66%","7","","","","","","","",""
"","593.7950000079582","sequential-stimulus-presentation","151","283586","0.0-31.0","SS1613098651089","pref_reveal","","40","800","1393.7950000079582","null","null","","","","","7","","","","deviant","","","",""
"","null","html-keyboard-response","152","284772","0.0-32.0-0.0","SS1613098651089","","","null","","","","","<p><img src= images/blank.png width =""200"" height = ""200"" style = ""float:right""></p><p><img src=images/blank.png width =""800"" height = ""200""></p>","","","","","","","","","","","",""
"","255.3349999943748","sequential-stimulus-presentation","153","285850","0.0-32.0-1.0","SS1613098651089","trial","","40","800","1055.3349999943748","images/stimuli/spore_stims/simple_20_B_d.gif","images/stimuli/spore_stims/simple_20_A_d.gif","","","","","8","simple_similar","images/stimuli/spore_stims/simple_20_A_d.gif","middle","","","","",""
"","null","html-keyboard-response","154","286750","0.0-32.0-0.1","SS1613098651089","","","null","","","","","<p><img src= images/blank.png width =""200"" height = ""200"" style = ""float:right""></p><p><img src=images/blank.png width =""800"" height = ""200""></p>","","","","","","","","","","","",""
"","401.3950000080513","sequential-stimulus-presentation","155","287978","0.0-32.0-1.1","SS1613098651089","trial","","40","800","1201.3950000080513","images/stimuli/spore_stims/simple_20_B_d.gif","images/stimuli/spore_stims/simple_20_A_d.gif","","","","","8","simple_similar","images/stimuli/spore_stims/simple_20_A_d.gif","middle","","","","",""
"","null","html-keyboard-response","156","289112","0.0-32.0-0.2","SS1613098651089","","","null","","","","","<p><img src= images/blank.png width =""200"" height = ""200"" style = ""float:right""></p><p><img src=images/blank.png width =""800"" height = ""200""></p>","","","","","","","","","","","",""
"","698.6650000035297","sequential-stimulus-presentation","157","290635","0.0-32.0-1.2","SS1613098651089","trial","","40","800","1498.6650000035297","images/stimuli/spore_stims/simple_20_B_d.gif","images/stimuli/spore_stims/simple_20_A_d.gif","","","","","8","simple_similar","images/stimuli/spore_stims/simple_20_A_d.gif","middle","","","","",""
"","null","html-keyboard-response","158","291487","0.0-32.0-0.3","SS1613098651089","","","null","","","","","<p><img src= images/blank.png width =""200"" height = ""200"" style = ""float:right""></p><p><img src=images/blank.png width =""800"" height = ""200""></p>","","","","","","","","","","","",""
"","394.45000000705477","sequential-stimulus-presentation","159","292707","0.0-32.0-1.3","SS1613098651089","trial","","40","800","1194.4500000070548","images/stimuli/spore_stims/simple_20_B_d.gif","images/stimuli/spore_stims/simple_20_A_d.gif","","","","","8","simple_similar","images/stimuli/spore_stims/simple_20_B_d.gif","left","","","","",""
"","null","html-keyboard-response","160","293807","0.0-32.0-0.4","SS1613098651089","","","null","","","","","<p><img src= images/blank.png width =""200"" height = ""200"" style = ""float:right""></p><p><img src=images/blank.png width =""800"" height = ""200""></p>","","","","","","","","","","","",""
"","10594.110000005458","sequential-stimulus-presentation","161","305227","0.0-32.0-1.4","SS1613098651089","trial","","40","800","11394.110000005458","images/stimuli/spore_stims/simple_20_B_d.gif","images/stimuli/spore_stims/simple_20_A_d.gif","","","","","8","simple_similar","images/stimuli/spore_stims/simple_20_A_d.gif","middle","","","","",""
"","null","html-keyboard-response","162","306113","0.0-32.0-0.5","SS1613098651089","","","null","","","","","<p><img src= images/blank.png width =""200"" height = ""200"" style = ""float:right""></p><p><img src=images/blank.png width =""800"" height = ""200""></p>","","","","","","","","","","","",""
"","107.19500000413973","sequential-stimulus-presentation","163","307034","0.0-32.0-1.5","SS1613098651089","trial","","40","800","907.1950000041397","images/stimuli/spore_stims/simple_20_B_d.gif","images/stimuli/spore_stims/simple_20_A_d.gif","","","","","8","simple_similar","images/stimuli/spore_stims/simple_20_A_d.gif","middle","","","","",""
"","null","html-keyboard-response","164","308107","0.0-32.0-0.6","SS1613098651089","","","null","","","","","<p><img src= images/blank.png width =""200"" height = ""200"" style = ""float:right""></p><p><img src=images/blank.png width =""800"" height = ""200""></p>","","","","","","","","","","","",""
"","264.3050000042422","sequential-stimulus-presentation","165","309195","0.0-32.0-1.6","SS1613098651089","trial","","40","800","1064.3050000042422","images/stimuli/spore_stims/simple_20_B_d.gif","images/stimuli/spore_stims/simple_20_A_d.gif","","","","","8","simple_similar","images/stimuli/spore_stims/simple_20_A_d.gif","middle","","","","",""
"","null","html-keyboard-response","166","310339","0.0-32.0-0.7","SS1613098651089","","","null","","","","","<p><img src= images/blank.png width =""200"" height = ""200"" style = ""float:right""></p><p><img src=images/blank.png width =""800"" height = ""200""></p>","","","","","","","","","","","",""
"","416.3600000028964","sequential-stimulus-presentation","167","311578","0.0-32.0-1.7","SS1613098651089","trial","","40","800","1216.3600000028964","images/stimuli/spore_stims/simple_20_B_d.gif","images/stimuli/spore_stims/simple_20_A_d.gif","","","","","8","simple_similar","images/stimuli/spore_stims/simple_20_A_d.gif","middle","","","","",""
"","1451.3950000109617","html-keyboard-response","168","313058","0.0-33.0","SS1613098651089","pref_question","","98","","","","","<video width ='960' height = '540' style='padding-top:8%' autoplay muted><source src='images/stimuli/wall_pref.mp4' type='video/mp4'></video>","2","middle","45%","8","","","","","","","",""
"","396.1799999960931","sequential-stimulus-presentation","169","314274","0.0-34.0","SS1613098651089","pref_reveal","","40","800","1196.179999996093","null","null","","","","","8","","","","background","","","",""
"","null","html-keyboard-response","170","315313","0.0-35.0-0.0","SS1613098651089","","","null","","","","","<p><img src= images/blank.png width =""200"" height = ""200"" style = ""float:right""></p><p><img src=images/blank.png width =""800"" height = ""200""></p>","","","","","","","","","","","",""
"","274.6599999954924","sequential-stimulus-presentation","171","316403","0.0-35.0-1.0","SS1613098651089","trial","","40","800","1074.6599999954924","images/stimuli/spore_stims/complex_07_A_d.gif","images/stimuli/spore_stims/complex_05_B_d.gif","","","","","9","complex_dissimilar","images/stimuli/spore_stims/complex_05_B_d.gif","right","","","","",""
"","null","html-keyboard-response","172","317606","0.0-35.0-0.1","SS1613098651089","","","null","","","","","<p><img src= images/blank.png width =""200"" height = ""200"" style = ""float:right""></p><p><img src=images/blank.png width =""800"" height = ""200""></p>","","","","","","","","","","","",""
"","375.2550000062911","sequential-stimulus-presentation","173","318802","0.0-35.0-1.1","SS1613098651089","trial","","40","800","1175.255000006291","images/stimuli/spore_stims/complex_07_A_d.gif","images/stimuli/spore_stims/complex_05_B_d.gif","","","","","9","complex_dissimilar","images/stimuli/spore_stims/complex_05_B_d.gif","right","","","","",""
"","null","html-keyboard-response","174","319956","0.0-35.0-0.2","SS1613098651089","","","null","","","","","<p><img src= images/blank.png width =""200"" height = ""200"" style = ""float:right""></p><p><img src=images/blank.png width =""800"" height = ""200""></p>","","","","","","","","","","","",""
"","232.32999999891035","sequential-stimulus-presentation","175","321010","0.0-35.0-1.2","SS1613098651089","trial","","40","800","1032.3299999989104","images/stimuli/spore_stims/complex_07_A_d.gif","images/stimuli/spore_stims/complex_05_B_d.gif","","","","","9","complex_dissimilar","images/stimuli/spore_stims/complex_05_B_d.gif","right","","","","",""
"","null","html-keyboard-response","176","322310","0.0-35.0-0.3","SS1613098651089","","","null","","","","","<p><img src= images/blank.png width =""200"" height = ""200"" style = ""float:right""></p><p><img src=images/blank.png width =""800"" height = ""200""></p>","","","","","","","","","","","",""
"","531.329999997979","sequential-stimulus-presentation","177","323658","0.0-35.0-1.3","SS1613098651089","trial","","40","800","1331.329999997979","images/stimuli/spore_stims/complex_07_A_d.gif","images/stimuli/spore_stims/complex_05_B_d.gif","","","","","9","complex_dissimilar","images/stimuli/spore_stims/complex_07_A_d.gif","left","","","","",""
"","null","html-keyboard-response","178","324813","0.0-35.0-0.4","SS1613098651089","","","null","","","","","<p><img src= images/blank.png width =""200"" height = ""200"" style = ""float:right""></p><p><img src=images/blank.png width =""800"" height = ""200""></p>","","","","","","","","","","","",""
"","636.5599999990081","sequential-stimulus-presentation","179","326274","0.0-35.0-1.4","SS1613098651089","trial","","40","800","1436.5599999990081","images/stimuli/spore_stims/complex_07_A_d.gif","images/stimuli/spore_stims/complex_05_B_d.gif","","","","","9","complex_dissimilar","images/stimuli/spore_stims/complex_05_B_d.gif","right","","","","",""
"","null","html-keyboard-response","180","327176","0.0-35.0-0.5","SS1613098651089","","","null","","","","","<p><img src= images/blank.png width =""200"" height = ""200"" style = ""float:right""></p><p><img src=images/blank.png width =""800"" height = ""200""></p>","","","","","","","","","","","",""
"","352.2099999972852","sequential-stimulus-presentation","181","328347","0.0-35.0-1.5","SS1613098651089","trial","","40","800","1152.2099999972852","images/stimuli/spore_stims/complex_07_A_d.gif","images/stimuli/spore_stims/complex_05_B_d.gif","","","","","9","complex_dissimilar","images/stimuli/spore_stims/complex_05_B_d.gif","right","","","","",""
"","null","html-keyboard-response","182","329549","0.0-35.0-0.6","SS1613098651089","","","null","","","","","<p><img src= images/blank.png width =""200"" height = ""200"" style = ""float:right""></p><p><img src=images/blank.png width =""800"" height = ""200""></p>","","","","","","","","","","","",""
"","773.8849999877857","sequential-stimulus-presentation","183","331146","0.0-35.0-1.6","SS1613098651089","trial","","40","800","1573.8849999877857","images/stimuli/spore_stims/complex_07_A_d.gif","images/stimuli/spore_stims/complex_05_B_d.gif","","","","","9","complex_dissimilar","images/stimuli/spore_stims/complex_05_B_d.gif","right","","","","",""
"","null","html-keyboard-response","184","331987","0.0-35.0-0.7","SS1613098651089","","","null","","","","","<p><img src= images/blank.png width =""200"" height = ""200"" style = ""float:right""></p><p><img src=images/blank.png width =""800"" height = ""200""></p>","","","","","","","","","","","",""
"","373.86500000138767","sequential-stimulus-presentation","185","333186","0.0-35.0-1.7","SS1613098651089","trial","","40","800","1173.8650000013877","images/stimuli/spore_stims/complex_07_A_d.gif","images/stimuli/spore_stims/complex_05_B_d.gif","","","","","9","complex_dissimilar","images/stimuli/spore_stims/complex_05_B_d.gif","right","","","","",""
"","1404.1199999919627","html-keyboard-response","186","334602","0.0-36.0","SS1613098651089","pref_question","","97","","","","","<video width ='960' height = '540' style='padding-top:8%' autoplay muted><source src='images/stimuli/wall_pref.mp4' type='video/mp4'></video>","1","left","25%","9","","","","","","","",""
"","860.7349999947473","sequential-stimulus-presentation","187","336290","0.0-37.0","SS1613098651089","pref_reveal","","40","800","1660.7349999947473","null","null","","","","","9","","","","deviant","","","",""
"","null","html-keyboard-response","188","337343","0.0-38.0-0.0","SS1613098651089","","","null","","","","","<p><img src= images/blank.png width =""200"" height = ""200"" style = ""float:right""></p><p><img src=images/blank.png width =""800"" height = ""200""></p>","","","","","","","","","","","",""
"","410.5999999883352","sequential-stimulus-presentation","189","338571","0.0-38.0-1.0","SS1613098651089","trial","","40","800","1210.5999999883352","images/stimuli/spore_stims/complex_02_A_a.gif","images/stimuli/spore_stims/complex_06_B_d.gif","","","","","10","complex_dissimilar","images/stimuli/spore_stims/complex_06_B_d.gif","right","","","","",""
"","null","html-keyboard-response","190","339610","0.0-38.0-0.1","SS1613098651089","","","null","","","","","<p><img src= images/blank.png width =""200"" height = ""200"" style = ""float:right""></p><p><img src=images/blank.png width =""800"" height = ""200""></p>","","","","","","","","","","","",""
"","452.1399999939604","sequential-stimulus-presentation","191","340890","0.0-38.0-1.1","SS1613098651089","trial","","40","800","1252.1399999939604","images/stimuli/spore_stims/complex_02_A_a.gif","images/stimuli/spore_stims/complex_06_B_d.gif","","","","","10","complex_dissimilar","images/stimuli/spore_stims/complex_06_B_d.gif","right","","","","",""
"","null","html-keyboard-response","192","341730","0.0-38.0-0.2","SS1613098651089","","","null","","","","","<p><img src= images/blank.png width =""200"" height = ""200"" style = ""float:right""></p><p><img src=images/blank.png width =""800"" height = ""200""></p>","","","","","","","","","","","",""
"","11.144999996758997","sequential-stimulus-presentation","193","342555","0.0-38.0-1.2","SS1613098651089","trial","","40","800","811.144999996759","images/stimuli/spore_stims/complex_02_A_a.gif","images/stimuli/spore_stims/complex_06_B_d.gif","","","","","10","complex_dissimilar","images/stimuli/spore_stims/complex_06_B_d.gif","right","","","","",""
"","null","html-keyboard-response","194","343368","0.0-38.0-0.3","SS1613098651089","","","null","","","","","<p><img src= images/blank.png width =""200"" height = ""200"" style = ""float:right""></p><p><img src=images/blank.png width =""800"" height = ""200""></p>","","","","","","","","","","","",""
"","233.3949999883771","sequential-stimulus-presentation","195","344426","0.0-38.0-1.3","SS1613098651089","trial","","40","800","1033.394999988377","images/stimuli/spore_stims/complex_02_A_a.gif","images/stimuli/spore_stims/complex_06_B_d.gif","","","","","10","complex_dissimilar","images/stimuli/spore_stims/complex_06_B_d.gif","right","","","","",""
"","null","html-keyboard-response","196","345488","0.0-38.0-0.4","SS1613098651089","","","null","","","","","<p><img src= images/blank.png width =""200"" height = ""200"" style = ""float:right""></p><p><img src=images/blank.png width =""800"" height = ""200""></p>","","","","","","","","","","","",""
"","480.9499999973923","sequential-stimulus-presentation","197","346795","0.0-38.0-1.4","SS1613098651089","trial","","40","800","1280.9499999973923","images/stimuli/spore_stims/complex_02_A_a.gif","images/stimuli/spore_stims/complex_06_B_d.gif","","","","","10","complex_dissimilar","images/stimuli/spore_stims/complex_06_B_d.gif","right","","","","",""
"","null","html-keyboard-response","198","347907","0.0-38.0-0.5","SS1613098651089","","","null","","","","","<p><img src= images/blank.png width =""200"" height = ""200"" style = ""float:right""></p><p><img src=images/blank.png width =""800"" height = ""200""></p>","","","","","","","","","","","",""
"","220.19999999611173","sequential-stimulus-presentation","199","348947","0.0-38.0-1.5","SS1613098651089","trial","","40","800","1020.1999999961117","images/stimuli/spore_stims/complex_02_A_a.gif","images/stimuli/spore_stims/complex_06_B_d.gif","","","","","10","complex_dissimilar","images/stimuli/spore_stims/complex_06_B_d.gif","right","","","","",""
"","null","html-keyboard-response","200","350082","0.0-38.0-0.6","SS1613098651089","","","null","","","","","<p><img src= images/blank.png width =""200"" height = ""200"" style = ""float:right""></p><p><img src=images/blank.png width =""800"" height = ""200""></p>","","","","","","","","","","","",""
"","1160.9800000005635","sequential-stimulus-presentation","201","352066","0.0-38.0-1.6","SS1613098651089","trial","","40","800","1960.9800000005635","images/stimuli/spore_stims/complex_02_A_a.gif","images/stimuli/spore_stims/complex_06_B_d.gif","","","","","10","complex_dissimilar","images/stimuli/spore_stims/complex_02_A_a.gif","middle","","","","",""
"","null","html-keyboard-response","202","353176","0.0-38.0-0.7","SS1613098651089","","","null","","","","","<p><img src= images/blank.png width =""200"" height = ""200"" style = ""float:right""></p><p><img src=images/blank.png width =""800"" height = ""200""></p>","","","","","","","","","","","",""
"","208.31499999621883","sequential-stimulus-presentation","203","354202","0.0-38.0-1.7","SS1613098651089","trial","","40","800","1008.3149999962188","images/stimuli/spore_stims/complex_02_A_a.gif","images/stimuli/spore_stims/complex_06_B_d.gif","","","","","10","complex_dissimilar","images/stimuli/spore_stims/complex_06_B_d.gif","right","","","","",""
"","1451.085000007879","html-keyboard-response","204","355666","0.0-39.0","SS1613098651089","pref_question","","97","","","","","<video width ='960' height = '540' style='padding-top:8%' autoplay muted><source src='images/stimuli/wall_pref.mp4' type='video/mp4'></video>","1","left","25%","10","","","","","","","",""
"","471.3750000082655","sequential-stimulus-presentation","205","356962","0.0-40.0","SS1613098651089","pref_reveal","","40","800","1271.3750000082655","null","null","","","","","10","","","","novel","","","",""
"","null","html-keyboard-response","206","358277","0.0-41.0-0.0","SS1613098651089","","","null","","","","","<p><img src= images/blank.png width =""200"" height = ""200"" style = ""float:right""></p><p><img src=images/blank.png width =""800"" height = ""200""></p>","","","","","","","","","","","",""
"","277.02000000863336","sequential-stimulus-presentation","207","359403","0.0-41.0-1.0","SS1613098651089","trial","","40","800","1077.0200000086334","images/stimuli/spore_stims/simple_14_B_c.gif","images/stimuli/spore_stims/simple_18_B_a.gif","","","","","11","simple_dissimilar","images/stimuli/spore_stims/simple_18_B_a.gif","middle","","","","",""
"","null","html-keyboard-response","208","360286","0.0-41.0-0.1","SS1613098651089","","","null","","","","","<p><img src= images/blank.png width =""200"" height = ""200"" style = ""float:right""></p><p><img src=images/blank.png width =""800"" height = ""200""></p>","","","","","","","","","","","",""
"","253.0899999983376","sequential-stimulus-presentation","209","361354","0.0-41.0-1.1","SS1613098651089","trial","","40","800","1053.0899999983376","images/stimuli/spore_stims/simple_14_B_c.gif","images/stimuli/spore_stims/simple_18_B_a.gif","","","","","11","simple_dissimilar","images/stimuli/spore_stims/simple_18_B_a.gif","middle","","","","",""
"","null","html-keyboard-response","210","362643","0.0-41.0-0.2","SS1613098651089","","","null","","","","","<p><img src= images/blank.png width =""200"" height = ""200"" style = ""float:right""></p><p><img src=images/blank.png width =""800"" height = ""200""></p>","","","","","","","","","","","",""
"","236.6150000016205","sequential-stimulus-presentation","211","363706","0.0-41.0-1.2","SS1613098651089","trial","","40","800","1036.6150000016205","images/stimuli/spore_stims/simple_14_B_c.gif","images/stimuli/spore_stims/simple_18_B_a.gif","","","","","11","simple_dissimilar","images/stimuli/spore_stims/simple_14_B_c.gif","left","","","","",""
"","null","html-keyboard-response","212","364898","0.0-41.0-0.3","SS1613098651089","","","null","","","","","<p><img src= images/blank.png width =""200"" height = ""200"" style = ""float:right""></p><p><img src=images/blank.png width =""800"" height = ""200""></p>","","","","","","","","","","","",""
"","216.7300000000978","sequential-stimulus-presentation","213","365930","0.0-41.0-1.3","SS1613098651089","trial","","40","800","1016.7300000000978","images/stimuli/spore_stims/simple_14_B_c.gif","images/stimuli/spore_stims/simple_18_B_a.gif","","","","","11","simple_dissimilar","images/stimuli/spore_stims/simple_18_B_a.gif","middle","","","","",""
"","null","html-keyboard-response","214","366860","0.0-41.0-0.4","SS1613098651089","","","null","","","","","<p><img src= images/blank.png width =""200"" height = ""200"" style = ""float:right""></p><p><img src=images/blank.png width =""800"" height = ""200""></p>","","","","","","","","","","","",""
"","803.8349999987986","sequential-stimulus-presentation","215","368506","0.0-41.0-1.4","SS1613098651089","trial","","40","800","1603.8349999987986","images/stimuli/spore_stims/simple_14_B_c.gif","images/stimuli/spore_stims/simple_18_B_a.gif","","","","","11","simple_dissimilar","images/stimuli/spore_stims/simple_18_B_a.gif","middle","","","","",""
"","null","html-keyboard-response","216","369576","0.0-41.0-0.5","SS1613098651089","","","null","","","","","<p><img src= images/blank.png width =""200"" height = ""200"" style = ""float:right""></p><p><img src=images/blank.png width =""800"" height = ""200""></p>","","","","","","","","","","","",""
"","234.85000000800937","sequential-stimulus-presentation","217","370643","0.0-41.0-1.5","SS1613098651089","trial","","40","800","1034.8500000080094","images/stimuli/spore_stims/simple_14_B_c.gif","images/stimuli/spore_stims/simple_18_B_a.gif","","","","","11","simple_dissimilar","images/stimuli/spore_stims/simple_18_B_a.gif","middle","","","","",""
"","null","html-keyboard-response","218","371945","0.0-41.0-0.6","SS1613098651089","","","null","","","","","<p><img src= images/blank.png width =""200"" height = ""200"" style = ""float:right""></p><p><img src=images/blank.png width =""800"" height = ""200""></p>","","","","","","","","","","","",""
"","134.4050000043353","sequential-stimulus-presentation","219","372898","0.0-41.0-1.6","SS1613098651089","trial","","40","800","934.4050000043353","images/stimuli/spore_stims/simple_14_B_c.gif","images/stimuli/spore_stims/simple_18_B_a.gif","","","","","11","simple_dissimilar","images/stimuli/spore_stims/simple_18_B_a.gif","middle","","","","",""
"","null","html-keyboard-response","220","373952","0.0-41.0-0.7","SS1613098651089","","","null","","","","","<p><img src= images/blank.png width =""200"" height = ""200"" style = ""float:right""></p><p><img src=images/blank.png width =""800"" height = ""200""></p>","","","","","","","","","","","",""
"","249.19000000227243","sequential-stimulus-presentation","221","375026","0.0-41.0-1.7","SS1613098651089","trial","","40","800","1049.1900000022724","images/stimuli/spore_stims/simple_14_B_c.gif","images/stimuli/spore_stims/simple_18_B_a.gif","","","","","11","simple_dissimilar","images/stimuli/spore_stims/simple_18_B_a.gif","middle","","","","",""
"","1403.760000001057","html-keyboard-response","222","376458","0.0-42.0","SS1613098651089","pref_question","","98","","","","","<video width ='960' height = '540' style='padding-top:8%' autoplay muted><source src='images/stimuli/wall_pref.mp4' type='video/mp4'></video>","2","middle","45%","11","","","","","","","",""
"","420.46000000846107","sequential-stimulus-presentation","223","377699","0.0-43.0","SS1613098651089","pref_reveal","","40","800","1220.460000008461","null","null","","","","","11","","","","background","","","",""
"","null","html-keyboard-response","224","378983","0.0-44.0-0.0","SS1613098651089","","","null","","","","","<p><img src= images/blank.png width =""200"" height = ""200"" style = ""float:right""></p><p><img src=images/blank.png width =""800"" height = ""200""></p>","","","","","","","","","","","",""
"","259.74500000302214","sequential-stimulus-presentation","225","380066","0.0-44.0-1.0","SS1613098651089","trial","","40","800","1059.7450000030221","images/stimuli/spore_stims/complex_11_A_d.gif","images/stimuli/spore_stims/complex_11_B_d.gif","","","","","12","complex_similar","images/stimuli/spore_stims/complex_11_B_d.gif","right","","","","",""
"","null","html-keyboard-response","226","381323","0.0-44.0-0.1","SS1613098651089","","","null","","","","","<p><img src= images/blank.png width =""200"" height = ""200"" style = ""float:right""></p><p><img src=images/blank.png width =""800"" height = ""200""></p>","","","","","","","","","","","",""
"","241.04499998793472","sequential-stimulus-presentation","227","382379","0.0-44.0-1.1","SS1613098651089","trial","","40","800","1041.0449999879347","images/stimuli/spore_stims/complex_11_A_d.gif","images/stimuli/spore_stims/complex_11_B_d.gif","","","","","12","complex_similar","images/stimuli/spore_stims/complex_11_B_d.gif","right","","","","",""
"","null","html-keyboard-response","228","383526","0.0-44.0-0.2","SS1613098651089","","","null","","","","","<p><img src= images/blank.png width =""200"" height = ""200"" style = ""float:right""></p><p><img src=images/blank.png width =""800"" height = ""200""></p>","","","","","","","","","","","",""
"","216.1750000086613","sequential-stimulus-presentation","229","384570","0.0-44.0-1.2","SS1613098651089","trial","","40","800","1016.1750000086613","images/stimuli/spore_stims/complex_11_A_d.gif","images/stimuli/spore_stims/complex_11_B_d.gif","","","","","12","complex_similar","images/stimuli/spore_stims/complex_11_B_d.gif","right","","","","",""
"","null","html-keyboard-response","230","385839","0.0-44.0-0.3","SS1613098651089","","","null","","","","","<p><img src= images/blank.png width =""200"" height = ""200"" style = ""float:right""></p><p><img src=images/blank.png width =""800"" height = ""200""></p>","","","","","","","","","","","",""
"","286.5799999999581","sequential-stimulus-presentation","231","386946","0.0-44.0-1.3","SS1613098651089","trial","","40","800","1086.579999999958","images/stimuli/spore_stims/complex_11_A_d.gif","images/stimuli/spore_stims/complex_11_B_d.gif","","","","","12","complex_similar","images/stimuli/spore_stims/complex_11_B_d.gif","right","","","","",""
"","null","html-keyboard-response","232","388002","0.0-44.0-0.4","SS1613098651089","","","null","","","","","<p><img src= images/blank.png width =""200"" height = ""200"" style = ""float:right""></p><p><img src=images/blank.png width =""800"" height = ""200""></p>","","","","","","","","","","","",""
"","397.5999999966007","sequential-stimulus-presentation","233","389226","0.0-44.0-1.4","SS1613098651089","trial","","40","800","1197.5999999966007","images/stimuli/spore_stims/complex_11_A_d.gif","images/stimuli/spore_stims/complex_11_B_d.gif","","","","","12","complex_similar","images/stimuli/spore_stims/complex_11_A_d.gif","middle","","","","",""
"","null","html-keyboard-response","234","390104","0.0-44.0-0.5","SS1613098651089","","","null","","","","","<p><img src= images/blank.png width =""200"" height = ""200"" style = ""float:right""></p><p><img src=images/blank.png width =""800"" height = ""200""></p>","","","","","","","","","","","",""
"","313.80499999795575","sequential-stimulus-presentation","235","391234","0.0-44.0-1.5","SS1613098651089","trial","","40","800","1113.8049999979557","images/stimuli/spore_stims/complex_11_A_d.gif","images/stimuli/spore_stims/complex_11_B_d.gif","","","","","12","complex_similar","images/stimuli/spore_stims/complex_11_B_d.gif","right","","","","",""
"","null","html-keyboard-response","236","392112","0.0-44.0-0.6","SS1613098651089","","","null","","","","","<p><img src= images/blank.png width =""200"" height = ""200"" style = ""float:right""></p><p><img src=images/blank.png width =""800"" height = ""200""></p>","","","","","","","","","","","",""
"","267.28000000002794","sequential-stimulus-presentation","237","393196","0.0-44.0-1.6","SS1613098651089","trial","","40","800","1067.280000000028","images/stimuli/spore_stims/complex_11_A_d.gif","images/stimuli/spore_stims/complex_11_B_d.gif","","","","","12","complex_similar","images/stimuli/spore_stims/complex_11_B_d.gif","right","","","","",""
"","null","html-keyboard-response","238","394496","0.0-44.0-0.7","SS1613098651089","","","null","","","","","<p><img src= images/blank.png width =""200"" height = ""200"" style = ""float:right""></p><p><img src=images/blank.png width =""800"" height = ""200""></p>","","","","","","","","","","","",""
"","246.3350000034552","sequential-stimulus-presentation","239","395570","0.0-44.0-1.7","SS1613098651089","trial","","40","800","1046.3350000034552","images/stimuli/spore_stims/complex_11_A_d.gif","images/stimuli/spore_stims/complex_11_B_d.gif","","","","","12","complex_similar","images/stimuli/spore_stims/complex_11_B_d.gif","right","","","","",""
"","1257.629999992787","html-keyboard-response","240","396842","0.0-45.0","SS1613098651089","pref_question","","99","","","","","<video width ='960' height = '540' style='padding-top:8%' autoplay muted><source src='images/stimuli/wall_pref.mp4' type='video/mp4'></video>","3","right","66%","12","","","","","","","",""
"","3218.795000007958","sequential-stimulus-presentation","241","400890","0.0-46.0","SS1613098651089","pref_reveal","","40","800","4018.795000007958","null","null","","","","","12","","","","background","","","",""
"","null","html-keyboard-response","242","401809","0.0-47.0-0.0","SS1613098651089","","","null","","","","","<p><img src= images/blank.png width =""200"" height = ""200"" style = ""float:right""></p><p><img src=images/blank.png width =""800"" height = ""200""></p>","","","","","","","","","","","",""
"","247.78999999398366","sequential-stimulus-presentation","243","402875","0.0-47.0-1.0","SS1613098651089","trial","","40","800","1047.7899999939837","images/stimuli/spore_stims/simple_06_B_b.gif","images/stimuli/spore_stims/simple_09_A_a.gif","","","","","13","simple_dissimilar","images/stimuli/spore_stims/simple_09_A_a.gif","right","","","","",""
"","null","html-keyboard-response","244","403936","0.0-47.0-0.1","SS1613098651089","","","null","","","","","<p><img src= images/blank.png width =""200"" height = ""200"" style = ""float:right""></p><p><img src=images/blank.png width =""800"" height = ""200""></p>","","","","","","","","","","","",""
"","378.4400000004098","sequential-stimulus-presentation","245","405139","0.0-47.0-1.1","SS1613098651089","trial","","40","800","1178.4400000004098","images/stimuli/spore_stims/simple_06_B_b.gif","images/stimuli/spore_stims/simple_09_A_a.gif","","","","","13","simple_dissimilar","images/stimuli/spore_stims/simple_09_A_a.gif","right","","","","",""
"","null","html-keyboard-response","246","406033","0.0-47.0-0.2","SS1613098651089","","","null","","","","","<p><img src= images/blank.png width =""200"" height = ""200"" style = ""float:right""></p><p><img src=images/blank.png width =""800"" height = ""200""></p>","","","","","","","","","","","",""
"","346.8050000083167","sequential-stimulus-presentation","247","407203","0.0-47.0-1.2","SS1613098651089","trial","","40","800","1146.8050000083167","images/stimuli/spore_stims/simple_06_B_b.gif","images/stimuli/spore_stims/simple_09_A_a.gif","","","","","13","simple_dissimilar","images/stimuli/spore_stims/simple_06_B_b.gif","middle","","","","",""
"","null","html-keyboard-response","248","408264","0.0-47.0-0.3","SS1613098651089","","","null","","","","","<p><img src= images/blank.png width =""200"" height = ""200"" style = ""float:right""></p><p><img src=images/blank.png width =""800"" height = ""200""></p>","","","","","","","","","","","",""
"","221.9349999941187","sequential-stimulus-presentation","249","409306","0.0-47.0-1.3","SS1613098651089","trial","","40","800","1021.9349999941187","images/stimuli/spore_stims/simple_06_B_b.gif","images/stimuli/spore_stims/simple_09_A_a.gif","","","","","13","simple_dissimilar","images/stimuli/spore_stims/simple_09_A_a.gif","right","","","","",""
"","null","html-keyboard-response","250","410274","0.0-47.0-0.4","SS1613098651089","","","null","","","","","<p><img src= images/blank.png width =""200"" height = ""200"" style = ""float:right""></p><p><img src=images/blank.png width =""800"" height = ""200""></p>","","","","","","","","","","","",""
"","195.80000000132713","sequential-stimulus-presentation","251","411315","0.0-47.0-1.4","SS1613098651089","trial","","40","800","995.8000000013271","images/stimuli/spore_stims/simple_06_B_b.gif","images/stimuli/spore_stims/simple_09_A_a.gif","","","","","13","simple_dissimilar","images/stimuli/spore_stims/simple_09_A_a.gif","right","","","","",""
"","null","html-keyboard-response","252","412398","0.0-47.0-0.5","SS1613098651089","","","null","","","","","<p><img src= images/blank.png width =""200"" height = ""200"" style = ""float:right""></p><p><img src=images/blank.png width =""800"" height = ""200""></p>","","","","","","","","","","","",""
"","261.9200000044657","sequential-stimulus-presentation","253","413474","0.0-47.0-1.5","SS1613098651089","trial","","40","800","1061.9200000044657","images/stimuli/spore_stims/simple_06_B_b.gif","images/stimuli/spore_stims/simple_09_A_a.gif","","","","","13","simple_dissimilar","images/stimuli/spore_stims/simple_09_A_a.gif","right","","","","",""
"","null","html-keyboard-response","254","414499","0.0-47.0-0.6","SS1613098651089","","","null","","","","","<p><img src= images/blank.png width =""200"" height = ""200"" style = ""float:right""></p><p><img src=images/blank.png width =""800"" height = ""200""></p>","","","","","","","","","","","",""
"","859.8150000034366","sequential-stimulus-presentation","255","416187","0.0-47.0-1.6","SS1613098651089","trial","","40","800","1659.8150000034366","images/stimuli/spore_stims/simple_06_B_b.gif","images/stimuli/spore_stims/simple_09_A_a.gif","","","","","13","simple_dissimilar","images/stimuli/spore_stims/simple_09_A_a.gif","right","","","","",""
"","null","html-keyboard-response","256","417005","0.0-47.0-0.7","SS1613098651089","","","null","","","","","<p><img src= images/blank.png width =""200"" height = ""200"" style = ""float:right""></p><p><img src=images/blank.png width =""800"" height = ""200""></p>","","","","","","","","","","","",""
"","411.9350000109989","sequential-stimulus-presentation","257","418234","0.0-47.0-1.7","SS1613098651089","trial","","40","800","1211.935000010999","images/stimuli/spore_stims/simple_06_B_b.gif","images/stimuli/spore_stims/simple_09_A_a.gif","","","","","13","simple_dissimilar","images/stimuli/spore_stims/simple_09_A_a.gif","right","","","","",""
"","1985.2700000046752","html-keyboard-response","258","420235","0.0-48.0","SS1613098651089","pref_question","","99","","","","","<video width ='960' height = '540' style='padding-top:8%' autoplay muted><source src='images/stimuli/wall_pref.mp4' type='video/mp4'></video>","3","right","66%","13","","","","","","","",""
"","462.61000000231434","sequential-stimulus-presentation","259","421522","0.0-49.0","SS1613098651089","pref_reveal","","40","800","1262.6100000023143","null","null","","","","","13","","","","background","","","",""
"","null","html-keyboard-response","260","422572","0.0-50.0-0.0","SS1613098651089","","","null","","","","","<p><img src= images/blank.png width =""200"" height = ""200"" style = ""float:right""></p><p><img src=images/blank.png width =""800"" height = ""200""></p>","","","","","","","","","","","",""
"","408.38500000245403","sequential-stimulus-presentation","261","423802","0.0-50.0-1.0","SS1613098651089","trial","","40","800","1208.385000002454","images/stimuli/spore_stims/complex_07_B_c.gif","images/stimuli/spore_stims/complex_04_A_c.gif","","","","","14","complex_dissimilar","images/stimuli/spore_stims/complex_04_A_c.gif","middle","","","","",""
"","null","html-keyboard-response","262","424877","0.0-50.0-0.1","SS1613098651089","","","null","","","","","<p><img src= images/blank.png width =""200"" height = ""200"" style = ""float:right""></p><p><img src=images/blank.png width =""800"" height = ""200""></p>","","","","","","","","","","","",""
"","1949.17500000156","sequential-stimulus-presentation","263","427643","0.0-50.0-1.1","SS1613098651089","trial","","40","800","2749.17500000156","images/stimuli/spore_stims/complex_07_B_c.gif","images/stimuli/spore_stims/complex_04_A_c.gif","","","","","14","complex_dissimilar","images/stimuli/spore_stims/complex_04_A_c.gif","middle","","","","",""
"","null","html-keyboard-response","264","428483","0.0-50.0-0.2","SS1613098651089","","","null","","","","","<p><img src= images/blank.png width =""200"" height = ""200"" style = ""float:right""></p><p><img src=images/blank.png width =""800"" height = ""200""></p>","","","","","","","","","","","",""
"","281.48000000510365","sequential-stimulus-presentation","265","429610","0.0-50.0-1.2","SS1613098651089","trial","","40","800","1081.4800000051036","images/stimuli/spore_stims/complex_07_B_c.gif","images/stimuli/spore_stims/complex_04_A_c.gif","","","","","14","complex_dissimilar","images/stimuli/spore_stims/complex_04_A_c.gif","middle","","","","",""
"","null","html-keyboard-response","266","430686","0.0-50.0-0.3","SS1613098651089","","","null","","","","","<p><img src= images/blank.png width =""200"" height = ""200"" style = ""float:right""></p><p><img src=images/blank.png width =""800"" height = ""200""></p>","","","","","","","","","","","",""
"","584.8399999958929","sequential-stimulus-presentation","267","432090","0.0-50.0-1.3","SS1613098651089","trial","","40","800","1384.8399999958929","images/stimuli/spore_stims/complex_07_B_c.gif","images/stimuli/spore_stims/complex_04_A_c.gif","","","","","14","complex_dissimilar","images/stimuli/spore_stims/complex_07_B_c.gif","left","","","","",""
"","null","html-keyboard-response","268","432949","0.0-50.0-0.4","SS1613098651089","","","null","","","","","<p><img src= images/blank.png width =""200"" height = ""200"" style = ""float:right""></p><p><img src=images/blank.png width =""800"" height = ""200""></p>","","","","","","","","","","","",""
"","419.40499999327585","sequential-stimulus-presentation","269","434195","0.0-50.0-1.4","SS1613098651089","trial","","40","800","1219.4049999932759","images/stimuli/spore_stims/complex_07_B_c.gif","images/stimuli/spore_stims/complex_04_A_c.gif","","","","","14","complex_dissimilar","images/stimuli/spore_stims/complex_04_A_c.gif","middle","","","","",""
"","null","html-keyboard-response","270","435351","0.0-50.0-0.5","SS1613098651089","","","null","","","","","<p><img src= images/blank.png width =""200"" height = ""200"" style = ""float:right""></p><p><img src=images/blank.png width =""800"" height = ""200""></p>","","","","","","","","","","","",""
"","358.0550000042422","sequential-stimulus-presentation","271","436538","0.0-50.0-1.5","SS1613098651089","trial","","40","800","1158.0550000042422","images/stimuli/spore_stims/complex_07_B_c.gif","images/stimuli/spore_stims/complex_04_A_c.gif","","","","","14","complex_dissimilar","images/stimuli/spore_stims/complex_04_A_c.gif","middle","","","","",""
"","null","html-keyboard-response","272","437742","0.0-50.0-0.6","SS1613098651089","","","null","","","","","<p><img src= images/blank.png width =""200"" height = ""200"" style = ""float:right""></p><p><img src=images/blank.png width =""800"" height = ""200""></p>","","","","","","","","","","","",""
"","352.855000004638","sequential-stimulus-presentation","273","438916","0.0-50.0-1.6","SS1613098651089","trial","","40","800","1152.855000004638","images/stimuli/spore_stims/complex_07_B_c.gif","images/stimuli/spore_stims/complex_04_A_c.gif","","","","","14","complex_dissimilar","images/stimuli/spore_stims/complex_04_A_c.gif","middle","","","","",""
"","null","html-keyboard-response","274","440097","0.0-50.0-0.7","SS1613098651089","","","null","","","","","<p><img src= images/blank.png width =""200"" height = ""200"" style = ""float:right""></p><p><img src=images/blank.png width =""800"" height = ""200""></p>","","","","","","","","","","","",""
"","6465.924999996787","sequential-stimulus-presentation","275","447394","0.0-50.0-1.7","SS1613098651089","trial","","40","800","7265.924999996787","images/stimuli/spore_stims/complex_07_B_c.gif","images/stimuli/spore_stims/complex_04_A_c.gif","","","","","14","complex_dissimilar","images/stimuli/spore_stims/complex_04_A_c.gif","middle","","","","",""
"","1369.0300000016578","html-keyboard-response","276","448778","0.0-51.0","SS1613098651089","pref_question","","97","","","","","<video width ='960' height = '540' style='padding-top:8%' autoplay muted><source src='images/stimuli/wall_pref.mp4' type='video/mp4'></video>","1","left","25%","14","","","","","","","",""
"","2957.329999990179","sequential-stimulus-presentation","277","452555","0.0-52.0","SS1613098651089","pref_reveal","","40","800","3757.329999990179","null","null","","","","","14","","","","deviant","","","",""
"","null","html-keyboard-response","278","453828","0.0-53.0-0.0","SS1613098651089","","","null","","","","","<p><img src= images/blank.png width =""200"" height = ""200"" style = ""float:right""></p><p><img src=images/blank.png width =""800"" height = ""200""></p>","","","","","","","","","","","",""
"","1011.9599999889033","sequential-stimulus-presentation","279","455658","0.0-53.0-1.0","SS1613098651089","trial","","40","800","1811.9599999889033","images/stimuli/spore_stims/complex_05_A_b.gif","images/stimuli/spore_stims/complex_03_B_d.gif","","","","","15","complex_dissimilar","images/stimuli/spore_stims/complex_03_B_d.gif","middle","","","","",""
"","null","html-keyboard-response","280","456588","0.0-53.0-0.1","SS1613098651089","","","null","","","","","<p><img src= images/blank.png width =""200"" height = ""200"" style = ""float:right""></p><p><img src=images/blank.png width =""800"" height = ""200""></p>","","","","","","","","","","","",""
"","4988.294999988284","sequential-stimulus-presentation","281","462402","0.0-53.0-1.1","SS1613098651089","trial","","40","800","5788.294999988284","images/stimuli/spore_stims/complex_05_A_b.gif","images/stimuli/spore_stims/complex_03_B_d.gif","","","","","15","complex_dissimilar","images/stimuli/spore_stims/complex_03_B_d.gif","middle","","","","",""
"","null","html-keyboard-response","282","463466","0.0-53.0-0.2","SS1613098651089","","","null","","","","","<p><img src= images/blank.png width =""200"" height = ""200"" style = ""float:right""></p><p><img src=images/blank.png width =""800"" height = ""200""></p>","","","","","","","","","","","",""
"","8665.894999998272","sequential-stimulus-presentation","283","472963","0.0-53.0-1.2","SS1613098651089","trial","","40","800","9465.894999998272","images/stimuli/spore_stims/complex_05_A_b.gif","images/stimuli/spore_stims/complex_03_B_d.gif","","","","","15","complex_dissimilar","images/stimuli/spore_stims/complex_03_B_d.gif","middle","","","","",""
"","null","html-keyboard-response","284","474254","0.0-53.0-0.3","SS1613098651089","","","null","","","","","<p><img src= images/blank.png width =""200"" height = ""200"" style = ""float:right""></p><p><img src=images/blank.png width =""800"" height = ""200""></p>","","","","","","","","","","","",""
"","78.89000000432134","sequential-stimulus-presentation","285","475154","0.0-53.0-1.3","SS1613098651089","trial","","40","800","878.8900000043213","images/stimuli/spore_stims/complex_05_A_b.gif","images/stimuli/spore_stims/complex_03_B_d.gif","","","","","15","complex_dissimilar","images/stimuli/spore_stims/complex_03_B_d.gif","middle","","","","",""
"","null","html-keyboard-response","286","476163","0.0-53.0-0.4","SS1613098651089","","","null","","","","","<p><img src= images/blank.png width =""200"" height = ""200"" style = ""float:right""></p><p><img src=images/blank.png width =""800"" height = ""200""></p>","","","","","","","","","","","",""
"","456.8699999945238","sequential-stimulus-presentation","287","477450","0.0-53.0-1.4","SS1613098651089","trial","","40","800","1256.8699999945238","images/stimuli/spore_stims/complex_05_A_b.gif","images/stimuli/spore_stims/complex_03_B_d.gif","","","","","15","complex_dissimilar","images/stimuli/spore_stims/complex_03_B_d.gif","middle","","","","",""
"","null","html-keyboard-response","288","478467","0.0-53.0-0.5","SS1613098651089","","","null","","","","","<p><img src= images/blank.png width =""200"" height = ""200"" style = ""float:right""></p><p><img src=images/blank.png width =""800"" height = ""200""></p>","","","","","","","","","","","",""
"","417.7449999988312","sequential-stimulus-presentation","289","479714","0.0-53.0-1.5","SS1613098651089","trial","","40","800","1217.7449999988312","images/stimuli/spore_stims/complex_05_A_b.gif","images/stimuli/spore_stims/complex_03_B_d.gif","","","","","15","complex_dissimilar","images/stimuli/spore_stims/complex_03_B_d.gif","middle","","","","",""
"","null","html-keyboard-response","290","480556","0.0-53.0-0.6","SS1613098651089","","","null","","","","","<p><img src= images/blank.png width =""200"" height = ""200"" style = ""float:right""></p><p><img src=images/blank.png width =""800"" height = ""200""></p>","","","","","","","","","","","",""
"","325.9399999951711","sequential-stimulus-presentation","291","481706","0.0-53.0-1.6","SS1613098651089","trial","","40","800","1125.939999995171","images/stimuli/spore_stims/complex_05_A_b.gif","images/stimuli/spore_stims/complex_03_B_d.gif","","","","","15","complex_dissimilar","images/stimuli/spore_stims/complex_05_A_b.gif","left","","","","",""
"","null","html-keyboard-response","292","482657","0.0-53.0-0.7","SS1613098651089","","","null","","","","","<p><img src= images/blank.png width =""200"" height = ""200"" style = ""float:right""></p><p><img src=images/blank.png width =""800"" height = ""200""></p>","","","","","","","","","","","",""
"","84.80499999132007","sequential-stimulus-presentation","293","483563","0.0-53.0-1.7","SS1613098651089","trial","","40","800","884.8049999913201","images/stimuli/spore_stims/complex_05_A_b.gif","images/stimuli/spore_stims/complex_03_B_d.gif","","","","","15","complex_dissimilar","images/stimuli/spore_stims/complex_03_B_d.gif","middle","","","","",""
"","1560.6600000028266","html-keyboard-response","294","485138","0.0-54.0","SS1613098651089","pref_question","","97","","","","","<video width ='960' height = '540' style='padding-top:8%' autoplay muted><source src='images/stimuli/wall_pref.mp4' type='video/mp4'></video>","1","left","25%","15","","","","","","","",""
"","615.669999999227","sequential-stimulus-presentation","295","486570","0.0-55.0","SS1613098651089","pref_reveal","","40","800","1415.669999999227","null","null","","","","","15","","","","deviant","","","",""
"","null","html-keyboard-response","296","487478","0.0-56.0-0.0","SS1613098651089","","","null","","","","","<p><img src= images/blank.png width =""200"" height = ""200"" style = ""float:right""></p><p><img src=images/blank.png width =""800"" height = ""200""></p>","","","","","","","","","","","",""
"","230.40000000037253","sequential-stimulus-presentation","297","488538","0.0-56.0-1.0","SS1613098651089","trial","","40","800","1030.4000000003725","images/stimuli/spore_stims/simple_17_A_a.gif","images/stimuli/spore_stims/simple_20_B_a.gif","","","","","16","simple_dissimilar","images/stimuli/spore_stims/simple_20_B_a.gif","middle","","","","",""
"","null","html-keyboard-response","298","489870","0.0-56.0-0.1","SS1613098651089","","","null","","","","","<p><img src= images/blank.png width =""200"" height = ""200"" style = ""float:right""></p><p><img src=images/blank.png width =""800"" height = ""200""></p>","","","","","","","","","","","",""
"","305.16000000352506","sequential-stimulus-presentation","299","490994","0.0-56.0-1.1","SS1613098651089","trial","","40","800","1105.160000003525","images/stimuli/spore_stims/simple_17_A_a.gif","images/stimuli/spore_stims/simple_20_B_a.gif","","","","","16","simple_dissimilar","images/stimuli/spore_stims/simple_20_B_a.gif","middle","","","","",""
"","null","html-keyboard-response","300","491988","0.0-56.0-0.2","SS1613098651089","","","null","","","","","<p><img src= images/blank.png width =""200"" height = ""200"" style = ""float:right""></p><p><img src=images/blank.png width =""800"" height = ""200""></p>","","","","","","","","","","","",""
"","44.07499999797437","sequential-stimulus-presentation","301","492882","0.0-56.0-1.2","SS1613098651089","trial","","40","800","844.0749999979744","images/stimuli/spore_stims/simple_17_A_a.gif","images/stimuli/spore_stims/simple_20_B_a.gif","","","","","16","simple_dissimilar","images/stimuli/spore_stims/simple_20_B_a.gif","middle","","","","",""
"","null","html-keyboard-response","302","494099","0.0-56.0-0.3","SS1613098651089","","","null","","","","","<p><img src= images/blank.png width =""200"" height = ""200"" style = ""float:right""></p><p><img src=images/blank.png width =""800"" height = ""200""></p>","","","","","","","","","","","",""
"","217.66999999817926","sequential-stimulus-presentation","303","495137","0.0-56.0-1.3","SS1613098651089","trial","","40","800","1017.6699999981793","images/stimuli/spore_stims/simple_17_A_a.gif","images/stimuli/spore_stims/simple_20_B_a.gif","","","","","16","simple_dissimilar","images/stimuli/spore_stims/simple_20_B_a.gif","middle","","","","",""
"","null","html-keyboard-response","304","496329","0.0-56.0-0.4","SS1613098651089","","","null","","","","","<p><img src= images/blank.png width =""200"" height = ""200"" style = ""float:right""></p><p><img src=images/blank.png width =""800"" height = ""200""></p>","","","","","","","","","","","",""
"","29.840000002877787","sequential-stimulus-presentation","305","497170","0.0-56.0-1.4","SS1613098651089","trial","","40","800","829.8400000028778","images/stimuli/spore_stims/simple_17_A_a.gif","images/stimuli/spore_stims/simple_20_B_a.gif","","","","","16","simple_dissimilar","images/stimuli/spore_stims/simple_20_B_a.gif","middle","","","","",""
"","null","html-keyboard-response","306","498370","0.0-56.0-0.5","SS1613098651089","","","null","","","","","<p><img src= images/blank.png width =""200"" height = ""200"" style = ""float:right""></p><p><img src=images/blank.png width =""800"" height = ""200""></p>","","","","","","","","","","","",""
"","176.16000000271015","sequential-stimulus-presentation","307","499362","0.0-56.0-1.5","SS1613098651089","trial","","40","800","976.1600000027101","images/stimuli/spore_stims/simple_17_A_a.gif","images/stimuli/spore_stims/simple_20_B_a.gif","","","","","16","simple_dissimilar","images/stimuli/spore_stims/simple_17_A_a.gif","right","","","","",""
"","null","html-keyboard-response","308","500606","0.0-56.0-0.6","SS1613098651089","","","null","","","","","<p><img src= images/blank.png width =""200"" height = ""200"" style = ""float:right""></p><p><img src=images/blank.png width =""800"" height = ""200""></p>","","","","","","","","","","","",""
"","65.66999999631662","sequential-stimulus-presentation","309","501506","0.0-56.0-1.6","SS1613098651089","trial","","40","800","865.6699999963166","images/stimuli/spore_stims/simple_17_A_a.gif","images/stimuli/spore_stims/simple_20_B_a.gif","","","","","16","simple_dissimilar","images/stimuli/spore_stims/simple_20_B_a.gif","middle","","","","",""
"","null","html-keyboard-response","310","502796","0.0-56.0-0.7","SS1613098651089","","","null","","","","","<p><img src= images/blank.png width =""200"" height = ""200"" style = ""float:right""></p><p><img src=images/blank.png width =""800"" height = ""200""></p>","","","","","","","","","","","",""
"","52.49000000185333","sequential-stimulus-presentation","311","503666","0.0-56.0-1.7","SS1613098651089","trial","","40","800","852.4900000018533","images/stimuli/spore_stims/simple_17_A_a.gif","images/stimuli/spore_stims/simple_20_B_a.gif","","","","","16","simple_dissimilar","images/stimuli/spore_stims/simple_20_B_a.gif","middle","","","","",""
"","1464.5049999962794","html-keyboard-response","312","505147","0.0-57.0","SS1613098651089","pref_question","","98","","","","","<video width ='960' height = '540' style='padding-top:8%' autoplay muted><source src='images/stimuli/wall_pref.mp4' type='video/mp4'></video>","2","middle","45%","16","","","","","","","",""
