"view_history","rt","trial_type","trial_index","time_elapsed","internal_node_id","subject","stimulus_type","trial_stimulus","key_press","minimum_viewing_duration","trial_looking_time","block_deviant","block_background","stimulus","wall_pref","location","location_percent","block_number","block_type","stimulus_displayed","position_displayed","stim_type_selected","responses","question_order","stimulus_left","stimulus_right"
"[{""page_index"":0,""viewing_time"":254377.8750000056}]","254378.48000001395","instructions","0","254381","0.0-0.0","SS1613138856180","","","","","","","","","","","","","","","","","","","",""
"[{""page_index"":0,""viewing_time"":1757.4899999890476},{""page_index"":1,""viewing_time"":9180.679999990389}]","10938.369999988936","instructions","1","267326","0.0-1.0","SS1613138856180","instructions","","","","","","","","","","","","","","","","","","",""
"","6068.785000010394","sequential-stimulus-presentation","2","274204","0.0-2.0","SS1613138856180","","","40","800","6868.785000010394","null","null","","","","","","","","","","","","",""
"","4453.515000001062","sequential-stimulus-presentation","3","279464","0.0-3.0","SS1613138856180","","","40","800","5253.515000001062","null","null","","","","","","","","","","","","",""
"[{""page_index"":0,""viewing_time"":6809.865000017453}]","6810.330000007525","instructions","4","286277","0.0-4.0","SS1613138856180","instructions","","","","","","","","","","","","","","","","","","",""
"","4040.175000031013","html-keyboard-response","5","290321","0.0-5.0","SS1613138856180","instructions","","97","","","","","<video width ='960' height = '540' autoplay muted><source src='images/stimuli/wall_pref.mp4' type='video/mp4'></video>","1","left","25%","","","","","","","","",""
"","5888.8349999906495","sequential-stimulus-presentation","6","297018","0.0-6.0","SS1613138856180","pref_reveal","","40","800","6688.8349999906495","null","null","","","","","","","","","","","","",""
"[{""page_index"":0,""viewing_time"":3007.5099999667145},{""page_index"":1,""viewing_time"":5351.490000030026},{""page_index"":2,""viewing_time"":2207.5199999962933},{""page_index"":3,""viewing_time"":1705.7800000184216}]","12272.759999963455","instructions","7","309293","0.0-7.0","SS1613138856180","instructions","","","","","","","","","","","","","","","","","","",""
"","null","html-keyboard-response","8","310398","0.0-8.0-0.0","SS1613138856180","","","null","","","","","<p><img src= images/blank.png width =""200"" height = ""200"" style = ""float:right""></p><p><img src=images/blank.png width =""800"" height = ""200""></p>","","","","","","","","","","","",""
"","2587.79499999946","sequential-stimulus-presentation","9","313815","0.0-8.0-1.0","SS1613138856180","trial","","40","800","3387.79499999946","images/stimuli/spore_stims/complex_02_A_b.gif","images/stimuli/spore_stims/complex_02_B_b.gif","","","","","0","complex_similar","images/stimuli/spore_stims/complex_02_B_b.gif","middle","","","","",""
"","null","html-keyboard-response","10","315043","0.0-8.0-0.1","SS1613138856180","","","null","","","","","<p><img src= images/blank.png width =""200"" height = ""200"" style = ""float:right""></p><p><img src=images/blank.png width =""800"" height = ""200""></p>","","","","","","","","","","","",""
"","866.1149999825284","sequential-stimulus-presentation","11","316722","0.0-8.0-1.1","SS1613138856180","trial","","40","800","1666.1149999825284","images/stimuli/spore_stims/complex_02_A_b.gif","images/stimuli/spore_stims/complex_02_B_b.gif","","","","","0","complex_similar","images/stimuli/spore_stims/complex_02_B_b.gif","middle","","","","",""
"","null","html-keyboard-response","12","317694","0.0-8.0-0.2","SS1613138856180","","","null","","","","","<p><img src= images/blank.png width =""200"" height = ""200"" style = ""float:right""></p><p><img src=images/blank.png width =""800"" height = ""200""></p>","","","","","","","","","","","",""
"","723.9549999940209","sequential-stimulus-presentation","13","319231","0.0-8.0-1.2","SS1613138856180","trial","","40","800","1523.954999994021","images/stimuli/spore_stims/complex_02_A_b.gif","images/stimuli/spore_stims/complex_02_B_b.gif","","","","","0","complex_similar","images/stimuli/spore_stims/complex_02_B_b.gif","middle","","","","",""
"","null","html-keyboard-response","14","320256","0.0-8.0-0.3","SS1613138856180","","","null","","","","","<p><img src= images/blank.png width =""200"" height = ""200"" style = ""float:right""></p><p><img src=images/blank.png width =""800"" height = ""200""></p>","","","","","","","","","","","",""
"","1302.0400000386871","sequential-stimulus-presentation","15","322422","0.0-8.0-1.3","SS1613138856180","trial","","40","800","2102.040000038687","images/stimuli/spore_stims/complex_02_A_b.gif","images/stimuli/spore_stims/complex_02_B_b.gif","","","","","0","complex_similar","images/stimuli/spore_stims/complex_02_B_b.gif","middle","","","","",""
"","null","html-keyboard-response","16","323601","0.0-8.0-0.4","SS1613138856180","","","null","","","","","<p><img src= images/blank.png width =""200"" height = ""200"" style = ""float:right""></p><p><img src=images/blank.png width =""800"" height = ""200""></p>","","","","","","","","","","","",""
"","174.40999997779727","sequential-stimulus-presentation","17","324605","0.0-8.0-1.4","SS1613138856180","trial","","40","800","974.4099999777973","images/stimuli/spore_stims/complex_02_A_b.gif","images/stimuli/spore_stims/complex_02_B_b.gif","","","","","0","complex_similar","images/stimuli/spore_stims/complex_02_B_b.gif","middle","","","","",""
"","null","html-keyboard-response","18","325906","0.0-8.0-0.5","SS1613138856180","","","null","","","","","<p><img src= images/blank.png width =""200"" height = ""200"" style = ""float:right""></p><p><img src=images/blank.png width =""800"" height = ""200""></p>","","","","","","","","","","","",""
"","1262.029999983497","sequential-stimulus-presentation","19","327989","0.0-8.0-1.5","SS1613138856180","trial","","40","800","2062.029999983497","images/stimuli/spore_stims/complex_02_A_b.gif","images/stimuli/spore_stims/complex_02_B_b.gif","","","","","0","complex_similar","images/stimuli/spore_stims/complex_02_A_b.gif","right","","","","",""
"","null","html-keyboard-response","20","328966","0.0-8.0-0.6","SS1613138856180","","","null","","","","","<p><img src= images/blank.png width =""200"" height = ""200"" style = ""float:right""></p><p><img src=images/blank.png width =""800"" height = ""200""></p>","","","","","","","","","","","",""
"","1885.3249999810942","sequential-stimulus-presentation","21","331668","0.0-8.0-1.6","SS1613138856180","trial","","40","800","2685.324999981094","images/stimuli/spore_stims/complex_02_A_b.gif","images/stimuli/spore_stims/complex_02_B_b.gif","","","","","0","complex_similar","images/stimuli/spore_stims/complex_02_B_b.gif","middle","","","","",""
"","null","html-keyboard-response","22","332589","0.0-8.0-0.7","SS1613138856180","","","null","","","","","<p><img src= images/blank.png width =""200"" height = ""200"" style = ""float:right""></p><p><img src=images/blank.png width =""800"" height = ""200""></p>","","","","","","","","","","","",""
"","1054.0150000015274","sequential-stimulus-presentation","23","334526","0.0-8.0-1.7","SS1613138856180","trial","","40","800","1854.0150000015274","images/stimuli/spore_stims/complex_02_A_b.gif","images/stimuli/spore_stims/complex_02_B_b.gif","","","","","0","complex_similar","images/stimuli/spore_stims/complex_02_B_b.gif","middle","","","","",""
"","2009.5100000035018","html-keyboard-response","24","336540","0.0-9.0","SS1613138856180","pref_question","","97","","","","","<video width ='960' height = '540' style='padding-top:8%' autoplay muted><source src='images/stimuli/wall_pref.mp4' type='video/mp4'></video>","1","left","25%","0","","","","","","","",""
"","7346.240000042599","sequential-stimulus-presentation","25","344699","0.0-10.0","SS1613138856180","pref_reveal","","40","800","8146.240000042599","null","null","","","","","0","","","","novel","","","",""
"","null","html-keyboard-response","26","345868","0.0-11.0-0.0","SS1613138856180","","","null","","","","","<p><img src= images/blank.png width =""200"" height = ""200"" style = ""float:right""></p><p><img src=images/blank.png width =""800"" height = ""200""></p>","","","","","","","","","","","",""
"","2984.2850000131875","sequential-stimulus-presentation","27","349667","0.0-11.0-1.0","SS1613138856180","trial","","40","800","3784.2850000131875","images/stimuli/spore_stims/complex_17_A_a.gif","images/stimuli/spore_stims/complex_08_B_c.gif","","","","","1","complex_dissimilar","images/stimuli/spore_stims/complex_08_B_c.gif","middle","","","","",""
"","null","html-keyboard-response","28","350523","0.0-11.0-0.1","SS1613138856180","","","null","","","","","<p><img src= images/blank.png width =""200"" height = ""200"" style = ""float:right""></p><p><img src=images/blank.png width =""800"" height = ""200""></p>","","","","","","","","","","","",""
"","3794.6649999939837","sequential-stimulus-presentation","29","355144","0.0-11.0-1.1","SS1613138856180","trial","","40","800","4594.664999993984","images/stimuli/spore_stims/complex_17_A_a.gif","images/stimuli/spore_stims/complex_08_B_c.gif","","","","","1","complex_dissimilar","images/stimuli/spore_stims/complex_08_B_c.gif","middle","","","","",""
"","null","html-keyboard-response","30","356076","0.0-11.0-0.2","SS1613138856180","","","null","","","","","<p><img src= images/blank.png width =""200"" height = ""200"" style = ""float:right""></p><p><img src=images/blank.png width =""800"" height = ""200""></p>","","","","","","","","","","","",""
"","2401.5849999850616","sequential-stimulus-presentation","31","359289","0.0-11.0-1.2","SS1613138856180","trial","","40","800","3201.5849999850616","images/stimuli/spore_stims/complex_17_A_a.gif","images/stimuli/spore_stims/complex_08_B_c.gif","","","","","1","complex_dissimilar","images/stimuli/spore_stims/complex_08_B_c.gif","middle","","","","",""
"","null","html-keyboard-response","32","360166","0.0-11.0-0.3","SS1613138856180","","","null","","","","","<p><img src= images/blank.png width =""200"" height = ""200"" style = ""float:right""></p><p><img src=images/blank.png width =""800"" height = ""200""></p>","","","","","","","","","","","",""
"","928.7599999806844","sequential-stimulus-presentation","33","361976","0.0-11.0-1.3","SS1613138856180","trial","","40","800","1728.7599999806844","images/stimuli/spore_stims/complex_17_A_a.gif","images/stimuli/spore_stims/complex_08_B_c.gif","","","","","1","complex_dissimilar","images/stimuli/spore_stims/complex_08_B_c.gif","middle","","","","",""
"","null","html-keyboard-response","34","362962","0.0-11.0-0.4","SS1613138856180","","","null","","","","","<p><img src= images/blank.png width =""200"" height = ""200"" style = ""float:right""></p><p><img src=images/blank.png width =""800"" height = ""200""></p>","","","","","","","","","","","",""
"","2162.9749999847263","sequential-stimulus-presentation","35","365952","0.0-11.0-1.4","SS1613138856180","trial","","40","800","2962.9749999847263","images/stimuli/spore_stims/complex_17_A_a.gif","images/stimuli/spore_stims/complex_08_B_c.gif","","","","","1","complex_dissimilar","images/stimuli/spore_stims/complex_17_A_a.gif","right","","","","",""
"","null","html-keyboard-response","36","367045","0.0-11.0-0.5","SS1613138856180","","","null","","","","","<p><img src= images/blank.png width =""200"" height = ""200"" style = ""float:right""></p><p><img src=images/blank.png width =""800"" height = ""200""></p>","","","","","","","","","","","",""
"","3569.385000038892","sequential-stimulus-presentation","37","371430","0.0-11.0-1.5","SS1613138856180","trial","","40","800","4369.385000038892","images/stimuli/spore_stims/complex_17_A_a.gif","images/stimuli/spore_stims/complex_08_B_c.gif","","","","","1","complex_dissimilar","images/stimuli/spore_stims/complex_08_B_c.gif","middle","","","","",""
"","null","html-keyboard-response","38","372710","0.0-11.0-0.6","SS1613138856180","","","null","","","","","<p><img src= images/blank.png width =""200"" height = ""200"" style = ""float:right""></p><p><img src=images/blank.png width =""800"" height = ""200""></p>","","","","","","","","","","","",""
"","2338.14499998698","sequential-stimulus-presentation","39","375878","0.0-11.0-1.6","SS1613138856180","trial","","40","800","3138.14499998698","images/stimuli/spore_stims/complex_17_A_a.gif","images/stimuli/spore_stims/complex_08_B_c.gif","","","","","1","complex_dissimilar","images/stimuli/spore_stims/complex_08_B_c.gif","middle","","","","",""
"","null","html-keyboard-response","40","376862","0.0-11.0-0.7","SS1613138856180","","","null","","","","","<p><img src= images/blank.png width =""200"" height = ""200"" style = ""float:right""></p><p><img src=images/blank.png width =""800"" height = ""200""></p>","","","","","","","","","","","",""
"","1722.0000000088476","sequential-stimulus-presentation","41","379447","0.0-11.0-1.7","SS1613138856180","trial","","40","800","2522.0000000088476","images/stimuli/spore_stims/complex_17_A_a.gif","images/stimuli/spore_stims/complex_08_B_c.gif","","","","","1","complex_dissimilar","images/stimuli/spore_stims/complex_08_B_c.gif","middle","","","","",""
"","1940.9800000139512","html-keyboard-response","42","381392","0.0-12.0","SS1613138856180","pref_question","","99","","","","","<video width ='960' height = '540' style='padding-top:8%' autoplay muted><source src='images/stimuli/wall_pref.mp4' type='video/mp4'></video>","3","right","66%","1","","","","","","","",""
"","2308.5149999824353","sequential-stimulus-presentation","43","384517","0.0-13.0","SS1613138856180","pref_reveal","","40","800","3108.5149999824353","null","null","","","","","1","","","","deviant","","","",""
"","null","html-keyboard-response","44","385559","0.0-14.0-0.0","SS1613138856180","","","null","","","","","<p><img src= images/blank.png width =""200"" height = ""200"" style = ""float:right""></p><p><img src=images/blank.png width =""800"" height = ""200""></p>","","","","","","","","","","","",""
"","1503.145000024233","sequential-stimulus-presentation","45","387885","0.0-14.0-1.0","SS1613138856180","trial","","40","800","2303.145000024233","images/stimuli/spore_stims/simple_12_A_a.gif","images/stimuli/spore_stims/simple_12_B_a.gif","","","","","2","simple_similar","images/stimuli/spore_stims/simple_12_B_a.gif","left","","","","",""
"","null","html-keyboard-response","46","388830","0.0-14.0-0.1","SS1613138856180","","","null","","","","","<p><img src= images/blank.png width =""200"" height = ""200"" style = ""float:right""></p><p><img src=images/blank.png width =""800"" height = ""200""></p>","","","","","","","","","","","",""
"","2015.2000000234693","sequential-stimulus-presentation","47","391661","0.0-14.0-1.1","SS1613138856180","trial","","40","800","2815.2000000234693","images/stimuli/spore_stims/simple_12_A_a.gif","images/stimuli/spore_stims/simple_12_B_a.gif","","","","","2","simple_similar","images/stimuli/spore_stims/simple_12_B_a.gif","left","","","","",""
"","null","html-keyboard-response","48","392709","0.0-14.0-0.2","SS1613138856180","","","null","","","","","<p><img src= images/blank.png width =""200"" height = ""200"" style = ""float:right""></p><p><img src=images/blank.png width =""800"" height = ""200""></p>","","","","","","","","","","","",""
"","1053.5600000293925","sequential-stimulus-presentation","49","394587","0.0-14.0-1.2","SS1613138856180","trial","","40","800","1853.5600000293925","images/stimuli/spore_stims/simple_12_A_a.gif","images/stimuli/spore_stims/simple_12_B_a.gif","","","","","2","simple_similar","images/stimuli/spore_stims/simple_12_B_a.gif","left","","","","",""
"","null","html-keyboard-response","50","395888","0.0-14.0-0.3","SS1613138856180","","","null","","","","","<p><img src= images/blank.png width =""200"" height = ""200"" style = ""float:right""></p><p><img src=images/blank.png width =""800"" height = ""200""></p>","","","","","","","","","","","",""
"","2229.575000004843","sequential-stimulus-presentation","51","398936","0.0-14.0-1.3","SS1613138856180","trial","","40","800","3029.575000004843","images/stimuli/spore_stims/simple_12_A_a.gif","images/stimuli/spore_stims/simple_12_B_a.gif","","","","","2","simple_similar","images/stimuli/spore_stims/simple_12_A_a.gif","middle","","","","",""
"","null","html-keyboard-response","52","400113","0.0-14.0-0.4","SS1613138856180","","","null","","","","","<p><img src= images/blank.png width =""200"" height = ""200"" style = ""float:right""></p><p><img src=images/blank.png width =""800"" height = ""200""></p>","","","","","","","","","","","",""
"","4703.335000027437","sequential-stimulus-presentation","53","405628","0.0-14.0-1.4","SS1613138856180","trial","","40","800","5503.335000027437","images/stimuli/spore_stims/simple_12_A_a.gif","images/stimuli/spore_stims/simple_12_B_a.gif","","","","","2","simple_similar","images/stimuli/spore_stims/simple_12_B_a.gif","left","","","","",""
"","null","html-keyboard-response","54","406871","0.0-14.0-0.5","SS1613138856180","","","null","","","","","<p><img src= images/blank.png width =""200"" height = ""200"" style = ""float:right""></p><p><img src=images/blank.png width =""800"" height = ""200""></p>","","","","","","","","","","","",""
"","1673.4949999954551","sequential-stimulus-presentation","55","409363","0.0-14.0-1.5","SS1613138856180","trial","","40","800","2473.494999995455","images/stimuli/spore_stims/simple_12_A_a.gif","images/stimuli/spore_stims/simple_12_B_a.gif","","","","","2","simple_similar","images/stimuli/spore_stims/simple_12_B_a.gif","left","","","","",""
"","null","html-keyboard-response","56","410248","0.0-14.0-0.6","SS1613138856180","","","null","","","","","<p><img src= images/blank.png width =""200"" height = ""200"" style = ""float:right""></p><p><img src=images/blank.png width =""800"" height = ""200""></p>","","","","","","","","","","","",""
"","1730.8349999948405","sequential-stimulus-presentation","57","412810","0.0-14.0-1.6","SS1613138856180","trial","","40","800","2530.8349999948405","images/stimuli/spore_stims/simple_12_A_a.gif","images/stimuli/spore_stims/simple_12_B_a.gif","","","","","2","simple_similar","images/stimuli/spore_stims/simple_12_B_a.gif","left","","","","",""
"","null","html-keyboard-response","58","414109","0.0-14.0-0.7","SS1613138856180","","","null","","","","","<p><img src= images/blank.png width =""200"" height = ""200"" style = ""float:right""></p><p><img src=images/blank.png width =""800"" height = ""200""></p>","","","","","","","","","","","",""
"","1199.3800000054762","sequential-stimulus-presentation","59","416193","0.0-14.0-1.7","SS1613138856180","trial","","40","800","1999.3800000054762","images/stimuli/spore_stims/simple_12_A_a.gif","images/stimuli/spore_stims/simple_12_B_a.gif","","","","","2","simple_similar","images/stimuli/spore_stims/simple_12_B_a.gif","left","","","","",""
"","1595.0050000101328","html-keyboard-response","60","417795","0.0-15.0","SS1613138856180","pref_question","","99","","","","","<video width ='960' height = '540' style='padding-top:8%' autoplay muted><source src='images/stimuli/wall_pref.mp4' type='video/mp4'></video>","3","right","66%","2","","","","","","","",""
"","586.5950000006706","sequential-stimulus-presentation","61","419200","0.0-16.0","SS1613138856180","pref_reveal","","40","800","1386.5950000006706","null","null","","","","","2","","","","novel","","","",""
"","null","html-keyboard-response","62","420010","0.0-17.0-0.0","SS1613138856180","","","null","","","","","<p><img src= images/blank.png width =""200"" height = ""200"" style = ""float:right""></p><p><img src=images/blank.png width =""800"" height = ""200""></p>","","","","","","","","","","","",""
"","1018.2999999960884","sequential-stimulus-presentation","63","421848","0.0-17.0-1.0","SS1613138856180","trial","","40","800","1818.2999999960884","images/stimuli/spore_stims/simple_19_B_a.gif","images/stimuli/spore_stims/simple_19_A_a.gif","","","","","3","simple_similar","images/stimuli/spore_stims/simple_19_A_a.gif","right","","","","",""
"","null","html-keyboard-response","64","422855","0.0-17.0-0.1","SS1613138856180","","","null","","","","","<p><img src= images/blank.png width =""200"" height = ""200"" style = ""float:right""></p><p><img src=images/blank.png width =""800"" height = ""200""></p>","","","","","","","","","","","",""
"","1404.6700000180863","sequential-stimulus-presentation","65","425073","0.0-17.0-1.1","SS1613138856180","trial","","40","800","2204.6700000180863","images/stimuli/spore_stims/simple_19_B_a.gif","images/stimuli/spore_stims/simple_19_A_a.gif","","","","","3","simple_similar","images/stimuli/spore_stims/simple_19_A_a.gif","right","","","","",""
"","null","html-keyboard-response","66","425981","0.0-17.0-0.2","SS1613138856180","","","null","","","","","<p><img src= images/blank.png width =""200"" height = ""200"" style = ""float:right""></p><p><img src=images/blank.png width =""800"" height = ""200""></p>","","","","","","","","","","","",""
"","1097.9900000384077","sequential-stimulus-presentation","67","427896","0.0-17.0-1.2","SS1613138856180","trial","","40","800","1897.9900000384077","images/stimuli/spore_stims/simple_19_B_a.gif","images/stimuli/spore_stims/simple_19_A_a.gif","","","","","3","simple_similar","images/stimuli/spore_stims/simple_19_A_a.gif","right","","","","",""
"","null","html-keyboard-response","68","429151","0.0-17.0-0.3","SS1613138856180","","","null","","","","","<p><img src= images/blank.png width =""200"" height = ""200"" style = ""float:right""></p><p><img src=images/blank.png width =""800"" height = ""200""></p>","","","","","","","","","","","",""
"","736.5449999924749","sequential-stimulus-presentation","69","430702","0.0-17.0-1.3","SS1613138856180","trial","","40","800","1536.544999992475","images/stimuli/spore_stims/simple_19_B_a.gif","images/stimuli/spore_stims/simple_19_A_a.gif","","","","","3","simple_similar","images/stimuli/spore_stims/simple_19_A_a.gif","right","","","","",""
"","null","html-keyboard-response","70","431809","0.0-17.0-0.4","SS1613138856180","","","null","","","","","<p><img src= images/blank.png width =""200"" height = ""200"" style = ""float:right""></p><p><img src=images/blank.png width =""800"" height = ""200""></p>","","","","","","","","","","","",""
"","1748.059999954421","sequential-stimulus-presentation","71","434392","0.0-17.0-1.4","SS1613138856180","trial","","40","800","2548.059999954421","images/stimuli/spore_stims/simple_19_B_a.gif","images/stimuli/spore_stims/simple_19_A_a.gif","","","","","3","simple_similar","images/stimuli/spore_stims/simple_19_B_a.gif","left","","","","",""
"","null","html-keyboard-response","72","435232","0.0-17.0-0.5","SS1613138856180","","","null","","","","","<p><img src= images/blank.png width =""200"" height = ""200"" style = ""float:right""></p><p><img src=images/blank.png width =""800"" height = ""200""></p>","","","","","","","","","","","",""
"","1427.220000012312","sequential-stimulus-presentation","73","437486","0.0-17.0-1.5","SS1613138856180","trial","","40","800","2227.220000012312","images/stimuli/spore_stims/simple_19_B_a.gif","images/stimuli/spore_stims/simple_19_A_a.gif","","","","","3","simple_similar","images/stimuli/spore_stims/simple_19_A_a.gif","right","","","","",""
"","null","html-keyboard-response","74","438447","0.0-17.0-0.6","SS1613138856180","","","null","","","","","<p><img src= images/blank.png width =""200"" height = ""200"" style = ""float:right""></p><p><img src=images/blank.png width =""800"" height = ""200""></p>","","","","","","","","","","","",""
"","871.3450000504963","sequential-stimulus-presentation","75","440167","0.0-17.0-1.6","SS1613138856180","trial","","40","800","1671.3450000504963","images/stimuli/spore_stims/simple_19_B_a.gif","images/stimuli/spore_stims/simple_19_A_a.gif","","","","","3","simple_similar","images/stimuli/spore_stims/simple_19_A_a.gif","right","","","","",""
"","null","html-keyboard-response","76","441390","0.0-17.0-0.7","SS1613138856180","","","null","","","","","<p><img src= images/blank.png width =""200"" height = ""200"" style = ""float:right""></p><p><img src=images/blank.png width =""800"" height = ""200""></p>","","","","","","","","","","","",""
"","946.1350000347011","sequential-stimulus-presentation","77","443150","0.0-17.0-1.7","SS1613138856180","trial","","40","800","1746.135000034701","images/stimuli/spore_stims/simple_19_B_a.gif","images/stimuli/spore_stims/simple_19_A_a.gif","","","","","3","simple_similar","images/stimuli/spore_stims/simple_19_A_a.gif","right","","","","",""
"","1763.0350000108592","html-keyboard-response","78","444919","0.0-18.0","SS1613138856180","pref_question","","98","","","","","<video width ='960' height = '540' style='padding-top:8%' autoplay muted><source src='images/stimuli/wall_pref.mp4' type='video/mp4'></video>","2","middle","45%","3","","","","","","","",""
"","1276.7800000146963","sequential-stimulus-presentation","79","447029","0.0-19.0","SS1613138856180","pref_reveal","","40","800","2076.7800000146963","null","null","","","","","3","","","","novel","","","",""
"","null","html-keyboard-response","80","448106","0.0-20.0-0.0","SS1613138856180","","","null","","","","","<p><img src= images/blank.png width =""200"" height = ""200"" style = ""float:right""></p><p><img src=images/blank.png width =""800"" height = ""200""></p>","","","","","","","","","","","",""
"","1097.0600000000559","sequential-stimulus-presentation","81","450117","0.0-20.0-1.0","SS1613138856180","trial","","40","800","1897.0600000000559","images/stimuli/spore_stims/simple_03_A_c.gif","images/stimuli/spore_stims/simple_17_A_c.gif","","","","","4","simple_dissimilar","images/stimuli/spore_stims/simple_17_A_c.gif","left","","","","",""
"","null","html-keyboard-response","82","451100","0.0-20.0-0.1","SS1613138856180","","","null","","","","","<p><img src= images/blank.png width =""200"" height = ""200"" style = ""float:right""></p><p><img src=images/blank.png width =""800"" height = ""200""></p>","","","","","","","","","","","",""
"","3082.0850000018254","sequential-stimulus-presentation","83","455015","0.0-20.0-1.1","SS1613138856180","trial","","40","800","3882.0850000018254","images/stimuli/spore_stims/simple_03_A_c.gif","images/stimuli/spore_stims/simple_17_A_c.gif","","","","","4","simple_dissimilar","images/stimuli/spore_stims/simple_17_A_c.gif","left","","","","",""
"","null","html-keyboard-response","84","456086","0.0-20.0-0.2","SS1613138856180","","","null","","","","","<p><img src= images/blank.png width =""200"" height = ""200"" style = ""float:right""></p><p><img src=images/blank.png width =""800"" height = ""200""></p>","","","","","","","","","","","",""
"","629.8600000445731","sequential-stimulus-presentation","85","457548","0.0-20.0-1.2","SS1613138856180","trial","","40","800","1429.860000044573","images/stimuli/spore_stims/simple_03_A_c.gif","images/stimuli/spore_stims/simple_17_A_c.gif","","","","","4","simple_dissimilar","images/stimuli/spore_stims/simple_17_A_c.gif","left","","","","",""
"","null","html-keyboard-response","86","458497","0.0-20.0-0.3","SS1613138856180","","","null","","","","","<p><img src= images/blank.png width =""200"" height = ""200"" style = ""float:right""></p><p><img src=images/blank.png width =""800"" height = ""200""></p>","","","","","","","","","","","",""
"","813.5800000163727","sequential-stimulus-presentation","87","460151","0.0-20.0-1.3","SS1613138856180","trial","","40","800","1613.5800000163727","images/stimuli/spore_stims/simple_03_A_c.gif","images/stimuli/spore_stims/simple_17_A_c.gif","","","","","4","simple_dissimilar","images/stimuli/spore_stims/simple_17_A_c.gif","left","","","","",""
"","null","html-keyboard-response","88","461282","0.0-20.0-0.4","SS1613138856180","","","null","","","","","<p><img src= images/blank.png width =""200"" height = ""200"" style = ""float:right""></p><p><img src=images/blank.png width =""800"" height = ""200""></p>","","","","","","","","","","","",""
"","680.5549999698997","sequential-stimulus-presentation","89","462787","0.0-20.0-1.4","SS1613138856180","trial","","40","800","1480.5549999698997","images/stimuli/spore_stims/simple_03_A_c.gif","images/stimuli/spore_stims/simple_17_A_c.gif","","","","","4","simple_dissimilar","images/stimuli/spore_stims/simple_17_A_c.gif","left","","","","",""
"","null","html-keyboard-response","90","463893","0.0-20.0-0.5","SS1613138856180","","","null","","","","","<p><img src= images/blank.png width =""200"" height = ""200"" style = ""float:right""></p><p><img src=images/blank.png width =""800"" height = ""200""></p>","","","","","","","","","","","",""
"","708.8600000133738","sequential-stimulus-presentation","91","465443","0.0-20.0-1.5","SS1613138856180","trial","","40","800","1508.8600000133738","images/stimuli/spore_stims/simple_03_A_c.gif","images/stimuli/spore_stims/simple_17_A_c.gif","","","","","4","simple_dissimilar","images/stimuli/spore_stims/simple_17_A_c.gif","left","","","","",""
"","null","html-keyboard-response","92","466610","0.0-20.0-0.6","SS1613138856180","","","null","","","","","<p><img src= images/blank.png width =""200"" height = ""200"" style = ""float:right""></p><p><img src=images/blank.png width =""800"" height = ""200""></p>","","","","","","","","","","","",""
"","998.0199999990873","sequential-stimulus-presentation","93","468435","0.0-20.0-1.6","SS1613138856180","trial","","40","800","1798.0199999990873","images/stimuli/spore_stims/simple_03_A_c.gif","images/stimuli/spore_stims/simple_17_A_c.gif","","","","","4","simple_dissimilar","images/stimuli/spore_stims/simple_03_A_c.gif","right","","","","",""
"","null","html-keyboard-response","94","469461","0.0-20.0-0.7","SS1613138856180","","","null","","","","","<p><img src= images/blank.png width =""200"" height = ""200"" style = ""float:right""></p><p><img src=images/blank.png width =""800"" height = ""200""></p>","","","","","","","","","","","",""
"","736.0050000133924","sequential-stimulus-presentation","95","471011","0.0-20.0-1.7","SS1613138856180","trial","","40","800","1536.0050000133924","images/stimuli/spore_stims/simple_03_A_c.gif","images/stimuli/spore_stims/simple_17_A_c.gif","","","","","4","simple_dissimilar","images/stimuli/spore_stims/simple_17_A_c.gif","left","","","","",""
"","1721.4249999960884","html-keyboard-response","96","472739","0.0-21.0","SS1613138856180","pref_question","","97","","","","","<video width ='960' height = '540' style='padding-top:8%' autoplay muted><source src='images/stimuli/wall_pref.mp4' type='video/mp4'></video>","1","left","25%","4","","","","","","","",""
"","626.5199999907054","sequential-stimulus-presentation","97","474194","0.0-22.0","SS1613138856180","pref_reveal","","40","800","1426.5199999907054","null","null","","","","","4","","","","background","","","",""
"","null","html-keyboard-response","98","475375","0.0-23.0-0.0","SS1613138856180","","","null","","","","","<p><img src= images/blank.png width =""200"" height = ""200"" style = ""float:right""></p><p><img src=images/blank.png width =""800"" height = ""200""></p>","","","","","","","","","","","",""
"","1031.1750000109896","sequential-stimulus-presentation","99","477219","0.0-23.0-1.0","SS1613138856180","trial","","40","800","1831.1750000109896","images/stimuli/spore_stims/simple_18_B_c.gif","images/stimuli/spore_stims/simple_14_A_d.gif","","","","","5","simple_dissimilar","images/stimuli/spore_stims/simple_14_A_d.gif","right","","","","",""
"","null","html-keyboard-response","100","478231","0.0-23.0-0.1","SS1613138856180","","","null","","","","","<p><img src= images/blank.png width =""200"" height = ""200"" style = ""float:right""></p><p><img src=images/blank.png width =""800"" height = ""200""></p>","","","","","","","","","","","",""
"","710.6900000362657","sequential-stimulus-presentation","101","479762","0.0-23.0-1.1","SS1613138856180","trial","","40","800","1510.6900000362657","images/stimuli/spore_stims/simple_18_B_c.gif","images/stimuli/spore_stims/simple_14_A_d.gif","","","","","5","simple_dissimilar","images/stimuli/spore_stims/simple_14_A_d.gif","right","","","","",""
"","null","html-keyboard-response","102","480770","0.0-23.0-0.2","SS1613138856180","","","null","","","","","<p><img src= images/blank.png width =""200"" height = ""200"" style = ""float:right""></p><p><img src=images/blank.png width =""800"" height = ""200""></p>","","","","","","","","","","","",""
"","666.9550000224262","sequential-stimulus-presentation","103","482249","0.0-23.0-1.2","SS1613138856180","trial","","40","800","1466.9550000224262","images/stimuli/spore_stims/simple_18_B_c.gif","images/stimuli/spore_stims/simple_14_A_d.gif","","","","","5","simple_dissimilar","images/stimuli/spore_stims/simple_14_A_d.gif","right","","","","",""
"","null","html-keyboard-response","104","483160","0.0-23.0-0.3","SS1613138856180","","","null","","","","","<p><img src= images/blank.png width =""200"" height = ""200"" style = ""float:right""></p><p><img src=images/blank.png width =""800"" height = ""200""></p>","","","","","","","","","","","",""
"","580.1700000301935","sequential-stimulus-presentation","105","484714","0.0-23.0-1.3","SS1613138856180","trial","","40","800","1380.1700000301935","images/stimuli/spore_stims/simple_18_B_c.gif","images/stimuli/spore_stims/simple_14_A_d.gif","","","","","5","simple_dissimilar","images/stimuli/spore_stims/simple_14_A_d.gif","right","","","","",""
"","null","html-keyboard-response","106","485651","0.0-23.0-0.4","SS1613138856180","","","null","","","","","<p><img src= images/blank.png width =""200"" height = ""200"" style = ""float:right""></p><p><img src=images/blank.png width =""800"" height = ""200""></p>","","","","","","","","","","","",""
"","750.7750000222586","sequential-stimulus-presentation","107","487216","0.0-23.0-1.4","SS1613138856180","trial","","40","800","1550.7750000222586","images/stimuli/spore_stims/simple_18_B_c.gif","images/stimuli/spore_stims/simple_14_A_d.gif","","","","","5","simple_dissimilar","images/stimuli/spore_stims/simple_14_A_d.gif","right","","","","",""
"","null","html-keyboard-response","108","488057","0.0-23.0-0.5","SS1613138856180","","","null","","","","","<p><img src= images/blank.png width =""200"" height = ""200"" style = ""float:right""></p><p><img src=images/blank.png width =""800"" height = ""200""></p>","","","","","","","","","","","",""
"","816.9350000098348","sequential-stimulus-presentation","109","489700","0.0-23.0-1.5","SS1613138856180","trial","","40","800","1616.9350000098348","images/stimuli/spore_stims/simple_18_B_c.gif","images/stimuli/spore_stims/simple_14_A_d.gif","","","","","5","simple_dissimilar","images/stimuli/spore_stims/simple_18_B_c.gif","middle","","","","",""
"","null","html-keyboard-response","110","490851","0.0-23.0-0.6","SS1613138856180","","","null","","","","","<p><img src= images/blank.png width =""200"" height = ""200"" style = ""float:right""></p><p><img src=images/blank.png width =""800"" height = ""200""></p>","","","","","","","","","","","",""
"","531.6200000233948","sequential-stimulus-presentation","111","492223","0.0-23.0-1.6","SS1613138856180","trial","","40","800","1331.6200000233948","images/stimuli/spore_stims/simple_18_B_c.gif","images/stimuli/spore_stims/simple_14_A_d.gif","","","","","5","simple_dissimilar","images/stimuli/spore_stims/simple_14_A_d.gif","right","","","","",""
"","null","html-keyboard-response","112","493421","0.0-23.0-0.7","SS1613138856180","","","null","","","","","<p><img src= images/blank.png width =""200"" height = ""200"" style = ""float:right""></p><p><img src=images/blank.png width =""800"" height = ""200""></p>","","","","","","","","","","","",""
"","808.3149999729358","sequential-stimulus-presentation","113","495054","0.0-23.0-1.7","SS1613138856180","trial","","40","800","1608.3149999729358","images/stimuli/spore_stims/simple_18_B_c.gif","images/stimuli/spore_stims/simple_14_A_d.gif","","","","","5","simple_dissimilar","images/stimuli/spore_stims/simple_14_A_d.gif","right","","","","",""
"","1874.3350000004284","html-keyboard-response","114","496935","0.0-24.0","SS1613138856180","pref_question","","97","","","","","<video width ='960' height = '540' style='padding-top:8%' autoplay muted><source src='images/stimuli/wall_pref.mp4' type='video/mp4'></video>","1","left","25%","5","","","","","","","",""
"","1025.1200000056997","sequential-stimulus-presentation","115","498808","0.0-25.0","SS1613138856180","pref_reveal","","40","800","1825.1200000056997","null","null","","","","","5","","","","novel","","","",""
"","null","html-keyboard-response","116","499900","0.0-26.0-0.0","SS1613138856180","","","null","","","","","<p><img src= images/blank.png width =""200"" height = ""200"" style = ""float:right""></p><p><img src=images/blank.png width =""800"" height = ""200""></p>","","","","","","","","","","","",""
"","1352.6899999706075","sequential-stimulus-presentation","117","502086","0.0-26.0-1.0","SS1613138856180","trial","","40","800","2152.6899999706075","images/stimuli/spore_stims/simple_15_A_c.gif","images/stimuli/spore_stims/simple_15_B_c.gif","","","","","6","simple_similar","images/stimuli/spore_stims/simple_15_B_c.gif","right","","","","",""
"","null","html-keyboard-response","118","503266","0.0-26.0-0.1","SS1613138856180","","","null","","","","","<p><img src= images/blank.png width =""200"" height = ""200"" style = ""float:right""></p><p><img src=images/blank.png width =""800"" height = ""200""></p>","","","","","","","","","","","",""
"","744.8999999905936","sequential-stimulus-presentation","119","504822","0.0-26.0-1.1","SS1613138856180","trial","","40","800","1544.8999999905936","images/stimuli/spore_stims/simple_15_A_c.gif","images/stimuli/spore_stims/simple_15_B_c.gif","","","","","6","simple_similar","images/stimuli/spore_stims/simple_15_B_c.gif","right","","","","",""
"","null","html-keyboard-response","120","505683","0.0-26.0-0.2","SS1613138856180","","","null","","","","","<p><img src= images/blank.png width =""200"" height = ""200"" style = ""float:right""></p><p><img src=images/blank.png width =""800"" height = ""200""></p>","","","","","","","","","","","",""
"","951.6249999869615","sequential-stimulus-presentation","121","507479","0.0-26.0-1.2","SS1613138856180","trial","","40","800","1751.6249999869615","images/stimuli/spore_stims/simple_15_A_c.gif","images/stimuli/spore_stims/simple_15_B_c.gif","","","","","6","simple_similar","images/stimuli/spore_stims/simple_15_B_c.gif","right","","","","",""
"","null","html-keyboard-response","122","508531","0.0-26.0-0.3","SS1613138856180","","","null","","","","","<p><img src= images/blank.png width =""200"" height = ""200"" style = ""float:right""></p><p><img src=images/blank.png width =""800"" height = ""200""></p>","","","","","","","","","","","",""
"","981.1549999867566","sequential-stimulus-presentation","123","510327","0.0-26.0-1.3","SS1613138856180","trial","","40","800","1781.1549999867566","images/stimuli/spore_stims/simple_15_A_c.gif","images/stimuli/spore_stims/simple_15_B_c.gif","","","","","6","simple_similar","images/stimuli/spore_stims/simple_15_B_c.gif","right","","","","",""
"","null","html-keyboard-response","124","511330","0.0-26.0-0.4","SS1613138856180","","","null","","","","","<p><img src= images/blank.png width =""200"" height = ""200"" style = ""float:right""></p><p><img src=images/blank.png width =""800"" height = ""200""></p>","","","","","","","","","","","",""
"","751.5049999929033","sequential-stimulus-presentation","125","512901","0.0-26.0-1.4","SS1613138856180","trial","","40","800","1551.5049999929033","images/stimuli/spore_stims/simple_15_A_c.gif","images/stimuli/spore_stims/simple_15_B_c.gif","","","","","6","simple_similar","images/stimuli/spore_stims/simple_15_B_c.gif","right","","","","",""
"","null","html-keyboard-response","126","513857","0.0-26.0-0.5","SS1613138856180","","","null","","","","","<p><img src= images/blank.png width =""200"" height = ""200"" style = ""float:right""></p><p><img src=images/blank.png width =""800"" height = ""200""></p>","","","","","","","","","","","",""
"","675.0300000421703","sequential-stimulus-presentation","127","515356","0.0-26.0-1.5","SS1613138856180","trial","","40","800","1475.0300000421703","images/stimuli/spore_stims/simple_15_A_c.gif","images/stimuli/spore_stims/simple_15_B_c.gif","","","","","6","simple_similar","images/stimuli/spore_stims/simple_15_B_c.gif","right","","","","",""
"","null","html-keyboard-response","128","516368","0.0-26.0-0.6","SS1613138856180","","","null","","","","","<p><img src= images/blank.png width =""200"" height = ""200"" style = ""float:right""></p><p><img src=images/blank.png width =""800"" height = ""200""></p>","","","","","","","","","","","",""
"","670.2449999866076","sequential-stimulus-presentation","129","517941","0.0-26.0-1.6","SS1613138856180","trial","","40","800","1470.2449999866076","images/stimuli/spore_stims/simple_15_A_c.gif","images/stimuli/spore_stims/simple_15_B_c.gif","","","","","6","simple_similar","images/stimuli/spore_stims/simple_15_B_c.gif","right","","","","",""
"","null","html-keyboard-response","130","519060","0.0-26.0-0.7","SS1613138856180","","","null","","","","","<p><img src= images/blank.png width =""200"" height = ""200"" style = ""float:right""></p><p><img src=images/blank.png width =""800"" height = ""200""></p>","","","","","","","","","","","",""
"","927.4050000240095","sequential-stimulus-presentation","131","520813","0.0-26.0-1.7","SS1613138856180","trial","","40","800","1727.4050000240095","images/stimuli/spore_stims/simple_15_A_c.gif","images/stimuli/spore_stims/simple_15_B_c.gif","","","","","6","simple_similar","images/stimuli/spore_stims/simple_15_A_c.gif","middle","","","","",""
"","1647.690000012517","html-keyboard-response","132","522467","0.0-27.0","SS1613138856180","pref_question","","99","","","","","<video width ='960' height = '540' style='padding-top:8%' autoplay muted><source src='images/stimuli/wall_pref.mp4' type='video/mp4'></video>","3","right","66%","6","","","","","","","",""
"","623.0250000371598","sequential-stimulus-presentation","133","523900","0.0-28.0","SS1613138856180","pref_reveal","","40","800","1423.0250000371598","null","null","","","","","6","","","","background","","","",""
"","null","html-keyboard-response","134","524835","0.0-29.0-0.0","SS1613138856180","","","null","","","","","<p><img src= images/blank.png width =""200"" height = ""200"" style = ""float:right""></p><p><img src=images/blank.png width =""800"" height = ""200""></p>","","","","","","","","","","","",""
"","560.9650000114925","sequential-stimulus-presentation","135","526235","0.0-29.0-1.0","SS1613138856180","trial","","40","800","1360.9650000114925","images/stimuli/spore_stims/simple_13_B_a.gif","images/stimuli/spore_stims/simple_13_A_a.gif","","","","","7","simple_similar","images/stimuli/spore_stims/simple_13_A_a.gif","left","","","","",""
"","null","html-keyboard-response","136","527447","0.0-29.0-0.1","SS1613138856180","","","null","","","","","<p><img src= images/blank.png width =""200"" height = ""200"" style = ""float:right""></p><p><img src=images/blank.png width =""800"" height = ""200""></p>","","","","","","","","","","","",""
"","739.995000010822","sequential-stimulus-presentation","137","529011","0.0-29.0-1.1","SS1613138856180","trial","","40","800","1539.995000010822","images/stimuli/spore_stims/simple_13_B_a.gif","images/stimuli/spore_stims/simple_13_A_a.gif","","","","","7","simple_similar","images/stimuli/spore_stims/simple_13_A_a.gif","left","","","","",""
"","null","html-keyboard-response","138","530044","0.0-29.0-0.2","SS1613138856180","","","null","","","","","<p><img src= images/blank.png width =""200"" height = ""200"" style = ""float:right""></p><p><img src=images/blank.png width =""800"" height = ""200""></p>","","","","","","","","","","","",""
"","558.43500001356","sequential-stimulus-presentation","139","531446","0.0-29.0-1.2","SS1613138856180","trial","","40","800","1358.43500001356","images/stimuli/spore_stims/simple_13_B_a.gif","images/stimuli/spore_stims/simple_13_A_a.gif","","","","","7","simple_similar","images/stimuli/spore_stims/simple_13_B_a.gif","right","","","","",""
"","null","html-keyboard-response","140","532469","0.0-29.0-0.3","SS1613138856180","","","null","","","","","<p><img src= images/blank.png width =""200"" height = ""200"" style = ""float:right""></p><p><img src=images/blank.png width =""800"" height = ""200""></p>","","","","","","","","","","","",""
"","53.355000040028244","sequential-stimulus-presentation","141","533335","0.0-29.0-1.3","SS1613138856180","trial","","40","800","853.3550000400282","images/stimuli/spore_stims/simple_13_B_a.gif","images/stimuli/spore_stims/simple_13_A_a.gif","","","","","7","simple_similar","images/stimuli/spore_stims/simple_13_A_a.gif","left","","","","",""
"","null","html-keyboard-response","142","534545","0.0-29.0-0.4","SS1613138856180","","","null","","","","","<p><img src= images/blank.png width =""200"" height = ""200"" style = ""float:right""></p><p><img src=images/blank.png width =""800"" height = ""200""></p>","","","","","","","","","","","",""
"","505.83500001812354","sequential-stimulus-presentation","143","535954","0.0-29.0-1.4","SS1613138856180","trial","","40","800","1305.8350000181235","images/stimuli/spore_stims/simple_13_B_a.gif","images/stimuli/spore_stims/simple_13_A_a.gif","","","","","7","simple_similar","images/stimuli/spore_stims/simple_13_A_a.gif","left","","","","",""
"","null","html-keyboard-response","144","537231","0.0-29.0-0.5","SS1613138856180","","","null","","","","","<p><img src= images/blank.png width =""200"" height = ""200"" style = ""float:right""></p><p><img src=images/blank.png width =""800"" height = ""200""></p>","","","","","","","","","","","",""
"","829.9400000250898","sequential-stimulus-presentation","145","538889","0.0-29.0-1.5","SS1613138856180","trial","","40","800","1629.9400000250898","images/stimuli/spore_stims/simple_13_B_a.gif","images/stimuli/spore_stims/simple_13_A_a.gif","","","","","7","simple_similar","images/stimuli/spore_stims/simple_13_A_a.gif","left","","","","",""
"","null","html-keyboard-response","146","539778","0.0-29.0-0.6","SS1613138856180","","","null","","","","","<p><img src= images/blank.png width =""200"" height = ""200"" style = ""float:right""></p><p><img src=images/blank.png width =""800"" height = ""200""></p>","","","","","","","","","","","",""
"","1080.7499999646097","sequential-stimulus-presentation","147","541689","0.0-29.0-1.6","SS1613138856180","trial","","40","800","1880.7499999646097","images/stimuli/spore_stims/simple_13_B_a.gif","images/stimuli/spore_stims/simple_13_A_a.gif","","","","","7","simple_similar","images/stimuli/spore_stims/simple_13_A_a.gif","left","","","","",""
"","null","html-keyboard-response","148","542609","0.0-29.0-0.7","SS1613138856180","","","null","","","","","<p><img src= images/blank.png width =""200"" height = ""200"" style = ""float:right""></p><p><img src=images/blank.png width =""800"" height = ""200""></p>","","","","","","","","","","","",""
"","533.4799999836832","sequential-stimulus-presentation","149","543985","0.0-29.0-1.7","SS1613138856180","trial","","40","800","1333.4799999836832","images/stimuli/spore_stims/simple_13_B_a.gif","images/stimuli/spore_stims/simple_13_A_a.gif","","","","","7","simple_similar","images/stimuli/spore_stims/simple_13_A_a.gif","left","","","","",""
"","1874.2900000070222","html-keyboard-response","150","545866","0.0-30.0","SS1613138856180","pref_question","","98","","","","","<video width ='960' height = '540' style='padding-top:8%' autoplay muted><source src='images/stimuli/wall_pref.mp4' type='video/mp4'></video>","2","middle","45%","7","","","","","","","",""
"","972.3949999897741","sequential-stimulus-presentation","151","547673","0.0-31.0","SS1613138856180","pref_reveal","","40","800","1772.394999989774","null","null","","","","","7","","","","novel","","","",""
"","null","html-keyboard-response","152","548880","0.0-32.0-0.0","SS1613138856180","","","null","","","","","<p><img src= images/blank.png width =""200"" height = ""200"" style = ""float:right""></p><p><img src=images/blank.png width =""800"" height = ""200""></p>","","","","","","","","","","","",""
"","666.2099999957718","sequential-stimulus-presentation","153","550371","0.0-32.0-1.0","SS1613138856180","trial","","40","800","1466.2099999957718","images/stimuli/spore_stims/complex_09_A_c.gif","images/stimuli/spore_stims/complex_09_B_c.gif","","","","","8","complex_similar","images/stimuli/spore_stims/complex_09_B_c.gif","right","","","","",""
"","null","html-keyboard-response","154","551239","0.0-32.0-0.1","SS1613138856180","","","null","","","","","<p><img src= images/blank.png width =""200"" height = ""200"" style = ""float:right""></p><p><img src=images/blank.png width =""800"" height = ""200""></p>","","","","","","","","","","","",""
"","713.7049999437295","sequential-stimulus-presentation","155","552772","0.0-32.0-1.1","SS1613138856180","trial","","40","800","1513.7049999437295","images/stimuli/spore_stims/complex_09_A_c.gif","images/stimuli/spore_stims/complex_09_B_c.gif","","","","","8","complex_similar","images/stimuli/spore_stims/complex_09_B_c.gif","right","","","","",""
"","null","html-keyboard-response","156","553751","0.0-32.0-0.2","SS1613138856180","","","null","","","","","<p><img src= images/blank.png width =""200"" height = ""200"" style = ""float:right""></p><p><img src=images/blank.png width =""800"" height = ""200""></p>","","","","","","","","","","","",""
"","953.7850000197068","sequential-stimulus-presentation","157","555536","0.0-32.0-1.2","SS1613138856180","trial","","40","800","1753.7850000197068","images/stimuli/spore_stims/complex_09_A_c.gif","images/stimuli/spore_stims/complex_09_B_c.gif","","","","","8","complex_similar","images/stimuli/spore_stims/complex_09_B_c.gif","right","","","","",""
"","null","html-keyboard-response","158","556724","0.0-32.0-0.3","SS1613138856180","","","null","","","","","<p><img src= images/blank.png width =""200"" height = ""200"" style = ""float:right""></p><p><img src=images/blank.png width =""800"" height = ""200""></p>","","","","","","","","","","","",""
"","745.2049999847077","sequential-stimulus-presentation","159","558359","0.0-32.0-1.3","SS1613138856180","trial","","40","800","1545.2049999847077","images/stimuli/spore_stims/complex_09_A_c.gif","images/stimuli/spore_stims/complex_09_B_c.gif","","","","","8","complex_similar","images/stimuli/spore_stims/complex_09_B_c.gif","right","","","","",""
"","null","html-keyboard-response","160","559250","0.0-32.0-0.4","SS1613138856180","","","null","","","","","<p><img src= images/blank.png width =""200"" height = ""200"" style = ""float:right""></p><p><img src=images/blank.png width =""800"" height = ""200""></p>","","","","","","","","","","","",""
"","452.6049999985844","sequential-stimulus-presentation","161","560527","0.0-32.0-1.4","SS1613138856180","trial","","40","800","1252.6049999985844","images/stimuli/spore_stims/complex_09_A_c.gif","images/stimuli/spore_stims/complex_09_B_c.gif","","","","","8","complex_similar","images/stimuli/spore_stims/complex_09_A_c.gif","left","","","","",""
"","null","html-keyboard-response","162","561347","0.0-32.0-0.5","SS1613138856180","","","null","","","","","<p><img src= images/blank.png width =""200"" height = ""200"" style = ""float:right""></p><p><img src=images/blank.png width =""800"" height = ""200""></p>","","","","","","","","","","","",""
"","655.220000015106","sequential-stimulus-presentation","163","562854","0.0-32.0-1.5","SS1613138856180","trial","","40","800","1455.220000015106","images/stimuli/spore_stims/complex_09_A_c.gif","images/stimuli/spore_stims/complex_09_B_c.gif","","","","","8","complex_similar","images/stimuli/spore_stims/complex_09_B_c.gif","right","","","","",""
"","null","html-keyboard-response","164","563974","0.0-32.0-0.6","SS1613138856180","","","null","","","","","<p><img src= images/blank.png width =""200"" height = ""200"" style = ""float:right""></p><p><img src=images/blank.png width =""800"" height = ""200""></p>","","","","","","","","","","","",""
"","406.844999990426","sequential-stimulus-presentation","165","565221","0.0-32.0-1.6","SS1613138856180","trial","","40","800","1206.844999990426","images/stimuli/spore_stims/complex_09_A_c.gif","images/stimuli/spore_stims/complex_09_B_c.gif","","","","","8","complex_similar","images/stimuli/spore_stims/complex_09_B_c.gif","right","","","","",""
"","null","html-keyboard-response","166","566092","0.0-32.0-0.7","SS1613138856180","","","null","","","","","<p><img src= images/blank.png width =""200"" height = ""200"" style = ""float:right""></p><p><img src=images/blank.png width =""800"" height = ""200""></p>","","","","","","","","","","","",""
"","575.3249999834225","sequential-stimulus-presentation","167","567486","0.0-32.0-1.7","SS1613138856180","trial","","40","800","1375.3249999834225","images/stimuli/spore_stims/complex_09_A_c.gif","images/stimuli/spore_stims/complex_09_B_c.gif","","","","","8","complex_similar","images/stimuli/spore_stims/complex_09_B_c.gif","right","","","","",""
"","1547.145000018645","html-keyboard-response","168","569040","0.0-33.0","SS1613138856180","pref_question","","97","","","","","<video width ='960' height = '540' style='padding-top:8%' autoplay muted><source src='images/stimuli/wall_pref.mp4' type='video/mp4'></video>","1","left","25%","8","","","","","","","",""
"","522.8299999726005","sequential-stimulus-presentation","169","570373","0.0-34.0","SS1613138856180","pref_reveal","","40","800","1322.8299999726005","null","null","","","","","8","","","","deviant","","","",""
"","null","html-keyboard-response","170","571383","0.0-35.0-0.0","SS1613138856180","","","null","","","","","<p><img src= images/blank.png width =""200"" height = ""200"" style = ""float:right""></p><p><img src=images/blank.png width =""800"" height = ""200""></p>","","","","","","","","","","","",""
"","546.4599999831989","sequential-stimulus-presentation","171","572775","0.0-35.0-1.0","SS1613138856180","trial","","40","800","1346.459999983199","images/stimuli/spore_stims/complex_07_B_b.gif","images/stimuli/spore_stims/complex_11_B_c.gif","","","","","9","complex_dissimilar","images/stimuli/spore_stims/complex_11_B_c.gif","left","","","","",""
"","null","html-keyboard-response","172","573894","0.0-35.0-0.1","SS1613138856180","","","null","","","","","<p><img src= images/blank.png width =""200"" height = ""200"" style = ""float:right""></p><p><img src=images/blank.png width =""800"" height = ""200""></p>","","","","","","","","","","","",""
"","693.4100000071339","sequential-stimulus-presentation","173","575423","0.0-35.0-1.1","SS1613138856180","trial","","40","800","1493.410000007134","images/stimuli/spore_stims/complex_07_B_b.gif","images/stimuli/spore_stims/complex_11_B_c.gif","","","","","9","complex_dissimilar","images/stimuli/spore_stims/complex_11_B_c.gif","left","","","","",""
"","null","html-keyboard-response","174","576651","0.0-35.0-0.2","SS1613138856180","","","null","","","","","<p><img src= images/blank.png width =""200"" height = ""200"" style = ""float:right""></p><p><img src=images/blank.png width =""800"" height = ""200""></p>","","","","","","","","","","","",""
"","494.1549999639392","sequential-stimulus-presentation","175","577974","0.0-35.0-1.2","SS1613138856180","trial","","40","800","1294.1549999639392","images/stimuli/spore_stims/complex_07_B_b.gif","images/stimuli/spore_stims/complex_11_B_c.gif","","","","","9","complex_dissimilar","images/stimuli/spore_stims/complex_11_B_c.gif","left","","","","",""
"","null","html-keyboard-response","176","579162","0.0-35.0-0.3","SS1613138856180","","","null","","","","","<p><img src= images/blank.png width =""200"" height = ""200"" style = ""float:right""></p><p><img src=images/blank.png width =""800"" height = ""200""></p>","","","","","","","","","","","",""
"","702.2800000268035","sequential-stimulus-presentation","177","580686","0.0-35.0-1.3","SS1613138856180","trial","","40","800","1502.2800000268035","images/stimuli/spore_stims/complex_07_B_b.gif","images/stimuli/spore_stims/complex_11_B_c.gif","","","","","9","complex_dissimilar","images/stimuli/spore_stims/complex_07_B_b.gif","right","","","","",""
"","null","html-keyboard-response","178","581627","0.0-35.0-0.4","SS1613138856180","","","null","","","","","<p><img src= images/blank.png width =""200"" height = ""200"" style = ""float:right""></p><p><img src=images/blank.png width =""800"" height = ""200""></p>","","","","","","","","","","","",""
"","659.4250000198372","sequential-stimulus-presentation","179","583115","0.0-35.0-1.4","SS1613138856180","trial","","40","800","1459.4250000198372","images/stimuli/spore_stims/complex_07_B_b.gif","images/stimuli/spore_stims/complex_11_B_c.gif","","","","","9","complex_dissimilar","images/stimuli/spore_stims/complex_11_B_c.gif","left","","","","",""
"","null","html-keyboard-response","180","584056","0.0-35.0-0.5","SS1613138856180","","","null","","","","","<p><img src= images/blank.png width =""200"" height = ""200"" style = ""float:right""></p><p><img src=images/blank.png width =""800"" height = ""200""></p>","","","","","","","","","","","",""
"","2092.9899999755435","sequential-stimulus-presentation","181","586972","0.0-35.0-1.5","SS1613138856180","trial","","40","800","2892.9899999755435","images/stimuli/spore_stims/complex_07_B_b.gif","images/stimuli/spore_stims/complex_11_B_c.gif","","","","","9","complex_dissimilar","images/stimuli/spore_stims/complex_11_B_c.gif","left","","","","",""
"","null","html-keyboard-response","182","588202","0.0-35.0-0.6","SS1613138856180","","","null","","","","","<p><img src= images/blank.png width =""200"" height = ""200"" style = ""float:right""></p><p><img src=images/blank.png width =""800"" height = ""200""></p>","","","","","","","","","","","",""
"","565.729999972973","sequential-stimulus-presentation","183","589693","0.0-35.0-1.6","SS1613138856180","trial","","40","800","1365.729999972973","images/stimuli/spore_stims/complex_07_B_b.gif","images/stimuli/spore_stims/complex_11_B_c.gif","","","","","9","complex_dissimilar","images/stimuli/spore_stims/complex_11_B_c.gif","left","","","","",""
"","null","html-keyboard-response","184","590671","0.0-35.0-0.7","SS1613138856180","","","null","","","","","<p><img src= images/blank.png width =""200"" height = ""200"" style = ""float:right""></p><p><img src=images/blank.png width =""800"" height = ""200""></p>","","","","","","","","","","","",""
"","741.2200000253506","sequential-stimulus-presentation","185","592260","0.0-35.0-1.7","SS1613138856180","trial","","40","800","1541.2200000253506","images/stimuli/spore_stims/complex_07_B_b.gif","images/stimuli/spore_stims/complex_11_B_c.gif","","","","","9","complex_dissimilar","images/stimuli/spore_stims/complex_11_B_c.gif","left","","","","",""
"","1506.119999976363","html-keyboard-response","186","593778","0.0-36.0","SS1613138856180","pref_question","","99","","","","","<video width ='960' height = '540' style='padding-top:8%' autoplay muted><source src='images/stimuli/wall_pref.mp4' type='video/mp4'></video>","3","right","66%","9","","","","","","","",""
"","391.78000000538304","sequential-stimulus-presentation","187","594986","0.0-37.0","SS1613138856180","pref_reveal","","40","800","1191.780000005383","null","null","","","","","9","","","","deviant","","","",""
"","null","html-keyboard-response","188","596146","0.0-38.0-0.0","SS1613138856180","","","null","","","","","<p><img src= images/blank.png width =""200"" height = ""200"" style = ""float:right""></p><p><img src=images/blank.png width =""800"" height = ""200""></p>","","","","","","","","","","","",""
"","602.1700000273995","sequential-stimulus-presentation","189","597578","0.0-38.0-1.0","SS1613138856180","trial","","40","800","1402.1700000273995","images/stimuli/spore_stims/complex_20_B_a.gif","images/stimuli/spore_stims/complex_11_A_d.gif","","","","","10","complex_dissimilar","images/stimuli/spore_stims/complex_11_A_d.gif","left","","","","",""
"","null","html-keyboard-response","190","598823","0.0-38.0-0.1","SS1613138856180","","","null","","","","","<p><img src= images/blank.png width =""200"" height = ""200"" style = ""float:right""></p><p><img src=images/blank.png width =""800"" height = ""200""></p>","","","","","","","","","","","",""
"","847.8549999999814","sequential-stimulus-presentation","191","600524","0.0-38.0-1.1","SS1613138856180","trial","","40","800","1647.8549999999814","images/stimuli/spore_stims/complex_20_B_a.gif","images/stimuli/spore_stims/complex_11_A_d.gif","","","","","10","complex_dissimilar","images/stimuli/spore_stims/complex_11_A_d.gif","left","","","","",""
"","null","html-keyboard-response","192","601555","0.0-38.0-0.2","SS1613138856180","","","null","","","","","<p><img src= images/blank.png width =""200"" height = ""200"" style = ""float:right""></p><p><img src=images/blank.png width =""800"" height = ""200""></p>","","","","","","","","","","","",""
"","505.04999997792765","sequential-stimulus-presentation","193","602881","0.0-38.0-1.2","SS1613138856180","trial","","40","800","1305.0499999779277","images/stimuli/spore_stims/complex_20_B_a.gif","images/stimuli/spore_stims/complex_11_A_d.gif","","","","","10","complex_dissimilar","images/stimuli/spore_stims/complex_11_A_d.gif","left","","","","",""
"","null","html-keyboard-response","194","604166","0.0-38.0-0.3","SS1613138856180","","","null","","","","","<p><img src= images/blank.png width =""200"" height = ""200"" style = ""float:right""></p><p><img src=images/blank.png width =""800"" height = ""200""></p>","","","","","","","","","","","",""
"","510.0249999668449","sequential-stimulus-presentation","195","605513","0.0-38.0-1.3","SS1613138856180","trial","","40","800","1310.024999966845","images/stimuli/spore_stims/complex_20_B_a.gif","images/stimuli/spore_stims/complex_11_A_d.gif","","","","","10","complex_dissimilar","images/stimuli/spore_stims/complex_11_A_d.gif","left","","","","",""
"","null","html-keyboard-response","196","606499","0.0-38.0-0.4","SS1613138856180","","","null","","","","","<p><img src= images/blank.png width =""200"" height = ""200"" style = ""float:right""></p><p><img src=images/blank.png width =""800"" height = ""200""></p>","","","","","","","","","","","",""
"","542.6949999528006","sequential-stimulus-presentation","197","607864","0.0-38.0-1.4","SS1613138856180","trial","","40","800","1342.6949999528006","images/stimuli/spore_stims/complex_20_B_a.gif","images/stimuli/spore_stims/complex_11_A_d.gif","","","","","10","complex_dissimilar","images/stimuli/spore_stims/complex_11_A_d.gif","left","","","","",""
"","null","html-keyboard-response","198","608926","0.0-38.0-0.5","SS1613138856180","","","null","","","","","<p><img src= images/blank.png width =""200"" height = ""200"" style = ""float:right""></p><p><img src=images/blank.png width =""800"" height = ""200""></p>","","","","","","","","","","","",""
"","813.2849999819882","sequential-stimulus-presentation","199","610554","0.0-38.0-1.5","SS1613138856180","trial","","40","800","1613.2849999819882","images/stimuli/spore_stims/complex_20_B_a.gif","images/stimuli/spore_stims/complex_11_A_d.gif","","","","","10","complex_dissimilar","images/stimuli/spore_stims/complex_20_B_a.gif","middle","","","","",""
"","null","html-keyboard-response","200","611831","0.0-38.0-0.6","SS1613138856180","","","null","","","","","<p><img src= images/blank.png width =""200"" height = ""200"" style = ""float:right""></p><p><img src=images/blank.png width =""800"" height = ""200""></p>","","","","","","","","","","","",""
"","714.9150000186637","sequential-stimulus-presentation","201","613374","0.0-38.0-1.6","SS1613138856180","trial","","40","800","1514.9150000186637","images/stimuli/spore_stims/complex_20_B_a.gif","images/stimuli/spore_stims/complex_11_A_d.gif","","","","","10","complex_dissimilar","images/stimuli/spore_stims/complex_11_A_d.gif","left","","","","",""
"","null","html-keyboard-response","202","614636","0.0-38.0-0.7","SS1613138856180","","","null","","","","","<p><img src= images/blank.png width =""200"" height = ""200"" style = ""float:right""></p><p><img src=images/blank.png width =""800"" height = ""200""></p>","","","","","","","","","","","",""
"","883.5550000076182","sequential-stimulus-presentation","203","616343","0.0-38.0-1.7","SS1613138856180","trial","","40","800","1683.5550000076182","images/stimuli/spore_stims/complex_20_B_a.gif","images/stimuli/spore_stims/complex_11_A_d.gif","","","","","10","complex_dissimilar","images/stimuli/spore_stims/complex_11_A_d.gif","left","","","","",""
"","1528.3899999922141","html-keyboard-response","204","617878","0.0-39.0","SS1613138856180","pref_question","","99","","","","","<video width ='960' height = '540' style='padding-top:8%' autoplay muted><source src='images/stimuli/wall_pref.mp4' type='video/mp4'></video>","3","right","66%","10","","","","","","","",""
"","481.9300000090152","sequential-stimulus-presentation","205","619203","0.0-40.0","SS1613138856180","pref_reveal","","40","800","1281.9300000090152","null","null","","","","","10","","","","novel","","","",""
"","null","html-keyboard-response","206","620257","0.0-41.0-0.0","SS1613138856180","","","null","","","","","<p><img src= images/blank.png width =""200"" height = ""200"" style = ""float:right""></p><p><img src=images/blank.png width =""800"" height = ""200""></p>","","","","","","","","","","","",""
"","541.1600000225008","sequential-stimulus-presentation","207","621647","0.0-41.0-1.0","SS1613138856180","trial","","40","800","1341.1600000225008","images/stimuli/spore_stims/complex_18_B_d.gif","images/stimuli/spore_stims/complex_15_B_d.gif","","","","","11","complex_dissimilar","images/stimuli/spore_stims/complex_15_B_d.gif","left","","","","",""
"","null","html-keyboard-response","208","622804","0.0-41.0-0.1","SS1613138856180","","","null","","","","","<p><img src= images/blank.png width =""200"" height = ""200"" style = ""float:right""></p><p><img src=images/blank.png width =""800"" height = ""200""></p>","","","","","","","","","","","",""
"","482.0550000295043","sequential-stimulus-presentation","209","624111","0.0-41.0-1.1","SS1613138856180","trial","","40","800","1282.0550000295043","images/stimuli/spore_stims/complex_18_B_d.gif","images/stimuli/spore_stims/complex_15_B_d.gif","","","","","11","complex_dissimilar","images/stimuli/spore_stims/complex_15_B_d.gif","left","","","","",""
"","null","html-keyboard-response","210","625174","0.0-41.0-0.2","SS1613138856180","","","null","","","","","<p><img src= images/blank.png width =""200"" height = ""200"" style = ""float:right""></p><p><img src=images/blank.png width =""800"" height = ""200""></p>","","","","","","","","","","","",""
"","507.7949999831617","sequential-stimulus-presentation","211","626519","0.0-41.0-1.2","SS1613138856180","trial","","40","800","1307.7949999831617","images/stimuli/spore_stims/complex_18_B_d.gif","images/stimuli/spore_stims/complex_15_B_d.gif","","","","","11","complex_dissimilar","images/stimuli/spore_stims/complex_15_B_d.gif","left","","","","",""
"","null","html-keyboard-response","212","627428","0.0-41.0-0.3","SS1613138856180","","","null","","","","","<p><img src= images/blank.png width =""200"" height = ""200"" style = ""float:right""></p><p><img src=images/blank.png width =""800"" height = ""200""></p>","","","","","","","","","","","",""
"","1513.1099999998696","sequential-stimulus-presentation","213","629773","0.0-41.0-1.3","SS1613138856180","trial","","40","800","2313.1099999998696","images/stimuli/spore_stims/complex_18_B_d.gif","images/stimuli/spore_stims/complex_15_B_d.gif","","","","","11","complex_dissimilar","images/stimuli/spore_stims/complex_15_B_d.gif","left","","","","",""
"","null","html-keyboard-response","214","630941","0.0-41.0-0.4","SS1613138856180","","","null","","","","","<p><img src= images/blank.png width =""200"" height = ""200"" style = ""float:right""></p><p><img src=images/blank.png width =""800"" height = ""200""></p>","","","","","","","","","","","",""
"","6083.879999991041","sequential-stimulus-presentation","215","637860","0.0-41.0-1.4","SS1613138856180","trial","","40","800","6883.879999991041","images/stimuli/spore_stims/complex_18_B_d.gif","images/stimuli/spore_stims/complex_15_B_d.gif","","","","","11","complex_dissimilar","images/stimuli/spore_stims/complex_15_B_d.gif","left","","","","",""
"","null","html-keyboard-response","216","638915","0.0-41.0-0.5","SS1613138856180","","","null","","","","","<p><img src= images/blank.png width =""200"" height = ""200"" style = ""float:right""></p><p><img src=images/blank.png width =""800"" height = ""200""></p>","","","","","","","","","","","",""
"","763.6150000034831","sequential-stimulus-presentation","217","640509","0.0-41.0-1.5","SS1613138856180","trial","","40","800","1563.6150000034831","images/stimuli/spore_stims/complex_18_B_d.gif","images/stimuli/spore_stims/complex_15_B_d.gif","","","","","11","complex_dissimilar","images/stimuli/spore_stims/complex_18_B_d.gif","right","","","","",""
"","null","html-keyboard-response","218","641809","0.0-41.0-0.6","SS1613138856180","","","null","","","","","<p><img src= images/blank.png width =""200"" height = ""200"" style = ""float:right""></p><p><img src=images/blank.png width =""800"" height = ""200""></p>","","","","","","","","","","","",""
"","2722.5750000216067","sequential-stimulus-presentation","219","645349","0.0-41.0-1.6","SS1613138856180","trial","","40","800","3522.5750000216067","images/stimuli/spore_stims/complex_18_B_d.gif","images/stimuli/spore_stims/complex_15_B_d.gif","","","","","11","complex_dissimilar","images/stimuli/spore_stims/complex_15_B_d.gif","left","","","","",""
"","null","html-keyboard-response","220","646476","0.0-41.0-0.7","SS1613138856180","","","null","","","","","<p><img src= images/blank.png width =""200"" height = ""200"" style = ""float:right""></p><p><img src=images/blank.png width =""800"" height = ""200""></p>","","","","","","","","","","","",""
"","1041.724999959115","sequential-stimulus-presentation","221","648331","0.0-41.0-1.7","SS1613138856180","trial","","40","800","1841.724999959115","images/stimuli/spore_stims/complex_18_B_d.gif","images/stimuli/spore_stims/complex_15_B_d.gif","","","","","11","complex_dissimilar","images/stimuli/spore_stims/complex_15_B_d.gif","left","","","","",""
"","2055.339999962598","html-keyboard-response","222","650395","0.0-42.0","SS1613138856180","pref_question","","98","","","","","<video width ='960' height = '540' style='padding-top:8%' autoplay muted><source src='images/stimuli/wall_pref.mp4' type='video/mp4'></video>","2","middle","45%","11","","","","","","","",""
"","686.2800000235438","sequential-stimulus-presentation","223","651899","0.0-43.0","SS1613138856180","pref_reveal","","40","800","1486.2800000235438","null","null","","","","","11","","","","novel","","","",""
"","null","html-keyboard-response","224","652814","0.0-44.0-0.0","SS1613138856180","","","null","","","","","<p><img src= images/blank.png width =""200"" height = ""200"" style = ""float:right""></p><p><img src=images/blank.png width =""800"" height = ""200""></p>","","","","","","","","","","","",""
"","552.1900000167079","sequential-stimulus-presentation","225","654194","0.0-44.0-1.0","SS1613138856180","trial","","40","800","1352.190000016708","images/stimuli/spore_stims/simple_16_B_d.gif","images/stimuli/spore_stims/simple_17_B_c.gif","","","","","12","simple_dissimilar","images/stimuli/spore_stims/simple_17_B_c.gif","left","","","","",""
"","null","html-keyboard-response","226","655021","0.0-44.0-0.1","SS1613138856180","","","null","","","","","<p><img src= images/blank.png width =""200"" height = ""200"" style = ""float:right""></p><p><img src=images/blank.png width =""800"" height = ""200""></p>","","","","","","","","","","","",""
"","554.9450000398792","sequential-stimulus-presentation","227","656403","0.0-44.0-1.1","SS1613138856180","trial","","40","800","1354.9450000398792","images/stimuli/spore_stims/simple_16_B_d.gif","images/stimuli/spore_stims/simple_17_B_c.gif","","","","","12","simple_dissimilar","images/stimuli/spore_stims/simple_17_B_c.gif","left","","","","",""
"","null","html-keyboard-response","228","657596","0.0-44.0-0.2","SS1613138856180","","","null","","","","","<p><img src= images/blank.png width =""200"" height = ""200"" style = ""float:right""></p><p><img src=images/blank.png width =""800"" height = ""200""></p>","","","","","","","","","","","",""
"","1023.2349999714643","sequential-stimulus-presentation","229","659450","0.0-44.0-1.2","SS1613138856180","trial","","40","800","1823.2349999714643","images/stimuli/spore_stims/simple_16_B_d.gif","images/stimuli/spore_stims/simple_17_B_c.gif","","","","","12","simple_dissimilar","images/stimuli/spore_stims/simple_17_B_c.gif","left","","","","",""
"","null","html-keyboard-response","230","660474","0.0-44.0-0.3","SS1613138856180","","","null","","","","","<p><img src= images/blank.png width =""200"" height = ""200"" style = ""float:right""></p><p><img src=images/blank.png width =""800"" height = ""200""></p>","","","","","","","","","","","",""
"","529.1999999899417","sequential-stimulus-presentation","231","661825","0.0-44.0-1.3","SS1613138856180","trial","","40","800","1329.1999999899417","images/stimuli/spore_stims/simple_16_B_d.gif","images/stimuli/spore_stims/simple_17_B_c.gif","","","","","12","simple_dissimilar","images/stimuli/spore_stims/simple_17_B_c.gif","left","","","","",""
"","null","html-keyboard-response","232","663095","0.0-44.0-0.4","SS1613138856180","","","null","","","","","<p><img src= images/blank.png width =""200"" height = ""200"" style = ""float:right""></p><p><img src=images/blank.png width =""800"" height = ""200""></p>","","","","","","","","","","","",""
"","635.2299999562092","sequential-stimulus-presentation","233","664553","0.0-44.0-1.4","SS1613138856180","trial","","40","800","1435.2299999562092","images/stimuli/spore_stims/simple_16_B_d.gif","images/stimuli/spore_stims/simple_17_B_c.gif","","","","","12","simple_dissimilar","images/stimuli/spore_stims/simple_17_B_c.gif","left","","","","",""
"","null","html-keyboard-response","234","665832","0.0-44.0-0.5","SS1613138856180","","","null","","","","","<p><img src= images/blank.png width =""200"" height = ""200"" style = ""float:right""></p><p><img src=images/blank.png width =""800"" height = ""200""></p>","","","","","","","","","","","",""
"","611.0899999621324","sequential-stimulus-presentation","235","667260","0.0-44.0-1.5","SS1613138856180","trial","","40","800","1411.0899999621324","images/stimuli/spore_stims/simple_16_B_d.gif","images/stimuli/spore_stims/simple_17_B_c.gif","","","","","12","simple_dissimilar","images/stimuli/spore_stims/simple_16_B_d.gif","middle","","","","",""
"","null","html-keyboard-response","236","668506","0.0-44.0-0.6","SS1613138856180","","","null","","","","","<p><img src= images/blank.png width =""200"" height = ""200"" style = ""float:right""></p><p><img src=images/blank.png width =""800"" height = ""200""></p>","","","","","","","","","","","",""
"","575.2799999900162","sequential-stimulus-presentation","237","669904","0.0-44.0-1.6","SS1613138856180","trial","","40","800","1375.2799999900162","images/stimuli/spore_stims/simple_16_B_d.gif","images/stimuli/spore_stims/simple_17_B_c.gif","","","","","12","simple_dissimilar","images/stimuli/spore_stims/simple_17_B_c.gif","left","","","","",""
"","null","html-keyboard-response","238","670807","0.0-44.0-0.7","SS1613138856180","","","null","","","","","<p><img src= images/blank.png width =""200"" height = ""200"" style = ""float:right""></p><p><img src=images/blank.png width =""800"" height = ""200""></p>","","","","","","","","","","","",""
"","563.0349999992177","sequential-stimulus-presentation","239","672185","0.0-44.0-1.7","SS1613138856180","trial","","40","800","1363.0349999992177","images/stimuli/spore_stims/simple_16_B_d.gif","images/stimuli/spore_stims/simple_17_B_c.gif","","","","","12","simple_dissimilar","images/stimuli/spore_stims/simple_17_B_c.gif","left","","","","",""
"","1672.820000036154","html-keyboard-response","240","673866","0.0-45.0","SS1613138856180","pref_question","","97","","","","","<video width ='960' height = '540' style='padding-top:8%' autoplay muted><source src='images/stimuli/wall_pref.mp4' type='video/mp4'></video>","1","left","25%","12","","","","","","","",""
"","970.6749999895692","sequential-stimulus-presentation","241","675648","0.0-46.0","SS1613138856180","pref_reveal","","40","800","1770.6749999895692","null","null","","","","","12","","","","background","","","",""
"","null","html-keyboard-response","242","676491","0.0-47.0-0.0","SS1613138856180","","","null","","","","","<p><img src= images/blank.png width =""200"" height = ""200"" style = ""float:right""></p><p><img src=images/blank.png width =""800"" height = ""200""></p>","","","","","","","","","","","",""
"","463.77000003121793","sequential-stimulus-presentation","243","677790","0.0-47.0-1.0","SS1613138856180","trial","","40","800","1263.770000031218","images/stimuli/spore_stims/simple_02_A_d.gif","images/stimuli/spore_stims/simple_10_A_b.gif","","","","","13","simple_dissimilar","images/stimuli/spore_stims/simple_10_A_b.gif","middle","","","","",""
"","null","html-keyboard-response","244","678761","0.0-47.0-0.1","SS1613138856180","","","null","","","","","<p><img src= images/blank.png width =""200"" height = ""200"" style = ""float:right""></p><p><img src=images/blank.png width =""800"" height = ""200""></p>","","","","","","","","","","","",""
"","549.1199999814853","sequential-stimulus-presentation","245","680151","0.0-47.0-1.1","SS1613138856180","trial","","40","800","1349.1199999814853","images/stimuli/spore_stims/simple_02_A_d.gif","images/stimuli/spore_stims/simple_10_A_b.gif","","","","","13","simple_dissimilar","images/stimuli/spore_stims/simple_10_A_b.gif","middle","","","","",""
"","null","html-keyboard-response","246","681336","0.0-47.0-0.2","SS1613138856180","","","null","","","","","<p><img src= images/blank.png width =""200"" height = ""200"" style = ""float:right""></p><p><img src=images/blank.png width =""800"" height = ""200""></p>","","","","","","","","","","","",""
"","707.460000005085","sequential-stimulus-presentation","247","682871","0.0-47.0-1.2","SS1613138856180","trial","","40","800","1507.460000005085","images/stimuli/spore_stims/simple_02_A_d.gif","images/stimuli/spore_stims/simple_10_A_b.gif","","","","","13","simple_dissimilar","images/stimuli/spore_stims/simple_02_A_d.gif","right","","","","",""
"","null","html-keyboard-response","248","683768","0.0-47.0-0.3","SS1613138856180","","","null","","","","","<p><img src= images/blank.png width =""200"" height = ""200"" style = ""float:right""></p><p><img src=images/blank.png width =""800"" height = ""200""></p>","","","","","","","","","","","",""
"","880.8150000404567","sequential-stimulus-presentation","249","685486","0.0-47.0-1.3","SS1613138856180","trial","","40","800","1680.8150000404567","images/stimuli/spore_stims/simple_02_A_d.gif","images/stimuli/spore_stims/simple_10_A_b.gif","","","","","13","simple_dissimilar","images/stimuli/spore_stims/simple_10_A_b.gif","middle","","","","",""
"","null","html-keyboard-response","250","686708","0.0-47.0-0.4","SS1613138856180","","","null","","","","","<p><img src= images/blank.png width =""200"" height = ""200"" style = ""float:right""></p><p><img src=images/blank.png width =""800"" height = ""200""></p>","","","","","","","","","","","",""
"","486.7499999818392","sequential-stimulus-presentation","251","688025","0.0-47.0-1.4","SS1613138856180","trial","","40","800","1286.7499999818392","images/stimuli/spore_stims/simple_02_A_d.gif","images/stimuli/spore_stims/simple_10_A_b.gif","","","","","13","simple_dissimilar","images/stimuli/spore_stims/simple_10_A_b.gif","middle","","","","",""
"","null","html-keyboard-response","252","689084","0.0-47.0-0.5","SS1613138856180","","","null","","","","","<p><img src= images/blank.png width =""200"" height = ""200"" style = ""float:right""></p><p><img src=images/blank.png width =""800"" height = ""200""></p>","","","","","","","","","","","",""
"","711.0199999879114","sequential-stimulus-presentation","253","690613","0.0-47.0-1.5","SS1613138856180","trial","","40","800","1511.0199999879114","images/stimuli/spore_stims/simple_02_A_d.gif","images/stimuli/spore_stims/simple_10_A_b.gif","","","","","13","simple_dissimilar","images/stimuli/spore_stims/simple_10_A_b.gif","middle","","","","",""
"","null","html-keyboard-response","254","691732","0.0-47.0-0.6","SS1613138856180","","","null","","","","","<p><img src= images/blank.png width =""200"" height = ""200"" style = ""float:right""></p><p><img src=images/blank.png width =""800"" height = ""200""></p>","","","","","","","","","","","",""
"","648.0650000157766","sequential-stimulus-presentation","255","693197","0.0-47.0-1.6","SS1613138856180","trial","","40","800","1448.0650000157766","images/stimuli/spore_stims/simple_02_A_d.gif","images/stimuli/spore_stims/simple_10_A_b.gif","","","","","13","simple_dissimilar","images/stimuli/spore_stims/simple_10_A_b.gif","middle","","","","",""
"","null","html-keyboard-response","256","694432","0.0-47.0-0.7","SS1613138856180","","","null","","","","","<p><img src= images/blank.png width =""200"" height = ""200"" style = ""float:right""></p><p><img src=images/blank.png width =""800"" height = ""200""></p>","","","","","","","","","","","",""
"","825.2450000145473","sequential-stimulus-presentation","257","696084","0.0-47.0-1.7","SS1613138856180","trial","","40","800","1625.2450000145473","images/stimuli/spore_stims/simple_02_A_d.gif","images/stimuli/spore_stims/simple_10_A_b.gif","","","","","13","simple_dissimilar","images/stimuli/spore_stims/simple_10_A_b.gif","middle","","","","",""
"","122840.8000000054","html-keyboard-response","258","818941","0.0-48.0","SS1613138856180","pref_question","","99","","","","","<video width ='960' height = '540' style='padding-top:8%' autoplay muted><source src='images/stimuli/wall_pref.mp4' type='video/mp4'></video>","3","right","66%","13","","","","","","","",""
"","359.119999979157","sequential-stimulus-presentation","259","820117","0.0-49.0","SS1613138856180","pref_reveal","","40","800","1159.119999979157","null","null","","","","","13","","","","deviant","","","",""
"","null","html-keyboard-response","260","821073","0.0-50.0-0.0","SS1613138856180","","","null","","","","","<p><img src= images/blank.png width =""200"" height = ""200"" style = ""float:right""></p><p><img src=images/blank.png width =""800"" height = ""200""></p>","","","","","","","","","","","",""
"","55.41500000981614","sequential-stimulus-presentation","261","821945","0.0-50.0-1.0","SS1613138856180","trial","","40","800","855.4150000098161","images/stimuli/spore_stims/simple_14_B_a.gif","images/stimuli/spore_stims/simple_16_A_b.gif","","","","","14","simple_dissimilar","images/stimuli/spore_stims/simple_16_A_b.gif","right","","","","",""
"","null","html-keyboard-response","262","822924","0.0-50.0-0.1","SS1613138856180","","","null","","","","","<p><img src= images/blank.png width =""200"" height = ""200"" style = ""float:right""></p><p><img src=images/blank.png width =""800"" height = ""200""></p>","","","","","","","","","","","",""
"","323.94999999087304","sequential-stimulus-presentation","263","824069","0.0-50.0-1.1","SS1613138856180","trial","","40","800","1123.949999990873","images/stimuli/spore_stims/simple_14_B_a.gif","images/stimuli/spore_stims/simple_16_A_b.gif","","","","","14","simple_dissimilar","images/stimuli/spore_stims/simple_16_A_b.gif","right","","","","",""
"","null","html-keyboard-response","264","824958","0.0-50.0-0.2","SS1613138856180","","","null","","","","","<p><img src= images/blank.png width =""200"" height = ""200"" style = ""float:right""></p><p><img src=images/blank.png width =""800"" height = ""200""></p>","","","","","","","","","","","",""
"","364.049999974668","sequential-stimulus-presentation","265","826165","0.0-50.0-1.2","SS1613138856180","trial","","40","800","1164.049999974668","images/stimuli/spore_stims/simple_14_B_a.gif","images/stimuli/spore_stims/simple_16_A_b.gif","","","","","14","simple_dissimilar","images/stimuli/spore_stims/simple_16_A_b.gif","right","","","","",""
"","null","html-keyboard-response","266","827144","0.0-50.0-0.3","SS1613138856180","","","null","","","","","<p><img src= images/blank.png width =""200"" height = ""200"" style = ""float:right""></p><p><img src=images/blank.png width =""800"" height = ""200""></p>","","","","","","","","","","","",""
"","539.8200000054203","sequential-stimulus-presentation","267","828506","0.0-50.0-1.3","SS1613138856180","trial","","40","800","1339.8200000054203","images/stimuli/spore_stims/simple_14_B_a.gif","images/stimuli/spore_stims/simple_16_A_b.gif","","","","","14","simple_dissimilar","images/stimuli/spore_stims/simple_16_A_b.gif","right","","","","",""
"","null","html-keyboard-response","268","829435","0.0-50.0-0.4","SS1613138856180","","","null","","","","","<p><img src= images/blank.png width =""200"" height = ""200"" style = ""float:right""></p><p><img src=images/blank.png width =""800"" height = ""200""></p>","","","","","","","","","","","",""
"","427.3499999544583","sequential-stimulus-presentation","269","830699","0.0-50.0-1.4","SS1613138856180","trial","","40","800","1227.3499999544583","images/stimuli/spore_stims/simple_14_B_a.gif","images/stimuli/spore_stims/simple_16_A_b.gif","","","","","14","simple_dissimilar","images/stimuli/spore_stims/simple_16_A_b.gif","right","","","","",""
"","null","html-keyboard-response","270","831559","0.0-50.0-0.5","SS1613138856180","","","null","","","","","<p><img src= images/blank.png width =""200"" height = ""200"" style = ""float:right""></p><p><img src=images/blank.png width =""800"" height = ""200""></p>","","","","","","","","","","","",""
"","483.4649999975227","sequential-stimulus-presentation","271","832866","0.0-50.0-1.5","SS1613138856180","trial","","40","800","1283.4649999975227","images/stimuli/spore_stims/simple_14_B_a.gif","images/stimuli/spore_stims/simple_16_A_b.gif","","","","","14","simple_dissimilar","images/stimuli/spore_stims/simple_16_A_b.gif","right","","","","",""
"","null","html-keyboard-response","272","834091","0.0-50.0-0.6","SS1613138856180","","","null","","","","","<p><img src= images/blank.png width =""200"" height = ""200"" style = ""float:right""></p><p><img src=images/blank.png width =""800"" height = ""200""></p>","","","","","","","","","","","",""
"","330.51500003784895","sequential-stimulus-presentation","273","835250","0.0-50.0-1.6","SS1613138856180","trial","","40","800","1130.515000037849","images/stimuli/spore_stims/simple_14_B_a.gif","images/stimuli/spore_stims/simple_16_A_b.gif","","","","","14","simple_dissimilar","images/stimuli/spore_stims/simple_14_B_a.gif","left","","","","",""
"","null","html-keyboard-response","274","836387","0.0-50.0-0.7","SS1613138856180","","","null","","","","","<p><img src= images/blank.png width =""200"" height = ""200"" style = ""float:right""></p><p><img src=images/blank.png width =""800"" height = ""200""></p>","","","","","","","","","","","",""
"","645.9949999698438","sequential-stimulus-presentation","275","837865","0.0-50.0-1.7","SS1613138856180","trial","","40","800","1445.9949999698438","images/stimuli/spore_stims/simple_14_B_a.gif","images/stimuli/spore_stims/simple_16_A_b.gif","","","","","14","simple_dissimilar","images/stimuli/spore_stims/simple_16_A_b.gif","right","","","","",""
"","1423.194999981206","html-keyboard-response","276","839299","0.0-51.0","SS1613138856180","pref_question","","97","","","","","<video width ='960' height = '540' style='padding-top:8%' autoplay muted><source src='images/stimuli/wall_pref.mp4' type='video/mp4'></video>","1","left","25%","14","","","","","","","",""
"","473.935000016354","sequential-stimulus-presentation","277","840585","0.0-52.0","SS1613138856180","pref_reveal","","40","800","1273.935000016354","null","null","","","","","14","","","","deviant","","","",""
"","null","html-keyboard-response","278","841505","0.0-53.0-0.0","SS1613138856180","","","null","","","","","<p><img src= images/blank.png width =""200"" height = ""200"" style = ""float:right""></p><p><img src=images/blank.png width =""800"" height = ""200""></p>","","","","","","","","","","","",""
"","398.9549999823794","sequential-stimulus-presentation","279","842750","0.0-53.0-1.0","SS1613138856180","trial","","40","800","1198.9549999823794","images/stimuli/spore_stims/simple_05_B_d.gif","images/stimuli/spore_stims/simple_05_A_d.gif","","","","","15","simple_similar","images/stimuli/spore_stims/simple_05_A_d.gif","left","","","","",""
"","null","html-keyboard-response","280","843900","0.0-53.0-0.1","SS1613138856180","","","null","","","","","<p><img src= images/blank.png width =""200"" height = ""200"" style = ""float:right""></p><p><img src=images/blank.png width =""800"" height = ""200""></p>","","","","","","","","","","","",""
"","446.8849999830127","sequential-stimulus-presentation","281","845171","0.0-53.0-1.1","SS1613138856180","trial","","40","800","1246.8849999830127","images/stimuli/spore_stims/simple_05_B_d.gif","images/stimuli/spore_stims/simple_05_A_d.gif","","","","","15","simple_similar","images/stimuli/spore_stims/simple_05_A_d.gif","left","","","","",""
"","null","html-keyboard-response","282","846197","0.0-53.0-0.2","SS1613138856180","","","null","","","","","<p><img src= images/blank.png width =""200"" height = ""200"" style = ""float:right""></p><p><img src=images/blank.png width =""800"" height = ""200""></p>","","","","","","","","","","","",""
"","500.1549999578856","sequential-stimulus-presentation","283","847528","0.0-53.0-1.2","SS1613138856180","trial","","40","800","1300.1549999578856","images/stimuli/spore_stims/simple_05_B_d.gif","images/stimuli/spore_stims/simple_05_A_d.gif","","","","","15","simple_similar","images/stimuli/spore_stims/simple_05_A_d.gif","left","","","","",""
"","null","html-keyboard-response","284","848718","0.0-53.0-0.3","SS1613138856180","","","null","","","","","<p><img src= images/blank.png width =""200"" height = ""200"" style = ""float:right""></p><p><img src=images/blank.png width =""800"" height = ""200""></p>","","","","","","","","","","","",""
"","908.3700000192039","sequential-stimulus-presentation","285","850567","0.0-53.0-1.3","SS1613138856180","trial","","40","800","1708.3700000192039","images/stimuli/spore_stims/simple_05_B_d.gif","images/stimuli/spore_stims/simple_05_A_d.gif","","","","","15","simple_similar","images/stimuli/spore_stims/simple_05_A_d.gif","left","","","","",""
"","null","html-keyboard-response","286","851665","0.0-53.0-0.4","SS1613138856180","","","null","","","","","<p><img src= images/blank.png width =""200"" height = ""200"" style = ""float:right""></p><p><img src=images/blank.png width =""800"" height = ""200""></p>","","","","","","","","","","","",""
"","573.595000023488","sequential-stimulus-presentation","287","853074","0.0-53.0-1.4","SS1613138856180","trial","","40","800","1373.595000023488","images/stimuli/spore_stims/simple_05_B_d.gif","images/stimuli/spore_stims/simple_05_A_d.gif","","","","","15","simple_similar","images/stimuli/spore_stims/simple_05_A_d.gif","left","","","","",""
"","null","html-keyboard-response","288","854170","0.0-53.0-0.5","SS1613138856180","","","null","","","","","<p><img src= images/blank.png width =""200"" height = ""200"" style = ""float:right""></p><p><img src=images/blank.png width =""800"" height = ""200""></p>","","","","","","","","","","","",""
"","350.5449999938719","sequential-stimulus-presentation","289","855337","0.0-53.0-1.5","SS1613138856180","trial","","40","800","1150.544999993872","images/stimuli/spore_stims/simple_05_B_d.gif","images/stimuli/spore_stims/simple_05_A_d.gif","","","","","15","simple_similar","images/stimuli/spore_stims/simple_05_A_d.gif","left","","","","",""
"","null","html-keyboard-response","290","856525","0.0-53.0-0.6","SS1613138856180","","","null","","","","","<p><img src= images/blank.png width =""200"" height = ""200"" style = ""float:right""></p><p><img src=images/blank.png width =""800"" height = ""200""></p>","","","","","","","","","","","",""
"","399.15499999187887","sequential-stimulus-presentation","291","857774","0.0-53.0-1.6","SS1613138856180","trial","","40","800","1199.1549999918789","images/stimuli/spore_stims/simple_05_B_d.gif","images/stimuli/spore_stims/simple_05_A_d.gif","","","","","15","simple_similar","images/stimuli/spore_stims/simple_05_B_d.gif","right","","","","",""
"","null","html-keyboard-response","292","859021","0.0-53.0-0.7","SS1613138856180","","","null","","","","","<p><img src= images/blank.png width =""200"" height = ""200"" style = ""float:right""></p><p><img src=images/blank.png width =""800"" height = ""200""></p>","","","","","","","","","","","",""
"","375.2699999604374","sequential-stimulus-presentation","293","860239","0.0-53.0-1.7","SS1613138856180","trial","","40","800","1175.2699999604374","images/stimuli/spore_stims/simple_05_B_d.gif","images/stimuli/spore_stims/simple_05_A_d.gif","","","","","15","simple_similar","images/stimuli/spore_stims/simple_05_A_d.gif","left","","","","",""
"","839.2250000033528","html-keyboard-response","294","861088","0.0-54.0","SS1613138856180","pref_question","","97","","","","","<video width ='960' height = '540' style='padding-top:8%' autoplay muted><source src='images/stimuli/wall_pref.mp4' type='video/mp4'></video>","1","left","25%","15","","","","","","","",""
"","480.6800000369549","sequential-stimulus-presentation","295","862389","0.0-55.0","SS1613138856180","pref_reveal","","40","800","1280.6800000369549","null","null","","","","","15","","","","background","","","",""
"","null","html-keyboard-response","296","863506","0.0-56.0-0.0","SS1613138856180","","","null","","","","","<p><img src= images/blank.png width =""200"" height = ""200"" style = ""float:right""></p><p><img src=images/blank.png width =""800"" height = ""200""></p>","","","","","","","","","","","",""
"","906.6750000347383","sequential-stimulus-presentation","297","865246","0.0-56.0-1.0","SS1613138856180","trial","","40","800","1706.6750000347383","images/stimuli/spore_stims/complex_10_A_b.gif","images/stimuli/spore_stims/complex_10_B_b.gif","","","","","16","complex_similar","images/stimuli/spore_stims/complex_10_B_b.gif","left","","","","",""
"","null","html-keyboard-response","298","866218","0.0-56.0-0.1","SS1613138856180","","","null","","","","","<p><img src= images/blank.png width =""200"" height = ""200"" style = ""float:right""></p><p><img src=images/blank.png width =""800"" height = ""200""></p>","","","","","","","","","","","",""
"","356.5299999900162","sequential-stimulus-presentation","299","867416","0.0-56.0-1.1","SS1613138856180","trial","","40","800","1156.5299999900162","images/stimuli/spore_stims/complex_10_A_b.gif","images/stimuli/spore_stims/complex_10_B_b.gif","","","","","16","complex_similar","images/stimuli/spore_stims/complex_10_B_b.gif","left","","","","",""
"","null","html-keyboard-response","300","868494","0.0-56.0-0.2","SS1613138856180","","","null","","","","","<p><img src= images/blank.png width =""200"" height = ""200"" style = ""float:right""></p><p><img src=images/blank.png width =""800"" height = ""200""></p>","","","","","","","","","","","",""
"","400.2599999657832","sequential-stimulus-presentation","301","869710","0.0-56.0-1.2","SS1613138856180","trial","","40","800","1200.2599999657832","images/stimuli/spore_stims/complex_10_A_b.gif","images/stimuli/spore_stims/complex_10_B_b.gif","","","","","16","complex_similar","images/stimuli/spore_stims/complex_10_A_b.gif","middle","","","","",""
"","null","html-keyboard-response","302","870603","0.0-56.0-0.3","SS1613138856180","","","null","","","","","<p><img src= images/blank.png width =""200"" height = ""200"" style = ""float:right""></p><p><img src=images/blank.png width =""800"" height = ""200""></p>","","","","","","","","","","","",""
"","463.9200000092387","sequential-stimulus-presentation","303","871959","0.0-56.0-1.3","SS1613138856180","trial","","40","800","1263.9200000092387","images/stimuli/spore_stims/complex_10_A_b.gif","images/stimuli/spore_stims/complex_10_B_b.gif","","","","","16","complex_similar","images/stimuli/spore_stims/complex_10_B_b.gif","left","","","","",""
"","null","html-keyboard-response","304","873012","0.0-56.0-0.4","SS1613138856180","","","null","","","","","<p><img src= images/blank.png width =""200"" height = ""200"" style = ""float:right""></p><p><img src=images/blank.png width =""800"" height = ""200""></p>","","","","","","","","","","","",""
"","388.1650000112131","sequential-stimulus-presentation","305","874246","0.0-56.0-1.4","SS1613138856180","trial","","40","800","1188.1650000112131","images/stimuli/spore_stims/complex_10_A_b.gif","images/stimuli/spore_stims/complex_10_B_b.gif","","","","","16","complex_similar","images/stimuli/spore_stims/complex_10_B_b.gif","left","","","","",""
"","null","html-keyboard-response","306","875315","0.0-56.0-0.5","SS1613138856180","","","null","","","","","<p><img src= images/blank.png width =""200"" height = ""200"" style = ""float:right""></p><p><img src=images/blank.png width =""800"" height = ""200""></p>","","","","","","","","","","","",""
"","596.3599999668077","sequential-stimulus-presentation","307","876740","0.0-56.0-1.5","SS1613138856180","trial","","40","800","1396.3599999668077","images/stimuli/spore_stims/complex_10_A_b.gif","images/stimuli/spore_stims/complex_10_B_b.gif","","","","","16","complex_similar","images/stimuli/spore_stims/complex_10_B_b.gif","left","","","","",""
"","null","html-keyboard-response","308","877969","0.0-56.0-0.6","SS1613138856180","","","null","","","","","<p><img src= images/blank.png width =""200"" height = ""200"" style = ""float:right""></p><p><img src=images/blank.png width =""800"" height = ""200""></p>","","","","","","","","","","","",""
"","327.7100000414066","sequential-stimulus-presentation","309","879141","0.0-56.0-1.6","SS1613138856180","trial","","40","800","1127.7100000414066","images/stimuli/spore_stims/complex_10_A_b.gif","images/stimuli/spore_stims/complex_10_B_b.gif","","","","","16","complex_similar","images/stimuli/spore_stims/complex_10_B_b.gif","left","","","","",""
"","null","html-keyboard-response","310","880151","0.0-56.0-0.7","SS1613138856180","","","null","","","","","<p><img src= images/blank.png width =""200"" height = ""200"" style = ""float:right""></p><p><img src=images/blank.png width =""800"" height = ""200""></p>","","","","","","","","","","","",""
"","418.3600000105798","sequential-stimulus-presentation","311","881405","0.0-56.0-1.7","SS1613138856180","trial","","40","800","1218.3600000105798","images/stimuli/spore_stims/complex_10_A_b.gif","images/stimuli/spore_stims/complex_10_B_b.gif","","","","","16","complex_similar","images/stimuli/spore_stims/complex_10_B_b.gif","left","","","","",""
"","1408.3749999990687","html-keyboard-response","312","882822","0.0-57.0","SS1613138856180","pref_question","","99","","","","","<video width ='960' height = '540' style='padding-top:8%' autoplay muted><source src='images/stimuli/wall_pref.mp4' type='video/mp4'></video>","3","right","66%","16","","","","","","","",""
