"view_history","rt","trial_type","trial_index","time_elapsed","internal_node_id","subject","stimulus_type","trial_stimulus","key_press","minimum_viewing_duration","trial_looking_time","block_deviant","block_background","stimulus","wall_pref","location","location_percent","block_number","block_type","stimulus_displayed","position_displayed","stim_type_selected"
"[{""page_index"":0,""viewing_time"":2676.7699997872114}]","2677.9950000345707","instructions","0","2682","0.0-0.0","SS1613139560548","","","","","","","","","","","","","","","",""
"[{""page_index"":0,""viewing_time"":2115.7500008121133},{""page_index"":1,""viewing_time"":5160.325000062585}]","7276.985000818968","instructions","1","11968","0.0-1.0","SS1613139560548","instructions","","","","","","","","","","","","","","",""
"","1509.9150007590652","sequential-stimulus-presentation","2","14297","0.0-2.0","SS1613139560548","","","40","800","2309.915000759065","null","null","","","","","","","","",""
"","450.2649996429682","sequential-stimulus-presentation","3","15554","0.0-3.0","SS1613139560548","","","40","800","1250.2649996429682","null","null","","","","","","","","",""
"[{""page_index"":0,""viewing_time"":3577.355000190437}]","3578.2700004056096","instructions","4","19139","0.0-4.0","SS1613139560548","instructions","","","","","","","","","","","","","","",""
"","2380.0500007346272","html-keyboard-response","5","21530","0.0-5.0","SS1613139560548","instructions","","50","","","","","<video width ='960' height = '540' autoplay muted><source src='images/stimuli/wall_pref.mp4' type='video/mp4'></video>","2","middle","45%","","","","",""
"","1357.005000114441","sequential-stimulus-presentation","6","23710","0.0-6.0","SS1613139560548","pref_reveal","","40","800","2157.005000114441","null","null","","","","","","","","",""
"[{""page_index"":0,""viewing_time"":1364.7250002250075},{""page_index"":1,""viewing_time"":1352.5799997150898},{""page_index"":2,""viewing_time"":1447.6100001484156},{""page_index"":3,""viewing_time"":1216.2850005552173}]","5381.90000038594","instructions","7","29096","0.0-7.0","SS1613139560548","instructions","","","","","","","","","","","","","","",""
"","null","html-keyboard-response","8","30257","0.0-8.0-0.0","SS1613139560548","","","null","","","","","<p><img src= images/blank.png width =""200"" height = ""200"" style = ""float:right""></p><p><img src=images/blank.png width =""800"" height = ""200""></p>","","","","","","","",""
"","1.2849997729063034","sequential-stimulus-presentation","9","31080","0.0-8.0-1.0","SS1613139560548","trial","","40","800","801.2849997729063","images/stimuli/spore_stims/simple_06_B_a.gif","images/stimuli/spore_stims/simple_17_A_d.gif","","","","","0","simple_dissimilar","images/stimuli/spore_stims/simple_17_A_d.gif","left",""
"","null","html-keyboard-response","10","31919","0.0-8.0-0.1","SS1613139560548","","","null","","","","","<p><img src= images/blank.png width =""200"" height = ""200"" style = ""float:right""></p><p><img src=images/blank.png width =""800"" height = ""200""></p>","","","","","","","",""
"","887.1400002390146","sequential-stimulus-presentation","11","33636","0.0-8.0-1.1","SS1613139560548","trial","","40","800","1687.1400002390146","images/stimuli/spore_stims/simple_06_B_a.gif","images/stimuli/spore_stims/simple_17_A_d.gif","","","","","0","simple_dissimilar","images/stimuli/spore_stims/simple_17_A_d.gif","left",""
"","null","html-keyboard-response","12","34776","0.0-8.0-0.2","SS1613139560548","","","null","","","","","<p><img src= images/blank.png width =""200"" height = ""200"" style = ""float:right""></p><p><img src=images/blank.png width =""800"" height = ""200""></p>","","","","","","","",""
"","209.4649998471141","sequential-stimulus-presentation","13","35805","0.0-8.0-1.2","SS1613139560548","trial","","40","800","1009.4649998471141","images/stimuli/spore_stims/simple_06_B_a.gif","images/stimuli/spore_stims/simple_17_A_d.gif","","","","","0","simple_dissimilar","images/stimuli/spore_stims/simple_17_A_d.gif","left",""
"","null","html-keyboard-response","14","36895","0.0-8.0-0.3","SS1613139560548","","","null","","","","","<p><img src= images/blank.png width =""200"" height = ""200"" style = ""float:right""></p><p><img src=images/blank.png width =""800"" height = ""200""></p>","","","","","","","",""
"","185.85499934852123","sequential-stimulus-presentation","15","37892","0.0-8.0-1.3","SS1613139560548","trial","","40","800","985.8549993485212","images/stimuli/spore_stims/simple_06_B_a.gif","images/stimuli/spore_stims/simple_17_A_d.gif","","","","","0","simple_dissimilar","images/stimuli/spore_stims/simple_17_A_d.gif","left",""
"","null","html-keyboard-response","16","38935","0.0-8.0-0.4","SS1613139560548","","","null","","","","","<p><img src= images/blank.png width =""200"" height = ""200"" style = ""float:right""></p><p><img src=images/blank.png width =""800"" height = ""200""></p>","","","","","","","",""
"","91.50499943643808","sequential-stimulus-presentation","17","39849","0.0-8.0-1.4","SS1613139560548","trial","","40","800","891.5049994364381","images/stimuli/spore_stims/simple_06_B_a.gif","images/stimuli/spore_stims/simple_17_A_d.gif","","","","","0","simple_dissimilar","images/stimuli/spore_stims/simple_17_A_d.gif","left",""
"","null","html-keyboard-response","18","41027","0.0-8.0-0.5","SS1613139560548","","","null","","","","","<p><img src= images/blank.png width =""200"" height = ""200"" style = ""float:right""></p><p><img src=images/blank.png width =""800"" height = ""200""></p>","","","","","","","",""
"","94.70999985933304","sequential-stimulus-presentation","19","41930","0.0-8.0-1.5","SS1613139560548","trial","","40","800","894.709999859333","images/stimuli/spore_stims/simple_06_B_a.gif","images/stimuli/spore_stims/simple_17_A_d.gif","","","","","0","simple_dissimilar","images/stimuli/spore_stims/simple_06_B_a.gif","right",""
"","null","html-keyboard-response","20","43082","0.0-8.0-0.6","SS1613139560548","","","null","","","","","<p><img src= images/blank.png width =""200"" height = ""200"" style = ""float:right""></p><p><img src=images/blank.png width =""800"" height = ""200""></p>","","","","","","","",""
"","127.05499958246946","sequential-stimulus-presentation","21","44024","0.0-8.0-1.6","SS1613139560548","trial","","40","800","927.0549995824695","images/stimuli/spore_stims/simple_06_B_a.gif","images/stimuli/spore_stims/simple_17_A_d.gif","","","","","0","simple_dissimilar","images/stimuli/spore_stims/simple_17_A_d.gif","left",""
"","null","html-keyboard-response","22","44987","0.0-8.0-0.7","SS1613139560548","","","null","","","","","<p><img src= images/blank.png width =""200"" height = ""200"" style = ""float:right""></p><p><img src=images/blank.png width =""800"" height = ""200""></p>","","","","","","","",""
"","97.26500045508146","sequential-stimulus-presentation","23","45895","0.0-8.0-1.7","SS1613139560548","trial","","40","800","897.2650004550815","images/stimuli/spore_stims/simple_06_B_a.gif","images/stimuli/spore_stims/simple_17_A_d.gif","","","","","0","simple_dissimilar","images/stimuli/spore_stims/simple_17_A_d.gif","left",""
"","2226.5750002115965","html-keyboard-response","24","48171","0.0-9.0","SS1613139560548","pref_question","","50","","","","","<video width ='960' height = '540' style='padding-top:8%' autoplay muted><source src='images/stimuli/wall_pref.mp4' type='video/mp4'></video>","2","middle","45%","0","","","",""
"","107.99000039696693","sequential-stimulus-presentation","25","49088","0.0-10.0","SS1613139560548","pref_reveal","","40","800","907.9900003969669","null","null","","","","","0","","","","novel"
"","null","html-keyboard-response","26","50319","0.0-11.0-0.0","SS1613139560548","","","null","","","","","<p><img src= images/blank.png width =""200"" height = ""200"" style = ""float:right""></p><p><img src=images/blank.png width =""800"" height = ""200""></p>","","","","","","","",""
"","57.37499985843897","sequential-stimulus-presentation","27","51190","0.0-11.0-1.0","SS1613139560548","trial","","40","800","857.374999858439","images/stimuli/spore_stims/complex_15_A_b.gif","images/stimuli/spore_stims/complex_15_B_b.gif","","","","","1","complex_similar","images/stimuli/spore_stims/complex_15_B_b.gif","right",""
"","null","html-keyboard-response","28","52281","0.0-11.0-0.1","SS1613139560548","","","null","","","","","<p><img src= images/blank.png width =""200"" height = ""200"" style = ""float:right""></p><p><img src=images/blank.png width =""800"" height = ""200""></p>","","","","","","","",""
"","163.5149996727705","sequential-stimulus-presentation","29","53258","0.0-11.0-1.1","SS1613139560548","trial","","40","800","963.5149996727705","images/stimuli/spore_stims/complex_15_A_b.gif","images/stimuli/spore_stims/complex_15_B_b.gif","","","","","1","complex_similar","images/stimuli/spore_stims/complex_15_B_b.gif","right",""
"","null","html-keyboard-response","30","54316","0.0-11.0-0.2","SS1613139560548","","","null","","","","","<p><img src= images/blank.png width =""200"" height = ""200"" style = ""float:right""></p><p><img src=images/blank.png width =""800"" height = ""200""></p>","","","","","","","",""
"","62.774999998509884","sequential-stimulus-presentation","31","55192","0.0-11.0-1.2","SS1613139560548","trial","","40","800","862.7749999985099","images/stimuli/spore_stims/complex_15_A_b.gif","images/stimuli/spore_stims/complex_15_B_b.gif","","","","","1","complex_similar","images/stimuli/spore_stims/complex_15_B_b.gif","right",""
"","null","html-keyboard-response","32","56396","0.0-11.0-0.3","SS1613139560548","","","null","","","","","<p><img src= images/blank.png width =""200"" height = ""200"" style = ""float:right""></p><p><img src=images/blank.png width =""800"" height = ""200""></p>","","","","","","","",""
"","0.7450003176927567","sequential-stimulus-presentation","33","57217","0.0-11.0-1.3","SS1613139560548","trial","","40","800","800.7450003176928","images/stimuli/spore_stims/complex_15_A_b.gif","images/stimuli/spore_stims/complex_15_B_b.gif","","","","","1","complex_similar","images/stimuli/spore_stims/complex_15_B_b.gif","right",""
"","null","html-keyboard-response","34","58128","0.0-11.0-0.4","SS1613139560548","","","null","","","","","<p><img src= images/blank.png width =""200"" height = ""200"" style = ""float:right""></p><p><img src=images/blank.png width =""800"" height = ""200""></p>","","","","","","","",""
"","78.00500001758337","sequential-stimulus-presentation","35","59022","0.0-11.0-1.4","SS1613139560548","trial","","40","800","878.0050000175834","images/stimuli/spore_stims/complex_15_A_b.gif","images/stimuli/spore_stims/complex_15_B_b.gif","","","","","1","complex_similar","images/stimuli/spore_stims/complex_15_B_b.gif","right",""
"","null","html-keyboard-response","36","60018","0.0-11.0-0.5","SS1613139560548","","","null","","","","","<p><img src= images/blank.png width =""200"" height = ""200"" style = ""float:right""></p><p><img src=images/blank.png width =""800"" height = ""200""></p>","","","","","","","",""
"","63.17499931901693","sequential-stimulus-presentation","37","60889","0.0-11.0-1.5","SS1613139560548","trial","","40","800","863.1749993190169","images/stimuli/spore_stims/complex_15_A_b.gif","images/stimuli/spore_stims/complex_15_B_b.gif","","","","","1","complex_similar","images/stimuli/spore_stims/complex_15_A_b.gif","middle",""
"","null","html-keyboard-response","38","61859","0.0-11.0-0.6","SS1613139560548","","","null","","","","","<p><img src= images/blank.png width =""200"" height = ""200"" style = ""float:right""></p><p><img src=images/blank.png width =""800"" height = ""200""></p>","","","","","","","",""
"","90.16000013798475","sequential-stimulus-presentation","39","62802","0.0-11.0-1.6","SS1613139560548","trial","","40","800","890.1600001379848","images/stimuli/spore_stims/complex_15_A_b.gif","images/stimuli/spore_stims/complex_15_B_b.gif","","","","","1","complex_similar","images/stimuli/spore_stims/complex_15_B_b.gif","right",""
"","null","html-keyboard-response","40","63916","0.0-11.0-0.7","SS1613139560548","","","null","","","","","<p><img src= images/blank.png width =""200"" height = ""200"" style = ""float:right""></p><p><img src=images/blank.png width =""800"" height = ""200""></p>","","","","","","","",""
"","205.23499976843596","sequential-stimulus-presentation","41","64932","0.0-11.0-1.7","SS1613139560548","trial","","40","800","1005.234999768436","images/stimuli/spore_stims/complex_15_A_b.gif","images/stimuli/spore_stims/complex_15_B_b.gif","","","","","1","complex_similar","images/stimuli/spore_stims/complex_15_B_b.gif","right",""
"","1746.8699999153614","html-keyboard-response","42","66689","0.0-12.0","SS1613139560548","pref_question","","51","","","","","<video width ='960' height = '540' style='padding-top:8%' autoplay muted><source src='images/stimuli/wall_pref.mp4' type='video/mp4'></video>","3","right","66%","1","","","",""
"","147.0799995586276","sequential-stimulus-presentation","43","67650","0.0-13.0","SS1613139560548","pref_reveal","","40","800","947.0799995586276","null","null","","","","","1","","","","background"
"","null","html-keyboard-response","44","68927","0.0-14.0-0.0","SS1613139560548","","","null","","","","","<p><img src= images/blank.png width =""200"" height = ""200"" style = ""float:right""></p><p><img src=images/blank.png width =""800"" height = ""200""></p>","","","","","","","",""
"","208.67499988526106","sequential-stimulus-presentation","45","69984","0.0-14.0-1.0","SS1613139560548","trial","","40","800","1008.6749998852611","images/stimuli/spore_stims/complex_10_B_d.gif","images/stimuli/spore_stims/complex_10_A_d.gif","","","","","2","complex_similar","images/stimuli/spore_stims/complex_10_A_d.gif","middle",""
"","null","html-keyboard-response","46","70895","0.0-14.0-0.1","SS1613139560548","","","null","","","","","<p><img src= images/blank.png width =""200"" height = ""200"" style = ""float:right""></p><p><img src=images/blank.png width =""800"" height = ""200""></p>","","","","","","","",""
"","108.38000010699034","sequential-stimulus-presentation","47","71818","0.0-14.0-1.1","SS1613139560548","trial","","40","800","908.3800001069903","images/stimuli/spore_stims/complex_10_B_d.gif","images/stimuli/spore_stims/complex_10_A_d.gif","","","","","2","complex_similar","images/stimuli/spore_stims/complex_10_A_d.gif","middle",""
"","null","html-keyboard-response","48","72787","0.0-14.0-0.2","SS1613139560548","","","null","","","","","<p><img src= images/blank.png width =""200"" height = ""200"" style = ""float:right""></p><p><img src=images/blank.png width =""800"" height = ""200""></p>","","","","","","","",""
"","147.18000032007694","sequential-stimulus-presentation","49","73744","0.0-14.0-1.2","SS1613139560548","trial","","40","800","947.1800003200769","images/stimuli/spore_stims/complex_10_B_d.gif","images/stimuli/spore_stims/complex_10_A_d.gif","","","","","2","complex_similar","images/stimuli/spore_stims/complex_10_A_d.gif","middle",""
"","null","html-keyboard-response","50","74624","0.0-14.0-0.3","SS1613139560548","","","null","","","","","<p><img src= images/blank.png width =""200"" height = ""200"" style = ""float:right""></p><p><img src=images/blank.png width =""800"" height = ""200""></p>","","","","","","","",""
"","120.12999970465899","sequential-stimulus-presentation","51","75553","0.0-14.0-1.3","SS1613139560548","trial","","40","800","920.129999704659","images/stimuli/spore_stims/complex_10_B_d.gif","images/stimuli/spore_stims/complex_10_A_d.gif","","","","","2","complex_similar","images/stimuli/spore_stims/complex_10_A_d.gif","middle",""
"","null","html-keyboard-response","52","76696","0.0-14.0-0.4","SS1613139560548","","","null","","","","","<p><img src= images/blank.png width =""200"" height = ""200"" style = ""float:right""></p><p><img src=images/blank.png width =""800"" height = ""200""></p>","","","","","","","",""
"","148.4000002965331","sequential-stimulus-presentation","53","77657","0.0-14.0-1.4","SS1613139560548","trial","","40","800","948.4000002965331","images/stimuli/spore_stims/complex_10_B_d.gif","images/stimuli/spore_stims/complex_10_A_d.gif","","","","","2","complex_similar","images/stimuli/spore_stims/complex_10_A_d.gif","middle",""
"","null","html-keyboard-response","54","78816","0.0-14.0-0.5","SS1613139560548","","","null","","","","","<p><img src= images/blank.png width =""200"" height = ""200"" style = ""float:right""></p><p><img src=images/blank.png width =""800"" height = ""200""></p>","","","","","","","",""
"","153.5099996253848","sequential-stimulus-presentation","55","79781","0.0-14.0-1.5","SS1613139560548","trial","","40","800","953.5099996253848","images/stimuli/spore_stims/complex_10_B_d.gif","images/stimuli/spore_stims/complex_10_A_d.gif","","","","","2","complex_similar","images/stimuli/spore_stims/complex_10_B_d.gif","left",""
"","null","html-keyboard-response","56","80830","0.0-14.0-0.6","SS1613139560548","","","null","","","","","<p><img src= images/blank.png width =""200"" height = ""200"" style = ""float:right""></p><p><img src=images/blank.png width =""800"" height = ""200""></p>","","","","","","","",""
"","35.41999962180853","sequential-stimulus-presentation","57","81673","0.0-14.0-1.6","SS1613139560548","trial","","40","800","835.4199996218085","images/stimuli/spore_stims/complex_10_B_d.gif","images/stimuli/spore_stims/complex_10_A_d.gif","","","","","2","complex_similar","images/stimuli/spore_stims/complex_10_A_d.gif","middle",""
"","null","html-keyboard-response","58","82837","0.0-14.0-0.7","SS1613139560548","","","null","","","","","<p><img src= images/blank.png width =""200"" height = ""200"" style = ""float:right""></p><p><img src=images/blank.png width =""800"" height = ""200""></p>","","","","","","","",""
"","129.38500009477139","sequential-stimulus-presentation","59","83776","0.0-14.0-1.7","SS1613139560548","trial","","40","800","929.3850000947714","images/stimuli/spore_stims/complex_10_B_d.gif","images/stimuli/spore_stims/complex_10_A_d.gif","","","","","2","complex_similar","images/stimuli/spore_stims/complex_10_A_d.gif","middle",""
"","1611.3299997523427","html-keyboard-response","60","85397","0.0-15.0","SS1613139560548","pref_question","","49","","","","","<video width ='960' height = '540' style='padding-top:8%' autoplay muted><source src='images/stimuli/wall_pref.mp4' type='video/mp4'></video>","1","left","25%","2","","","",""
"","15.999999828636646","sequential-stimulus-presentation","61","86230","0.0-16.0","SS1613139560548","pref_reveal","","40","800","815.9999998286366","null","null","","","","","2","","","","deviant"
"","null","html-keyboard-response","62","87297","0.0-17.0-0.0","SS1613139560548","","","null","","","","","<p><img src= images/blank.png width =""200"" height = ""200"" style = ""float:right""></p><p><img src=images/blank.png width =""800"" height = ""200""></p>","","","","","","","",""
"","193.3699995279312","sequential-stimulus-presentation","63","88340","0.0-17.0-1.0","SS1613139560548","trial","","40","800","993.3699995279312","images/stimuli/spore_stims/simple_14_A_d.gif","images/stimuli/spore_stims/simple_14_B_d.gif","","","","","3","simple_similar","images/stimuli/spore_stims/simple_14_B_d.gif","right",""
"","null","html-keyboard-response","64","89342","0.0-17.0-0.1","SS1613139560548","","","null","","","","","<p><img src= images/blank.png width =""200"" height = ""200"" style = ""float:right""></p><p><img src=images/blank.png width =""800"" height = ""200""></p>","","","","","","","",""
"","36.21499985456467","sequential-stimulus-presentation","65","90202","0.0-17.0-1.1","SS1613139560548","trial","","40","800","836.2149998545647","images/stimuli/spore_stims/simple_14_A_d.gif","images/stimuli/spore_stims/simple_14_B_d.gif","","","","","3","simple_similar","images/stimuli/spore_stims/simple_14_B_d.gif","right",""
"","null","html-keyboard-response","66","91302","0.0-17.0-0.2","SS1613139560548","","","null","","","","","<p><img src= images/blank.png width =""200"" height = ""200"" style = ""float:right""></p><p><img src=images/blank.png width =""800"" height = ""200""></p>","","","","","","","",""
"","127.17000022530556","sequential-stimulus-presentation","67","92240","0.0-17.0-1.2","SS1613139560548","trial","","40","800","927.1700002253056","images/stimuli/spore_stims/simple_14_A_d.gif","images/stimuli/spore_stims/simple_14_B_d.gif","","","","","3","simple_similar","images/stimuli/spore_stims/simple_14_B_d.gif","right",""
"","null","html-keyboard-response","68","93153","0.0-17.0-0.3","SS1613139560548","","","null","","","","","<p><img src= images/blank.png width =""200"" height = ""200"" style = ""float:right""></p><p><img src=images/blank.png width =""800"" height = ""200""></p>","","","","","","","",""
"","90.12999944388866","sequential-stimulus-presentation","69","94056","0.0-17.0-1.3","SS1613139560548","trial","","40","800","890.1299994438887","images/stimuli/spore_stims/simple_14_A_d.gif","images/stimuli/spore_stims/simple_14_B_d.gif","","","","","3","simple_similar","images/stimuli/spore_stims/simple_14_B_d.gif","right",""
"","null","html-keyboard-response","70","95251","0.0-17.0-0.4","SS1613139560548","","","null","","","","","<p><img src= images/blank.png width =""200"" height = ""200"" style = ""float:right""></p><p><img src=images/blank.png width =""800"" height = ""200""></p>","","","","","","","",""
"","73.29000066965818","sequential-stimulus-presentation","71","96180","0.0-17.0-1.4","SS1613139560548","trial","","40","800","873.2900006696582","images/stimuli/spore_stims/simple_14_A_d.gif","images/stimuli/spore_stims/simple_14_B_d.gif","","","","","3","simple_similar","images/stimuli/spore_stims/simple_14_B_d.gif","right",""
"","null","html-keyboard-response","72","97117","0.0-17.0-0.5","SS1613139560548","","","null","","","","","<p><img src= images/blank.png width =""200"" height = ""200"" style = ""float:right""></p><p><img src=images/blank.png width =""800"" height = ""200""></p>","","","","","","","",""
"","48.664999194443226","sequential-stimulus-presentation","73","97976","0.0-17.0-1.5","SS1613139560548","trial","","40","800","848.6649991944432","images/stimuli/spore_stims/simple_14_A_d.gif","images/stimuli/spore_stims/simple_14_B_d.gif","","","","","3","simple_similar","images/stimuli/spore_stims/simple_14_B_d.gif","right",""
"","null","html-keyboard-response","74","99121","0.0-17.0-0.6","SS1613139560548","","","null","","","","","<p><img src= images/blank.png width =""200"" height = ""200"" style = ""float:right""></p><p><img src=images/blank.png width =""800"" height = ""200""></p>","","","","","","","",""
"","190.50499983131886","sequential-stimulus-presentation","75","100125","0.0-17.0-1.6","SS1613139560548","trial","","40","800","990.5049998313189","images/stimuli/spore_stims/simple_14_A_d.gif","images/stimuli/spore_stims/simple_14_B_d.gif","","","","","3","simple_similar","images/stimuli/spore_stims/simple_14_B_d.gif","right",""
"","null","html-keyboard-response","76","101284","0.0-17.0-0.7","SS1613139560548","","","null","","","","","<p><img src= images/blank.png width =""200"" height = ""200"" style = ""float:right""></p><p><img src=images/blank.png width =""800"" height = ""200""></p>","","","","","","","",""
"","87.74000033736229","sequential-stimulus-presentation","77","102183","0.0-17.0-1.7","SS1613139560548","trial","","40","800","887.7400003373623","images/stimuli/spore_stims/simple_14_A_d.gif","images/stimuli/spore_stims/simple_14_B_d.gif","","","","","3","simple_similar","images/stimuli/spore_stims/simple_14_A_d.gif","middle",""
"","1818.389999680221","html-keyboard-response","78","104013","0.0-18.0","SS1613139560548","pref_question","","49","","","","","<video width ='960' height = '540' style='padding-top:8%' autoplay muted><source src='images/stimuli/wall_pref.mp4' type='video/mp4'></video>","1","left","25%","3","","","",""
"","47.515000216662884","sequential-stimulus-presentation","79","104879","0.0-19.0","SS1613139560548","pref_reveal","","40","800","847.5150002166629","null","null","","","","","3","","","","novel"
"","null","html-keyboard-response","80","106160","0.0-20.0-0.0","SS1613139560548","","","null","","","","","<p><img src= images/blank.png width =""200"" height = ""200"" style = ""float:right""></p><p><img src=images/blank.png width =""800"" height = ""200""></p>","","","","","","","",""
"","176.83999985456467","sequential-stimulus-presentation","81","107149","0.0-20.0-1.0","SS1613139560548","trial","","40","800","976.8399998545647","images/stimuli/spore_stims/complex_13_A_a.gif","images/stimuli/spore_stims/complex_13_B_a.gif","","","","","4","complex_similar","images/stimuli/spore_stims/complex_13_B_a.gif","middle",""
"","null","html-keyboard-response","82","108015","0.0-20.0-0.1","SS1613139560548","","","null","","","","","<p><img src= images/blank.png width =""200"" height = ""200"" style = ""float:right""></p><p><img src=images/blank.png width =""800"" height = ""200""></p>","","","","","","","",""
"","27.000000700354576","sequential-stimulus-presentation","83","108853","0.0-20.0-1.1","SS1613139560548","trial","","40","800","827.0000007003546","images/stimuli/spore_stims/complex_13_A_a.gif","images/stimuli/spore_stims/complex_13_B_a.gif","","","","","4","complex_similar","images/stimuli/spore_stims/complex_13_B_a.gif","middle",""
"","null","html-keyboard-response","84","109953","0.0-20.0-0.2","SS1613139560548","","","null","","","","","<p><img src= images/blank.png width =""200"" height = ""200"" style = ""float:right""></p><p><img src=images/blank.png width =""800"" height = ""200""></p>","","","","","","","",""
"","0.8549997583031654","sequential-stimulus-presentation","85","110778","0.0-20.0-1.2","SS1613139560548","trial","","40","800","800.8549997583032","images/stimuli/spore_stims/complex_13_A_a.gif","images/stimuli/spore_stims/complex_13_B_a.gif","","","","","4","complex_similar","images/stimuli/spore_stims/complex_13_B_a.gif","middle",""
"","null","html-keyboard-response","86","112019","0.0-20.0-0.3","SS1613139560548","","","null","","","","","<p><img src= images/blank.png width =""200"" height = ""200"" style = ""float:right""></p><p><img src=images/blank.png width =""800"" height = ""200""></p>","","","","","","","",""
"","0.5349991843104362","sequential-stimulus-presentation","87","112832","0.0-20.0-1.3","SS1613139560548","trial","","40","800","800.5349991843104","images/stimuli/spore_stims/complex_13_A_a.gif","images/stimuli/spore_stims/complex_13_B_a.gif","","","","","4","complex_similar","images/stimuli/spore_stims/complex_13_B_a.gif","middle",""
"","null","html-keyboard-response","88","113722","0.0-20.0-0.4","SS1613139560548","","","null","","","","","<p><img src= images/blank.png width =""200"" height = ""200"" style = ""float:right""></p><p><img src=images/blank.png width =""800"" height = ""200""></p>","","","","","","","",""
"","115.1299998164177","sequential-stimulus-presentation","89","114648","0.0-20.0-1.4","SS1613139560548","trial","","40","800","915.1299998164177","images/stimuli/spore_stims/complex_13_A_a.gif","images/stimuli/spore_stims/complex_13_B_a.gif","","","","","4","complex_similar","images/stimuli/spore_stims/complex_13_B_a.gif","middle",""
"","null","html-keyboard-response","90","115705","0.0-20.0-0.5","SS1613139560548","","","null","","","","","<p><img src= images/blank.png width =""200"" height = ""200"" style = ""float:right""></p><p><img src=images/blank.png width =""800"" height = ""200""></p>","","","","","","","",""
"","3438.649999909103","sequential-stimulus-presentation","91","119966","0.0-20.0-1.5","SS1613139560548","trial","","40","800","4238.649999909103","images/stimuli/spore_stims/complex_13_A_a.gif","images/stimuli/spore_stims/complex_13_B_a.gif","","","","","4","complex_similar","images/stimuli/spore_stims/complex_13_B_a.gif","middle",""
"","null","html-keyboard-response","92","120800","0.0-20.0-0.6","SS1613139560548","","","null","","","","","<p><img src= images/blank.png width =""200"" height = ""200"" style = ""float:right""></p><p><img src=images/blank.png width =""800"" height = ""200""></p>","","","","","","","",""
"","167.9299995303154","sequential-stimulus-presentation","93","121780","0.0-20.0-1.6","SS1613139560548","trial","","40","800","967.9299995303154","images/stimuli/spore_stims/complex_13_A_a.gif","images/stimuli/spore_stims/complex_13_B_a.gif","","","","","4","complex_similar","images/stimuli/spore_stims/complex_13_A_a.gif","left",""
"","null","html-keyboard-response","94","122863","0.0-20.0-0.7","SS1613139560548","","","null","","","","","<p><img src= images/blank.png width =""200"" height = ""200"" style = ""float:right""></p><p><img src=images/blank.png width =""800"" height = ""200""></p>","","","","","","","",""
"","228.65500021725893","sequential-stimulus-presentation","95","123900","0.0-20.0-1.7","SS1613139560548","trial","","40","800","1028.655000217259","images/stimuli/spore_stims/complex_13_A_a.gif","images/stimuli/spore_stims/complex_13_B_a.gif","","","","","4","complex_similar","images/stimuli/spore_stims/complex_13_B_a.gif","middle",""
"","1530.5099999532104","html-keyboard-response","96","125438","0.0-21.0","SS1613139560548","pref_question","","49","","","","","<video width ='960' height = '540' style='padding-top:8%' autoplay muted><source src='images/stimuli/wall_pref.mp4' type='video/mp4'></video>","1","left","25%","4","","","",""
"","61.26500014215708","sequential-stimulus-presentation","97","126316","0.0-22.0","SS1613139560548","pref_reveal","","40","800","861.2650001421571","null","null","","","","","4","","","","deviant"
"","null","html-keyboard-response","98","127384","0.0-23.0-0.0","SS1613139560548","","","null","","","","","<p><img src= images/blank.png width =""200"" height = ""200"" style = ""float:right""></p><p><img src=images/blank.png width =""800"" height = ""200""></p>","","","","","","","",""
"","171.81500047445297","sequential-stimulus-presentation","99","128401","0.0-23.0-1.0","SS1613139560548","trial","","40","800","971.815000474453","images/stimuli/spore_stims/complex_19_B_a.gif","images/stimuli/spore_stims/complex_19_A_a.gif","","","","","5","complex_similar","images/stimuli/spore_stims/complex_19_A_a.gif","right",""
"","null","html-keyboard-response","100","129314","0.0-23.0-0.1","SS1613139560548","","","null","","","","","<p><img src= images/blank.png width =""200"" height = ""200"" style = ""float:right""></p><p><img src=images/blank.png width =""800"" height = ""200""></p>","","","","","","","",""
"","176.3550005853176","sequential-stimulus-presentation","101","130301","0.0-23.0-1.1","SS1613139560548","trial","","40","800","976.3550005853176","images/stimuli/spore_stims/complex_19_B_a.gif","images/stimuli/spore_stims/complex_19_A_a.gif","","","","","5","complex_similar","images/stimuli/spore_stims/complex_19_A_a.gif","right",""
"","null","html-keyboard-response","102","131397","0.0-23.0-0.2","SS1613139560548","","","null","","","","","<p><img src= images/blank.png width =""200"" height = ""200"" style = ""float:right""></p><p><img src=images/blank.png width =""800"" height = ""200""></p>","","","","","","","",""
"","33.0400001257658","sequential-stimulus-presentation","103","132244","0.0-23.0-1.2","SS1613139560548","trial","","40","800","833.0400001257658","images/stimuli/spore_stims/complex_19_B_a.gif","images/stimuli/spore_stims/complex_19_A_a.gif","","","","","5","complex_similar","images/stimuli/spore_stims/complex_19_A_a.gif","right",""
"","null","html-keyboard-response","104","133157","0.0-23.0-0.3","SS1613139560548","","","null","","","","","<p><img src= images/blank.png width =""200"" height = ""200"" style = ""float:right""></p><p><img src=images/blank.png width =""800"" height = ""200""></p>","","","","","","","",""
"","169.3850001320243","sequential-stimulus-presentation","105","134139","0.0-23.0-1.3","SS1613139560548","trial","","40","800","969.3850001320243","images/stimuli/spore_stims/complex_19_B_a.gif","images/stimuli/spore_stims/complex_19_A_a.gif","","","","","5","complex_similar","images/stimuli/spore_stims/complex_19_A_a.gif","right",""
"","null","html-keyboard-response","106","135435","0.0-23.0-0.4","SS1613139560548","","","null","","","","","<p><img src= images/blank.png width =""200"" height = ""200"" style = ""float:right""></p><p><img src=images/blank.png width =""800"" height = ""200""></p>","","","","","","","",""
"","93.05000025779009","sequential-stimulus-presentation","107","136370","0.0-23.0-1.4","SS1613139560548","trial","","40","800","893.0500002577901","images/stimuli/spore_stims/complex_19_B_a.gif","images/stimuli/spore_stims/complex_19_A_a.gif","","","","","5","complex_similar","images/stimuli/spore_stims/complex_19_B_a.gif","left",""
"","null","html-keyboard-response","108","137311","0.0-23.0-0.5","SS1613139560548","","","null","","","","","<p><img src= images/blank.png width =""200"" height = ""200"" style = ""float:right""></p><p><img src=images/blank.png width =""800"" height = ""200""></p>","","","","","","","",""
"","336.3749999552965","sequential-stimulus-presentation","109","138465","0.0-23.0-1.5","SS1613139560548","trial","","40","800","1136.3749999552965","images/stimuli/spore_stims/complex_19_B_a.gif","images/stimuli/spore_stims/complex_19_A_a.gif","","","","","5","complex_similar","images/stimuli/spore_stims/complex_19_A_a.gif","right",""
"","null","html-keyboard-response","110","139703","0.0-23.0-0.6","SS1613139560548","","","null","","","","","<p><img src= images/blank.png width =""200"" height = ""200"" style = ""float:right""></p><p><img src=images/blank.png width =""800"" height = ""200""></p>","","","","","","","",""
"","163.569999858737","sequential-stimulus-presentation","111","140678","0.0-23.0-1.6","SS1613139560548","trial","","40","800","963.569999858737","images/stimuli/spore_stims/complex_19_B_a.gif","images/stimuli/spore_stims/complex_19_A_a.gif","","","","","5","complex_similar","images/stimuli/spore_stims/complex_19_A_a.gif","right",""
"","null","html-keyboard-response","112","141600","0.0-23.0-0.7","SS1613139560548","","","null","","","","","<p><img src= images/blank.png width =""200"" height = ""200"" style = ""float:right""></p><p><img src=images/blank.png width =""800"" height = ""200""></p>","","","","","","","",""
"","135.6500005349517","sequential-stimulus-presentation","113","142550","0.0-23.0-1.7","SS1613139560548","trial","","40","800","935.6500005349517","images/stimuli/spore_stims/complex_19_B_a.gif","images/stimuli/spore_stims/complex_19_A_a.gif","","","","","5","complex_similar","images/stimuli/spore_stims/complex_19_A_a.gif","right",""
"","1305.6600000709295","html-keyboard-response","114","143867","0.0-24.0","SS1613139560548","pref_question","","49","","","","","<video width ='960' height = '540' style='padding-top:8%' autoplay muted><source src='images/stimuli/wall_pref.mp4' type='video/mp4'></video>","1","left","25%","5","","","",""
"","128.8050003349781","sequential-stimulus-presentation","115","144836","0.0-25.0","SS1613139560548","pref_reveal","","40","800","928.8050003349781","null","null","","","","","5","","","","deviant"
"","null","html-keyboard-response","116","146061","0.0-26.0-0.0","SS1613139560548","","","null","","","","","<p><img src= images/blank.png width =""200"" height = ""200"" style = ""float:right""></p><p><img src=images/blank.png width =""800"" height = ""200""></p>","","","","","","","",""
"","111.03499960154295","sequential-stimulus-presentation","117","146989","0.0-26.0-1.0","SS1613139560548","trial","","40","800","911.034999601543","images/stimuli/spore_stims/simple_10_B_a.gif","images/stimuli/spore_stims/simple_09_A_d.gif","","","","","6","simple_dissimilar","images/stimuli/spore_stims/simple_09_A_d.gif","middle",""
"","null","html-keyboard-response","118","148077","0.0-26.0-0.1","SS1613139560548","","","null","","","","","<p><img src= images/blank.png width =""200"" height = ""200"" style = ""float:right""></p><p><img src=images/blank.png width =""800"" height = ""200""></p>","","","","","","","",""
"","48.290000297129154","sequential-stimulus-presentation","119","148935","0.0-26.0-1.1","SS1613139560548","trial","","40","800","848.2900002971292","images/stimuli/spore_stims/simple_10_B_a.gif","images/stimuli/spore_stims/simple_09_A_d.gif","","","","","6","simple_dissimilar","images/stimuli/spore_stims/simple_09_A_d.gif","middle",""
"","null","html-keyboard-response","120","149919","0.0-26.0-0.2","SS1613139560548","","","null","","","","","<p><img src= images/blank.png width =""200"" height = ""200"" style = ""float:right""></p><p><img src=images/blank.png width =""800"" height = ""200""></p>","","","","","","","",""
"","227.01499983668327","sequential-stimulus-presentation","121","150966","0.0-26.0-1.2","SS1613139560548","trial","","40","800","1027.0149998366833","images/stimuli/spore_stims/simple_10_B_a.gif","images/stimuli/spore_stims/simple_09_A_d.gif","","","","","6","simple_dissimilar","images/stimuli/spore_stims/simple_09_A_d.gif","middle",""
"","null","html-keyboard-response","122","151928","0.0-26.0-0.3","SS1613139560548","","","null","","","","","<p><img src= images/blank.png width =""200"" height = ""200"" style = ""float:right""></p><p><img src=images/blank.png width =""800"" height = ""200""></p>","","","","","","","",""
"","167.02499985694885","sequential-stimulus-presentation","123","152907","0.0-26.0-1.3","SS1613139560548","trial","","40","800","967.0249998569489","images/stimuli/spore_stims/simple_10_B_a.gif","images/stimuli/spore_stims/simple_09_A_d.gif","","","","","6","simple_dissimilar","images/stimuli/spore_stims/simple_10_B_a.gif","left",""
"","null","html-keyboard-response","124","153737","0.0-26.0-0.4","SS1613139560548","","","null","","","","","<p><img src= images/blank.png width =""200"" height = ""200"" style = ""float:right""></p><p><img src=images/blank.png width =""800"" height = ""200""></p>","","","","","","","",""
"","71.9200000166893","sequential-stimulus-presentation","125","154630","0.0-26.0-1.4","SS1613139560548","trial","","40","800","871.9200000166893","images/stimuli/spore_stims/simple_10_B_a.gif","images/stimuli/spore_stims/simple_09_A_d.gif","","","","","6","simple_dissimilar","images/stimuli/spore_stims/simple_09_A_d.gif","middle",""
"","null","html-keyboard-response","126","155917","0.0-26.0-0.5","SS1613139560548","","","null","","","","","<p><img src= images/blank.png width =""200"" height = ""200"" style = ""float:right""></p><p><img src=images/blank.png width =""800"" height = ""200""></p>","","","","","","","",""
"","234.50000025331974","sequential-stimulus-presentation","127","156972","0.0-26.0-1.5","SS1613139560548","trial","","40","800","1034.5000002533197","images/stimuli/spore_stims/simple_10_B_a.gif","images/stimuli/spore_stims/simple_09_A_d.gif","","","","","6","simple_dissimilar","images/stimuli/spore_stims/simple_09_A_d.gif","middle",""
"","null","html-keyboard-response","128","158107","0.0-26.0-0.6","SS1613139560548","","","null","","","","","<p><img src= images/blank.png width =""200"" height = ""200"" style = ""float:right""></p><p><img src=images/blank.png width =""800"" height = ""200""></p>","","","","","","","",""
"","166.85499995946884","sequential-stimulus-presentation","129","159093","0.0-26.0-1.6","SS1613139560548","trial","","40","800","966.8549999594688","images/stimuli/spore_stims/simple_10_B_a.gif","images/stimuli/spore_stims/simple_09_A_d.gif","","","","","6","simple_dissimilar","images/stimuli/spore_stims/simple_09_A_d.gif","middle",""
"","null","html-keyboard-response","130","160085","0.0-26.0-0.7","SS1613139560548","","","null","","","","","<p><img src= images/blank.png width =""200"" height = ""200"" style = ""float:right""></p><p><img src=images/blank.png width =""800"" height = ""200""></p>","","","","","","","",""
"","79.78500053286552","sequential-stimulus-presentation","131","160975","0.0-26.0-1.7","SS1613139560548","trial","","40","800","879.7850005328655","images/stimuli/spore_stims/simple_10_B_a.gif","images/stimuli/spore_stims/simple_09_A_d.gif","","","","","6","simple_dissimilar","images/stimuli/spore_stims/simple_09_A_d.gif","middle",""
"","1941.2950007244945","html-keyboard-response","132","162932","0.0-27.0","SS1613139560548","pref_question","","49","","","","","<video width ='960' height = '540' style='padding-top:8%' autoplay muted><source src='images/stimuli/wall_pref.mp4' type='video/mp4'></video>","1","left","25%","6","","","",""
"","92.88500063121319","sequential-stimulus-presentation","133","163850","0.0-28.0","SS1613139560548","pref_reveal","","40","800","892.8850006312132","null","null","","","","","6","","","","deviant"
"","null","html-keyboard-response","134","165130","0.0-29.0-0.0","SS1613139560548","","","null","","","","","<p><img src= images/blank.png width =""200"" height = ""200"" style = ""float:right""></p><p><img src=images/blank.png width =""800"" height = ""200""></p>","","","","","","","",""
"","68.83999984711409","sequential-stimulus-presentation","135","166022","0.0-29.0-1.0","SS1613139560548","trial","","40","800","868.8399998471141","images/stimuli/spore_stims/simple_13_B_b.gif","images/stimuli/spore_stims/simple_19_A_b.gif","","","","","7","simple_dissimilar","images/stimuli/spore_stims/simple_19_A_b.gif","right",""
"","null","html-keyboard-response","136","166881","0.0-29.0-0.1","SS1613139560548","","","null","","","","","<p><img src= images/blank.png width =""200"" height = ""200"" style = ""float:right""></p><p><img src=images/blank.png width =""800"" height = ""200""></p>","","","","","","","",""
"","32.19499997794628","sequential-stimulus-presentation","137","167756","0.0-29.0-1.1","SS1613139560548","trial","","40","800","832.1949999779463","images/stimuli/spore_stims/simple_13_B_b.gif","images/stimuli/spore_stims/simple_19_A_b.gif","","","","","7","simple_dissimilar","images/stimuli/spore_stims/simple_19_A_b.gif","right",""
"","null","html-keyboard-response","138","168753","0.0-29.0-0.2","SS1613139560548","","","null","","","","","<p><img src= images/blank.png width =""200"" height = ""200"" style = ""float:right""></p><p><img src=images/blank.png width =""800"" height = ""200""></p>","","","","","","","",""
"","75.47000050544739","sequential-stimulus-presentation","139","169646","0.0-29.0-1.2","SS1613139560548","trial","","40","800","875.4700005054474","images/stimuli/spore_stims/simple_13_B_b.gif","images/stimuli/spore_stims/simple_19_A_b.gif","","","","","7","simple_dissimilar","images/stimuli/spore_stims/simple_19_A_b.gif","right",""
"","null","html-keyboard-response","140","170794","0.0-29.0-0.3","SS1613139560548","","","null","","","","","<p><img src= images/blank.png width =""200"" height = ""200"" style = ""float:right""></p><p><img src=images/blank.png width =""800"" height = ""200""></p>","","","","","","","",""
"","138.06999940425158","sequential-stimulus-presentation","141","171760","0.0-29.0-1.3","SS1613139560548","trial","","40","800","938.0699994042516","images/stimuli/spore_stims/simple_13_B_b.gif","images/stimuli/spore_stims/simple_19_A_b.gif","","","","","7","simple_dissimilar","images/stimuli/spore_stims/simple_19_A_b.gif","right",""
"","null","html-keyboard-response","142","172851","0.0-29.0-0.4","SS1613139560548","","","null","","","","","<p><img src= images/blank.png width =""200"" height = ""200"" style = ""float:right""></p><p><img src=images/blank.png width =""800"" height = ""200""></p>","","","","","","","",""
"","243.37999988347292","sequential-stimulus-presentation","143","173911","0.0-29.0-1.4","SS1613139560548","trial","","40","800","1043.379999883473","images/stimuli/spore_stims/simple_13_B_b.gif","images/stimuli/spore_stims/simple_19_A_b.gif","","","","","7","simple_dissimilar","images/stimuli/spore_stims/simple_13_B_b.gif","left",""
"","null","html-keyboard-response","144","174921","0.0-29.0-0.5","SS1613139560548","","","null","","","","","<p><img src= images/blank.png width =""200"" height = ""200"" style = ""float:right""></p><p><img src=images/blank.png width =""800"" height = ""200""></p>","","","","","","","",""
"","123.20000026375055","sequential-stimulus-presentation","145","175888","0.0-29.0-1.5","SS1613139560548","trial","","40","800","923.2000002637506","images/stimuli/spore_stims/simple_13_B_b.gif","images/stimuli/spore_stims/simple_19_A_b.gif","","","","","7","simple_dissimilar","images/stimuli/spore_stims/simple_19_A_b.gif","right",""
"","null","html-keyboard-response","146","176752","0.0-29.0-0.6","SS1613139560548","","","null","","","","","<p><img src= images/blank.png width =""200"" height = ""200"" style = ""float:right""></p><p><img src=images/blank.png width =""800"" height = ""200""></p>","","","","","","","",""
"","208.76500010490417","sequential-stimulus-presentation","147","177785","0.0-29.0-1.6","SS1613139560548","trial","","40","800","1008.7650001049042","images/stimuli/spore_stims/simple_13_B_b.gif","images/stimuli/spore_stims/simple_19_A_b.gif","","","","","7","simple_dissimilar","images/stimuli/spore_stims/simple_19_A_b.gif","right",""
"","null","html-keyboard-response","148","178789","0.0-29.0-0.7","SS1613139560548","","","null","","","","","<p><img src= images/blank.png width =""200"" height = ""200"" style = ""float:right""></p><p><img src=images/blank.png width =""800"" height = ""200""></p>","","","","","","","",""
"","168.6599999666214","sequential-stimulus-presentation","149","179775","0.0-29.0-1.7","SS1613139560548","trial","","40","800","968.6599999666214","images/stimuli/spore_stims/simple_13_B_b.gif","images/stimuli/spore_stims/simple_19_A_b.gif","","","","","7","simple_dissimilar","images/stimuli/spore_stims/simple_19_A_b.gif","right",""
"","2030.6149991229177","html-keyboard-response","150","181815","0.0-30.0","SS1613139560548","pref_question","","49","","","","","<video width ='960' height = '540' style='padding-top:8%' autoplay muted><source src='images/stimuli/wall_pref.mp4' type='video/mp4'></video>","1","left","25%","7","","","",""
"","59.34000015258789","sequential-stimulus-presentation","151","182693","0.0-31.0","SS1613139560548","pref_reveal","","40","800","859.3400001525879","null","null","","","","","7","","","","deviant"
"","null","html-keyboard-response","152","183714","0.0-32.0-0.0","SS1613139560548","","","null","","","","","<p><img src= images/blank.png width =""200"" height = ""200"" style = ""float:right""></p><p><img src=images/blank.png width =""800"" height = ""200""></p>","","","","","","","",""
"","150.91499965637922","sequential-stimulus-presentation","153","184681","0.0-32.0-1.0","SS1613139560548","trial","","40","800","950.9149996563792","images/stimuli/spore_stims/simple_01_B_a.gif","images/stimuli/spore_stims/simple_17_B_c.gif","","","","","8","simple_dissimilar","images/stimuli/spore_stims/simple_17_B_c.gif","middle",""
"","null","html-keyboard-response","154","185660","0.0-32.0-0.1","SS1613139560548","","","null","","","","","<p><img src= images/blank.png width =""200"" height = ""200"" style = ""float:right""></p><p><img src=images/blank.png width =""800"" height = ""200""></p>","","","","","","","",""
"","17.330000177025795","sequential-stimulus-presentation","155","186494","0.0-32.0-1.1","SS1613139560548","trial","","40","800","817.3300001770258","images/stimuli/spore_stims/simple_01_B_a.gif","images/stimuli/spore_stims/simple_17_B_c.gif","","","","","8","simple_dissimilar","images/stimuli/spore_stims/simple_17_B_c.gif","middle",""
"","null","html-keyboard-response","156","187342","0.0-32.0-0.2","SS1613139560548","","","null","","","","","<p><img src= images/blank.png width =""200"" height = ""200"" style = ""float:right""></p><p><img src=images/blank.png width =""800"" height = ""200""></p>","","","","","","","",""
"","314.9950001388788","sequential-stimulus-presentation","157","188483","0.0-32.0-1.2","SS1613139560548","trial","","40","800","1114.9950001388788","images/stimuli/spore_stims/simple_01_B_a.gif","images/stimuli/spore_stims/simple_17_B_c.gif","","","","","8","simple_dissimilar","images/stimuli/spore_stims/simple_17_B_c.gif","middle",""
"","null","html-keyboard-response","158","189676","0.0-32.0-0.3","SS1613139560548","","","null","","","","","<p><img src= images/blank.png width =""200"" height = ""200"" style = ""float:right""></p><p><img src=images/blank.png width =""800"" height = ""200""></p>","","","","","","","",""
"","379.6049999073148","sequential-stimulus-presentation","159","190871","0.0-32.0-1.3","SS1613139560548","trial","","40","800","1179.6049999073148","images/stimuli/spore_stims/simple_01_B_a.gif","images/stimuli/spore_stims/simple_17_B_c.gif","","","","","8","simple_dissimilar","images/stimuli/spore_stims/simple_17_B_c.gif","middle",""
"","null","html-keyboard-response","160","191750","0.0-32.0-0.4","SS1613139560548","","","null","","","","","<p><img src= images/blank.png width =""200"" height = ""200"" style = ""float:right""></p><p><img src=images/blank.png width =""800"" height = ""200""></p>","","","","","","","",""
"","405.72999976575375","sequential-stimulus-presentation","161","192970","0.0-32.0-1.4","SS1613139560548","trial","","40","800","1205.7299997657537","images/stimuli/spore_stims/simple_01_B_a.gif","images/stimuli/spore_stims/simple_17_B_c.gif","","","","","8","simple_dissimilar","images/stimuli/spore_stims/simple_17_B_c.gif","middle",""
"","null","html-keyboard-response","162","193936","0.0-32.0-0.5","SS1613139560548","","","null","","","","","<p><img src= images/blank.png width =""200"" height = ""200"" style = ""float:right""></p><p><img src=images/blank.png width =""800"" height = ""200""></p>","","","","","","","",""
"","280.36999981850386","sequential-stimulus-presentation","163","195031","0.0-32.0-1.5","SS1613139560548","trial","","40","800","1080.3699998185039","images/stimuli/spore_stims/simple_01_B_a.gif","images/stimuli/spore_stims/simple_17_B_c.gif","","","","","8","simple_dissimilar","images/stimuli/spore_stims/simple_17_B_c.gif","middle",""
"","null","html-keyboard-response","164","196161","0.0-32.0-0.6","SS1613139560548","","","null","","","","","<p><img src= images/blank.png width =""200"" height = ""200"" style = ""float:right""></p><p><img src=images/blank.png width =""800"" height = ""200""></p>","","","","","","","",""
"","227.080000564456","sequential-stimulus-presentation","165","197209","0.0-32.0-1.6","SS1613139560548","trial","","40","800","1027.080000564456","images/stimuli/spore_stims/simple_01_B_a.gif","images/stimuli/spore_stims/simple_17_B_c.gif","","","","","8","simple_dissimilar","images/stimuli/spore_stims/simple_01_B_a.gif","right",""
"","null","html-keyboard-response","166","198265","0.0-32.0-0.7","SS1613139560548","","","null","","","","","<p><img src= images/blank.png width =""200"" height = ""200"" style = ""float:right""></p><p><img src=images/blank.png width =""800"" height = ""200""></p>","","","","","","","",""
"","82.54999946802855","sequential-stimulus-presentation","167","199195","0.0-32.0-1.7","SS1613139560548","trial","","40","800","882.5499994680285","images/stimuli/spore_stims/simple_01_B_a.gif","images/stimuli/spore_stims/simple_17_B_c.gif","","","","","8","simple_dissimilar","images/stimuli/spore_stims/simple_17_B_c.gif","middle",""
"","1969.2400004714727","html-keyboard-response","168","201177","0.0-33.0","SS1613139560548","pref_question","","50","","","","","<video width ='960' height = '540' style='padding-top:8%' autoplay muted><source src='images/stimuli/wall_pref.mp4' type='video/mp4'></video>","2","middle","45%","8","","","",""
"","275.0749997794628","sequential-stimulus-presentation","169","202270","0.0-34.0","SS1613139560548","pref_reveal","","40","800","1075.0749997794628","null","null","","","","","8","","","","background"
"","null","html-keyboard-response","170","203326","0.0-35.0-0.0","SS1613139560548","","","null","","","","","<p><img src= images/blank.png width =""200"" height = ""200"" style = ""float:right""></p><p><img src=images/blank.png width =""800"" height = ""200""></p>","","","","","","","",""
"","99.2050003260374","sequential-stimulus-presentation","171","204250","0.0-35.0-1.0","SS1613139560548","trial","","40","800","899.2050003260374","images/stimuli/spore_stims/complex_06_A_d.gif","images/stimuli/spore_stims/complex_16_A_d.gif","","","","","9","complex_dissimilar","images/stimuli/spore_stims/complex_16_A_d.gif","right",""
"","null","html-keyboard-response","172","205362","0.0-35.0-0.1","SS1613139560548","","","null","","","","","<p><img src= images/blank.png width =""200"" height = ""200"" style = ""float:right""></p><p><img src=images/blank.png width =""800"" height = ""200""></p>","","","","","","","",""
"","69.44999936968088","sequential-stimulus-presentation","173","206250","0.0-35.0-1.1","SS1613139560548","trial","","40","800","869.4499993696809","images/stimuli/spore_stims/complex_06_A_d.gif","images/stimuli/spore_stims/complex_16_A_d.gif","","","","","9","complex_dissimilar","images/stimuli/spore_stims/complex_16_A_d.gif","right",""
"","null","html-keyboard-response","174","207492","0.0-35.0-0.2","SS1613139560548","","","null","","","","","<p><img src= images/blank.png width =""200"" height = ""200"" style = ""float:right""></p><p><img src=images/blank.png width =""800"" height = ""200""></p>","","","","","","","",""
"","209.9750004708767","sequential-stimulus-presentation","175","208522","0.0-35.0-1.2","SS1613139560548","trial","","40","800","1009.9750004708767","images/stimuli/spore_stims/complex_06_A_d.gif","images/stimuli/spore_stims/complex_16_A_d.gif","","","","","9","complex_dissimilar","images/stimuli/spore_stims/complex_06_A_d.gif","left",""
"","null","html-keyboard-response","176","209822","0.0-35.0-0.3","SS1613139560548","","","null","","","","","<p><img src= images/blank.png width =""200"" height = ""200"" style = ""float:right""></p><p><img src=images/blank.png width =""800"" height = ""200""></p>","","","","","","","",""
"","356.01000022143126","sequential-stimulus-presentation","177","210997","0.0-35.0-1.3","SS1613139560548","trial","","40","800","1156.0100002214313","images/stimuli/spore_stims/complex_06_A_d.gif","images/stimuli/spore_stims/complex_16_A_d.gif","","","","","9","complex_dissimilar","images/stimuli/spore_stims/complex_16_A_d.gif","right",""
"","null","html-keyboard-response","178","212120","0.0-35.0-0.4","SS1613139560548","","","null","","","","","<p><img src= images/blank.png width =""200"" height = ""200"" style = ""float:right""></p><p><img src=images/blank.png width =""800"" height = ""200""></p>","","","","","","","",""
"","237.61000018566847","sequential-stimulus-presentation","179","213174","0.0-35.0-1.4","SS1613139560548","trial","","40","800","1037.6100001856685","images/stimuli/spore_stims/complex_06_A_d.gif","images/stimuli/spore_stims/complex_16_A_d.gif","","","","","9","complex_dissimilar","images/stimuli/spore_stims/complex_16_A_d.gif","right",""
"","null","html-keyboard-response","180","214344","0.0-35.0-0.5","SS1613139560548","","","null","","","","","<p><img src= images/blank.png width =""200"" height = ""200"" style = ""float:right""></p><p><img src=images/blank.png width =""800"" height = ""200""></p>","","","","","","","",""
"","6.224999204277992","sequential-stimulus-presentation","181","215171","0.0-35.0-1.5","SS1613139560548","trial","","40","800","806.224999204278","images/stimuli/spore_stims/complex_06_A_d.gif","images/stimuli/spore_stims/complex_16_A_d.gif","","","","","9","complex_dissimilar","images/stimuli/spore_stims/complex_16_A_d.gif","right",""
"","null","html-keyboard-response","182","216336","0.0-35.0-0.6","SS1613139560548","","","null","","","","","<p><img src= images/blank.png width =""200"" height = ""200"" style = ""float:right""></p><p><img src=images/blank.png width =""800"" height = ""200""></p>","","","","","","","",""
"","731.9950005039573","sequential-stimulus-presentation","183","217890","0.0-35.0-1.6","SS1613139560548","trial","","40","800","1531.9950005039573","images/stimuli/spore_stims/complex_06_A_d.gif","images/stimuli/spore_stims/complex_16_A_d.gif","","","","","9","complex_dissimilar","images/stimuli/spore_stims/complex_16_A_d.gif","right",""
"","null","html-keyboard-response","184","218981","0.0-35.0-0.7","SS1613139560548","","","null","","","","","<p><img src= images/blank.png width =""200"" height = ""200"" style = ""float:right""></p><p><img src=images/blank.png width =""800"" height = ""200""></p>","","","","","","","",""
"","519.5899996906519","sequential-stimulus-presentation","185","220323","0.0-35.0-1.7","SS1613139560548","trial","","40","800","1319.589999690652","images/stimuli/spore_stims/complex_06_A_d.gif","images/stimuli/spore_stims/complex_16_A_d.gif","","","","","9","complex_dissimilar","images/stimuli/spore_stims/complex_16_A_d.gif","right",""
"","3515.1750007644296","html-keyboard-response","186","223863","0.0-36.0","SS1613139560548","pref_question","","50","","","","","<video width ='960' height = '540' style='padding-top:8%' autoplay muted><source src='images/stimuli/wall_pref.mp4' type='video/mp4'></video>","2","middle","45%","9","","","",""
"","178.20999957621098","sequential-stimulus-presentation","187","224858","0.0-37.0","SS1613139560548","pref_reveal","","40","800","978.209999576211","null","null","","","","","9","","","","novel"
"","null","html-keyboard-response","188","226129","0.0-38.0-0.0","SS1613139560548","","","null","","","","","<p><img src= images/blank.png width =""200"" height = ""200"" style = ""float:right""></p><p><img src=images/blank.png width =""800"" height = ""200""></p>","","","","","","","",""
"","191.55000057071447","sequential-stimulus-presentation","189","227133","0.0-38.0-1.0","SS1613139560548","trial","","40","800","991.5500005707145","images/stimuli/spore_stims/simple_15_B_a.gif","images/stimuli/spore_stims/simple_15_A_a.gif","","","","","10","simple_similar","images/stimuli/spore_stims/simple_15_A_a.gif","middle",""
"","null","html-keyboard-response","190","228049","0.0-38.0-0.1","SS1613139560548","","","null","","","","","<p><img src= images/blank.png width =""200"" height = ""200"" style = ""float:right""></p><p><img src=images/blank.png width =""800"" height = ""200""></p>","","","","","","","",""
"","527.2650001570582","sequential-stimulus-presentation","191","229394","0.0-38.0-1.1","SS1613139560548","trial","","40","800","1327.2650001570582","images/stimuli/spore_stims/simple_15_B_a.gif","images/stimuli/spore_stims/simple_15_A_a.gif","","","","","10","simple_similar","images/stimuli/spore_stims/simple_15_A_a.gif","middle",""
"","null","html-keyboard-response","192","230545","0.0-38.0-0.2","SS1613139560548","","","null","","","","","<p><img src= images/blank.png width =""200"" height = ""200"" style = ""float:right""></p><p><img src=images/blank.png width =""800"" height = ""200""></p>","","","","","","","",""
"","53.89499943703413","sequential-stimulus-presentation","193","231446","0.0-38.0-1.2","SS1613139560548","trial","","40","800","853.8949994370341","images/stimuli/spore_stims/simple_15_B_a.gif","images/stimuli/spore_stims/simple_15_A_a.gif","","","","","10","simple_similar","images/stimuli/spore_stims/simple_15_A_a.gif","middle",""
"","null","html-keyboard-response","194","232543","0.0-38.0-0.3","SS1613139560548","","","null","","","","","<p><img src= images/blank.png width =""200"" height = ""200"" style = ""float:right""></p><p><img src=images/blank.png width =""800"" height = ""200""></p>","","","","","","","",""
"","218.6349993571639","sequential-stimulus-presentation","195","233583","0.0-38.0-1.3","SS1613139560548","trial","","40","800","1018.6349993571639","images/stimuli/spore_stims/simple_15_B_a.gif","images/stimuli/spore_stims/simple_15_A_a.gif","","","","","10","simple_similar","images/stimuli/spore_stims/simple_15_A_a.gif","middle",""
"","null","html-keyboard-response","196","234773","0.0-38.0-0.4","SS1613139560548","","","null","","","","","<p><img src= images/blank.png width =""200"" height = ""200"" style = ""float:right""></p><p><img src=images/blank.png width =""800"" height = ""200""></p>","","","","","","","",""
"","785.2849997580051","sequential-stimulus-presentation","197","236390","0.0-38.0-1.4","SS1613139560548","trial","","40","800","1585.2849997580051","images/stimuli/spore_stims/simple_15_B_a.gif","images/stimuli/spore_stims/simple_15_A_a.gif","","","","","10","simple_similar","images/stimuli/spore_stims/simple_15_A_a.gif","middle",""
"","null","html-keyboard-response","198","237393","0.0-38.0-0.5","SS1613139560548","","","null","","","","","<p><img src= images/blank.png width =""200"" height = ""200"" style = ""float:right""></p><p><img src=images/blank.png width =""800"" height = ""200""></p>","","","","","","","",""
"","104.79000024497509","sequential-stimulus-presentation","199","238323","0.0-38.0-1.5","SS1613139560548","trial","","40","800","904.7900002449751","images/stimuli/spore_stims/simple_15_B_a.gif","images/stimuli/spore_stims/simple_15_A_a.gif","","","","","10","simple_similar","images/stimuli/spore_stims/simple_15_B_a.gif","right",""
"","null","html-keyboard-response","200","239485","0.0-38.0-0.6","SS1613139560548","","","null","","","","","<p><img src= images/blank.png width =""200"" height = ""200"" style = ""float:right""></p><p><img src=images/blank.png width =""800"" height = ""200""></p>","","","","","","","",""
"","130.8349994942546","sequential-stimulus-presentation","201","240467","0.0-38.0-1.6","SS1613139560548","trial","","40","800","930.8349994942546","images/stimuli/spore_stims/simple_15_B_a.gif","images/stimuli/spore_stims/simple_15_A_a.gif","","","","","10","simple_similar","images/stimuli/spore_stims/simple_15_A_a.gif","middle",""
"","null","html-keyboard-response","202","241470","0.0-38.0-0.7","SS1613139560548","","","null","","","","","<p><img src= images/blank.png width =""200"" height = ""200"" style = ""float:right""></p><p><img src=images/blank.png width =""800"" height = ""200""></p>","","","","","","","",""
"","227.22500003874302","sequential-stimulus-presentation","203","242514","0.0-38.0-1.7","SS1613139560548","trial","","40","800","1027.225000038743","images/stimuli/spore_stims/simple_15_B_a.gif","images/stimuli/spore_stims/simple_15_A_a.gif","","","","","10","simple_similar","images/stimuli/spore_stims/simple_15_A_a.gif","middle",""
"","4569.079999811947","html-keyboard-response","204","247096","0.0-39.0","SS1613139560548","pref_question","","49","","","","","<video width ='960' height = '540' style='padding-top:8%' autoplay muted><source src='images/stimuli/wall_pref.mp4' type='video/mp4'></video>","1","left","25%","10","","","",""
"","3618.2550005614758","sequential-stimulus-presentation","205","251536","0.0-40.0","SS1613139560548","pref_reveal","","40","800","4418.255000561476","null","null","","","","","10","","","","novel"
"","null","html-keyboard-response","206","252653","0.0-41.0-0.0","SS1613139560548","","","null","","","","","<p><img src= images/blank.png width =""200"" height = ""200"" style = ""float:right""></p><p><img src=images/blank.png width =""800"" height = ""200""></p>","","","","","","","",""
"","91.5099997073412","sequential-stimulus-presentation","207","253571","0.0-41.0-1.0","SS1613139560548","trial","","40","800","891.5099997073412","images/stimuli/spore_stims/complex_08_B_a.gif","images/stimuli/spore_stims/complex_16_B_a.gif","","","","","11","complex_dissimilar","images/stimuli/spore_stims/complex_16_B_a.gif","right",""
"","null","html-keyboard-response","208","254768","0.0-41.0-0.1","SS1613139560548","","","null","","","","","<p><img src= images/blank.png width =""200"" height = ""200"" style = ""float:right""></p><p><img src=images/blank.png width =""800"" height = ""200""></p>","","","","","","","",""
"","136.01000048220158","sequential-stimulus-presentation","209","255730","0.0-41.0-1.1","SS1613139560548","trial","","40","800","936.0100004822016","images/stimuli/spore_stims/complex_08_B_a.gif","images/stimuli/spore_stims/complex_16_B_a.gif","","","","","11","complex_dissimilar","images/stimuli/spore_stims/complex_16_B_a.gif","right",""
"","null","html-keyboard-response","210","256865","0.0-41.0-0.2","SS1613139560548","","","null","","","","","<p><img src= images/blank.png width =""200"" height = ""200"" style = ""float:right""></p><p><img src=images/blank.png width =""800"" height = ""200""></p>","","","","","","","",""
"","740.454999729991","sequential-stimulus-presentation","211","258439","0.0-41.0-1.2","SS1613139560548","trial","","40","800","1540.454999729991","images/stimuli/spore_stims/complex_08_B_a.gif","images/stimuli/spore_stims/complex_16_B_a.gif","","","","","11","complex_dissimilar","images/stimuli/spore_stims/complex_16_B_a.gif","right",""
"","null","html-keyboard-response","212","259460","0.0-41.0-0.3","SS1613139560548","","","null","","","","","<p><img src= images/blank.png width =""200"" height = ""200"" style = ""float:right""></p><p><img src=images/blank.png width =""800"" height = ""200""></p>","","","","","","","",""
"","51.43999960273504","sequential-stimulus-presentation","213","260333","0.0-41.0-1.3","SS1613139560548","trial","","40","800","851.439999602735","images/stimuli/spore_stims/complex_08_B_a.gif","images/stimuli/spore_stims/complex_16_B_a.gif","","","","","11","complex_dissimilar","images/stimuli/spore_stims/complex_16_B_a.gif","right",""
"","null","html-keyboard-response","214","261479","0.0-41.0-0.4","SS1613139560548","","","null","","","","","<p><img src= images/blank.png width =""200"" height = ""200"" style = ""float:right""></p><p><img src=images/blank.png width =""800"" height = ""200""></p>","","","","","","","",""
"","431.3699994236231","sequential-stimulus-presentation","215","262743","0.0-41.0-1.4","SS1613139560548","trial","","40","800","1231.369999423623","images/stimuli/spore_stims/complex_08_B_a.gif","images/stimuli/spore_stims/complex_16_B_a.gif","","","","","11","complex_dissimilar","images/stimuli/spore_stims/complex_08_B_a.gif","left",""
"","null","html-keyboard-response","216","263753","0.0-41.0-0.5","SS1613139560548","","","null","","","","","<p><img src= images/blank.png width =""200"" height = ""200"" style = ""float:right""></p><p><img src=images/blank.png width =""800"" height = ""200""></p>","","","","","","","",""
"","30.859999358654022","sequential-stimulus-presentation","217","264611","0.0-41.0-1.5","SS1613139560548","trial","","40","800","830.859999358654","images/stimuli/spore_stims/complex_08_B_a.gif","images/stimuli/spore_stims/complex_16_B_a.gif","","","","","11","complex_dissimilar","images/stimuli/spore_stims/complex_16_B_a.gif","right",""
"","null","html-keyboard-response","218","265509","0.0-41.0-0.6","SS1613139560548","","","null","","","","","<p><img src= images/blank.png width =""200"" height = ""200"" style = ""float:right""></p><p><img src=images/blank.png width =""800"" height = ""200""></p>","","","","","","","",""
"","213.03500048816204","sequential-stimulus-presentation","219","266548","0.0-41.0-1.6","SS1613139560548","trial","","40","800","1013.035000488162","images/stimuli/spore_stims/complex_08_B_a.gif","images/stimuli/spore_stims/complex_16_B_a.gif","","","","","11","complex_dissimilar","images/stimuli/spore_stims/complex_16_B_a.gif","right",""
"","null","html-keyboard-response","220","267583","0.0-41.0-0.7","SS1613139560548","","","null","","","","","<p><img src= images/blank.png width =""200"" height = ""200"" style = ""float:right""></p><p><img src=images/blank.png width =""800"" height = ""200""></p>","","","","","","","",""
"","33.964999951422215","sequential-stimulus-presentation","221","268437","0.0-41.0-1.7","SS1613139560548","trial","","40","800","833.9649999514222","images/stimuli/spore_stims/complex_08_B_a.gif","images/stimuli/spore_stims/complex_16_B_a.gif","","","","","11","complex_dissimilar","images/stimuli/spore_stims/complex_16_B_a.gif","right",""
"","5513.170000165701","html-keyboard-response","222","273963","0.0-42.0","SS1613139560548","pref_question","","49","","","","","<video width ='960' height = '540' style='padding-top:8%' autoplay muted><source src='images/stimuli/wall_pref.mp4' type='video/mp4'></video>","1","left","25%","11","","","",""
"","99.60000030696392","sequential-stimulus-presentation","223","274877","0.0-43.0","SS1613139560548","pref_reveal","","40","800","899.6000003069639","null","null","","","","","11","","","","deviant"
"","null","html-keyboard-response","224","276127","0.0-44.0-0.0","SS1613139560548","","","null","","","","","<p><img src= images/blank.png width =""200"" height = ""200"" style = ""float:right""></p><p><img src=images/blank.png width =""800"" height = ""200""></p>","","","","","","","",""
"","168.9400002360344","sequential-stimulus-presentation","225","277107","0.0-44.0-1.0","SS1613139560548","trial","","40","800","968.9400002360344","images/stimuli/spore_stims/simple_12_B_d.gif","images/stimuli/spore_stims/simple_02_A_a.gif","","","","","12","simple_dissimilar","images/stimuli/spore_stims/simple_02_A_a.gif","middle",""
"","null","html-keyboard-response","226","278137","0.0-44.0-0.1","SS1613139560548","","","null","","","","","<p><img src= images/blank.png width =""200"" height = ""200"" style = ""float:right""></p><p><img src=images/blank.png width =""800"" height = ""200""></p>","","","","","","","",""
"","336.79999969899654","sequential-stimulus-presentation","227","279294","0.0-44.0-1.1","SS1613139560548","trial","","40","800","1136.7999996989965","images/stimuli/spore_stims/simple_12_B_d.gif","images/stimuli/spore_stims/simple_02_A_a.gif","","","","","12","simple_dissimilar","images/stimuli/spore_stims/simple_02_A_a.gif","middle",""
"","null","html-keyboard-response","228","280148","0.0-44.0-0.2","SS1613139560548","","","null","","","","","<p><img src= images/blank.png width =""200"" height = ""200"" style = ""float:right""></p><p><img src=images/blank.png width =""800"" height = ""200""></p>","","","","","","","",""
"","860.2149998769164","sequential-stimulus-presentation","229","281824","0.0-44.0-1.2","SS1613139560548","trial","","40","800","1660.2149998769164","images/stimuli/spore_stims/simple_12_B_d.gif","images/stimuli/spore_stims/simple_02_A_a.gif","","","","","12","simple_dissimilar","images/stimuli/spore_stims/simple_02_A_a.gif","middle",""
"","null","html-keyboard-response","230","283034","0.0-44.0-0.3","SS1613139560548","","","null","","","","","<p><img src= images/blank.png width =""200"" height = ""200"" style = ""float:right""></p><p><img src=images/blank.png width =""800"" height = ""200""></p>","","","","","","","",""
"","533.274999819696","sequential-stimulus-presentation","231","284413","0.0-44.0-1.3","SS1613139560548","trial","","40","800","1333.274999819696","images/stimuli/spore_stims/simple_12_B_d.gif","images/stimuli/spore_stims/simple_02_A_a.gif","","","","","12","simple_dissimilar","images/stimuli/spore_stims/simple_02_A_a.gif","middle",""
"","null","html-keyboard-response","232","285398","0.0-44.0-0.4","SS1613139560548","","","null","","","","","<p><img src= images/blank.png width =""200"" height = ""200"" style = ""float:right""></p><p><img src=images/blank.png width =""800"" height = ""200""></p>","","","","","","","",""
"","264.1250006854534","sequential-stimulus-presentation","233","286480","0.0-44.0-1.4","SS1613139560548","trial","","40","800","1064.1250006854534","images/stimuli/spore_stims/simple_12_B_d.gif","images/stimuli/spore_stims/simple_02_A_a.gif","","","","","12","simple_dissimilar","images/stimuli/spore_stims/simple_02_A_a.gif","middle",""
"","null","html-keyboard-response","234","287562","0.0-44.0-0.5","SS1613139560548","","","null","","","","","<p><img src= images/blank.png width =""200"" height = ""200"" style = ""float:right""></p><p><img src=images/blank.png width =""800"" height = ""200""></p>","","","","","","","",""
"","71.43000047653913","sequential-stimulus-presentation","235","288454","0.0-44.0-1.5","SS1613139560548","trial","","40","800","871.4300004765391","images/stimuli/spore_stims/simple_12_B_d.gif","images/stimuli/spore_stims/simple_02_A_a.gif","","","","","12","simple_dissimilar","images/stimuli/spore_stims/simple_02_A_a.gif","middle",""
"","null","html-keyboard-response","236","289562","0.0-44.0-0.6","SS1613139560548","","","null","","","","","<p><img src= images/blank.png width =""200"" height = ""200"" style = ""float:right""></p><p><img src=images/blank.png width =""800"" height = ""200""></p>","","","","","","","",""
"","180.44000025838614","sequential-stimulus-presentation","237","290564","0.0-44.0-1.6","SS1613139560548","trial","","40","800","980.4400002583861","images/stimuli/spore_stims/simple_12_B_d.gif","images/stimuli/spore_stims/simple_02_A_a.gif","","","","","12","simple_dissimilar","images/stimuli/spore_stims/simple_12_B_d.gif","left",""
"","null","html-keyboard-response","238","291481","0.0-44.0-0.7","SS1613139560548","","","null","","","","","<p><img src= images/blank.png width =""200"" height = ""200"" style = ""float:right""></p><p><img src=images/blank.png width =""800"" height = ""200""></p>","","","","","","","",""
"","217.46499929577112","sequential-stimulus-presentation","239","292527","0.0-44.0-1.7","SS1613139560548","trial","","40","800","1017.4649992957711","images/stimuli/spore_stims/simple_12_B_d.gif","images/stimuli/spore_stims/simple_02_A_a.gif","","","","","12","simple_dissimilar","images/stimuli/spore_stims/simple_02_A_a.gif","middle",""
"","1328.439999371767","html-keyboard-response","240","293873","0.0-45.0","SS1613139560548","pref_question","","49","","","","","<video width ='960' height = '540' style='padding-top:8%' autoplay muted><source src='images/stimuli/wall_pref.mp4' type='video/mp4'></video>","1","left","25%","12","","","",""
"","147.73499965667725","sequential-stimulus-presentation","241","294840","0.0-46.0","SS1613139560548","pref_reveal","","40","800","947.7349996566772","null","null","","","","","12","","","","deviant"
"","null","html-keyboard-response","242","295901","0.0-47.0-0.0","SS1613139560548","","","null","","","","","<p><img src= images/blank.png width =""200"" height = ""200"" style = ""float:right""></p><p><img src=images/blank.png width =""800"" height = ""200""></p>","","","","","","","",""
"","13.819999992847443","sequential-stimulus-presentation","243","296744","0.0-47.0-1.0","SS1613139560548","trial","","40","800","813.8199999928474","images/stimuli/spore_stims/complex_09_B_a.gif","images/stimuli/spore_stims/complex_11_B_d.gif","","","","","13","complex_dissimilar","images/stimuli/spore_stims/complex_11_B_d.gif","middle",""
"","null","html-keyboard-response","244","297618","0.0-47.0-0.1","SS1613139560548","","","null","","","","","<p><img src= images/blank.png width =""200"" height = ""200"" style = ""float:right""></p><p><img src=images/blank.png width =""800"" height = ""200""></p>","","","","","","","",""
"","35.48000007867813","sequential-stimulus-presentation","245","298508","0.0-47.0-1.1","SS1613139560548","trial","","40","800","835.4800000786781","images/stimuli/spore_stims/complex_09_B_a.gif","images/stimuli/spore_stims/complex_11_B_d.gif","","","","","13","complex_dissimilar","images/stimuli/spore_stims/complex_11_B_d.gif","middle",""
"","null","html-keyboard-response","246","299670","0.0-47.0-0.2","SS1613139560548","","","null","","","","","<p><img src= images/blank.png width =""200"" height = ""200"" style = ""float:right""></p><p><img src=images/blank.png width =""800"" height = ""200""></p>","","","","","","","",""
"","145.02499997615814","sequential-stimulus-presentation","247","300631","0.0-47.0-1.2","SS1613139560548","trial","","40","800","945.0249999761581","images/stimuli/spore_stims/complex_09_B_a.gif","images/stimuli/spore_stims/complex_11_B_d.gif","","","","","13","complex_dissimilar","images/stimuli/spore_stims/complex_11_B_d.gif","middle",""
"","null","html-keyboard-response","248","301462","0.0-47.0-0.3","SS1613139560548","","","null","","","","","<p><img src= images/blank.png width =""200"" height = ""200"" style = ""float:right""></p><p><img src=images/blank.png width =""800"" height = ""200""></p>","","","","","","","",""
"","22.679999470710754","sequential-stimulus-presentation","249","302303","0.0-47.0-1.3","SS1613139560548","trial","","40","800","822.6799994707108","images/stimuli/spore_stims/complex_09_B_a.gif","images/stimuli/spore_stims/complex_11_B_d.gif","","","","","13","complex_dissimilar","images/stimuli/spore_stims/complex_11_B_d.gif","middle",""
"","null","html-keyboard-response","250","303387","0.0-47.0-0.4","SS1613139560548","","","null","","","","","<p><img src= images/blank.png width =""200"" height = ""200"" style = ""float:right""></p><p><img src=images/blank.png width =""800"" height = ""200""></p>","","","","","","","",""
"","156.88000060617924","sequential-stimulus-presentation","251","304371","0.0-47.0-1.4","SS1613139560548","trial","","40","800","956.8800006061792","images/stimuli/spore_stims/complex_09_B_a.gif","images/stimuli/spore_stims/complex_11_B_d.gif","","","","","13","complex_dissimilar","images/stimuli/spore_stims/complex_11_B_d.gif","middle",""
"","null","html-keyboard-response","252","305461","0.0-47.0-0.5","SS1613139560548","","","null","","","","","<p><img src= images/blank.png width =""200"" height = ""200"" style = ""float:right""></p><p><img src=images/blank.png width =""800"" height = ""200""></p>","","","","","","","",""
"","142.46999938040972","sequential-stimulus-presentation","253","306455","0.0-47.0-1.5","SS1613139560548","trial","","40","800","942.4699993804097","images/stimuli/spore_stims/complex_09_B_a.gif","images/stimuli/spore_stims/complex_11_B_d.gif","","","","","13","complex_dissimilar","images/stimuli/spore_stims/complex_11_B_d.gif","middle",""
"","null","html-keyboard-response","254","307718","0.0-47.0-0.6","SS1613139560548","","","null","","","","","<p><img src= images/blank.png width =""200"" height = ""200"" style = ""float:right""></p><p><img src=images/blank.png width =""800"" height = ""200""></p>","","","","","","","",""
"","16.795000061392784","sequential-stimulus-presentation","255","308556","0.0-47.0-1.6","SS1613139560548","trial","","40","800","816.7950000613928","images/stimuli/spore_stims/complex_09_B_a.gif","images/stimuli/spore_stims/complex_11_B_d.gif","","","","","13","complex_dissimilar","images/stimuli/spore_stims/complex_11_B_d.gif","middle",""
"","null","html-keyboard-response","256","309621","0.0-47.0-0.7","SS1613139560548","","","null","","","","","<p><img src= images/blank.png width =""200"" height = ""200"" style = ""float:right""></p><p><img src=images/blank.png width =""800"" height = ""200""></p>","","","","","","","",""
"","85.64499951899052","sequential-stimulus-presentation","257","310521","0.0-47.0-1.7","SS1613139560548","trial","","40","800","885.6449995189905","images/stimuli/spore_stims/complex_09_B_a.gif","images/stimuli/spore_stims/complex_11_B_d.gif","","","","","13","complex_dissimilar","images/stimuli/spore_stims/complex_09_B_a.gif","left",""
"","3324.270000681281","html-keyboard-response","258","313860","0.0-48.0","SS1613139560548","pref_question","","49","","","","","<video width ='960' height = '540' style='padding-top:8%' autoplay muted><source src='images/stimuli/wall_pref.mp4' type='video/mp4'></video>","1","left","25%","13","","","",""
"","169.98500004410744","sequential-stimulus-presentation","259","314860","0.0-49.0","SS1613139560548","pref_reveal","","40","800","969.9850000441074","null","null","","","","","13","","","","deviant"
"","null","html-keyboard-response","260","315923","0.0-50.0-0.0","SS1613139560548","","","null","","","","","<p><img src= images/blank.png width =""200"" height = ""200"" style = ""float:right""></p><p><img src=images/blank.png width =""800"" height = ""200""></p>","","","","","","","",""
"","354.0599998086691","sequential-stimulus-presentation","261","317103","0.0-50.0-1.0","SS1613139560548","trial","","40","800","1154.059999808669","images/stimuli/spore_stims/simple_03_B_b.gif","images/stimuli/spore_stims/simple_03_A_b.gif","","","","","14","simple_similar","images/stimuli/spore_stims/simple_03_A_b.gif","middle",""
"","null","html-keyboard-response","262","318024","0.0-50.0-0.1","SS1613139560548","","","null","","","","","<p><img src= images/blank.png width =""200"" height = ""200"" style = ""float:right""></p><p><img src=images/blank.png width =""800"" height = ""200""></p>","","","","","","","",""
"","204.67999950051308","sequential-stimulus-presentation","263","319045","0.0-50.0-1.1","SS1613139560548","trial","","40","800","1004.6799995005131","images/stimuli/spore_stims/simple_03_B_b.gif","images/stimuli/spore_stims/simple_03_A_b.gif","","","","","14","simple_similar","images/stimuli/spore_stims/simple_03_A_b.gif","middle",""
"","null","html-keyboard-response","264","319867","0.0-50.0-0.2","SS1613139560548","","","null","","","","","<p><img src= images/blank.png width =""200"" height = ""200"" style = ""float:right""></p><p><img src=images/blank.png width =""800"" height = ""200""></p>","","","","","","","",""
"","32.709999941289425","sequential-stimulus-presentation","265","320717","0.0-50.0-1.2","SS1613139560548","trial","","40","800","832.7099999412894","images/stimuli/spore_stims/simple_03_B_b.gif","images/stimuli/spore_stims/simple_03_A_b.gif","","","","","14","simple_similar","images/stimuli/spore_stims/simple_03_B_b.gif","right",""
"","null","html-keyboard-response","266","321882","0.0-50.0-0.3","SS1613139560548","","","null","","","","","<p><img src= images/blank.png width =""200"" height = ""200"" style = ""float:right""></p><p><img src=images/blank.png width =""800"" height = ""200""></p>","","","","","","","",""
"","115.26499968022108","sequential-stimulus-presentation","267","322815","0.0-50.0-1.3","SS1613139560548","trial","","40","800","915.2649996802211","images/stimuli/spore_stims/simple_03_B_b.gif","images/stimuli/spore_stims/simple_03_A_b.gif","","","","","14","simple_similar","images/stimuli/spore_stims/simple_03_A_b.gif","middle",""
"","null","html-keyboard-response","268","324013","0.0-50.0-0.4","SS1613139560548","","","null","","","","","<p><img src= images/blank.png width =""200"" height = ""200"" style = ""float:right""></p><p><img src=images/blank.png width =""800"" height = ""200""></p>","","","","","","","",""
"","56.71000014990568","sequential-stimulus-presentation","269","324894","0.0-50.0-1.4","SS1613139560548","trial","","40","800","856.7100001499057","images/stimuli/spore_stims/simple_03_B_b.gif","images/stimuli/spore_stims/simple_03_A_b.gif","","","","","14","simple_similar","images/stimuli/spore_stims/simple_03_A_b.gif","middle",""
"","null","html-keyboard-response","270","325816","0.0-50.0-0.5","SS1613139560548","","","null","","","","","<p><img src= images/blank.png width =""200"" height = ""200"" style = ""float:right""></p><p><img src=images/blank.png width =""800"" height = ""200""></p>","","","","","","","",""
"","251.3399999588728","sequential-stimulus-presentation","271","326916","0.0-50.0-1.5","SS1613139560548","trial","","40","800","1051.3399999588728","images/stimuli/spore_stims/simple_03_B_b.gif","images/stimuli/spore_stims/simple_03_A_b.gif","","","","","14","simple_similar","images/stimuli/spore_stims/simple_03_A_b.gif","middle",""
"","null","html-keyboard-response","272","327899","0.0-50.0-0.6","SS1613139560548","","","null","","","","","<p><img src= images/blank.png width =""200"" height = ""200"" style = ""float:right""></p><p><img src=images/blank.png width =""800"" height = ""200""></p>","","","","","","","",""
"","245.04499975591898","sequential-stimulus-presentation","273","328959","0.0-50.0-1.6","SS1613139560548","trial","","40","800","1045.044999755919","images/stimuli/spore_stims/simple_03_B_b.gif","images/stimuli/spore_stims/simple_03_A_b.gif","","","","","14","simple_similar","images/stimuli/spore_stims/simple_03_A_b.gif","middle",""
"","null","html-keyboard-response","274","329993","0.0-50.0-0.7","SS1613139560548","","","null","","","","","<p><img src= images/blank.png width =""200"" height = ""200"" style = ""float:right""></p><p><img src=images/blank.png width =""800"" height = ""200""></p>","","","","","","","",""
"","256.65999948978424","sequential-stimulus-presentation","275","331069","0.0-50.0-1.7","SS1613139560548","trial","","40","800","1056.6599994897842","images/stimuli/spore_stims/simple_03_B_b.gif","images/stimuli/spore_stims/simple_03_A_b.gif","","","","","14","simple_similar","images/stimuli/spore_stims/simple_03_A_b.gif","middle",""
"","3236.615000292659","html-keyboard-response","276","334332","0.0-51.0","SS1613139560548","pref_question","","50","","","","","<video width ='960' height = '540' style='padding-top:8%' autoplay muted><source src='images/stimuli/wall_pref.mp4' type='video/mp4'></video>","2","middle","45%","14","","","",""
"","98.13500009477139","sequential-stimulus-presentation","277","335252","0.0-52.0","SS1613139560548","pref_reveal","","40","800","898.1350000947714","null","null","","","","","14","","","","background"
"","null","html-keyboard-response","278","336156","0.0-53.0-0.0","SS1613139560548","","","null","","","","","<p><img src= images/blank.png width =""200"" height = ""200"" style = ""float:right""></p><p><img src=images/blank.png width =""800"" height = ""200""></p>","","","","","","","",""
"","107.51499980688095","sequential-stimulus-presentation","279","337088","0.0-53.0-1.0","SS1613139560548","trial","","40","800","907.514999806881","images/stimuli/spore_stims/simple_18_B_d.gif","images/stimuli/spore_stims/simple_18_A_d.gif","","","","","15","simple_similar","images/stimuli/spore_stims/simple_18_A_d.gif","middle",""
"","null","html-keyboard-response","280","337986","0.0-53.0-0.1","SS1613139560548","","","null","","","","","<p><img src= images/blank.png width =""200"" height = ""200"" style = ""float:right""></p><p><img src=images/blank.png width =""800"" height = ""200""></p>","","","","","","","",""
"","62.59499955922365","sequential-stimulus-presentation","281","338881","0.0-53.0-1.1","SS1613139560548","trial","","40","800","862.5949995592237","images/stimuli/spore_stims/simple_18_B_d.gif","images/stimuli/spore_stims/simple_18_A_d.gif","","","","","15","simple_similar","images/stimuli/spore_stims/simple_18_A_d.gif","middle",""
"","null","html-keyboard-response","282","339841","0.0-53.0-0.2","SS1613139560548","","","null","","","","","<p><img src= images/blank.png width =""200"" height = ""200"" style = ""float:right""></p><p><img src=images/blank.png width =""800"" height = ""200""></p>","","","","","","","",""
"","70.34000009298325","sequential-stimulus-presentation","283","340731","0.0-53.0-1.2","SS1613139560548","trial","","40","800","870.3400000929832","images/stimuli/spore_stims/simple_18_B_d.gif","images/stimuli/spore_stims/simple_18_A_d.gif","","","","","15","simple_similar","images/stimuli/spore_stims/simple_18_A_d.gif","middle",""
"","null","html-keyboard-response","284","341922","0.0-53.0-0.3","SS1613139560548","","","null","","","","","<p><img src= images/blank.png width =""200"" height = ""200"" style = ""float:right""></p><p><img src=images/blank.png width =""800"" height = ""200""></p>","","","","","","","",""
"","90.16499947756529","sequential-stimulus-presentation","285","342847","0.0-53.0-1.3","SS1613139560548","trial","","40","800","890.1649994775653","images/stimuli/spore_stims/simple_18_B_d.gif","images/stimuli/spore_stims/simple_18_A_d.gif","","","","","15","simple_similar","images/stimuli/spore_stims/simple_18_A_d.gif","middle",""
"","null","html-keyboard-response","286","343720","0.0-53.0-0.4","SS1613139560548","","","null","","","","","<p><img src= images/blank.png width =""200"" height = ""200"" style = ""float:right""></p><p><img src=images/blank.png width =""800"" height = ""200""></p>","","","","","","","",""
"","73.22000060230494","sequential-stimulus-presentation","287","344615","0.0-53.0-1.4","SS1613139560548","trial","","40","800","873.2200006023049","images/stimuli/spore_stims/simple_18_B_d.gif","images/stimuli/spore_stims/simple_18_A_d.gif","","","","","15","simple_similar","images/stimuli/spore_stims/simple_18_A_d.gif","middle",""
"","null","html-keyboard-response","288","345595","0.0-53.0-0.5","SS1613139560548","","","null","","","","","<p><img src= images/blank.png width =""200"" height = ""200"" style = ""float:right""></p><p><img src=images/blank.png width =""800"" height = ""200""></p>","","","","","","","",""
"","0.6149997934699059","sequential-stimulus-presentation","289","346420","0.0-53.0-1.5","SS1613139560548","trial","","40","800","800.6149997934699","images/stimuli/spore_stims/simple_18_B_d.gif","images/stimuli/spore_stims/simple_18_A_d.gif","","","","","15","simple_similar","images/stimuli/spore_stims/simple_18_B_d.gif","right",""
"","null","html-keyboard-response","290","347621","0.0-53.0-0.6","SS1613139560548","","","null","","","","","<p><img src= images/blank.png width =""200"" height = ""200"" style = ""float:right""></p><p><img src=images/blank.png width =""800"" height = ""200""></p>","","","","","","","",""
"","122.11500015109777","sequential-stimulus-presentation","291","348562","0.0-53.0-1.6","SS1613139560548","trial","","40","800","922.1150001510978","images/stimuli/spore_stims/simple_18_B_d.gif","images/stimuli/spore_stims/simple_18_A_d.gif","","","","","15","simple_similar","images/stimuli/spore_stims/simple_18_A_d.gif","middle",""
"","null","html-keyboard-response","292","349774","0.0-53.0-0.7","SS1613139560548","","","null","","","","","<p><img src= images/blank.png width =""200"" height = ""200"" style = ""float:right""></p><p><img src=images/blank.png width =""800"" height = ""200""></p>","","","","","","","",""
"","578.1649993732572","sequential-stimulus-presentation","293","351215","0.0-53.0-1.7","SS1613139560548","trial","","40","800","1378.1649993732572","images/stimuli/spore_stims/simple_18_B_d.gif","images/stimuli/spore_stims/simple_18_A_d.gif","","","","","15","simple_similar","images/stimuli/spore_stims/simple_18_A_d.gif","middle",""
"","2851.2850003317","html-keyboard-response","294","354091","0.0-54.0","SS1613139560548","pref_question","","50","","","","","<video width ='960' height = '540' style='padding-top:8%' autoplay muted><source src='images/stimuli/wall_pref.mp4' type='video/mp4'></video>","2","middle","45%","15","","","",""
"","181.28499947488308","sequential-stimulus-presentation","295","355089","0.0-55.0","SS1613139560548","pref_reveal","","40","800","981.2849994748831","null","null","","","","","15","","","","background"
"","null","html-keyboard-response","296","356013","0.0-56.0-0.0","SS1613139560548","","","null","","","","","<p><img src= images/blank.png width =""200"" height = ""200"" style = ""float:right""></p><p><img src=images/blank.png width =""800"" height = ""200""></p>","","","","","","","",""
"","809.3249993398786","sequential-stimulus-presentation","297","357638","0.0-56.0-1.0","SS1613139560548","trial","","40","800","1609.3249993398786","images/stimuli/spore_stims/complex_20_B_d.gif","images/stimuli/spore_stims/complex_07_A_a.gif","","","","","16","complex_dissimilar","images/stimuli/spore_stims/complex_07_A_a.gif","left",""
"","null","html-keyboard-response","298","358756","0.0-56.0-0.1","SS1613139560548","","","null","","","","","<p><img src= images/blank.png width =""200"" height = ""200"" style = ""float:right""></p><p><img src=images/blank.png width =""800"" height = ""200""></p>","","","","","","","",""
"","6.98500033468008","sequential-stimulus-presentation","299","359586","0.0-56.0-1.1","SS1613139560548","trial","","40","800","806.9850003346801","images/stimuli/spore_stims/complex_20_B_d.gif","images/stimuli/spore_stims/complex_07_A_a.gif","","","","","16","complex_dissimilar","images/stimuli/spore_stims/complex_07_A_a.gif","left",""
"","null","html-keyboard-response","300","360590","0.0-56.0-0.2","SS1613139560548","","","null","","","","","<p><img src= images/blank.png width =""200"" height = ""200"" style = ""float:right""></p><p><img src=images/blank.png width =""800"" height = ""200""></p>","","","","","","","",""
"","275.8900001645088","sequential-stimulus-presentation","301","361680","0.0-56.0-1.2","SS1613139560548","trial","","40","800","1075.8900001645088","images/stimuli/spore_stims/complex_20_B_d.gif","images/stimuli/spore_stims/complex_07_A_a.gif","","","","","16","complex_dissimilar","images/stimuli/spore_stims/complex_07_A_a.gif","left",""
"","null","html-keyboard-response","302","362607","0.0-56.0-0.3","SS1613139560548","","","null","","","","","<p><img src= images/blank.png width =""200"" height = ""200"" style = ""float:right""></p><p><img src=images/blank.png width =""800"" height = ""200""></p>","","","","","","","",""
"","108.14499948173761","sequential-stimulus-presentation","303","363533","0.0-56.0-1.3","SS1613139560548","trial","","40","800","908.1449994817376","images/stimuli/spore_stims/complex_20_B_d.gif","images/stimuli/spore_stims/complex_07_A_a.gif","","","","","16","complex_dissimilar","images/stimuli/spore_stims/complex_07_A_a.gif","left",""
"","null","html-keyboard-response","304","364543","0.0-56.0-0.4","SS1613139560548","","","null","","","","","<p><img src= images/blank.png width =""200"" height = ""200"" style = ""float:right""></p><p><img src=images/blank.png width =""800"" height = ""200""></p>","","","","","","","",""
"","94.48500070720911","sequential-stimulus-presentation","305","365456","0.0-56.0-1.4","SS1613139560548","trial","","40","800","894.4850007072091","images/stimuli/spore_stims/complex_20_B_d.gif","images/stimuli/spore_stims/complex_07_A_a.gif","","","","","16","complex_dissimilar","images/stimuli/spore_stims/complex_20_B_d.gif","right",""
"","null","html-keyboard-response","306","366541","0.0-56.0-0.5","SS1613139560548","","","null","","","","","<p><img src= images/blank.png width =""200"" height = ""200"" style = ""float:right""></p><p><img src=images/blank.png width =""800"" height = ""200""></p>","","","","","","","",""
"","200.68500004708767","sequential-stimulus-presentation","307","367575","0.0-56.0-1.5","SS1613139560548","trial","","40","800","1000.6850000470877","images/stimuli/spore_stims/complex_20_B_d.gif","images/stimuli/spore_stims/complex_07_A_a.gif","","","","","16","complex_dissimilar","images/stimuli/spore_stims/complex_07_A_a.gif","left",""
"","null","html-keyboard-response","308","368875","0.0-56.0-0.6","SS1613139560548","","","null","","","","","<p><img src= images/blank.png width =""200"" height = ""200"" style = ""float:right""></p><p><img src=images/blank.png width =""800"" height = ""200""></p>","","","","","","","",""
"","62.26500030606985","sequential-stimulus-presentation","309","369756","0.0-56.0-1.6","SS1613139560548","trial","","40","800","862.2650003060699","images/stimuli/spore_stims/complex_20_B_d.gif","images/stimuli/spore_stims/complex_07_A_a.gif","","","","","16","complex_dissimilar","images/stimuli/spore_stims/complex_07_A_a.gif","left",""
"","null","html-keyboard-response","310","370745","0.0-56.0-0.7","SS1613139560548","","","null","","","","","<p><img src= images/blank.png width =""200"" height = ""200"" style = ""float:right""></p><p><img src=images/blank.png width =""800"" height = ""200""></p>","","","","","","","",""
"","164.52000010758638","sequential-stimulus-presentation","311","371725","0.0-56.0-1.7","SS1613139560548","trial","","40","800","964.5200001075864","images/stimuli/spore_stims/complex_20_B_d.gif","images/stimuli/spore_stims/complex_07_A_a.gif","","","","","16","complex_dissimilar","images/stimuli/spore_stims/complex_07_A_a.gif","left",""
"","5456.384999677539","html-keyboard-response","312","377204","0.0-57.0","SS1613139560548","pref_question","","49","","","","","<video width ='960' height = '540' style='padding-top:8%' autoplay muted><source src='images/stimuli/wall_pref.mp4' type='video/mp4'></video>","1","left","25%","16","","","",""
