"view_history","rt","trial_type","trial_index","time_elapsed","internal_node_id","subject","stimulus_type","trial_stimulus","key_press","minimum_viewing_duration","trial_looking_time","block_deviant","block_background","stimulus","wall_pref","location","location_percent","block_number","block_type","stimulus_displayed","position_displayed","stim_type_selected","responses","question_order","stimulus_left","stimulus_right"
"[{""page_index"":0,""viewing_time"":5947.370000001683}]","5948.230000001786","instructions","0","5949","0.0-0.0","SS1613083417843","","","","","","","","","","","","","","","","","","","",""
"[{""page_index"":0,""viewing_time"":7198.490000002494},{""page_index"":1,""viewing_time"":54822.635000004084}]","62021.44000000408","instructions","1","69979","0.0-1.0","SS1613083417843","instructions","","","","","","","","","","","","","","","","","","",""
"","3662.3949999993783","sequential-stimulus-presentation","2","74447","0.0-2.0","SS1613083417843","","","40","800","4462.394999999378","null","null","","","","","","","","","","","","",""
"","831.8549999967217","sequential-stimulus-presentation","3","76084","0.0-3.0","SS1613083417843","","","40","800","1631.8549999967217","null","null","","","","","","","","","","","","",""
"[{""page_index"":0,""viewing_time"":4588.7950000033015}]","4589.2450000028475","instructions","4","80674","0.0-4.0","SS1613083417843","instructions","","","","","","","","","","","","","","","","","","",""
"","7466.085000000021","html-keyboard-response","5","88143","0.0-5.0","SS1613083417843","instructions","","50","","","","","<video width ='960' height = '540' autoplay muted><source src='images/stimuli/wall_pref.mp4' type='video/mp4'></video>","2","middle","45%","","","","","","","","",""
"","1813.6700000031851","sequential-stimulus-presentation","6","90777","0.0-6.0","SS1613083417843","pref_reveal","","40","800","2613.670000003185","null","null","","","","","","","","","","","","",""
"[{""page_index"":0,""viewing_time"":6076.734999995097},{""page_index"":1,""viewing_time"":3949.145000005956},{""page_index"":2,""viewing_time"":1598.7849999946775},{""page_index"":3,""viewing_time"":840.9050000045681}]","12465.839999997115","instructions","7","103244","0.0-7.0","SS1613083417843","instructions","","","","","","","","","","","","","","","","","","",""
"","null","html-keyboard-response","8","104418","0.0-8.0-0.0","SS1613083417843","","","null","","","","","<p><img src= images/blank.png width =""200"" height = ""200"" style = ""float:right""></p><p><img src=images/blank.png width =""800"" height = ""200""></p>","","","","","","","","","","","",""
"","103.59500000049593","sequential-stimulus-presentation","9","105328","0.0-8.0-1.0","SS1613083417843","trial","","40","800","903.5950000004959","images/stimuli/spore_stims/simple_14_A_c.gif","images/stimuli/spore_stims/simple_14_B_c.gif","","","","","0","simple_similar","images/stimuli/spore_stims/simple_14_B_c.gif","right","","","","",""
"","null","html-keyboard-response","10","106297","0.0-8.0-0.1","SS1613083417843","","","null","","","","","<p><img src= images/blank.png width =""200"" height = ""200"" style = ""float:right""></p><p><img src=images/blank.png width =""800"" height = ""200""></p>","","","","","","","","","","","",""
"","149.4849999944563","sequential-stimulus-presentation","11","107254","0.0-8.0-1.1","SS1613083417843","trial","","40","800","949.4849999944563","images/stimuli/spore_stims/simple_14_A_c.gif","images/stimuli/spore_stims/simple_14_B_c.gif","","","","","0","simple_similar","images/stimuli/spore_stims/simple_14_B_c.gif","right","","","","",""
"","null","html-keyboard-response","12","108425","0.0-8.0-0.2","SS1613083417843","","","null","","","","","<p><img src= images/blank.png width =""200"" height = ""200"" style = ""float:right""></p><p><img src=images/blank.png width =""800"" height = ""200""></p>","","","","","","","","","","","",""
"","300.9749999982887","sequential-stimulus-presentation","13","109542","0.0-8.0-1.2","SS1613083417843","trial","","40","800","1100.9749999982887","images/stimuli/spore_stims/simple_14_A_c.gif","images/stimuli/spore_stims/simple_14_B_c.gif","","","","","0","simple_similar","images/stimuli/spore_stims/simple_14_B_c.gif","right","","","","",""
"","null","html-keyboard-response","14","110568","0.0-8.0-0.3","SS1613083417843","","","null","","","","","<p><img src= images/blank.png width =""200"" height = ""200"" style = ""float:right""></p><p><img src=images/blank.png width =""800"" height = ""200""></p>","","","","","","","","","","","",""
"","268.8899999993737","sequential-stimulus-presentation","15","111642","0.0-8.0-1.3","SS1613083417843","trial","","40","800","1068.8899999993737","images/stimuli/spore_stims/simple_14_A_c.gif","images/stimuli/spore_stims/simple_14_B_c.gif","","","","","0","simple_similar","images/stimuli/spore_stims/simple_14_B_c.gif","right","","","","",""
"","null","html-keyboard-response","16","112746","0.0-8.0-0.4","SS1613083417843","","","null","","","","","<p><img src= images/blank.png width =""200"" height = ""200"" style = ""float:right""></p><p><img src=images/blank.png width =""800"" height = ""200""></p>","","","","","","","","","","","",""
"","241.79500000172993","sequential-stimulus-presentation","17","113799","0.0-8.0-1.4","SS1613083417843","trial","","40","800","1041.79500000173","images/stimuli/spore_stims/simple_14_A_c.gif","images/stimuli/spore_stims/simple_14_B_c.gif","","","","","0","simple_similar","images/stimuli/spore_stims/simple_14_B_c.gif","right","","","","",""
"","null","html-keyboard-response","18","115055","0.0-8.0-0.5","SS1613083417843","","","null","","","","","<p><img src= images/blank.png width =""200"" height = ""200"" style = ""float:right""></p><p><img src=images/blank.png width =""800"" height = ""200""></p>","","","","","","","","","","","",""
"","174.13999999553198","sequential-stimulus-presentation","19","116034","0.0-8.0-1.5","SS1613083417843","trial","","40","800","974.139999995532","images/stimuli/spore_stims/simple_14_A_c.gif","images/stimuli/spore_stims/simple_14_B_c.gif","","","","","0","simple_similar","images/stimuli/spore_stims/simple_14_A_c.gif","left","","","","",""
"","null","html-keyboard-response","20","117288","0.0-8.0-0.6","SS1613083417843","","","null","","","","","<p><img src= images/blank.png width =""200"" height = ""200"" style = ""float:right""></p><p><img src=images/blank.png width =""800"" height = ""200""></p>","","","","","","","","","","","",""
"","93.27000000484986","sequential-stimulus-presentation","21","118189","0.0-8.0-1.6","SS1613083417843","trial","","40","800","893.2700000048499","images/stimuli/spore_stims/simple_14_A_c.gif","images/stimuli/spore_stims/simple_14_B_c.gif","","","","","0","simple_similar","images/stimuli/spore_stims/simple_14_B_c.gif","right","","","","",""
"","null","html-keyboard-response","22","119421","0.0-8.0-0.7","SS1613083417843","","","null","","","","","<p><img src= images/blank.png width =""200"" height = ""200"" style = ""float:right""></p><p><img src=images/blank.png width =""800"" height = ""200""></p>","","","","","","","","","","","",""
"","529.419999998936","sequential-stimulus-presentation","23","120754","0.0-8.0-1.7","SS1613083417843","trial","","40","800","1329.419999998936","images/stimuli/spore_stims/simple_14_A_c.gif","images/stimuli/spore_stims/simple_14_B_c.gif","","","","","0","simple_similar","images/stimuli/spore_stims/simple_14_B_c.gif","right","","","","",""
"","1916.4349999991828","html-keyboard-response","24","122674","0.0-9.0","SS1613083417843","pref_question","","50","","","","","<video width ='960' height = '540' style='padding-top:8%' autoplay muted><source src='images/stimuli/wall_pref.mp4' type='video/mp4'></video>","2","middle","45%","0","","","","","","","",""
"","547.0149999964633","sequential-stimulus-presentation","25","124026","0.0-10.0","SS1613083417843","pref_reveal","","40","800","1347.0149999964633","null","null","","","","","0","","","","novel","","","",""
"","null","html-keyboard-response","26","125275","0.0-11.0-0.0","SS1613083417843","","","null","","","","","<p><img src= images/blank.png width =""200"" height = ""200"" style = ""float:right""></p><p><img src=images/blank.png width =""800"" height = ""200""></p>","","","","","","","","","","","",""
"","33.409999996365514","sequential-stimulus-presentation","27","126113","0.0-11.0-1.0","SS1613083417843","trial","","40","800","833.4099999963655","images/stimuli/spore_stims/complex_15_A_a.gif","images/stimuli/spore_stims/complex_04_A_c.gif","","","","","1","complex_dissimilar","images/stimuli/spore_stims/complex_04_A_c.gif","right","","","","",""
"","null","html-keyboard-response","28","127191","0.0-11.0-0.1","SS1613083417843","","","null","","","","","<p><img src= images/blank.png width =""200"" height = ""200"" style = ""float:right""></p><p><img src=images/blank.png width =""800"" height = ""200""></p>","","","","","","","","","","","",""
"","2223.0650000055903","sequential-stimulus-presentation","29","130218","0.0-11.0-1.1","SS1613083417843","trial","","40","800","3023.0650000055903","images/stimuli/spore_stims/complex_15_A_a.gif","images/stimuli/spore_stims/complex_04_A_c.gif","","","","","1","complex_dissimilar","images/stimuli/spore_stims/complex_04_A_c.gif","right","","","","",""
"","null","html-keyboard-response","30","131128","0.0-11.0-0.2","SS1613083417843","","","null","","","","","<p><img src= images/blank.png width =""200"" height = ""200"" style = ""float:right""></p><p><img src=images/blank.png width =""800"" height = ""200""></p>","","","","","","","","","","","",""
"","791.9350000011036","sequential-stimulus-presentation","31","132726","0.0-11.0-1.2","SS1613083417843","trial","","40","800","1591.9350000011036","images/stimuli/spore_stims/complex_15_A_a.gif","images/stimuli/spore_stims/complex_04_A_c.gif","","","","","1","complex_dissimilar","images/stimuli/spore_stims/complex_04_A_c.gif","right","","","","",""
"","null","html-keyboard-response","32","133709","0.0-11.0-0.3","SS1613083417843","","","null","","","","","<p><img src= images/blank.png width =""200"" height = ""200"" style = ""float:right""></p><p><img src=images/blank.png width =""800"" height = ""200""></p>","","","","","","","","","","","",""
"","700.074999993376","sequential-stimulus-presentation","33","135223","0.0-11.0-1.3","SS1613083417843","trial","","40","800","1500.074999993376","images/stimuli/spore_stims/complex_15_A_a.gif","images/stimuli/spore_stims/complex_04_A_c.gif","","","","","1","complex_dissimilar","images/stimuli/spore_stims/complex_15_A_a.gif","left","","","","",""
"","null","html-keyboard-response","34","136303","0.0-11.0-0.4","SS1613083417843","","","null","","","","","<p><img src= images/blank.png width =""200"" height = ""200"" style = ""float:right""></p><p><img src=images/blank.png width =""800"" height = ""200""></p>","","","","","","","","","","","",""
"","498.8900000025751","sequential-stimulus-presentation","35","137607","0.0-11.0-1.4","SS1613083417843","trial","","40","800","1298.890000002575","images/stimuli/spore_stims/complex_15_A_a.gif","images/stimuli/spore_stims/complex_04_A_c.gif","","","","","1","complex_dissimilar","images/stimuli/spore_stims/complex_04_A_c.gif","right","","","","",""
"","null","html-keyboard-response","36","138662","0.0-11.0-0.5","SS1613083417843","","","null","","","","","<p><img src= images/blank.png width =""200"" height = ""200"" style = ""float:right""></p><p><img src=images/blank.png width =""800"" height = ""200""></p>","","","","","","","","","","","",""
"","571.8100000012782","sequential-stimulus-presentation","37","140053","0.0-11.0-1.5","SS1613083417843","trial","","40","800","1371.8100000012782","images/stimuli/spore_stims/complex_15_A_a.gif","images/stimuli/spore_stims/complex_04_A_c.gif","","","","","1","complex_dissimilar","images/stimuli/spore_stims/complex_04_A_c.gif","right","","","","",""
"","null","html-keyboard-response","38","141197","0.0-11.0-0.6","SS1613083417843","","","null","","","","","<p><img src= images/blank.png width =""200"" height = ""200"" style = ""float:right""></p><p><img src=images/blank.png width =""800"" height = ""200""></p>","","","","","","","","","","","",""
"","423.33000000508036","sequential-stimulus-presentation","39","142434","0.0-11.0-1.6","SS1613083417843","trial","","40","800","1223.3300000050804","images/stimuli/spore_stims/complex_15_A_a.gif","images/stimuli/spore_stims/complex_04_A_c.gif","","","","","1","complex_dissimilar","images/stimuli/spore_stims/complex_04_A_c.gif","right","","","","",""
"","null","html-keyboard-response","40","143694","0.0-11.0-0.7","SS1613083417843","","","null","","","","","<p><img src= images/blank.png width =""200"" height = ""200"" style = ""float:right""></p><p><img src=images/blank.png width =""800"" height = ""200""></p>","","","","","","","","","","","",""
"","395.8000000056927","sequential-stimulus-presentation","41","144909","0.0-11.0-1.7","SS1613083417843","trial","","40","800","1195.8000000056927","images/stimuli/spore_stims/complex_15_A_a.gif","images/stimuli/spore_stims/complex_04_A_c.gif","","","","","1","complex_dissimilar","images/stimuli/spore_stims/complex_04_A_c.gif","right","","","","",""
"","1251.9949999987148","html-keyboard-response","42","146164","0.0-12.0","SS1613083417843","pref_question","","50","","","","","<video width ='960' height = '540' style='padding-top:8%' autoplay muted><source src='images/stimuli/wall_pref.mp4' type='video/mp4'></video>","2","middle","45%","1","","","","","","","",""
"","893.5300000011921","sequential-stimulus-presentation","43","147862","0.0-13.0","SS1613083417843","pref_reveal","","40","800","1693.530000001192","null","null","","","","","1","","","","novel","","","",""
"","null","html-keyboard-response","44","149012","0.0-14.0-0.0","SS1613083417843","","","null","","","","","<p><img src= images/blank.png width =""200"" height = ""200"" style = ""float:right""></p><p><img src=images/blank.png width =""800"" height = ""200""></p>","","","","","","","","","","","",""
"","652.0799999998417","sequential-stimulus-presentation","45","150471","0.0-14.0-1.0","SS1613083417843","trial","","40","800","1452.0799999998417","images/stimuli/spore_stims/complex_11_B_c.gif","images/stimuli/spore_stims/complex_17_A_a.gif","","","","","2","complex_dissimilar","images/stimuli/spore_stims/complex_17_A_a.gif","left","","","","",""
"","null","html-keyboard-response","46","151657","0.0-14.0-0.1","SS1613083417843","","","null","","","","","<p><img src= images/blank.png width =""200"" height = ""200"" style = ""float:right""></p><p><img src=images/blank.png width =""800"" height = ""200""></p>","","","","","","","","","","","",""
"","488.36999999912223","sequential-stimulus-presentation","47","152953","0.0-14.0-1.1","SS1613083417843","trial","","40","800","1288.3699999991222","images/stimuli/spore_stims/complex_11_B_c.gif","images/stimuli/spore_stims/complex_17_A_a.gif","","","","","2","complex_dissimilar","images/stimuli/spore_stims/complex_17_A_a.gif","left","","","","",""
"","null","html-keyboard-response","48","154127","0.0-14.0-0.2","SS1613083417843","","","null","","","","","<p><img src= images/blank.png width =""200"" height = ""200"" style = ""float:right""></p><p><img src=images/blank.png width =""800"" height = ""200""></p>","","","","","","","","","","","",""
"","781.715000004624","sequential-stimulus-presentation","49","155713","0.0-14.0-1.2","SS1613083417843","trial","","40","800","1581.715000004624","images/stimuli/spore_stims/complex_11_B_c.gif","images/stimuli/spore_stims/complex_17_A_a.gif","","","","","2","complex_dissimilar","images/stimuli/spore_stims/complex_11_B_c.gif","middle","","","","",""
"","null","html-keyboard-response","50","156755","0.0-14.0-0.3","SS1613083417843","","","null","","","","","<p><img src= images/blank.png width =""200"" height = ""200"" style = ""float:right""></p><p><img src=images/blank.png width =""800"" height = ""200""></p>","","","","","","","","","","","",""
"","1197.4649999974645","sequential-stimulus-presentation","51","158758","0.0-14.0-1.3","SS1613083417843","trial","","40","800","1997.4649999974645","images/stimuli/spore_stims/complex_11_B_c.gif","images/stimuli/spore_stims/complex_17_A_a.gif","","","","","2","complex_dissimilar","images/stimuli/spore_stims/complex_17_A_a.gif","left","","","","",""
"","null","html-keyboard-response","52","159963","0.0-14.0-0.4","SS1613083417843","","","null","","","","","<p><img src= images/blank.png width =""200"" height = ""200"" style = ""float:right""></p><p><img src=images/blank.png width =""800"" height = ""200""></p>","","","","","","","","","","","",""
"","377.61999999929685","sequential-stimulus-presentation","53","161147","0.0-14.0-1.4","SS1613083417843","trial","","40","800","1177.6199999992969","images/stimuli/spore_stims/complex_11_B_c.gif","images/stimuli/spore_stims/complex_17_A_a.gif","","","","","2","complex_dissimilar","images/stimuli/spore_stims/complex_17_A_a.gif","left","","","","",""
"","null","html-keyboard-response","54","162076","0.0-14.0-0.5","SS1613083417843","","","null","","","","","<p><img src= images/blank.png width =""200"" height = ""200"" style = ""float:right""></p><p><img src=images/blank.png width =""800"" height = ""200""></p>","","","","","","","","","","","",""
"","391.7899999942165","sequential-stimulus-presentation","55","163273","0.0-14.0-1.5","SS1613083417843","trial","","40","800","1191.7899999942165","images/stimuli/spore_stims/complex_11_B_c.gif","images/stimuli/spore_stims/complex_17_A_a.gif","","","","","2","complex_dissimilar","images/stimuli/spore_stims/complex_17_A_a.gif","left","","","","",""
"","null","html-keyboard-response","56","164520","0.0-14.0-0.6","SS1613083417843","","","null","","","","","<p><img src= images/blank.png width =""200"" height = ""200"" style = ""float:right""></p><p><img src=images/blank.png width =""800"" height = ""200""></p>","","","","","","","","","","","",""
"","364.64999999589054","sequential-stimulus-presentation","57","165691","0.0-14.0-1.6","SS1613083417843","trial","","40","800","1164.6499999958905","images/stimuli/spore_stims/complex_11_B_c.gif","images/stimuli/spore_stims/complex_17_A_a.gif","","","","","2","complex_dissimilar","images/stimuli/spore_stims/complex_17_A_a.gif","left","","","","",""
"","null","html-keyboard-response","58","166496","0.0-14.0-0.7","SS1613083417843","","","null","","","","","<p><img src= images/blank.png width =""200"" height = ""200"" style = ""float:right""></p><p><img src=images/blank.png width =""800"" height = ""200""></p>","","","","","","","","","","","",""
"","396.89999999973224","sequential-stimulus-presentation","59","167698","0.0-14.0-1.7","SS1613083417843","trial","","40","800","1196.8999999997322","images/stimuli/spore_stims/complex_11_B_c.gif","images/stimuli/spore_stims/complex_17_A_a.gif","","","","","2","complex_dissimilar","images/stimuli/spore_stims/complex_17_A_a.gif","left","","","","",""
"","1059.544999996433","html-keyboard-response","60","168761","0.0-15.0","SS1613083417843","pref_question","","51","","","","","<video width ='960' height = '540' style='padding-top:8%' autoplay muted><source src='images/stimuli/wall_pref.mp4' type='video/mp4'></video>","3","right","66%","2","","","","","","","",""
"","664.1850000014529","sequential-stimulus-presentation","61","170230","0.0-16.0","SS1613083417843","pref_reveal","","40","800","1464.1850000014529","null","null","","","","","2","","","","novel","","","",""
"","null","html-keyboard-response","62","171327","0.0-17.0-0.0","SS1613083417843","","","null","","","","","<p><img src= images/blank.png width =""200"" height = ""200"" style = ""float:right""></p><p><img src=images/blank.png width =""800"" height = ""200""></p>","","","","","","","","","","","",""
"","394.4100000007893","sequential-stimulus-presentation","63","172526","0.0-17.0-1.0","SS1613083417843","trial","","40","800","1194.4100000007893","images/stimuli/spore_stims/simple_20_B_c.gif","images/stimuli/spore_stims/simple_09_B_a.gif","","","","","3","simple_dissimilar","images/stimuli/spore_stims/simple_09_B_a.gif","right","","","","",""
"","null","html-keyboard-response","64","173328","0.0-17.0-0.1","SS1613083417843","","","null","","","","","<p><img src= images/blank.png width =""200"" height = ""200"" style = ""float:right""></p><p><img src=images/blank.png width =""800"" height = ""200""></p>","","","","","","","","","","","",""
"","349.99499999685213","sequential-stimulus-presentation","65","174492","0.0-17.0-1.1","SS1613083417843","trial","","40","800","1149.9949999968521","images/stimuli/spore_stims/simple_20_B_c.gif","images/stimuli/spore_stims/simple_09_B_a.gif","","","","","3","simple_dissimilar","images/stimuli/spore_stims/simple_09_B_a.gif","right","","","","",""
"","null","html-keyboard-response","66","175670","0.0-17.0-0.2","SS1613083417843","","","null","","","","","<p><img src= images/blank.png width =""200"" height = ""200"" style = ""float:right""></p><p><img src=images/blank.png width =""800"" height = ""200""></p>","","","","","","","","","","","",""
"","264.6000000022468","sequential-stimulus-presentation","67","176740","0.0-17.0-1.2","SS1613083417843","trial","","40","800","1064.6000000022468","images/stimuli/spore_stims/simple_20_B_c.gif","images/stimuli/spore_stims/simple_09_B_a.gif","","","","","3","simple_dissimilar","images/stimuli/spore_stims/simple_09_B_a.gif","right","","","","",""
"","null","html-keyboard-response","68","177732","0.0-17.0-0.3","SS1613083417843","","","null","","","","","<p><img src= images/blank.png width =""200"" height = ""200"" style = ""float:right""></p><p><img src=images/blank.png width =""800"" height = ""200""></p>","","","","","","","","","","","",""
"","390.1949999999488","sequential-stimulus-presentation","69","178929","0.0-17.0-1.3","SS1613083417843","trial","","40","800","1190.1949999999488","images/stimuli/spore_stims/simple_20_B_c.gif","images/stimuli/spore_stims/simple_09_B_a.gif","","","","","3","simple_dissimilar","images/stimuli/spore_stims/simple_20_B_c.gif","left","","","","",""
"","null","html-keyboard-response","70","179907","0.0-17.0-0.4","SS1613083417843","","","null","","","","","<p><img src= images/blank.png width =""200"" height = ""200"" style = ""float:right""></p><p><img src=images/blank.png width =""800"" height = ""200""></p>","","","","","","","","","","","",""
"","359.0150000018184","sequential-stimulus-presentation","71","181075","0.0-17.0-1.4","SS1613083417843","trial","","40","800","1159.0150000018184","images/stimuli/spore_stims/simple_20_B_c.gif","images/stimuli/spore_stims/simple_09_B_a.gif","","","","","3","simple_dissimilar","images/stimuli/spore_stims/simple_09_B_a.gif","right","","","","",""
"","null","html-keyboard-response","72","182368","0.0-17.0-0.5","SS1613083417843","","","null","","","","","<p><img src= images/blank.png width =""200"" height = ""200"" style = ""float:right""></p><p><img src=images/blank.png width =""800"" height = ""200""></p>","","","","","","","","","","","",""
"","379.9100000032922","sequential-stimulus-presentation","73","183553","0.0-17.0-1.5","SS1613083417843","trial","","40","800","1179.9100000032922","images/stimuli/spore_stims/simple_20_B_c.gif","images/stimuli/spore_stims/simple_09_B_a.gif","","","","","3","simple_dissimilar","images/stimuli/spore_stims/simple_09_B_a.gif","right","","","","",""
"","null","html-keyboard-response","74","184707","0.0-17.0-0.6","SS1613083417843","","","null","","","","","<p><img src= images/blank.png width =""200"" height = ""200"" style = ""float:right""></p><p><img src=images/blank.png width =""800"" height = ""200""></p>","","","","","","","","","","","",""
"","264.66500000242377","sequential-stimulus-presentation","75","185777","0.0-17.0-1.6","SS1613083417843","trial","","40","800","1064.6650000024238","images/stimuli/spore_stims/simple_20_B_c.gif","images/stimuli/spore_stims/simple_09_B_a.gif","","","","","3","simple_dissimilar","images/stimuli/spore_stims/simple_09_B_a.gif","right","","","","",""
"","null","html-keyboard-response","76","186936","0.0-17.0-0.7","SS1613083417843","","","null","","","","","<p><img src= images/blank.png width =""200"" height = ""200"" style = ""float:right""></p><p><img src=images/blank.png width =""800"" height = ""200""></p>","","","","","","","","","","","",""
"","345.645000001241","sequential-stimulus-presentation","77","188088","0.0-17.0-1.7","SS1613083417843","trial","","40","800","1145.645000001241","images/stimuli/spore_stims/simple_20_B_c.gif","images/stimuli/spore_stims/simple_09_B_a.gif","","","","","3","simple_dissimilar","images/stimuli/spore_stims/simple_09_B_a.gif","right","","","","",""
"","1036.9100000025355","html-keyboard-response","78","189128","0.0-18.0","SS1613083417843","pref_question","","49","","","","","<video width ='960' height = '540' style='padding-top:8%' autoplay muted><source src='images/stimuli/wall_pref.mp4' type='video/mp4'></video>","1","left","25%","3","","","","","","","",""
"","2680.9899999934714","sequential-stimulus-presentation","79","192615","0.0-19.0","SS1613083417843","pref_reveal","","40","800","3480.9899999934714","null","null","","","","","3","","","","deviant","","","",""
"","null","html-keyboard-response","80","193750","0.0-20.0-0.0","SS1613083417843","","","null","","","","","<p><img src= images/blank.png width =""200"" height = ""200"" style = ""float:right""></p><p><img src=images/blank.png width =""800"" height = ""200""></p>","","","","","","","","","","","",""
"","200.05500000115717","sequential-stimulus-presentation","81","194755","0.0-20.0-1.0","SS1613083417843","trial","","40","800","1000.0550000011572","images/stimuli/spore_stims/complex_18_B_b.gif","images/stimuli/spore_stims/complex_18_A_b.gif","","","","","4","complex_similar","images/stimuli/spore_stims/complex_18_A_b.gif","right","","","","",""
"","null","html-keyboard-response","82","195696","0.0-20.0-0.1","SS1613083417843","","","null","","","","","<p><img src= images/blank.png width =""200"" height = ""200"" style = ""float:right""></p><p><img src=images/blank.png width =""800"" height = ""200""></p>","","","","","","","","","","","",""
"","360.31999999977415","sequential-stimulus-presentation","83","196862","0.0-20.0-1.1","SS1613083417843","trial","","40","800","1160.3199999997742","images/stimuli/spore_stims/complex_18_B_b.gif","images/stimuli/spore_stims/complex_18_A_b.gif","","","","","4","complex_similar","images/stimuli/spore_stims/complex_18_A_b.gif","right","","","","",""
"","null","html-keyboard-response","84","197818","0.0-20.0-0.2","SS1613083417843","","","null","","","","","<p><img src= images/blank.png width =""200"" height = ""200"" style = ""float:right""></p><p><img src=images/blank.png width =""800"" height = ""200""></p>","","","","","","","","","","","",""
"","351.1750000034226","sequential-stimulus-presentation","85","198974","0.0-20.0-1.2","SS1613083417843","trial","","40","800","1151.1750000034226","images/stimuli/spore_stims/complex_18_B_b.gif","images/stimuli/spore_stims/complex_18_A_b.gif","","","","","4","complex_similar","images/stimuli/spore_stims/complex_18_A_b.gif","right","","","","",""
"","null","html-keyboard-response","86","200116","0.0-20.0-0.3","SS1613083417843","","","null","","","","","<p><img src= images/blank.png width =""200"" height = ""200"" style = ""float:right""></p><p><img src=images/blank.png width =""800"" height = ""200""></p>","","","","","","","","","","","",""
"","357.23500000312924","sequential-stimulus-presentation","87","201278","0.0-20.0-1.3","SS1613083417843","trial","","40","800","1157.2350000031292","images/stimuli/spore_stims/complex_18_B_b.gif","images/stimuli/spore_stims/complex_18_A_b.gif","","","","","4","complex_similar","images/stimuli/spore_stims/complex_18_A_b.gif","right","","","","",""
"","null","html-keyboard-response","88","202432","0.0-20.0-0.4","SS1613083417843","","","null","","","","","<p><img src= images/blank.png width =""200"" height = ""200"" style = ""float:right""></p><p><img src=images/blank.png width =""800"" height = ""200""></p>","","","","","","","","","","","",""
"","213.81999999721302","sequential-stimulus-presentation","89","203466","0.0-20.0-1.4","SS1613083417843","trial","","40","800","1013.819999997213","images/stimuli/spore_stims/complex_18_B_b.gif","images/stimuli/spore_stims/complex_18_A_b.gif","","","","","4","complex_similar","images/stimuli/spore_stims/complex_18_A_b.gif","right","","","","",""
"","null","html-keyboard-response","90","204335","0.0-20.0-0.5","SS1613083417843","","","null","","","","","<p><img src= images/blank.png width =""200"" height = ""200"" style = ""float:right""></p><p><img src=images/blank.png width =""800"" height = ""200""></p>","","","","","","","","","","","",""
"","304.9500000051921","sequential-stimulus-presentation","91","205452","0.0-20.0-1.5","SS1613083417843","trial","","40","800","1104.9500000051921","images/stimuli/spore_stims/complex_18_B_b.gif","images/stimuli/spore_stims/complex_18_A_b.gif","","","","","4","complex_similar","images/stimuli/spore_stims/complex_18_A_b.gif","right","","","","",""
"","null","html-keyboard-response","92","206335","0.0-20.0-0.6","SS1613083417843","","","null","","","","","<p><img src= images/blank.png width =""200"" height = ""200"" style = ""float:right""></p><p><img src=images/blank.png width =""800"" height = ""200""></p>","","","","","","","","","","","",""
"","207.03499999945052","sequential-stimulus-presentation","93","207360","0.0-20.0-1.6","SS1613083417843","trial","","40","800","1007.0349999994505","images/stimuli/spore_stims/complex_18_B_b.gif","images/stimuli/spore_stims/complex_18_A_b.gif","","","","","4","complex_similar","images/stimuli/spore_stims/complex_18_A_b.gif","right","","","","",""
"","null","html-keyboard-response","94","208234","0.0-20.0-0.7","SS1613083417843","","","null","","","","","<p><img src= images/blank.png width =""200"" height = ""200"" style = ""float:right""></p><p><img src=images/blank.png width =""800"" height = ""200""></p>","","","","","","","","","","","",""
"","332.1499999947264","sequential-stimulus-presentation","95","209372","0.0-20.0-1.7","SS1613083417843","trial","","40","800","1132.1499999947264","images/stimuli/spore_stims/complex_18_B_b.gif","images/stimuli/spore_stims/complex_18_A_b.gif","","","","","4","complex_similar","images/stimuli/spore_stims/complex_18_B_b.gif","left","","","","",""
"","1306.4250000024913","html-keyboard-response","96","210683","0.0-21.0","SS1613083417843","pref_question","","50","","","","","<video width ='960' height = '540' style='padding-top:8%' autoplay muted><source src='images/stimuli/wall_pref.mp4' type='video/mp4'></video>","2","middle","45%","4","","","","","","","",""
"","841.1049999995157","sequential-stimulus-presentation","97","212329","0.0-22.0","SS1613083417843","pref_reveal","","40","800","1641.1049999995157","null","null","","","","","4","","","","novel","","","",""
"","null","html-keyboard-response","98","213474","0.0-23.0-0.0","SS1613083417843","","","null","","","","","<p><img src= images/blank.png width =""200"" height = ""200"" style = ""float:right""></p><p><img src=images/blank.png width =""800"" height = ""200""></p>","","","","","","","","","","","",""
"","276.1049999971874","sequential-stimulus-presentation","99","214561","0.0-23.0-1.0","SS1613083417843","trial","","40","800","1076.1049999971874","images/stimuli/spore_stims/complex_08_A_a.gif","images/stimuli/spore_stims/complex_08_B_a.gif","","","","","5","complex_similar","images/stimuli/spore_stims/complex_08_B_a.gif","middle","","","","",""
"","null","html-keyboard-response","100","215422","0.0-23.0-0.1","SS1613083417843","","","null","","","","","<p><img src= images/blank.png width =""200"" height = ""200"" style = ""float:right""></p><p><img src=images/blank.png width =""800"" height = ""200""></p>","","","","","","","","","","","",""
"","336.7850000067847","sequential-stimulus-presentation","101","216565","0.0-23.0-1.1","SS1613083417843","trial","","40","800","1136.7850000067847","images/stimuli/spore_stims/complex_08_A_a.gif","images/stimuli/spore_stims/complex_08_B_a.gif","","","","","5","complex_similar","images/stimuli/spore_stims/complex_08_B_a.gif","middle","","","","",""
"","null","html-keyboard-response","102","217745","0.0-23.0-0.2","SS1613083417843","","","null","","","","","<p><img src= images/blank.png width =""200"" height = ""200"" style = ""float:right""></p><p><img src=images/blank.png width =""800"" height = ""200""></p>","","","","","","","","","","","",""
"","200.3550000008545","sequential-stimulus-presentation","103","218759","0.0-23.0-1.2","SS1613083417843","trial","","40","800","1000.3550000008545","images/stimuli/spore_stims/complex_08_A_a.gif","images/stimuli/spore_stims/complex_08_B_a.gif","","","","","5","complex_similar","images/stimuli/spore_stims/complex_08_A_a.gif","right","","","","",""
"","null","html-keyboard-response","104","219732","0.0-23.0-0.3","SS1613083417843","","","null","","","","","<p><img src= images/blank.png width =""200"" height = ""200"" style = ""float:right""></p><p><img src=images/blank.png width =""800"" height = ""200""></p>","","","","","","","","","","","",""
"","328.8749999992433","sequential-stimulus-presentation","105","220866","0.0-23.0-1.3","SS1613083417843","trial","","40","800","1128.8749999992433","images/stimuli/spore_stims/complex_08_A_a.gif","images/stimuli/spore_stims/complex_08_B_a.gif","","","","","5","complex_similar","images/stimuli/spore_stims/complex_08_B_a.gif","middle","","","","",""
"","null","html-keyboard-response","106","222137","0.0-23.0-0.4","SS1613083417843","","","null","","","","","<p><img src= images/blank.png width =""200"" height = ""200"" style = ""float:right""></p><p><img src=images/blank.png width =""800"" height = ""200""></p>","","","","","","","","","","","",""
"","247.59500000072876","sequential-stimulus-presentation","107","223192","0.0-23.0-1.4","SS1613083417843","trial","","40","800","1047.5950000007288","images/stimuli/spore_stims/complex_08_A_a.gif","images/stimuli/spore_stims/complex_08_B_a.gif","","","","","5","complex_similar","images/stimuli/spore_stims/complex_08_B_a.gif","middle","","","","",""
"","null","html-keyboard-response","108","224114","0.0-23.0-0.5","SS1613083417843","","","null","","","","","<p><img src= images/blank.png width =""200"" height = ""200"" style = ""float:right""></p><p><img src=images/blank.png width =""800"" height = ""200""></p>","","","","","","","","","","","",""
"","337.82000000064727","sequential-stimulus-presentation","109","225273","0.0-23.0-1.5","SS1613083417843","trial","","40","800","1137.8200000006473","images/stimuli/spore_stims/complex_08_A_a.gif","images/stimuli/spore_stims/complex_08_B_a.gif","","","","","5","complex_similar","images/stimuli/spore_stims/complex_08_B_a.gif","middle","","","","",""
"","null","html-keyboard-response","110","226517","0.0-23.0-0.6","SS1613083417843","","","null","","","","","<p><img src= images/blank.png width =""200"" height = ""200"" style = ""float:right""></p><p><img src=images/blank.png width =""800"" height = ""200""></p>","","","","","","","","","","","",""
"","363.695000000007","sequential-stimulus-presentation","111","227687","0.0-23.0-1.6","SS1613083417843","trial","","40","800","1163.695000000007","images/stimuli/spore_stims/complex_08_A_a.gif","images/stimuli/spore_stims/complex_08_B_a.gif","","","","","5","complex_similar","images/stimuli/spore_stims/complex_08_B_a.gif","middle","","","","",""
"","null","html-keyboard-response","112","228534","0.0-23.0-0.7","SS1613083417843","","","null","","","","","<p><img src= images/blank.png width =""200"" height = ""200"" style = ""float:right""></p><p><img src=images/blank.png width =""800"" height = ""200""></p>","","","","","","","","","","","",""
"","414.6500000060769","sequential-stimulus-presentation","113","229756","0.0-23.0-1.7","SS1613083417843","trial","","40","800","1214.6500000060769","images/stimuli/spore_stims/complex_08_A_a.gif","images/stimuli/spore_stims/complex_08_B_a.gif","","","","","5","complex_similar","images/stimuli/spore_stims/complex_08_B_a.gif","middle","","","","",""
"","900.0599999999395","html-keyboard-response","114","230661","0.0-24.0","SS1613083417843","pref_question","","49","","","","","<video width ='960' height = '540' style='padding-top:8%' autoplay muted><source src='images/stimuli/wall_pref.mp4' type='video/mp4'></video>","1","left","25%","5","","","","","","","",""
"","788.0999999979394","sequential-stimulus-presentation","115","232255","0.0-25.0","SS1613083417843","pref_reveal","","40","800","1588.0999999979394","null","null","","","","","5","","","","novel","","","",""
"","null","html-keyboard-response","116","233470","0.0-26.0-0.0","SS1613083417843","","","null","","","","","<p><img src= images/blank.png width =""200"" height = ""200"" style = ""float:right""></p><p><img src=images/blank.png width =""800"" height = ""200""></p>","","","","","","","","","","","",""
"","269.110000001092","sequential-stimulus-presentation","117","234545","0.0-26.0-1.0","SS1613083417843","trial","","40","800","1069.110000001092","images/stimuli/spore_stims/simple_20_A_c.gif","images/stimuli/spore_stims/simple_01_A_d.gif","","","","","6","simple_dissimilar","images/stimuli/spore_stims/simple_01_A_d.gif","right","","","","",""
"","null","html-keyboard-response","118","235798","0.0-26.0-0.1","SS1613083417843","","","null","","","","","<p><img src= images/blank.png width =""200"" height = ""200"" style = ""float:right""></p><p><img src=images/blank.png width =""800"" height = ""200""></p>","","","","","","","","","","","",""
"","239.11999999836553","sequential-stimulus-presentation","119","236848","0.0-26.0-1.1","SS1613083417843","trial","","40","800","1039.1199999983655","images/stimuli/spore_stims/simple_20_A_c.gif","images/stimuli/spore_stims/simple_01_A_d.gif","","","","","6","simple_dissimilar","images/stimuli/spore_stims/simple_01_A_d.gif","right","","","","",""
"","null","html-keyboard-response","120","237899","0.0-26.0-0.2","SS1613083417843","","","null","","","","","<p><img src= images/blank.png width =""200"" height = ""200"" style = ""float:right""></p><p><img src=images/blank.png width =""800"" height = ""200""></p>","","","","","","","","","","","",""
"","282.95999999681953","sequential-stimulus-presentation","121","238988","0.0-26.0-1.2","SS1613083417843","trial","","40","800","1082.9599999968195","images/stimuli/spore_stims/simple_20_A_c.gif","images/stimuli/spore_stims/simple_01_A_d.gif","","","","","6","simple_dissimilar","images/stimuli/spore_stims/simple_01_A_d.gif","right","","","","",""
"","null","html-keyboard-response","122","240194","0.0-26.0-0.3","SS1613083417843","","","null","","","","","<p><img src= images/blank.png width =""200"" height = ""200"" style = ""float:right""></p><p><img src=images/blank.png width =""800"" height = ""200""></p>","","","","","","","","","","","",""
"","194.12000000011176","sequential-stimulus-presentation","123","241193","0.0-26.0-1.3","SS1613083417843","trial","","40","800","994.1200000001118","images/stimuli/spore_stims/simple_20_A_c.gif","images/stimuli/spore_stims/simple_01_A_d.gif","","","","","6","simple_dissimilar","images/stimuli/spore_stims/simple_01_A_d.gif","right","","","","",""
"","null","html-keyboard-response","124","242348","0.0-26.0-0.4","SS1613083417843","","","null","","","","","<p><img src= images/blank.png width =""200"" height = ""200"" style = ""float:right""></p><p><img src=images/blank.png width =""800"" height = ""200""></p>","","","","","","","","","","","",""
"","119.97500000143191","sequential-stimulus-presentation","125","243277","0.0-26.0-1.4","SS1613083417843","trial","","40","800","919.9750000014319","images/stimuli/spore_stims/simple_20_A_c.gif","images/stimuli/spore_stims/simple_01_A_d.gif","","","","","6","simple_dissimilar","images/stimuli/spore_stims/simple_01_A_d.gif","right","","","","",""
"","null","html-keyboard-response","126","244323","0.0-26.0-0.5","SS1613083417843","","","null","","","","","<p><img src= images/blank.png width =""200"" height = ""200"" style = ""float:right""></p><p><img src=images/blank.png width =""800"" height = ""200""></p>","","","","","","","","","","","",""
"","251.7249999946216","sequential-stimulus-presentation","127","245388","0.0-26.0-1.5","SS1613083417843","trial","","40","800","1051.7249999946216","images/stimuli/spore_stims/simple_20_A_c.gif","images/stimuli/spore_stims/simple_01_A_d.gif","","","","","6","simple_dissimilar","images/stimuli/spore_stims/simple_01_A_d.gif","right","","","","",""
"","null","html-keyboard-response","128","246268","0.0-26.0-0.6","SS1613083417843","","","null","","","","","<p><img src= images/blank.png width =""200"" height = ""200"" style = ""float:right""></p><p><img src=images/blank.png width =""800"" height = ""200""></p>","","","","","","","","","","","",""
"","466.1550000018906","sequential-stimulus-presentation","129","247539","0.0-26.0-1.6","SS1613083417843","trial","","40","800","1266.1550000018906","images/stimuli/spore_stims/simple_20_A_c.gif","images/stimuli/spore_stims/simple_01_A_d.gif","","","","","6","simple_dissimilar","images/stimuli/spore_stims/simple_20_A_c.gif","middle","","","","",""
"","null","html-keyboard-response","130","248495","0.0-26.0-0.7","SS1613083417843","","","null","","","","","<p><img src= images/blank.png width =""200"" height = ""200"" style = ""float:right""></p><p><img src=images/blank.png width =""800"" height = ""200""></p>","","","","","","","","","","","",""
"","282.42499999760184","sequential-stimulus-presentation","131","249585","0.0-26.0-1.7","SS1613083417843","trial","","40","800","1082.4249999976018","images/stimuli/spore_stims/simple_20_A_c.gif","images/stimuli/spore_stims/simple_01_A_d.gif","","","","","6","simple_dissimilar","images/stimuli/spore_stims/simple_01_A_d.gif","right","","","","",""
"","831.689999999071","html-keyboard-response","132","250422","0.0-27.0","SS1613083417843","pref_question","","49","","","","","<video width ='960' height = '540' style='padding-top:8%' autoplay muted><source src='images/stimuli/wall_pref.mp4' type='video/mp4'></video>","1","left","25%","6","","","","","","","",""
"","448.34000000264496","sequential-stimulus-presentation","133","251677","0.0-28.0","SS1613083417843","pref_reveal","","40","800","1248.340000002645","null","null","","","","","6","","","","novel","","","",""
"","null","html-keyboard-response","134","252619","0.0-29.0-0.0","SS1613083417843","","","null","","","","","<p><img src= images/blank.png width =""200"" height = ""200"" style = ""float:right""></p><p><img src=images/blank.png width =""800"" height = ""200""></p>","","","","","","","","","","","",""
"","288.3399999991525","sequential-stimulus-presentation","135","253714","0.0-29.0-1.0","SS1613083417843","trial","","40","800","1088.3399999991525","images/stimuli/spore_stims/simple_19_B_b.gif","images/stimuli/spore_stims/simple_04_A_c.gif","","","","","7","simple_dissimilar","images/stimuli/spore_stims/simple_04_A_c.gif","right","","","","",""
"","null","html-keyboard-response","136","254563","0.0-29.0-0.1","SS1613083417843","","","null","","","","","<p><img src= images/blank.png width =""200"" height = ""200"" style = ""float:right""></p><p><img src=images/blank.png width =""800"" height = ""200""></p>","","","","","","","","","","","",""
"","235.4300000006333","sequential-stimulus-presentation","137","255604","0.0-29.0-1.1","SS1613083417843","trial","","40","800","1035.4300000006333","images/stimuli/spore_stims/simple_19_B_b.gif","images/stimuli/spore_stims/simple_04_A_c.gif","","","","","7","simple_dissimilar","images/stimuli/spore_stims/simple_04_A_c.gif","right","","","","",""
"","null","html-keyboard-response","138","256558","0.0-29.0-0.2","SS1613083417843","","","null","","","","","<p><img src= images/blank.png width =""200"" height = ""200"" style = ""float:right""></p><p><img src=images/blank.png width =""800"" height = ""200""></p>","","","","","","","","","","","",""
"","274.5649999997113","sequential-stimulus-presentation","139","257638","0.0-29.0-1.2","SS1613083417843","trial","","40","800","1074.5649999997113","images/stimuli/spore_stims/simple_19_B_b.gif","images/stimuli/spore_stims/simple_04_A_c.gif","","","","","7","simple_dissimilar","images/stimuli/spore_stims/simple_04_A_c.gif","right","","","","",""
"","null","html-keyboard-response","140","258652","0.0-29.0-0.3","SS1613083417843","","","null","","","","","<p><img src= images/blank.png width =""200"" height = ""200"" style = ""float:right""></p><p><img src=images/blank.png width =""800"" height = ""200""></p>","","","","","","","","","","","",""
"","223.18000000086613","sequential-stimulus-presentation","141","259694","0.0-29.0-1.3","SS1613083417843","trial","","40","800","1023.1800000008661","images/stimuli/spore_stims/simple_19_B_b.gif","images/stimuli/spore_stims/simple_04_A_c.gif","","","","","7","simple_dissimilar","images/stimuli/spore_stims/simple_19_B_b.gif","left","","","","",""
"","null","html-keyboard-response","142","260907","0.0-29.0-0.4","SS1613083417843","","","null","","","","","<p><img src= images/blank.png width =""200"" height = ""200"" style = ""float:right""></p><p><img src=images/blank.png width =""800"" height = ""200""></p>","","","","","","","","","","","",""
"","151.78000000014435","sequential-stimulus-presentation","143","261867","0.0-29.0-1.4","SS1613083417843","trial","","40","800","951.7800000001444","images/stimuli/spore_stims/simple_19_B_b.gif","images/stimuli/spore_stims/simple_04_A_c.gif","","","","","7","simple_dissimilar","images/stimuli/spore_stims/simple_04_A_c.gif","right","","","","",""
"","null","html-keyboard-response","144","263120","0.0-29.0-0.5","SS1613083417843","","","null","","","","","<p><img src= images/blank.png width =""200"" height = ""200"" style = ""float:right""></p><p><img src=images/blank.png width =""800"" height = ""200""></p>","","","","","","","","","","","",""
"","214.5650000020396","sequential-stimulus-presentation","145","264154","0.0-29.0-1.5","SS1613083417843","trial","","40","800","1014.5650000020396","images/stimuli/spore_stims/simple_19_B_b.gif","images/stimuli/spore_stims/simple_04_A_c.gif","","","","","7","simple_dissimilar","images/stimuli/spore_stims/simple_04_A_c.gif","right","","","","",""
"","null","html-keyboard-response","146","265060","0.0-29.0-0.6","SS1613083417843","","","null","","","","","<p><img src= images/blank.png width =""200"" height = ""200"" style = ""float:right""></p><p><img src=images/blank.png width =""800"" height = ""200""></p>","","","","","","","","","","","",""
"","267.825000002631","sequential-stimulus-presentation","147","266137","0.0-29.0-1.6","SS1613083417843","trial","","40","800","1067.825000002631","images/stimuli/spore_stims/simple_19_B_b.gif","images/stimuli/spore_stims/simple_04_A_c.gif","","","","","7","simple_dissimilar","images/stimuli/spore_stims/simple_04_A_c.gif","right","","","","",""
"","null","html-keyboard-response","148","267333","0.0-29.0-0.7","SS1613083417843","","","null","","","","","<p><img src= images/blank.png width =""200"" height = ""200"" style = ""float:right""></p><p><img src=images/blank.png width =""800"" height = ""200""></p>","","","","","","","","","","","",""
"","91.20999999868218","sequential-stimulus-presentation","149","268231","0.0-29.0-1.7","SS1613083417843","trial","","40","800","891.2099999986822","images/stimuli/spore_stims/simple_19_B_b.gif","images/stimuli/spore_stims/simple_04_A_c.gif","","","","","7","simple_dissimilar","images/stimuli/spore_stims/simple_04_A_c.gif","right","","","","",""
"","660.50499999983","html-keyboard-response","150","268898","0.0-30.0","SS1613083417843","pref_question","","50","","","","","<video width ='960' height = '540' style='padding-top:8%' autoplay muted><source src='images/stimuli/wall_pref.mp4' type='video/mp4'></video>","2","middle","45%","7","","","","","","","",""
"","489.41999999806285","sequential-stimulus-presentation","151","270197","0.0-31.0","SS1613083417843","pref_reveal","","40","800","1289.4199999980628","null","null","","","","","7","","","","novel","","","",""
"","null","html-keyboard-response","152","271224","0.0-32.0-0.0","SS1613083417843","","","null","","","","","<p><img src= images/blank.png width =""200"" height = ""200"" style = ""float:right""></p><p><img src=images/blank.png width =""800"" height = ""200""></p>","","","","","","","","","","","",""
"","216.69000000110827","sequential-stimulus-presentation","153","272247","0.0-32.0-1.0","SS1613083417843","trial","","40","800","1016.6900000011083","images/stimuli/spore_stims/complex_02_A_d.gif","images/stimuli/spore_stims/complex_02_B_d.gif","","","","","8","complex_similar","images/stimuli/spore_stims/complex_02_B_d.gif","right","","","","",""
"","null","html-keyboard-response","154","273287","0.0-32.0-0.1","SS1613083417843","","","null","","","","","<p><img src= images/blank.png width =""200"" height = ""200"" style = ""float:right""></p><p><img src=images/blank.png width =""800"" height = ""200""></p>","","","","","","","","","","","",""
"","199.8749999984284","sequential-stimulus-presentation","155","274300","0.0-32.0-1.1","SS1613083417843","trial","","40","800","999.8749999984284","images/stimuli/spore_stims/complex_02_A_d.gif","images/stimuli/spore_stims/complex_02_B_d.gif","","","","","8","complex_similar","images/stimuli/spore_stims/complex_02_B_d.gif","right","","","","",""
"","null","html-keyboard-response","156","275107","0.0-32.0-0.2","SS1613083417843","","","null","","","","","<p><img src= images/blank.png width =""200"" height = ""200"" style = ""float:right""></p><p><img src=images/blank.png width =""800"" height = ""200""></p>","","","","","","","","","","","",""
"","392.54000000073574","sequential-stimulus-presentation","157","276306","0.0-32.0-1.2","SS1613083417843","trial","","40","800","1192.5400000007357","images/stimuli/spore_stims/complex_02_A_d.gif","images/stimuli/spore_stims/complex_02_B_d.gif","","","","","8","complex_similar","images/stimuli/spore_stims/complex_02_B_d.gif","right","","","","",""
"","null","html-keyboard-response","158","277463","0.0-32.0-0.3","SS1613083417843","","","null","","","","","<p><img src= images/blank.png width =""200"" height = ""200"" style = ""float:right""></p><p><img src=images/blank.png width =""800"" height = ""200""></p>","","","","","","","","","","","",""
"","223.6300000004121","sequential-stimulus-presentation","159","278494","0.0-32.0-1.3","SS1613083417843","trial","","40","800","1023.6300000004121","images/stimuli/spore_stims/complex_02_A_d.gif","images/stimuli/spore_stims/complex_02_B_d.gif","","","","","8","complex_similar","images/stimuli/spore_stims/complex_02_A_d.gif","middle","","","","",""
"","null","html-keyboard-response","160","279798","0.0-32.0-0.4","SS1613083417843","","","null","","","","","<p><img src= images/blank.png width =""200"" height = ""200"" style = ""float:right""></p><p><img src=images/blank.png width =""800"" height = ""200""></p>","","","","","","","","","","","",""
"","130.69499999983236","sequential-stimulus-presentation","161","280734","0.0-32.0-1.4","SS1613083417843","trial","","40","800","930.6949999998324","images/stimuli/spore_stims/complex_02_A_d.gif","images/stimuli/spore_stims/complex_02_B_d.gif","","","","","8","complex_similar","images/stimuli/spore_stims/complex_02_B_d.gif","right","","","","",""
"","null","html-keyboard-response","162","281921","0.0-32.0-0.5","SS1613083417843","","","null","","","","","<p><img src= images/blank.png width =""200"" height = ""200"" style = ""float:right""></p><p><img src=images/blank.png width =""800"" height = ""200""></p>","","","","","","","","","","","",""
"","158.34000000177184","sequential-stimulus-presentation","163","282886","0.0-32.0-1.5","SS1613083417843","trial","","40","800","958.3400000017718","images/stimuli/spore_stims/complex_02_A_d.gif","images/stimuli/spore_stims/complex_02_B_d.gif","","","","","8","complex_similar","images/stimuli/spore_stims/complex_02_B_d.gif","right","","","","",""
"","null","html-keyboard-response","164","283953","0.0-32.0-0.6","SS1613083417843","","","null","","","","","<p><img src= images/blank.png width =""200"" height = ""200"" style = ""float:right""></p><p><img src=images/blank.png width =""800"" height = ""200""></p>","","","","","","","","","","","",""
"","219.70499999588355","sequential-stimulus-presentation","165","284980","0.0-32.0-1.6","SS1613083417843","trial","","40","800","1019.7049999958836","images/stimuli/spore_stims/complex_02_A_d.gif","images/stimuli/spore_stims/complex_02_B_d.gif","","","","","8","complex_similar","images/stimuli/spore_stims/complex_02_B_d.gif","right","","","","",""
"","null","html-keyboard-response","166","286107","0.0-32.0-0.7","SS1613083417843","","","null","","","","","<p><img src= images/blank.png width =""200"" height = ""200"" style = ""float:right""></p><p><img src=images/blank.png width =""800"" height = ""200""></p>","","","","","","","","","","","",""
"","109.9400000020978","sequential-stimulus-presentation","167","287025","0.0-32.0-1.7","SS1613083417843","trial","","40","800","909.9400000020978","images/stimuli/spore_stims/complex_02_A_d.gif","images/stimuli/spore_stims/complex_02_B_d.gif","","","","","8","complex_similar","images/stimuli/spore_stims/complex_02_B_d.gif","right","","","","",""
"","798.2750000010128","html-keyboard-response","168","287828","0.0-33.0","SS1613083417843","pref_question","","49","","","","","<video width ='960' height = '540' style='padding-top:8%' autoplay muted><source src='images/stimuli/wall_pref.mp4' type='video/mp4'></video>","1","left","25%","8","","","","","","","",""
"","501.38000000151806","sequential-stimulus-presentation","169","289135","0.0-34.0","SS1613083417843","pref_reveal","","40","800","1301.380000001518","null","null","","","","","8","","","","novel","","","",""
"","null","html-keyboard-response","170","290322","0.0-35.0-0.0","SS1613083417843","","","null","","","","","<p><img src= images/blank.png width =""200"" height = ""200"" style = ""float:right""></p><p><img src=images/blank.png width =""800"" height = ""200""></p>","","","","","","","","","","","",""
"","240.64999999973224","sequential-stimulus-presentation","171","291369","0.0-35.0-1.0","SS1613083417843","trial","","40","800","1040.6499999997322","images/stimuli/spore_stims/simple_13_A_a.gif","images/stimuli/spore_stims/simple_13_B_a.gif","","","","","9","simple_similar","images/stimuli/spore_stims/simple_13_B_a.gif","middle","","","","",""
"","null","html-keyboard-response","172","292395","0.0-35.0-0.1","SS1613083417843","","","null","","","","","<p><img src= images/blank.png width =""200"" height = ""200"" style = ""float:right""></p><p><img src=images/blank.png width =""800"" height = ""200""></p>","","","","","","","","","","","",""
"","491.5649999966263","sequential-stimulus-presentation","173","293700","0.0-35.0-1.1","SS1613083417843","trial","","40","800","1291.5649999966263","images/stimuli/spore_stims/simple_13_A_a.gif","images/stimuli/spore_stims/simple_13_B_a.gif","","","","","9","simple_similar","images/stimuli/spore_stims/simple_13_B_a.gif","middle","","","","",""
"","null","html-keyboard-response","174","294793","0.0-35.0-0.2","SS1613083417843","","","null","","","","","<p><img src= images/blank.png width =""200"" height = ""200"" style = ""float:right""></p><p><img src=images/blank.png width =""800"" height = ""200""></p>","","","","","","","","","","","",""
"","189.66999999975087","sequential-stimulus-presentation","175","295789","0.0-35.0-1.2","SS1613083417843","trial","","40","800","989.6699999997509","images/stimuli/spore_stims/simple_13_A_a.gif","images/stimuli/spore_stims/simple_13_B_a.gif","","","","","9","simple_similar","images/stimuli/spore_stims/simple_13_B_a.gif","middle","","","","",""
"","null","html-keyboard-response","176","296851","0.0-35.0-0.3","SS1613083417843","","","null","","","","","<p><img src= images/blank.png width =""200"" height = ""200"" style = ""float:right""></p><p><img src=images/blank.png width =""800"" height = ""200""></p>","","","","","","","","","","","",""
"","99.0349999992759","sequential-stimulus-presentation","177","297756","0.0-35.0-1.3","SS1613083417843","trial","","40","800","899.0349999992759","images/stimuli/spore_stims/simple_13_A_a.gif","images/stimuli/spore_stims/simple_13_B_a.gif","","","","","9","simple_similar","images/stimuli/spore_stims/simple_13_B_a.gif","middle","","","","",""
"","null","html-keyboard-response","178","298734","0.0-35.0-0.4","SS1613083417843","","","null","","","","","<p><img src= images/blank.png width =""200"" height = ""200"" style = ""float:right""></p><p><img src=images/blank.png width =""800"" height = ""200""></p>","","","","","","","","","","","",""
"","280.4499999983818","sequential-stimulus-presentation","179","299822","0.0-35.0-1.4","SS1613083417843","trial","","40","800","1080.4499999983818","images/stimuli/spore_stims/simple_13_A_a.gif","images/stimuli/spore_stims/simple_13_B_a.gif","","","","","9","simple_similar","images/stimuli/spore_stims/simple_13_B_a.gif","middle","","","","",""
"","null","html-keyboard-response","180","300954","0.0-35.0-0.5","SS1613083417843","","","null","","","","","<p><img src= images/blank.png width =""200"" height = ""200"" style = ""float:right""></p><p><img src=images/blank.png width =""800"" height = ""200""></p>","","","","","","","","","","","",""
"","332.0000000021537","sequential-stimulus-presentation","181","302093","0.0-35.0-1.5","SS1613083417843","trial","","40","800","1132.0000000021537","images/stimuli/spore_stims/simple_13_A_a.gif","images/stimuli/spore_stims/simple_13_B_a.gif","","","","","9","simple_similar","images/stimuli/spore_stims/simple_13_A_a.gif","left","","","","",""
"","null","html-keyboard-response","182","303327","0.0-35.0-0.6","SS1613083417843","","","null","","","","","<p><img src= images/blank.png width =""200"" height = ""200"" style = ""float:right""></p><p><img src=images/blank.png width =""800"" height = ""200""></p>","","","","","","","","","","","",""
"","152.71000000211643","sequential-stimulus-presentation","183","304290","0.0-35.0-1.6","SS1613083417843","trial","","40","800","952.7100000021164","images/stimuli/spore_stims/simple_13_A_a.gif","images/stimuli/spore_stims/simple_13_B_a.gif","","","","","9","simple_similar","images/stimuli/spore_stims/simple_13_B_a.gif","middle","","","","",""
"","null","html-keyboard-response","184","305433","0.0-35.0-0.7","SS1613083417843","","","null","","","","","<p><img src= images/blank.png width =""200"" height = ""200"" style = ""float:right""></p><p><img src=images/blank.png width =""800"" height = ""200""></p>","","","","","","","","","","","",""
"","296.4350000038394","sequential-stimulus-presentation","185","306536","0.0-35.0-1.7","SS1613083417843","trial","","40","800","1096.4350000038394","images/stimuli/spore_stims/simple_13_A_a.gif","images/stimuli/spore_stims/simple_13_B_a.gif","","","","","9","simple_similar","images/stimuli/spore_stims/simple_13_B_a.gif","middle","","","","",""
"","692.0800000007148","html-keyboard-response","186","307241","0.0-36.0","SS1613083417843","pref_question","","51","","","","","<video width ='960' height = '540' style='padding-top:8%' autoplay muted><source src='images/stimuli/wall_pref.mp4' type='video/mp4'></video>","3","right","66%","9","","","","","","","",""
"","539.4099999975879","sequential-stimulus-presentation","187","308594","0.0-37.0","SS1613083417843","pref_reveal","","40","800","1339.4099999975879","null","null","","","","","9","","","","novel","","","",""
"","null","html-keyboard-response","188","309608","0.0-38.0-0.0","SS1613083417843","","","null","","","","","<p><img src= images/blank.png width =""200"" height = ""200"" style = ""float:right""></p><p><img src=images/blank.png width =""800"" height = ""200""></p>","","","","","","","","","","","",""
"","181.26499999925727","sequential-stimulus-presentation","189","310598","0.0-38.0-1.0","SS1613083417843","trial","","40","800","981.2649999992573","images/stimuli/spore_stims/simple_15_A_d.gif","images/stimuli/spore_stims/simple_15_B_d.gif","","","","","10","simple_similar","images/stimuli/spore_stims/simple_15_B_d.gif","right","","","","",""
"","null","html-keyboard-response","190","311637","0.0-38.0-0.1","SS1613083417843","","","null","","","","","<p><img src= images/blank.png width =""200"" height = ""200"" style = ""float:right""></p><p><img src=images/blank.png width =""800"" height = ""200""></p>","","","","","","","","","","","",""
"","64.25499999750173","sequential-stimulus-presentation","191","312508","0.0-38.0-1.1","SS1613083417843","trial","","40","800","864.2549999975017","images/stimuli/spore_stims/simple_15_A_d.gif","images/stimuli/spore_stims/simple_15_B_d.gif","","","","","10","simple_similar","images/stimuli/spore_stims/simple_15_B_d.gif","right","","","","",""
"","null","html-keyboard-response","192","313699","0.0-38.0-0.2","SS1613083417843","","","null","","","","","<p><img src= images/blank.png width =""200"" height = ""200"" style = ""float:right""></p><p><img src=images/blank.png width =""800"" height = ""200""></p>","","","","","","","","","","","",""
"","517.3399999985122","sequential-stimulus-presentation","193","315033","0.0-38.0-1.2","SS1613083417843","trial","","40","800","1317.3399999985122","images/stimuli/spore_stims/simple_15_A_d.gif","images/stimuli/spore_stims/simple_15_B_d.gif","","","","","10","simple_similar","images/stimuli/spore_stims/simple_15_B_d.gif","right","","","","",""
"","null","html-keyboard-response","194","316044","0.0-38.0-0.3","SS1613083417843","","","null","","","","","<p><img src= images/blank.png width =""200"" height = ""200"" style = ""float:right""></p><p><img src=images/blank.png width =""800"" height = ""200""></p>","","","","","","","","","","","",""
"","636.9649999978719","sequential-stimulus-presentation","195","317494","0.0-38.0-1.3","SS1613083417843","trial","","40","800","1436.964999997872","images/stimuli/spore_stims/simple_15_A_d.gif","images/stimuli/spore_stims/simple_15_B_d.gif","","","","","10","simple_similar","images/stimuli/spore_stims/simple_15_A_d.gif","middle","","","","",""
"","null","html-keyboard-response","196","318389","0.0-38.0-0.4","SS1613083417843","","","null","","","","","<p><img src= images/blank.png width =""200"" height = ""200"" style = ""float:right""></p><p><img src=images/blank.png width =""800"" height = ""200""></p>","","","","","","","","","","","",""
"","216.64500000042608","sequential-stimulus-presentation","197","319412","0.0-38.0-1.4","SS1613083417843","trial","","40","800","1016.6450000004261","images/stimuli/spore_stims/simple_15_A_d.gif","images/stimuli/spore_stims/simple_15_B_d.gif","","","","","10","simple_similar","images/stimuli/spore_stims/simple_15_B_d.gif","right","","","","",""
"","null","html-keyboard-response","198","320400","0.0-38.0-0.5","SS1613083417843","","","null","","","","","<p><img src= images/blank.png width =""200"" height = ""200"" style = ""float:right""></p><p><img src=images/blank.png width =""800"" height = ""200""></p>","","","","","","","","","","","",""
"","257.3499999998603","sequential-stimulus-presentation","199","321468","0.0-38.0-1.5","SS1613083417843","trial","","40","800","1057.3499999998603","images/stimuli/spore_stims/simple_15_A_d.gif","images/stimuli/spore_stims/simple_15_B_d.gif","","","","","10","simple_similar","images/stimuli/spore_stims/simple_15_B_d.gif","right","","","","",""
"","null","html-keyboard-response","200","322608","0.0-38.0-0.6","SS1613083417843","","","null","","","","","<p><img src= images/blank.png width =""200"" height = ""200"" style = ""float:right""></p><p><img src=images/blank.png width =""800"" height = ""200""></p>","","","","","","","","","","","",""
"","61.4549999954761","sequential-stimulus-presentation","201","323476","0.0-38.0-1.6","SS1613083417843","trial","","40","800","861.4549999954761","images/stimuli/spore_stims/simple_15_A_d.gif","images/stimuli/spore_stims/simple_15_B_d.gif","","","","","10","simple_similar","images/stimuli/spore_stims/simple_15_B_d.gif","right","","","","",""
"","null","html-keyboard-response","202","324629","0.0-38.0-0.7","SS1613083417843","","","null","","","","","<p><img src= images/blank.png width =""200"" height = ""200"" style = ""float:right""></p><p><img src=images/blank.png width =""800"" height = ""200""></p>","","","","","","","","","","","",""
"","223.97500000079162","sequential-stimulus-presentation","203","325660","0.0-38.0-1.7","SS1613083417843","trial","","40","800","1023.9750000007916","images/stimuli/spore_stims/simple_15_A_d.gif","images/stimuli/spore_stims/simple_15_B_d.gif","","","","","10","simple_similar","images/stimuli/spore_stims/simple_15_B_d.gif","right","","","","",""
"","708.9950000008685","html-keyboard-response","204","326375","0.0-39.0","SS1613083417843","pref_question","","49","","","","","<video width ='960' height = '540' style='padding-top:8%' autoplay muted><source src='images/stimuli/wall_pref.mp4' type='video/mp4'></video>","1","left","25%","10","","","","","","","",""
"","118.51000000024214","sequential-stimulus-presentation","205","327303","0.0-40.0","SS1613083417843","pref_reveal","","40","800","918.5100000002421","null","null","","","","","10","","","","novel","","","",""
"","null","html-keyboard-response","206","328247","0.0-41.0-0.0","SS1613083417843","","","null","","","","","<p><img src= images/blank.png width =""200"" height = ""200"" style = ""float:right""></p><p><img src=images/blank.png width =""800"" height = ""200""></p>","","","","","","","","","","","",""
"","348.5599999985425","sequential-stimulus-presentation","207","329402","0.0-41.0-1.0","SS1613083417843","trial","","40","800","1148.5599999985425","images/stimuli/spore_stims/simple_01_B_a.gif","images/stimuli/spore_stims/simple_17_A_a.gif","","","","","11","simple_dissimilar","images/stimuli/spore_stims/simple_17_A_a.gif","left","","","","",""
"","null","html-keyboard-response","208","330209","0.0-41.0-0.1","SS1613083417843","","","null","","","","","<p><img src= images/blank.png width =""200"" height = ""200"" style = ""float:right""></p><p><img src=images/blank.png width =""800"" height = ""200""></p>","","","","","","","","","","","",""
"","329.33500000217464","sequential-stimulus-presentation","209","331345","0.0-41.0-1.1","SS1613083417843","trial","","40","800","1129.3350000021746","images/stimuli/spore_stims/simple_01_B_a.gif","images/stimuli/spore_stims/simple_17_A_a.gif","","","","","11","simple_dissimilar","images/stimuli/spore_stims/simple_17_A_a.gif","left","","","","",""
"","null","html-keyboard-response","210","332377","0.0-41.0-0.2","SS1613083417843","","","null","","","","","<p><img src= images/blank.png width =""200"" height = ""200"" style = ""float:right""></p><p><img src=images/blank.png width =""800"" height = ""200""></p>","","","","","","","","","","","",""
"","251.02999999944586","sequential-stimulus-presentation","211","333435","0.0-41.0-1.2","SS1613083417843","trial","","40","800","1051.0299999994459","images/stimuli/spore_stims/simple_01_B_a.gif","images/stimuli/spore_stims/simple_17_A_a.gif","","","","","11","simple_dissimilar","images/stimuli/spore_stims/simple_17_A_a.gif","left","","","","",""
"","null","html-keyboard-response","212","334472","0.0-41.0-0.3","SS1613083417843","","","null","","","","","<p><img src= images/blank.png width =""200"" height = ""200"" style = ""float:right""></p><p><img src=images/blank.png width =""800"" height = ""200""></p>","","","","","","","","","","","",""
"","329.5349999971222","sequential-stimulus-presentation","213","335608","0.0-41.0-1.3","SS1613083417843","trial","","40","800","1129.5349999971222","images/stimuli/spore_stims/simple_01_B_a.gif","images/stimuli/spore_stims/simple_17_A_a.gif","","","","","11","simple_dissimilar","images/stimuli/spore_stims/simple_17_A_a.gif","left","","","","",""
"","null","html-keyboard-response","214","336421","0.0-41.0-0.4","SS1613083417843","","","null","","","","","<p><img src= images/blank.png width =""200"" height = ""200"" style = ""float:right""></p><p><img src=images/blank.png width =""800"" height = ""200""></p>","","","","","","","","","","","",""
"","361.7850000009639","sequential-stimulus-presentation","215","337589","0.0-41.0-1.4","SS1613083417843","trial","","40","800","1161.785000000964","images/stimuli/spore_stims/simple_01_B_a.gif","images/stimuli/spore_stims/simple_17_A_a.gif","","","","","11","simple_dissimilar","images/stimuli/spore_stims/simple_17_A_a.gif","left","","","","",""
"","null","html-keyboard-response","216","338549","0.0-41.0-0.5","SS1613083417843","","","null","","","","","<p><img src= images/blank.png width =""200"" height = ""200"" style = ""float:right""></p><p><img src=images/blank.png width =""800"" height = ""200""></p>","","","","","","","","","","","",""
"","291.17499999847496","sequential-stimulus-presentation","217","339649","0.0-41.0-1.5","SS1613083417843","trial","","40","800","1091.174999998475","images/stimuli/spore_stims/simple_01_B_a.gif","images/stimuli/spore_stims/simple_17_A_a.gif","","","","","11","simple_dissimilar","images/stimuli/spore_stims/simple_17_A_a.gif","left","","","","",""
"","null","html-keyboard-response","218","340521","0.0-41.0-0.6","SS1613083417843","","","null","","","","","<p><img src= images/blank.png width =""200"" height = ""200"" style = ""float:right""></p><p><img src=images/blank.png width =""800"" height = ""200""></p>","","","","","","","","","","","",""
"","177.70000000018626","sequential-stimulus-presentation","219","341506","0.0-41.0-1.6","SS1613083417843","trial","","40","800","977.7000000001863","images/stimuli/spore_stims/simple_01_B_a.gif","images/stimuli/spore_stims/simple_17_A_a.gif","","","","","11","simple_dissimilar","images/stimuli/spore_stims/simple_17_A_a.gif","left","","","","",""
"","null","html-keyboard-response","220","342416","0.0-41.0-0.7","SS1613083417843","","","null","","","","","<p><img src= images/blank.png width =""200"" height = ""200"" style = ""float:right""></p><p><img src=images/blank.png width =""800"" height = ""200""></p>","","","","","","","","","","","",""
"","282.22500000265427","sequential-stimulus-presentation","221","343505","0.0-41.0-1.7","SS1613083417843","trial","","40","800","1082.2250000026543","images/stimuli/spore_stims/simple_01_B_a.gif","images/stimuli/spore_stims/simple_17_A_a.gif","","","","","11","simple_dissimilar","images/stimuli/spore_stims/simple_01_B_a.gif","middle","","","","",""
"","1154.5699999987846","html-keyboard-response","222","344684","0.0-42.0","SS1613083417843","pref_question","","51","","","","","<video width ='960' height = '540' style='padding-top:8%' autoplay muted><source src='images/stimuli/wall_pref.mp4' type='video/mp4'></video>","3","right","66%","11","","","","","","","",""
"","230.7199999995646","sequential-stimulus-presentation","223","345721","0.0-43.0","SS1613083417843","pref_reveal","","40","800","1030.7199999995646","null","null","","","","","11","","","","novel","","","",""
"","null","html-keyboard-response","224","346864","0.0-44.0-0.0","SS1613083417843","","","null","","","","","<p><img src= images/blank.png width =""200"" height = ""200"" style = ""float:right""></p><p><img src=images/blank.png width =""800"" height = ""200""></p>","","","","","","","","","","","",""
"","629.6000000002095","sequential-stimulus-presentation","225","348307","0.0-44.0-1.0","SS1613083417843","trial","","40","800","1429.6000000002095","images/stimuli/spore_stims/complex_12_A_b.gif","images/stimuli/spore_stims/complex_12_B_b.gif","","","","","12","complex_similar","images/stimuli/spore_stims/complex_12_B_b.gif","left","","","","",""
"","null","html-keyboard-response","226","349217","0.0-44.0-0.1","SS1613083417843","","","null","","","","","<p><img src= images/blank.png width =""200"" height = ""200"" style = ""float:right""></p><p><img src=images/blank.png width =""800"" height = ""200""></p>","","","","","","","","","","","",""
"","2457.6749999978347","sequential-stimulus-presentation","227","352481","0.0-44.0-1.1","SS1613083417843","trial","","40","800","3257.6749999978347","images/stimuli/spore_stims/complex_12_A_b.gif","images/stimuli/spore_stims/complex_12_B_b.gif","","","","","12","complex_similar","images/stimuli/spore_stims/complex_12_B_b.gif","left","","","","",""
"","null","html-keyboard-response","228","353396","0.0-44.0-0.2","SS1613083417843","","","null","","","","","<p><img src= images/blank.png width =""200"" height = ""200"" style = ""float:right""></p><p><img src=images/blank.png width =""800"" height = ""200""></p>","","","","","","","","","","","",""
"","368.37000000377884","sequential-stimulus-presentation","229","354572","0.0-44.0-1.2","SS1613083417843","trial","","40","800","1168.3700000037788","images/stimuli/spore_stims/complex_12_A_b.gif","images/stimuli/spore_stims/complex_12_B_b.gif","","","","","12","complex_similar","images/stimuli/spore_stims/complex_12_B_b.gif","left","","","","",""
"","null","html-keyboard-response","230","355855","0.0-44.0-0.3","SS1613083417843","","","null","","","","","<p><img src= images/blank.png width =""200"" height = ""200"" style = ""float:right""></p><p><img src=images/blank.png width =""800"" height = ""200""></p>","","","","","","","","","","","",""
"","247.41499999799998","sequential-stimulus-presentation","231","356910","0.0-44.0-1.3","SS1613083417843","trial","","40","800","1047.414999998","images/stimuli/spore_stims/complex_12_A_b.gif","images/stimuli/spore_stims/complex_12_B_b.gif","","","","","12","complex_similar","images/stimuli/spore_stims/complex_12_B_b.gif","left","","","","",""
"","null","html-keyboard-response","232","358121","0.0-44.0-0.4","SS1613083417843","","","null","","","","","<p><img src= images/blank.png width =""200"" height = ""200"" style = ""float:right""></p><p><img src=images/blank.png width =""800"" height = ""200""></p>","","","","","","","","","","","",""
"","333.135000000766","sequential-stimulus-presentation","233","359260","0.0-44.0-1.4","SS1613083417843","trial","","40","800","1133.135000000766","images/stimuli/spore_stims/complex_12_A_b.gif","images/stimuli/spore_stims/complex_12_B_b.gif","","","","","12","complex_similar","images/stimuli/spore_stims/complex_12_B_b.gif","left","","","","",""
"","null","html-keyboard-response","234","360184","0.0-44.0-0.5","SS1613083417843","","","null","","","","","<p><img src= images/blank.png width =""200"" height = ""200"" style = ""float:right""></p><p><img src=images/blank.png width =""800"" height = ""200""></p>","","","","","","","","","","","",""
"","353.24499999842374","sequential-stimulus-presentation","235","361346","0.0-44.0-1.5","SS1613083417843","trial","","40","800","1153.2449999984237","images/stimuli/spore_stims/complex_12_A_b.gif","images/stimuli/spore_stims/complex_12_B_b.gif","","","","","12","complex_similar","images/stimuli/spore_stims/complex_12_B_b.gif","left","","","","",""
"","null","html-keyboard-response","236","362401","0.0-44.0-0.6","SS1613083417843","","","null","","","","","<p><img src= images/blank.png width =""200"" height = ""200"" style = ""float:right""></p><p><img src=images/blank.png width =""800"" height = ""200""></p>","","","","","","","","","","","",""
"","230.7749999963562","sequential-stimulus-presentation","237","363439","0.0-44.0-1.6","SS1613083417843","trial","","40","800","1030.7749999963562","images/stimuli/spore_stims/complex_12_A_b.gif","images/stimuli/spore_stims/complex_12_B_b.gif","","","","","12","complex_similar","images/stimuli/spore_stims/complex_12_B_b.gif","left","","","","",""
"","null","html-keyboard-response","238","364273","0.0-44.0-0.7","SS1613083417843","","","null","","","","","<p><img src= images/blank.png width =""200"" height = ""200"" style = ""float:right""></p><p><img src=images/blank.png width =""800"" height = ""200""></p>","","","","","","","","","","","",""
"","324.23500000004424","sequential-stimulus-presentation","239","365405","0.0-44.0-1.7","SS1613083417843","trial","","40","800","1124.2350000000442","images/stimuli/spore_stims/complex_12_A_b.gif","images/stimuli/spore_stims/complex_12_B_b.gif","","","","","12","complex_similar","images/stimuli/spore_stims/complex_12_A_b.gif","middle","","","","",""
"","604.5149999990826","html-keyboard-response","240","366015","0.0-45.0","SS1613083417843","pref_question","","51","","","","","<video width ='960' height = '540' style='padding-top:8%' autoplay muted><source src='images/stimuli/wall_pref.mp4' type='video/mp4'></video>","3","right","66%","12","","","","","","","",""
"","446.7549999972107","sequential-stimulus-presentation","241","367289","0.0-46.0","SS1613083417843","pref_reveal","","40","800","1246.7549999972107","null","null","","","","","12","","","","novel","","","",""
"","null","html-keyboard-response","242","368576","0.0-47.0-0.0","SS1613083417843","","","null","","","","","<p><img src= images/blank.png width =""200"" height = ""200"" style = ""float:right""></p><p><img src=images/blank.png width =""800"" height = ""200""></p>","","","","","","","","","","","",""
"","1627.9750000030617","sequential-stimulus-presentation","243","371014","0.0-47.0-1.0","SS1613083417843","trial","","40","800","2427.9750000030617","images/stimuli/spore_stims/complex_14_B_a.gif","images/stimuli/spore_stims/complex_14_A_a.gif","","","","","13","complex_similar","images/stimuli/spore_stims/complex_14_A_a.gif","middle","","","","",""
"","null","html-keyboard-response","244","372062","0.0-47.0-0.1","SS1613083417843","","","null","","","","","<p><img src= images/blank.png width =""200"" height = ""200"" style = ""float:right""></p><p><img src=images/blank.png width =""800"" height = ""200""></p>","","","","","","","","","","","",""
"","352.8050000022631","sequential-stimulus-presentation","245","373221","0.0-47.0-1.1","SS1613083417843","trial","","40","800","1152.8050000022631","images/stimuli/spore_stims/complex_14_B_a.gif","images/stimuli/spore_stims/complex_14_A_a.gif","","","","","13","complex_similar","images/stimuli/spore_stims/complex_14_A_a.gif","middle","","","","",""
"","null","html-keyboard-response","246","374225","0.0-47.0-0.2","SS1613083417843","","","null","","","","","<p><img src= images/blank.png width =""200"" height = ""200"" style = ""float:right""></p><p><img src=images/blank.png width =""800"" height = ""200""></p>","","","","","","","","","","","",""
"","309.25000000570435","sequential-stimulus-presentation","247","375352","0.0-47.0-1.2","SS1613083417843","trial","","40","800","1109.2500000057044","images/stimuli/spore_stims/complex_14_B_a.gif","images/stimuli/spore_stims/complex_14_A_a.gif","","","","","13","complex_similar","images/stimuli/spore_stims/complex_14_A_a.gif","middle","","","","",""
"","null","html-keyboard-response","248","376519","0.0-47.0-0.3","SS1613083417843","","","null","","","","","<p><img src= images/blank.png width =""200"" height = ""200"" style = ""float:right""></p><p><img src=images/blank.png width =""800"" height = ""200""></p>","","","","","","","","","","","",""
"","127.20500000432367","sequential-stimulus-presentation","249","377454","0.0-47.0-1.3","SS1613083417843","trial","","40","800","927.2050000043237","images/stimuli/spore_stims/complex_14_B_a.gif","images/stimuli/spore_stims/complex_14_A_a.gif","","","","","13","complex_similar","images/stimuli/spore_stims/complex_14_A_a.gif","middle","","","","",""
"","null","html-keyboard-response","250","378756","0.0-47.0-0.4","SS1613083417843","","","null","","","","","<p><img src= images/blank.png width =""200"" height = ""200"" style = ""float:right""></p><p><img src=images/blank.png width =""800"" height = ""200""></p>","","","","","","","","","","","",""
"","263.0199999985052","sequential-stimulus-presentation","251","379826","0.0-47.0-1.4","SS1613083417843","trial","","40","800","1063.0199999985052","images/stimuli/spore_stims/complex_14_B_a.gif","images/stimuli/spore_stims/complex_14_A_a.gif","","","","","13","complex_similar","images/stimuli/spore_stims/complex_14_A_a.gif","middle","","","","",""
"","null","html-keyboard-response","252","380815","0.0-47.0-0.5","SS1613083417843","","","null","","","","","<p><img src= images/blank.png width =""200"" height = ""200"" style = ""float:right""></p><p><img src=images/blank.png width =""800"" height = ""200""></p>","","","","","","","","","","","",""
"","357.94500000338303","sequential-stimulus-presentation","253","381981","0.0-47.0-1.5","SS1613083417843","trial","","40","800","1157.945000003383","images/stimuli/spore_stims/complex_14_B_a.gif","images/stimuli/spore_stims/complex_14_A_a.gif","","","","","13","complex_similar","images/stimuli/spore_stims/complex_14_A_a.gif","middle","","","","",""
"","null","html-keyboard-response","254","383096","0.0-47.0-0.6","SS1613083417843","","","null","","","","","<p><img src= images/blank.png width =""200"" height = ""200"" style = ""float:right""></p><p><img src=images/blank.png width =""800"" height = ""200""></p>","","","","","","","","","","","",""
"","1226.1149999976624","sequential-stimulus-presentation","255","385138","0.0-47.0-1.6","SS1613083417843","trial","","40","800","2026.1149999976624","images/stimuli/spore_stims/complex_14_B_a.gif","images/stimuli/spore_stims/complex_14_A_a.gif","","","","","13","complex_similar","images/stimuli/spore_stims/complex_14_B_a.gif","right","","","","",""
"","null","html-keyboard-response","256","386370","0.0-47.0-0.7","SS1613083417843","","","null","","","","","<p><img src= images/blank.png width =""200"" height = ""200"" style = ""float:right""></p><p><img src=images/blank.png width =""800"" height = ""200""></p>","","","","","","","","","","","",""
"","339.85499999835156","sequential-stimulus-presentation","257","387518","0.0-47.0-1.7","SS1613083417843","trial","","40","800","1139.8549999983516","images/stimuli/spore_stims/complex_14_B_a.gif","images/stimuli/spore_stims/complex_14_A_a.gif","","","","","13","complex_similar","images/stimuli/spore_stims/complex_14_A_a.gif","middle","","","","",""
"","551.2050000033923","html-keyboard-response","258","388076","0.0-48.0","SS1613083417843","pref_question","","49","","","","","<video width ='960' height = '540' style='padding-top:8%' autoplay muted><source src='images/stimuli/wall_pref.mp4' type='video/mp4'></video>","1","left","25%","13","","","","","","","",""
"","461.7350000044098","sequential-stimulus-presentation","259","389345","0.0-49.0","SS1613083417843","pref_reveal","","40","800","1261.7350000044098","null","null","","","","","13","","","","novel","","","",""
"","null","html-keyboard-response","260","390227","0.0-50.0-0.0","SS1613083417843","","","null","","","","","<p><img src= images/blank.png width =""200"" height = ""200"" style = ""float:right""></p><p><img src=images/blank.png width =""800"" height = ""200""></p>","","","","","","","","","","","",""
"","91.04499999375548","sequential-stimulus-presentation","261","391136","0.0-50.0-1.0","SS1613083417843","trial","","40","800","891.0449999937555","images/stimuli/spore_stims/simple_08_B_b.gif","images/stimuli/spore_stims/simple_08_A_b.gif","","","","","14","simple_similar","images/stimuli/spore_stims/simple_08_A_b.gif","right","","","","",""
"","null","html-keyboard-response","262","392295","0.0-50.0-0.1","SS1613083417843","","","null","","","","","<p><img src= images/blank.png width =""200"" height = ""200"" style = ""float:right""></p><p><img src=images/blank.png width =""800"" height = ""200""></p>","","","","","","","","","","","",""
"","206.1150000008638","sequential-stimulus-presentation","263","393315","0.0-50.0-1.1","SS1613083417843","trial","","40","800","1006.1150000008638","images/stimuli/spore_stims/simple_08_B_b.gif","images/stimuli/spore_stims/simple_08_A_b.gif","","","","","14","simple_similar","images/stimuli/spore_stims/simple_08_A_b.gif","right","","","","",""
"","null","html-keyboard-response","264","394340","0.0-50.0-0.2","SS1613083417843","","","null","","","","","<p><img src= images/blank.png width =""200"" height = ""200"" style = ""float:right""></p><p><img src=images/blank.png width =""800"" height = ""200""></p>","","","","","","","","","","","",""
"","87.11000000039348","sequential-stimulus-presentation","265","395234","0.0-50.0-1.2","SS1613083417843","trial","","40","800","887.1100000003935","images/stimuli/spore_stims/simple_08_B_b.gif","images/stimuli/spore_stims/simple_08_A_b.gif","","","","","14","simple_similar","images/stimuli/spore_stims/simple_08_A_b.gif","right","","","","",""
"","null","html-keyboard-response","266","396278","0.0-50.0-0.3","SS1613083417843","","","null","","","","","<p><img src= images/blank.png width =""200"" height = ""200"" style = ""float:right""></p><p><img src=images/blank.png width =""800"" height = ""200""></p>","","","","","","","","","","","",""
"","5.879999996977858","sequential-stimulus-presentation","267","397092","0.0-50.0-1.3","SS1613083417843","trial","","40","800","805.8799999969779","images/stimuli/spore_stims/simple_08_B_b.gif","images/stimuli/spore_stims/simple_08_A_b.gif","","","","","14","simple_similar","images/stimuli/spore_stims/simple_08_A_b.gif","right","","","","",""
"","null","html-keyboard-response","268","398148","0.0-50.0-0.4","SS1613083417843","","","null","","","","","<p><img src= images/blank.png width =""200"" height = ""200"" style = ""float:right""></p><p><img src=images/blank.png width =""800"" height = ""200""></p>","","","","","","","","","","","",""
"","62.454999999317806","sequential-stimulus-presentation","269","399018","0.0-50.0-1.4","SS1613083417843","trial","","40","800","862.4549999993178","images/stimuli/spore_stims/simple_08_B_b.gif","images/stimuli/spore_stims/simple_08_A_b.gif","","","","","14","simple_similar","images/stimuli/spore_stims/simple_08_A_b.gif","right","","","","",""
"","null","html-keyboard-response","270","399846","0.0-50.0-0.5","SS1613083417843","","","null","","","","","<p><img src= images/blank.png width =""200"" height = ""200"" style = ""float:right""></p><p><img src=images/blank.png width =""800"" height = ""200""></p>","","","","","","","","","","","",""
"","117.28500000026543","sequential-stimulus-presentation","271","400778","0.0-50.0-1.5","SS1613083417843","trial","","40","800","917.2850000002654","images/stimuli/spore_stims/simple_08_B_b.gif","images/stimuli/spore_stims/simple_08_A_b.gif","","","","","14","simple_similar","images/stimuli/spore_stims/simple_08_A_b.gif","right","","","","",""
"","null","html-keyboard-response","272","401707","0.0-50.0-0.6","SS1613083417843","","","null","","","","","<p><img src= images/blank.png width =""200"" height = ""200"" style = ""float:right""></p><p><img src=images/blank.png width =""800"" height = ""200""></p>","","","","","","","","","","","",""
"","132.16000000102213","sequential-stimulus-presentation","273","402648","0.0-50.0-1.6","SS1613083417843","trial","","40","800","932.1600000010221","images/stimuli/spore_stims/simple_08_B_b.gif","images/stimuli/spore_stims/simple_08_A_b.gif","","","","","14","simple_similar","images/stimuli/spore_stims/simple_08_A_b.gif","right","","","","",""
"","null","html-keyboard-response","274","403896","0.0-50.0-0.7","SS1613083417843","","","null","","","","","<p><img src= images/blank.png width =""200"" height = ""200"" style = ""float:right""></p><p><img src=images/blank.png width =""800"" height = ""200""></p>","","","","","","","","","","","",""
"","111.36000000260537","sequential-stimulus-presentation","275","404815","0.0-50.0-1.7","SS1613083417843","trial","","40","800","911.3600000026054","images/stimuli/spore_stims/simple_08_B_b.gif","images/stimuli/spore_stims/simple_08_A_b.gif","","","","","14","simple_similar","images/stimuli/spore_stims/simple_08_B_b.gif","middle","","","","",""
"","872.9200000016135","html-keyboard-response","276","405696","0.0-51.0","SS1613083417843","pref_question","","49","","","","","<video width ='960' height = '540' style='padding-top:8%' autoplay muted><source src='images/stimuli/wall_pref.mp4' type='video/mp4'></video>","1","left","25%","14","","","","","","","",""
"","738.6550000010175","sequential-stimulus-presentation","277","407246","0.0-52.0","SS1613083417843","pref_reveal","","40","800","1538.6550000010175","null","null","","","","","14","","","","novel","","","",""
"","null","html-keyboard-response","278","408082","0.0-53.0-0.0","SS1613083417843","","","null","","","","","<p><img src= images/blank.png width =""200"" height = ""200"" style = ""float:right""></p><p><img src=images/blank.png width =""800"" height = ""200""></p>","","","","","","","","","","","",""
"","496.4499999987311","sequential-stimulus-presentation","279","409385","0.0-53.0-1.0","SS1613083417843","trial","","40","800","1296.449999998731","images/stimuli/spore_stims/simple_10_A_b.gif","images/stimuli/spore_stims/simple_17_B_d.gif","","","","","15","simple_dissimilar","images/stimuli/spore_stims/simple_17_B_d.gif","middle","","","","",""
"","null","html-keyboard-response","280","410311","0.0-53.0-0.1","SS1613083417843","","","null","","","","","<p><img src= images/blank.png width =""200"" height = ""200"" style = ""float:right""></p><p><img src=images/blank.png width =""800"" height = ""200""></p>","","","","","","","","","","","",""
"","2221.2799999979325","sequential-stimulus-presentation","281","413339","0.0-53.0-1.1","SS1613083417843","trial","","40","800","3021.2799999979325","images/stimuli/spore_stims/simple_10_A_b.gif","images/stimuli/spore_stims/simple_17_B_d.gif","","","","","15","simple_dissimilar","images/stimuli/spore_stims/simple_17_B_d.gif","middle","","","","",""
"","null","html-keyboard-response","282","414536","0.0-53.0-0.2","SS1613083417843","","","null","","","","","<p><img src= images/blank.png width =""200"" height = ""200"" style = ""float:right""></p><p><img src=images/blank.png width =""800"" height = ""200""></p>","","","","","","","","","","","",""
"","144.29999999993015","sequential-stimulus-presentation","283","415490","0.0-53.0-1.2","SS1613083417843","trial","","40","800","944.2999999999302","images/stimuli/spore_stims/simple_10_A_b.gif","images/stimuli/spore_stims/simple_17_B_d.gif","","","","","15","simple_dissimilar","images/stimuli/spore_stims/simple_17_B_d.gif","middle","","","","",""
"","null","html-keyboard-response","284","416639","0.0-53.0-0.3","SS1613083417843","","","null","","","","","<p><img src= images/blank.png width =""200"" height = ""200"" style = ""float:right""></p><p><img src=images/blank.png width =""800"" height = ""200""></p>","","","","","","","","","","","",""
"","256.48999999975786","sequential-stimulus-presentation","285","417703","0.0-53.0-1.3","SS1613083417843","trial","","40","800","1056.4899999997579","images/stimuli/spore_stims/simple_10_A_b.gif","images/stimuli/spore_stims/simple_17_B_d.gif","","","","","15","simple_dissimilar","images/stimuli/spore_stims/simple_17_B_d.gif","middle","","","","",""
"","null","html-keyboard-response","286","418612","0.0-53.0-0.4","SS1613083417843","","","null","","","","","<p><img src= images/blank.png width =""200"" height = ""200"" style = ""float:right""></p><p><img src=images/blank.png width =""800"" height = ""200""></p>","","","","","","","","","","","",""
"","355.7349999973667","sequential-stimulus-presentation","287","419775","0.0-53.0-1.4","SS1613083417843","trial","","40","800","1155.7349999973667","images/stimuli/spore_stims/simple_10_A_b.gif","images/stimuli/spore_stims/simple_17_B_d.gif","","","","","15","simple_dissimilar","images/stimuli/spore_stims/simple_17_B_d.gif","middle","","","","",""
"","null","html-keyboard-response","288","420609","0.0-53.0-0.5","SS1613083417843","","","null","","","","","<p><img src= images/blank.png width =""200"" height = ""200"" style = ""float:right""></p><p><img src=images/blank.png width =""800"" height = ""200""></p>","","","","","","","","","","","",""
"","298.5049999988405","sequential-stimulus-presentation","289","421726","0.0-53.0-1.5","SS1613083417843","trial","","40","800","1098.5049999988405","images/stimuli/spore_stims/simple_10_A_b.gif","images/stimuli/spore_stims/simple_17_B_d.gif","","","","","15","simple_dissimilar","images/stimuli/spore_stims/simple_17_B_d.gif","middle","","","","",""
"","null","html-keyboard-response","290","422667","0.0-53.0-0.6","SS1613083417843","","","null","","","","","<p><img src= images/blank.png width =""200"" height = ""200"" style = ""float:right""></p><p><img src=images/blank.png width =""800"" height = ""200""></p>","","","","","","","","","","","",""
"","515.1249999980791","sequential-stimulus-presentation","291","423990","0.0-53.0-1.6","SS1613083417843","trial","","40","800","1315.1249999980791","images/stimuli/spore_stims/simple_10_A_b.gif","images/stimuli/spore_stims/simple_17_B_d.gif","","","","","15","simple_dissimilar","images/stimuli/spore_stims/simple_10_A_b.gif","right","","","","",""
"","null","html-keyboard-response","292","425198","0.0-53.0-0.7","SS1613083417843","","","null","","","","","<p><img src= images/blank.png width =""200"" height = ""200"" style = ""float:right""></p><p><img src=images/blank.png width =""800"" height = ""200""></p>","","","","","","","","","","","",""
"","196.4399999997113","sequential-stimulus-presentation","293","426201","0.0-53.0-1.7","SS1613083417843","trial","","40","800","996.4399999997113","images/stimuli/spore_stims/simple_10_A_b.gif","images/stimuli/spore_stims/simple_17_B_d.gif","","","","","15","simple_dissimilar","images/stimuli/spore_stims/simple_17_B_d.gif","middle","","","","",""
"","567.8400000033434","html-keyboard-response","294","426775","0.0-54.0","SS1613083417843","pref_question","","49","","","","","<video width ='960' height = '540' style='padding-top:8%' autoplay muted><source src='images/stimuli/wall_pref.mp4' type='video/mp4'></video>","1","left","25%","15","","","","","","","",""
"","1305.2699999971082","sequential-stimulus-presentation","295","428889","0.0-55.0","SS1613083417843","pref_reveal","","40","800","2105.2699999971082","null","null","","","","","15","","","","novel","","","",""
"","null","html-keyboard-response","296","430038","0.0-56.0-0.0","SS1613083417843","","","null","","","","","<p><img src= images/blank.png width =""200"" height = ""200"" style = ""float:right""></p><p><img src=images/blank.png width =""800"" height = ""200""></p>","","","","","","","","","","","",""
"","89.80000000155997","sequential-stimulus-presentation","297","430936","0.0-56.0-1.0","SS1613083417843","trial","","40","800","889.80000000156","images/stimuli/spore_stims/complex_14_B_d.gif","images/stimuli/spore_stims/complex_09_B_d.gif","","","","","16","complex_dissimilar","images/stimuli/spore_stims/complex_09_B_d.gif","middle","","","","",""
"","null","html-keyboard-response","298","432105","0.0-56.0-0.1","SS1613083417843","","","null","","","","","<p><img src= images/blank.png width =""200"" height = ""200"" style = ""float:right""></p><p><img src=images/blank.png width =""800"" height = ""200""></p>","","","","","","","","","","","",""
"","147.68999999796506","sequential-stimulus-presentation","299","433065","0.0-56.0-1.1","SS1613083417843","trial","","40","800","947.6899999979651","images/stimuli/spore_stims/complex_14_B_d.gif","images/stimuli/spore_stims/complex_09_B_d.gif","","","","","16","complex_dissimilar","images/stimuli/spore_stims/complex_09_B_d.gif","middle","","","","",""
"","null","html-keyboard-response","300","434028","0.0-56.0-0.2","SS1613083417843","","","null","","","","","<p><img src= images/blank.png width =""200"" height = ""200"" style = ""float:right""></p><p><img src=images/blank.png width =""800"" height = ""200""></p>","","","","","","","","","","","",""
"","622.7849999995669","sequential-stimulus-presentation","301","435459","0.0-56.0-1.2","SS1613083417843","trial","","40","800","1422.784999999567","images/stimuli/spore_stims/complex_14_B_d.gif","images/stimuli/spore_stims/complex_09_B_d.gif","","","","","16","complex_dissimilar","images/stimuli/spore_stims/complex_14_B_d.gif","right","","","","",""
"","null","html-keyboard-response","302","436587","0.0-56.0-0.3","SS1613083417843","","","null","","","","","<p><img src= images/blank.png width =""200"" height = ""200"" style = ""float:right""></p><p><img src=images/blank.png width =""800"" height = ""200""></p>","","","","","","","","","","","",""
"","322.90500000090105","sequential-stimulus-presentation","303","437730","0.0-56.0-1.3","SS1613083417843","trial","","40","800","1122.905000000901","images/stimuli/spore_stims/complex_14_B_d.gif","images/stimuli/spore_stims/complex_09_B_d.gif","","","","","16","complex_dissimilar","images/stimuli/spore_stims/complex_09_B_d.gif","middle","","","","",""
"","null","html-keyboard-response","304","439019","0.0-56.0-0.4","SS1613083417843","","","null","","","","","<p><img src= images/blank.png width =""200"" height = ""200"" style = ""float:right""></p><p><img src=images/blank.png width =""800"" height = ""200""></p>","","","","","","","","","","","",""
"","363.9049999983399","sequential-stimulus-presentation","305","440191","0.0-56.0-1.4","SS1613083417843","trial","","40","800","1163.90499999834","images/stimuli/spore_stims/complex_14_B_d.gif","images/stimuli/spore_stims/complex_09_B_d.gif","","","","","16","complex_dissimilar","images/stimuli/spore_stims/complex_09_B_d.gif","middle","","","","",""
"","null","html-keyboard-response","306","441054","0.0-56.0-0.5","SS1613083417843","","","null","","","","","<p><img src= images/blank.png width =""200"" height = ""200"" style = ""float:right""></p><p><img src=images/blank.png width =""800"" height = ""200""></p>","","","","","","","","","","","",""
"","265.4350000011618","sequential-stimulus-presentation","307","442127","0.0-56.0-1.5","SS1613083417843","trial","","40","800","1065.4350000011618","images/stimuli/spore_stims/complex_14_B_d.gif","images/stimuli/spore_stims/complex_09_B_d.gif","","","","","16","complex_dissimilar","images/stimuli/spore_stims/complex_09_B_d.gif","middle","","","","",""
"","null","html-keyboard-response","308","443354","0.0-56.0-0.6","SS1613083417843","","","null","","","","","<p><img src= images/blank.png width =""200"" height = ""200"" style = ""float:right""></p><p><img src=images/blank.png width =""800"" height = ""200""></p>","","","","","","","","","","","",""
"","300.67000000417465","sequential-stimulus-presentation","309","444471","0.0-56.0-1.6","SS1613083417843","trial","","40","800","1100.6700000041747","images/stimuli/spore_stims/complex_14_B_d.gif","images/stimuli/spore_stims/complex_09_B_d.gif","","","","","16","complex_dissimilar","images/stimuli/spore_stims/complex_09_B_d.gif","middle","","","","",""
"","null","html-keyboard-response","310","445734","0.0-56.0-0.7","SS1613083417843","","","null","","","","","<p><img src= images/blank.png width =""200"" height = ""200"" style = ""float:right""></p><p><img src=images/blank.png width =""800"" height = ""200""></p>","","","","","","","","","","","",""
"","262.03000000532484","sequential-stimulus-presentation","311","446803","0.0-56.0-1.7","SS1613083417843","trial","","40","800","1062.0300000053248","images/stimuli/spore_stims/complex_14_B_d.gif","images/stimuli/spore_stims/complex_09_B_d.gif","","","","","16","complex_dissimilar","images/stimuli/spore_stims/complex_09_B_d.gif","middle","","","","",""
"","526.8849999993108","html-keyboard-response","312","447336","0.0-57.0","SS1613083417843","pref_question","","49","","","","","<video width ='960' height = '540' style='padding-top:8%' autoplay muted><source src='images/stimuli/wall_pref.mp4' type='video/mp4'></video>","1","left","25%","16","","","","","","","",""
