"view_history","rt","trial_type","trial_index","time_elapsed","internal_node_id","subject","stimulus_type","trial_stimulus","key_press","minimum_viewing_duration","trial_looking_time","block_deviant","block_background","stimulus","wall_pref","location","location_percent","block_number","block_type","stimulus_displayed","position_displayed","stim_type_selected","responses","question_order","stimulus_left","stimulus_right"
"[{""page_index"":0,""viewing_time"":7615.464999998949}]","7616.094999997586","instructions","0","7618","0.0-0.0","SS1613080175454","","","","","","","","","","","","","","","","","","","",""
"[{""page_index"":0,""viewing_time"":22226.995000000898},{""page_index"":1,""viewing_time"":22511.47000000128}]","44738.87000000104","instructions","1","54361","0.0-1.0","SS1613080175454","instructions","","","","","","","","","","","","","","","","","","",""
"","24544.284999999945","sequential-stimulus-presentation","2","79715","0.0-2.0","SS1613080175454","","","40","800","25344.284999999945","null","null","","","","","","","","","","","","",""
"","4073.710000000574","sequential-stimulus-presentation","3","84594","0.0-3.0","SS1613080175454","","","40","800","4873.710000000574","null","null","","","","","","","","","","","","",""
"[{""page_index"":0,""viewing_time"":15301.24000000069}]","15301.745000000665","instructions","4","99899","0.0-4.0","SS1613080175454","instructions","","","","","","","","","","","","","","","","","","",""
"","6624.3649999996705","html-keyboard-response","5","106530","0.0-5.0","SS1613080175454","instructions","","50","","","","","<video width ='960' height = '540' autoplay muted><source src='images/stimuli/wall_pref.mp4' type='video/mp4'></video>","2","middle","45%","","","","","","","","",""
"","1869.2750000009255","sequential-stimulus-presentation","6","109204","0.0-6.0","SS1613080175454","pref_reveal","","40","800","2669.2750000009255","null","null","","","","","","","","","","","","",""
"[{""page_index"":0,""viewing_time"":4562.6850000007835},{""page_index"":1,""viewing_time"":41367.09999999948},{""page_index"":2,""viewing_time"":18519.66999999786},{""page_index"":3,""viewing_time"":1432.4200000010023}]","65882.2599999985","instructions","7","175089","0.0-7.0","SS1613080175454","instructions","","","","","","","","","","","","","","","","","","",""
"","null","html-keyboard-response","8","176293","0.0-8.0-0.0","SS1613080175454","","","null","","","","","<p><img src= images/blank.png width =""200"" height = ""200"" style = ""float:right""></p><p><img src=images/blank.png width =""800"" height = ""200""></p>","","","","","","","","","","","",""
"","10611.00499999884","sequential-stimulus-presentation","9","187714","0.0-8.0-1.0","SS1613080175454","trial","","40","800","11411.00499999884","images/stimuli/spore_stims/complex_06_A_b.gif","images/stimuli/spore_stims/complex_05_A_a.gif","","","","","0","complex_dissimilar","images/stimuli/spore_stims/complex_05_A_a.gif","right","","","","",""
"","null","html-keyboard-response","10","188604","0.0-8.0-0.1","SS1613080175454","","","null","","","","","<p><img src= images/blank.png width =""200"" height = ""200"" style = ""float:right""></p><p><img src=images/blank.png width =""800"" height = ""200""></p>","","","","","","","","","","","",""
"","1429.824999999255","sequential-stimulus-presentation","11","190841","0.0-8.0-1.1","SS1613080175454","trial","","40","800","2229.824999999255","images/stimuli/spore_stims/complex_06_A_b.gif","images/stimuli/spore_stims/complex_05_A_a.gif","","","","","0","complex_dissimilar","images/stimuli/spore_stims/complex_05_A_a.gif","right","","","","",""
"","null","html-keyboard-response","12","192142","0.0-8.0-0.2","SS1613080175454","","","null","","","","","<p><img src= images/blank.png width =""200"" height = ""200"" style = ""float:right""></p><p><img src=images/blank.png width =""800"" height = ""200""></p>","","","","","","","","","","","",""
"","2918.279999998049","sequential-stimulus-presentation","13","195866","0.0-8.0-1.2","SS1613080175454","trial","","40","800","3718.279999998049","images/stimuli/spore_stims/complex_06_A_b.gif","images/stimuli/spore_stims/complex_05_A_a.gif","","","","","0","complex_dissimilar","images/stimuli/spore_stims/complex_06_A_b.gif","middle","","","","",""
"","null","html-keyboard-response","14","196879","0.0-8.0-0.3","SS1613080175454","","","null","","","","","<p><img src= images/blank.png width =""200"" height = ""200"" style = ""float:right""></p><p><img src=images/blank.png width =""800"" height = ""200""></p>","","","","","","","","","","","",""
"","2103.5699999993085","sequential-stimulus-presentation","15","199792","0.0-8.0-1.3","SS1613080175454","trial","","40","800","2903.5699999993085","images/stimuli/spore_stims/complex_06_A_b.gif","images/stimuli/spore_stims/complex_05_A_a.gif","","","","","0","complex_dissimilar","images/stimuli/spore_stims/complex_05_A_a.gif","right","","","","",""
"","null","html-keyboard-response","16","200827","0.0-8.0-0.4","SS1613080175454","","","null","","","","","<p><img src= images/blank.png width =""200"" height = ""200"" style = ""float:right""></p><p><img src=images/blank.png width =""800"" height = ""200""></p>","","","","","","","","","","","",""
"","2278.7549999993644","sequential-stimulus-presentation","17","203913","0.0-8.0-1.4","SS1613080175454","trial","","40","800","3078.7549999993644","images/stimuli/spore_stims/complex_06_A_b.gif","images/stimuli/spore_stims/complex_05_A_a.gif","","","","","0","complex_dissimilar","images/stimuli/spore_stims/complex_05_A_a.gif","right","","","","",""
"","null","html-keyboard-response","18","204966","0.0-8.0-0.5","SS1613080175454","","","null","","","","","<p><img src= images/blank.png width =""200"" height = ""200"" style = ""float:right""></p><p><img src=images/blank.png width =""800"" height = ""200""></p>","","","","","","","","","","","",""
"","883.2399999992049","sequential-stimulus-presentation","19","206657","0.0-8.0-1.5","SS1613080175454","trial","","40","800","1683.2399999992049","images/stimuli/spore_stims/complex_06_A_b.gif","images/stimuli/spore_stims/complex_05_A_a.gif","","","","","0","complex_dissimilar","images/stimuli/spore_stims/complex_05_A_a.gif","right","","","","",""
"","null","html-keyboard-response","20","207646","0.0-8.0-0.6","SS1613080175454","","","null","","","","","<p><img src= images/blank.png width =""200"" height = ""200"" style = ""float:right""></p><p><img src=images/blank.png width =""800"" height = ""200""></p>","","","","","","","","","","","",""
"","2071.7750000003434","sequential-stimulus-presentation","21","210528","0.0-8.0-1.6","SS1613080175454","trial","","40","800","2871.7750000003434","images/stimuli/spore_stims/complex_06_A_b.gif","images/stimuli/spore_stims/complex_05_A_a.gif","","","","","0","complex_dissimilar","images/stimuli/spore_stims/complex_05_A_a.gif","right","","","","",""
"","null","html-keyboard-response","22","211400","0.0-8.0-0.7","SS1613080175454","","","null","","","","","<p><img src= images/blank.png width =""200"" height = ""200"" style = ""float:right""></p><p><img src=images/blank.png width =""800"" height = ""200""></p>","","","","","","","","","","","",""
"","2484.1899999992165","sequential-stimulus-presentation","23","214689","0.0-8.0-1.7","SS1613080175454","trial","","40","800","3284.1899999992165","images/stimuli/spore_stims/complex_06_A_b.gif","images/stimuli/spore_stims/complex_05_A_a.gif","","","","","0","complex_dissimilar","images/stimuli/spore_stims/complex_05_A_a.gif","right","","","","",""
"","11417.669999998907","html-keyboard-response","24","226112","0.0-9.0","SS1613080175454","pref_question","","49","","","","","<video width ='960' height = '540' style='padding-top:8%' autoplay muted><source src='images/stimuli/wall_pref.mp4' type='video/mp4'></video>","1","left","25%","0","","","","","","","",""
"","3496.9749999981723","sequential-stimulus-presentation","25","230417","0.0-10.0","SS1613080175454","pref_reveal","","40","800","4296.974999998172","null","null","","","","","0","","","","novel","","","",""
"","null","html-keyboard-response","26","231280","0.0-11.0-0.0","SS1613080175454","","","null","","","","","<p><img src= images/blank.png width =""200"" height = ""200"" style = ""float:right""></p><p><img src=images/blank.png width =""800"" height = ""200""></p>","","","","","","","","","","","",""
"","2642.600000002829","sequential-stimulus-presentation","27","234729","0.0-11.0-1.0","SS1613080175454","trial","","40","800","3442.600000002829","images/stimuli/spore_stims/complex_14_B_a.gif","images/stimuli/spore_stims/complex_11_B_a.gif","","","","","1","complex_dissimilar","images/stimuli/spore_stims/complex_11_B_a.gif","middle","","","","",""
"","null","html-keyboard-response","28","235783","0.0-11.0-0.1","SS1613080175454","","","null","","","","","<p><img src= images/blank.png width =""200"" height = ""200"" style = ""float:right""></p><p><img src=images/blank.png width =""800"" height = ""200""></p>","","","","","","","","","","","",""
"","1571.0450000005658","sequential-stimulus-presentation","29","238161","0.0-11.0-1.1","SS1613080175454","trial","","40","800","2371.045000000566","images/stimuli/spore_stims/complex_14_B_a.gif","images/stimuli/spore_stims/complex_11_B_a.gif","","","","","1","complex_dissimilar","images/stimuli/spore_stims/complex_11_B_a.gif","middle","","","","",""
"","null","html-keyboard-response","30","238994","0.0-11.0-0.2","SS1613080175454","","","null","","","","","<p><img src= images/blank.png width =""200"" height = ""200"" style = ""float:right""></p><p><img src=images/blank.png width =""800"" height = ""200""></p>","","","","","","","","","","","",""
"","764.0150000006543","sequential-stimulus-presentation","31","240568","0.0-11.0-1.2","SS1613080175454","trial","","40","800","1564.0150000006543","images/stimuli/spore_stims/complex_14_B_a.gif","images/stimuli/spore_stims/complex_11_B_a.gif","","","","","1","complex_dissimilar","images/stimuli/spore_stims/complex_11_B_a.gif","middle","","","","",""
"","null","html-keyboard-response","32","241692","0.0-11.0-0.3","SS1613080175454","","","null","","","","","<p><img src= images/blank.png width =""200"" height = ""200"" style = ""float:right""></p><p><img src=images/blank.png width =""800"" height = ""200""></p>","","","","","","","","","","","",""
"","2665.8950000018813","sequential-stimulus-presentation","33","245193","0.0-11.0-1.3","SS1613080175454","trial","","40","800","3465.8950000018813","images/stimuli/spore_stims/complex_14_B_a.gif","images/stimuli/spore_stims/complex_11_B_a.gif","","","","","1","complex_dissimilar","images/stimuli/spore_stims/complex_11_B_a.gif","middle","","","","",""
"","null","html-keyboard-response","34","246214","0.0-11.0-0.4","SS1613080175454","","","null","","","","","<p><img src= images/blank.png width =""200"" height = ""200"" style = ""float:right""></p><p><img src=images/blank.png width =""800"" height = ""200""></p>","","","","","","","","","","","",""
"","2572.3849999995437","sequential-stimulus-presentation","35","249593","0.0-11.0-1.4","SS1613080175454","trial","","40","800","3372.3849999995437","images/stimuli/spore_stims/complex_14_B_a.gif","images/stimuli/spore_stims/complex_11_B_a.gif","","","","","1","complex_dissimilar","images/stimuli/spore_stims/complex_14_B_a.gif","right","","","","",""
"","null","html-keyboard-response","36","250442","0.0-11.0-0.5","SS1613080175454","","","null","","","","","<p><img src= images/blank.png width =""200"" height = ""200"" style = ""float:right""></p><p><img src=images/blank.png width =""800"" height = ""200""></p>","","","","","","","","","","","",""
"","570.0600000018021","sequential-stimulus-presentation","37","251818","0.0-11.0-1.5","SS1613080175454","trial","","40","800","1370.060000001802","images/stimuli/spore_stims/complex_14_B_a.gif","images/stimuli/spore_stims/complex_11_B_a.gif","","","","","1","complex_dissimilar","images/stimuli/spore_stims/complex_11_B_a.gif","middle","","","","",""
"","null","html-keyboard-response","38","252935","0.0-11.0-0.6","SS1613080175454","","","null","","","","","<p><img src= images/blank.png width =""200"" height = ""200"" style = ""float:right""></p><p><img src=images/blank.png width =""800"" height = ""200""></p>","","","","","","","","","","","",""
"","467.15000000043074","sequential-stimulus-presentation","39","254209","0.0-11.0-1.6","SS1613080175454","trial","","40","800","1267.1500000004307","images/stimuli/spore_stims/complex_14_B_a.gif","images/stimuli/spore_stims/complex_11_B_a.gif","","","","","1","complex_dissimilar","images/stimuli/spore_stims/complex_11_B_a.gif","middle","","","","",""
"","null","html-keyboard-response","40","255127","0.0-11.0-0.7","SS1613080175454","","","null","","","","","<p><img src= images/blank.png width =""200"" height = ""200"" style = ""float:right""></p><p><img src=images/blank.png width =""800"" height = ""200""></p>","","","","","","","","","","","",""
"","732.2950000016135","sequential-stimulus-presentation","41","256667","0.0-11.0-1.7","SS1613080175454","trial","","40","800","1532.2950000016135","images/stimuli/spore_stims/complex_14_B_a.gif","images/stimuli/spore_stims/complex_11_B_a.gif","","","","","1","complex_dissimilar","images/stimuli/spore_stims/complex_11_B_a.gif","middle","","","","",""
"","1818.3250000001863","html-keyboard-response","42","258496","0.0-12.0","SS1613080175454","pref_question","","49","","","","","<video width ='960' height = '540' style='padding-top:8%' autoplay muted><source src='images/stimuli/wall_pref.mp4' type='video/mp4'></video>","1","left","25%","1","","","","","","","",""
"","2804.195000000589","sequential-stimulus-presentation","43","262105","0.0-13.0","SS1613080175454","pref_reveal","","40","800","3604.195000000589","null","null","","","","","1","","","","novel","","","",""
"","null","html-keyboard-response","44","263061","0.0-14.0-0.0","SS1613080175454","","","null","","","","","<p><img src= images/blank.png width =""200"" height = ""200"" style = ""float:right""></p><p><img src=images/blank.png width =""800"" height = ""200""></p>","","","","","","","","","","","",""
"","1396.4949999972014","sequential-stimulus-presentation","45","265264","0.0-14.0-1.0","SS1613080175454","trial","","40","800","2196.4949999972014","images/stimuli/spore_stims/simple_06_B_b.gif","images/stimuli/spore_stims/simple_06_A_b.gif","","","","","2","simple_similar","images/stimuli/spore_stims/simple_06_A_b.gif","left","","","","",""
"","null","html-keyboard-response","46","266208","0.0-14.0-0.1","SS1613080175454","","","null","","","","","<p><img src= images/blank.png width =""200"" height = ""200"" style = ""float:right""></p><p><img src=images/blank.png width =""800"" height = ""200""></p>","","","","","","","","","","","",""
"","666.8850000023958","sequential-stimulus-presentation","47","267682","0.0-14.0-1.1","SS1613080175454","trial","","40","800","1466.8850000023958","images/stimuli/spore_stims/simple_06_B_b.gif","images/stimuli/spore_stims/simple_06_A_b.gif","","","","","2","simple_similar","images/stimuli/spore_stims/simple_06_A_b.gif","left","","","","",""
"","null","html-keyboard-response","48","268654","0.0-14.0-0.2","SS1613080175454","","","null","","","","","<p><img src= images/blank.png width =""200"" height = ""200"" style = ""float:right""></p><p><img src=images/blank.png width =""800"" height = ""200""></p>","","","","","","","","","","","",""
"","1796.184999999241","sequential-stimulus-presentation","49","271256","0.0-14.0-1.2","SS1613080175454","trial","","40","800","2596.184999999241","images/stimuli/spore_stims/simple_06_B_b.gif","images/stimuli/spore_stims/simple_06_A_b.gif","","","","","2","simple_similar","images/stimuli/spore_stims/simple_06_B_b.gif","middle","","","","",""
"","null","html-keyboard-response","50","272371","0.0-14.0-0.3","SS1613080175454","","","null","","","","","<p><img src= images/blank.png width =""200"" height = ""200"" style = ""float:right""></p><p><img src=images/blank.png width =""800"" height = ""200""></p>","","","","","","","","","","","",""
"","415.3100000003469","sequential-stimulus-presentation","51","273592","0.0-14.0-1.3","SS1613080175454","trial","","40","800","1215.310000000347","images/stimuli/spore_stims/simple_06_B_b.gif","images/stimuli/spore_stims/simple_06_A_b.gif","","","","","2","simple_similar","images/stimuli/spore_stims/simple_06_A_b.gif","left","","","","",""
"","null","html-keyboard-response","52","274891","0.0-14.0-0.4","SS1613080175454","","","null","","","","","<p><img src= images/blank.png width =""200"" height = ""200"" style = ""float:right""></p><p><img src=images/blank.png width =""800"" height = ""200""></p>","","","","","","","","","","","",""
"","990.7500000008731","sequential-stimulus-presentation","53","276688","0.0-14.0-1.4","SS1613080175454","trial","","40","800","1790.7500000008731","images/stimuli/spore_stims/simple_06_B_b.gif","images/stimuli/spore_stims/simple_06_A_b.gif","","","","","2","simple_similar","images/stimuli/spore_stims/simple_06_A_b.gif","left","","","","",""
"","null","html-keyboard-response","54","277958","0.0-14.0-0.5","SS1613080175454","","","null","","","","","<p><img src= images/blank.png width =""200"" height = ""200"" style = ""float:right""></p><p><img src=images/blank.png width =""800"" height = ""200""></p>","","","","","","","","","","","",""
"","803.5749999980908","sequential-stimulus-presentation","55","279568","0.0-14.0-1.5","SS1613080175454","trial","","40","800","1603.5749999980908","images/stimuli/spore_stims/simple_06_B_b.gif","images/stimuli/spore_stims/simple_06_A_b.gif","","","","","2","simple_similar","images/stimuli/spore_stims/simple_06_A_b.gif","left","","","","",""
"","null","html-keyboard-response","56","280562","0.0-14.0-0.6","SS1613080175454","","","null","","","","","<p><img src= images/blank.png width =""200"" height = ""200"" style = ""float:right""></p><p><img src=images/blank.png width =""800"" height = ""200""></p>","","","","","","","","","","","",""
"","952.3650000009802","sequential-stimulus-presentation","57","282360","0.0-14.0-1.6","SS1613080175454","trial","","40","800","1752.3650000009802","images/stimuli/spore_stims/simple_06_B_b.gif","images/stimuli/spore_stims/simple_06_A_b.gif","","","","","2","simple_similar","images/stimuli/spore_stims/simple_06_A_b.gif","left","","","","",""
"","null","html-keyboard-response","58","283532","0.0-14.0-0.7","SS1613080175454","","","null","","","","","<p><img src= images/blank.png width =""200"" height = ""200"" style = ""float:right""></p><p><img src=images/blank.png width =""800"" height = ""200""></p>","","","","","","","","","","","",""
"","1005.6650000006193","sequential-stimulus-presentation","59","285345","0.0-14.0-1.7","SS1613080175454","trial","","40","800","1805.6650000006193","images/stimuli/spore_stims/simple_06_B_b.gif","images/stimuli/spore_stims/simple_06_A_b.gif","","","","","2","simple_similar","images/stimuli/spore_stims/simple_06_A_b.gif","left","","","","",""
"","1727.43999999878","html-keyboard-response","60","287080","0.0-15.0","SS1613080175454","pref_question","","51","","","","","<video width ='960' height = '540' style='padding-top:8%' autoplay muted><source src='images/stimuli/wall_pref.mp4' type='video/mp4'></video>","3","right","66%","2","","","","","","","",""
"","2280.945000002277","sequential-stimulus-presentation","61","290169","0.0-16.0","SS1613080175454","pref_reveal","","40","800","3080.945000002277","null","null","","","","","2","","","","novel","","","",""
"","null","html-keyboard-response","62","291014","0.0-17.0-0.0","SS1613080175454","","","null","","","","","<p><img src= images/blank.png width =""200"" height = ""200"" style = ""float:right""></p><p><img src=images/blank.png width =""800"" height = ""200""></p>","","","","","","","","","","","",""
"","1296.7849999986356","sequential-stimulus-presentation","63","293121","0.0-17.0-1.0","SS1613080175454","trial","","40","800","2096.7849999986356","images/stimuli/spore_stims/complex_13_B_c.gif","images/stimuli/spore_stims/complex_13_A_c.gif","","","","","3","complex_similar","images/stimuli/spore_stims/complex_13_A_c.gif","right","","","","",""
"","null","html-keyboard-response","64","294183","0.0-17.0-0.1","SS1613080175454","","","null","","","","","<p><img src= images/blank.png width =""200"" height = ""200"" style = ""float:right""></p><p><img src=images/blank.png width =""800"" height = ""200""></p>","","","","","","","","","","","",""
"","354.65000000112923","sequential-stimulus-presentation","65","295345","0.0-17.0-1.1","SS1613080175454","trial","","40","800","1154.6500000011292","images/stimuli/spore_stims/complex_13_B_c.gif","images/stimuli/spore_stims/complex_13_A_c.gif","","","","","3","complex_similar","images/stimuli/spore_stims/complex_13_A_c.gif","right","","","","",""
"","null","html-keyboard-response","66","296194","0.0-17.0-0.2","SS1613080175454","","","null","","","","","<p><img src= images/blank.png width =""200"" height = ""200"" style = ""float:right""></p><p><img src=images/blank.png width =""800"" height = ""200""></p>","","","","","","","","","","","",""
"","544.9649999973481","sequential-stimulus-presentation","67","297545","0.0-17.0-1.2","SS1613080175454","trial","","40","800","1344.964999997348","images/stimuli/spore_stims/complex_13_B_c.gif","images/stimuli/spore_stims/complex_13_A_c.gif","","","","","3","complex_similar","images/stimuli/spore_stims/complex_13_A_c.gif","right","","","","",""
"","null","html-keyboard-response","68","298842","0.0-17.0-0.3","SS1613080175454","","","null","","","","","<p><img src= images/blank.png width =""200"" height = ""200"" style = ""float:right""></p><p><img src=images/blank.png width =""800"" height = ""200""></p>","","","","","","","","","","","",""
"","1671.1899999972666","sequential-stimulus-presentation","69","301321","0.0-17.0-1.3","SS1613080175454","trial","","40","800","2471.1899999972666","images/stimuli/spore_stims/complex_13_B_c.gif","images/stimuli/spore_stims/complex_13_A_c.gif","","","","","3","complex_similar","images/stimuli/spore_stims/complex_13_A_c.gif","right","","","","",""
"","null","html-keyboard-response","70","302358","0.0-17.0-0.4","SS1613080175454","","","null","","","","","<p><img src= images/blank.png width =""200"" height = ""200"" style = ""float:right""></p><p><img src=images/blank.png width =""800"" height = ""200""></p>","","","","","","","","","","","",""
"","4979.870000002789","sequential-stimulus-presentation","71","308146","0.0-17.0-1.4","SS1613080175454","trial","","40","800","5779.870000002789","images/stimuli/spore_stims/complex_13_B_c.gif","images/stimuli/spore_stims/complex_13_A_c.gif","","","","","3","complex_similar","images/stimuli/spore_stims/complex_13_A_c.gif","right","","","","",""
"","null","html-keyboard-response","72","309305","0.0-17.0-0.5","SS1613080175454","","","null","","","","","<p><img src= images/blank.png width =""200"" height = ""200"" style = ""float:right""></p><p><img src=images/blank.png width =""800"" height = ""200""></p>","","","","","","","","","","","",""
"","647.5049999972107","sequential-stimulus-presentation","73","310760","0.0-17.0-1.5","SS1613080175454","trial","","40","800","1447.5049999972107","images/stimuli/spore_stims/complex_13_B_c.gif","images/stimuli/spore_stims/complex_13_A_c.gif","","","","","3","complex_similar","images/stimuli/spore_stims/complex_13_A_c.gif","right","","","","",""
"","null","html-keyboard-response","74","311755","0.0-17.0-0.6","SS1613080175454","","","null","","","","","<p><img src= images/blank.png width =""200"" height = ""200"" style = ""float:right""></p><p><img src=images/blank.png width =""800"" height = ""200""></p>","","","","","","","","","","","",""
"","3119.3700000003446","sequential-stimulus-presentation","75","315680","0.0-17.0-1.6","SS1613080175454","trial","","40","800","3919.3700000003446","images/stimuli/spore_stims/complex_13_B_c.gif","images/stimuli/spore_stims/complex_13_A_c.gif","","","","","3","complex_similar","images/stimuli/spore_stims/complex_13_B_c.gif","middle","","","","",""
"","null","html-keyboard-response","76","316920","0.0-17.0-0.7","SS1613080175454","","","null","","","","","<p><img src= images/blank.png width =""200"" height = ""200"" style = ""float:right""></p><p><img src=images/blank.png width =""800"" height = ""200""></p>","","","","","","","","","","","",""
"","2152.5049999982","sequential-stimulus-presentation","77","319881","0.0-17.0-1.7","SS1613080175454","trial","","40","800","2952.5049999982","images/stimuli/spore_stims/complex_13_B_c.gif","images/stimuli/spore_stims/complex_13_A_c.gif","","","","","3","complex_similar","images/stimuli/spore_stims/complex_13_A_c.gif","right","","","","",""
"","1655.6899999995949","html-keyboard-response","78","321544","0.0-18.0","SS1613080175454","pref_question","","49","","","","","<video width ='960' height = '540' style='padding-top:8%' autoplay muted><source src='images/stimuli/wall_pref.mp4' type='video/mp4'></video>","1","left","25%","3","","","","","","","",""
"","1368.8799999982002","sequential-stimulus-presentation","79","323721","0.0-19.0","SS1613080175454","pref_reveal","","40","800","2168.8799999982","null","null","","","","","3","","","","novel","","","",""
"","null","html-keyboard-response","80","324547","0.0-20.0-0.0","SS1613080175454","","","null","","","","","<p><img src= images/blank.png width =""200"" height = ""200"" style = ""float:right""></p><p><img src=images/blank.png width =""800"" height = ""200""></p>","","","","","","","","","","","",""
"","2027.5849999997881","sequential-stimulus-presentation","81","327384","0.0-20.0-1.0","SS1613080175454","trial","","40","800","2827.584999999788","images/stimuli/spore_stims/complex_20_A_a.gif","images/stimuli/spore_stims/complex_02_B_d.gif","","","","","4","complex_dissimilar","images/stimuli/spore_stims/complex_02_B_d.gif","right","","","","",""
"","null","html-keyboard-response","82","328362","0.0-20.0-0.1","SS1613080175454","","","null","","","","","<p><img src= images/blank.png width =""200"" height = ""200"" style = ""float:right""></p><p><img src=images/blank.png width =""800"" height = ""200""></p>","","","","","","","","","","","",""
"","646.3449999973527","sequential-stimulus-presentation","83","329816","0.0-20.0-1.1","SS1613080175454","trial","","40","800","1446.3449999973527","images/stimuli/spore_stims/complex_20_A_a.gif","images/stimuli/spore_stims/complex_02_B_d.gif","","","","","4","complex_dissimilar","images/stimuli/spore_stims/complex_02_B_d.gif","right","","","","",""
"","null","html-keyboard-response","84","330664","0.0-20.0-0.2","SS1613080175454","","","null","","","","","<p><img src= images/blank.png width =""200"" height = ""200"" style = ""float:right""></p><p><img src=images/blank.png width =""800"" height = ""200""></p>","","","","","","","","","","","",""
"","720.6899999983143","sequential-stimulus-presentation","85","332192","0.0-20.0-1.2","SS1613080175454","trial","","40","800","1520.6899999983143","images/stimuli/spore_stims/complex_20_A_a.gif","images/stimuli/spore_stims/complex_02_B_d.gif","","","","","4","complex_dissimilar","images/stimuli/spore_stims/complex_02_B_d.gif","right","","","","",""
"","null","html-keyboard-response","86","333259","0.0-20.0-0.3","SS1613080175454","","","null","","","","","<p><img src= images/blank.png width =""200"" height = ""200"" style = ""float:right""></p><p><img src=images/blank.png width =""800"" height = ""200""></p>","","","","","","","","","","","",""
"","678.0849999996135","sequential-stimulus-presentation","87","334744","0.0-20.0-1.3","SS1613080175454","trial","","40","800","1478.0849999996135","images/stimuli/spore_stims/complex_20_A_a.gif","images/stimuli/spore_stims/complex_02_B_d.gif","","","","","4","complex_dissimilar","images/stimuli/spore_stims/complex_02_B_d.gif","right","","","","",""
"","null","html-keyboard-response","88","336016","0.0-20.0-0.4","SS1613080175454","","","null","","","","","<p><img src= images/blank.png width =""200"" height = ""200"" style = ""float:right""></p><p><img src=images/blank.png width =""800"" height = ""200""></p>","","","","","","","","","","","",""
"","608.8799999997718","sequential-stimulus-presentation","89","337432","0.0-20.0-1.4","SS1613080175454","trial","","40","800","1408.8799999997718","images/stimuli/spore_stims/complex_20_A_a.gif","images/stimuli/spore_stims/complex_02_B_d.gif","","","","","4","complex_dissimilar","images/stimuli/spore_stims/complex_02_B_d.gif","right","","","","",""
"","null","html-keyboard-response","90","338420","0.0-20.0-0.5","SS1613080175454","","","null","","","","","<p><img src= images/blank.png width =""200"" height = ""200"" style = ""float:right""></p><p><img src=images/blank.png width =""800"" height = ""200""></p>","","","","","","","","","","","",""
"","786.7499999993015","sequential-stimulus-presentation","91","340016","0.0-20.0-1.5","SS1613080175454","trial","","40","800","1586.7499999993015","images/stimuli/spore_stims/complex_20_A_a.gif","images/stimuli/spore_stims/complex_02_B_d.gif","","","","","4","complex_dissimilar","images/stimuli/spore_stims/complex_02_B_d.gif","right","","","","",""
"","null","html-keyboard-response","92","340896","0.0-20.0-0.6","SS1613080175454","","","null","","","","","<p><img src= images/blank.png width =""200"" height = ""200"" style = ""float:right""></p><p><img src=images/blank.png width =""800"" height = ""200""></p>","","","","","","","","","","","",""
"","2863.079999999143","sequential-stimulus-presentation","93","344568","0.0-20.0-1.6","SS1613080175454","trial","","40","800","3663.079999999143","images/stimuli/spore_stims/complex_20_A_a.gif","images/stimuli/spore_stims/complex_02_B_d.gif","","","","","4","complex_dissimilar","images/stimuli/spore_stims/complex_20_A_a.gif","left","","","","",""
"","null","html-keyboard-response","94","345752","0.0-20.0-0.7","SS1613080175454","","","null","","","","","<p><img src= images/blank.png width =""200"" height = ""200"" style = ""float:right""></p><p><img src=images/blank.png width =""800"" height = ""200""></p>","","","","","","","","","","","",""
"","336.28999999928055","sequential-stimulus-presentation","95","346896","0.0-20.0-1.7","SS1613080175454","trial","","40","800","1136.2899999992806","images/stimuli/spore_stims/complex_20_A_a.gif","images/stimuli/spore_stims/complex_02_B_d.gif","","","","","4","complex_dissimilar","images/stimuli/spore_stims/complex_02_B_d.gif","right","","","","",""
"","1231.5100000014645","html-keyboard-response","96","348136","0.0-21.0","SS1613080175454","pref_question","","50","","","","","<video width ='960' height = '540' style='padding-top:8%' autoplay muted><source src='images/stimuli/wall_pref.mp4' type='video/mp4'></video>","2","middle","45%","4","","","","","","","",""
"","2193.2099999976344","sequential-stimulus-presentation","97","351136","0.0-22.0","SS1613080175454","pref_reveal","","40","800","2993.2099999976344","null","null","","","","","4","","","","novel","","","",""
"","null","html-keyboard-response","98","352307","0.0-23.0-0.0","SS1613080175454","","","null","","","","","<p><img src= images/blank.png width =""200"" height = ""200"" style = ""float:right""></p><p><img src=images/blank.png width =""800"" height = ""200""></p>","","","","","","","","","","","",""
"","1195.7099999999627","sequential-stimulus-presentation","99","354312","0.0-23.0-1.0","SS1613080175454","trial","","40","800","1995.7099999999627","images/stimuli/spore_stims/simple_16_A_a.gif","images/stimuli/spore_stims/simple_16_B_a.gif","","","","","5","simple_similar","images/stimuli/spore_stims/simple_16_B_a.gif","middle","","","","",""
"","null","html-keyboard-response","100","355518","0.0-23.0-0.1","SS1613080175454","","","null","","","","","<p><img src= images/blank.png width =""200"" height = ""200"" style = ""float:right""></p><p><img src=images/blank.png width =""800"" height = ""200""></p>","","","","","","","","","","","",""
"","953.7799999998533","sequential-stimulus-presentation","101","357304","0.0-23.0-1.1","SS1613080175454","trial","","40","800","1753.7799999998533","images/stimuli/spore_stims/simple_16_A_a.gif","images/stimuli/spore_stims/simple_16_B_a.gif","","","","","5","simple_similar","images/stimuli/spore_stims/simple_16_B_a.gif","middle","","","","",""
"","null","html-keyboard-response","102","358385","0.0-23.0-0.2","SS1613080175454","","","null","","","","","<p><img src= images/blank.png width =""200"" height = ""200"" style = ""float:right""></p><p><img src=images/blank.png width =""800"" height = ""200""></p>","","","","","","","","","","","",""
"","411.89999999909196","sequential-stimulus-presentation","103","359607","0.0-23.0-1.2","SS1613080175454","trial","","40","800","1211.899999999092","images/stimuli/spore_stims/simple_16_A_a.gif","images/stimuli/spore_stims/simple_16_B_a.gif","","","","","5","simple_similar","images/stimuli/spore_stims/simple_16_B_a.gif","middle","","","","",""
"","null","html-keyboard-response","104","360452","0.0-23.0-0.3","SS1613080175454","","","null","","","","","<p><img src= images/blank.png width =""200"" height = ""200"" style = ""float:right""></p><p><img src=images/blank.png width =""800"" height = ""200""></p>","","","","","","","","","","","",""
"","628.354999997071","sequential-stimulus-presentation","105","361888","0.0-23.0-1.3","SS1613080175454","trial","","40","800","1428.354999997071","images/stimuli/spore_stims/simple_16_A_a.gif","images/stimuli/spore_stims/simple_16_B_a.gif","","","","","5","simple_similar","images/stimuli/spore_stims/simple_16_B_a.gif","middle","","","","",""
"","null","html-keyboard-response","106","362917","0.0-23.0-0.4","SS1613080175454","","","null","","","","","<p><img src= images/blank.png width =""200"" height = ""200"" style = ""float:right""></p><p><img src=images/blank.png width =""800"" height = ""200""></p>","","","","","","","","","","","",""
"","963.1200000003446","sequential-stimulus-presentation","107","364687","0.0-23.0-1.4","SS1613080175454","trial","","40","800","1763.1200000003446","images/stimuli/spore_stims/simple_16_A_a.gif","images/stimuli/spore_stims/simple_16_B_a.gif","","","","","5","simple_similar","images/stimuli/spore_stims/simple_16_B_a.gif","middle","","","","",""
"","null","html-keyboard-response","108","365934","0.0-23.0-0.5","SS1613080175454","","","null","","","","","<p><img src= images/blank.png width =""200"" height = ""200"" style = ""float:right""></p><p><img src=images/blank.png width =""800"" height = ""200""></p>","","","","","","","","","","","",""
"","1154.3750000018626","sequential-stimulus-presentation","109","367896","0.0-23.0-1.5","SS1613080175454","trial","","40","800","1954.3750000018626","images/stimuli/spore_stims/simple_16_A_a.gif","images/stimuli/spore_stims/simple_16_B_a.gif","","","","","5","simple_similar","images/stimuli/spore_stims/simple_16_A_a.gif","left","","","","",""
"","null","html-keyboard-response","110","369167","0.0-23.0-0.6","SS1613080175454","","","null","","","","","<p><img src= images/blank.png width =""200"" height = ""200"" style = ""float:right""></p><p><img src=images/blank.png width =""800"" height = ""200""></p>","","","","","","","","","","","",""
"","1024.4299999976065","sequential-stimulus-presentation","111","371002","0.0-23.0-1.6","SS1613080175454","trial","","40","800","1824.4299999976065","images/stimuli/spore_stims/simple_16_A_a.gif","images/stimuli/spore_stims/simple_16_B_a.gif","","","","","5","simple_similar","images/stimuli/spore_stims/simple_16_B_a.gif","middle","","","","",""
"","null","html-keyboard-response","112","372039","0.0-23.0-0.7","SS1613080175454","","","null","","","","","<p><img src= images/blank.png width =""200"" height = ""200"" style = ""float:right""></p><p><img src=images/blank.png width =""800"" height = ""200""></p>","","","","","","","","","","","",""
"","368.33000000112224","sequential-stimulus-presentation","113","373215","0.0-23.0-1.7","SS1613080175454","trial","","40","800","1168.3300000011222","images/stimuli/spore_stims/simple_16_A_a.gif","images/stimuli/spore_stims/simple_16_B_a.gif","","","","","5","simple_similar","images/stimuli/spore_stims/simple_16_B_a.gif","middle","","","","",""
"","1193.0099999990198","html-keyboard-response","114","374415","0.0-24.0","SS1613080175454","pref_question","","51","","","","","<video width ='960' height = '540' style='padding-top:8%' autoplay muted><source src='images/stimuli/wall_pref.mp4' type='video/mp4'></video>","3","right","66%","5","","","","","","","",""
"","3503.789999998815","sequential-stimulus-presentation","115","378728","0.0-25.0","SS1613080175454","pref_reveal","","40","800","4303.789999998815","null","null","","","","","5","","","","novel","","","",""
"","null","html-keyboard-response","116","379589","0.0-26.0-0.0","SS1613080175454","","","null","","","","","<p><img src= images/blank.png width =""200"" height = ""200"" style = ""float:right""></p><p><img src=images/blank.png width =""800"" height = ""200""></p>","","","","","","","","","","","",""
"","1288.0100000002421","sequential-stimulus-presentation","117","381687","0.0-26.0-1.0","SS1613080175454","trial","","40","800","2088.010000000242","images/stimuli/spore_stims/simple_12_B_b.gif","images/stimuli/spore_stims/simple_12_A_b.gif","","","","","6","simple_similar","images/stimuli/spore_stims/simple_12_A_b.gif","middle","","","","",""
"","null","html-keyboard-response","118","382545","0.0-26.0-0.1","SS1613080175454","","","null","","","","","<p><img src= images/blank.png width =""200"" height = ""200"" style = ""float:right""></p><p><img src=images/blank.png width =""800"" height = ""200""></p>","","","","","","","","","","","",""
"","1053.954999999376","sequential-stimulus-presentation","119","384407","0.0-26.0-1.1","SS1613080175454","trial","","40","800","1853.954999999376","images/stimuli/spore_stims/simple_12_B_b.gif","images/stimuli/spore_stims/simple_12_A_b.gif","","","","","6","simple_similar","images/stimuli/spore_stims/simple_12_A_b.gif","middle","","","","",""
"","null","html-keyboard-response","120","385267","0.0-26.0-0.2","SS1613080175454","","","null","","","","","<p><img src= images/blank.png width =""200"" height = ""200"" style = ""float:right""></p><p><img src=images/blank.png width =""800"" height = ""200""></p>","","","","","","","","","","","",""
"","394.2800000004936","sequential-stimulus-presentation","121","386511","0.0-26.0-1.2","SS1613080175454","trial","","40","800","1194.2800000004936","images/stimuli/spore_stims/simple_12_B_b.gif","images/stimuli/spore_stims/simple_12_A_b.gif","","","","","6","simple_similar","images/stimuli/spore_stims/simple_12_A_b.gif","middle","","","","",""
"","null","html-keyboard-response","122","387774","0.0-26.0-0.3","SS1613080175454","","","null","","","","","<p><img src= images/blank.png width =""200"" height = ""200"" style = ""float:right""></p><p><img src=images/blank.png width =""800"" height = ""200""></p>","","","","","","","","","","","",""
"","897.3600000026636","sequential-stimulus-presentation","123","389481","0.0-26.0-1.3","SS1613080175454","trial","","40","800","1697.3600000026636","images/stimuli/spore_stims/simple_12_B_b.gif","images/stimuli/spore_stims/simple_12_A_b.gif","","","","","6","simple_similar","images/stimuli/spore_stims/simple_12_A_b.gif","middle","","","","",""
"","null","html-keyboard-response","124","390452","0.0-26.0-0.4","SS1613080175454","","","null","","","","","<p><img src= images/blank.png width =""200"" height = ""200"" style = ""float:right""></p><p><img src=images/blank.png width =""800"" height = ""200""></p>","","","","","","","","","","","",""
"","976.3600000005681","sequential-stimulus-presentation","125","392239","0.0-26.0-1.4","SS1613080175454","trial","","40","800","1776.360000000568","images/stimuli/spore_stims/simple_12_B_b.gif","images/stimuli/spore_stims/simple_12_A_b.gif","","","","","6","simple_similar","images/stimuli/spore_stims/simple_12_B_b.gif","left","","","","",""
"","null","html-keyboard-response","126","393092","0.0-26.0-0.5","SS1613080175454","","","null","","","","","<p><img src= images/blank.png width =""200"" height = ""200"" style = ""float:right""></p><p><img src=images/blank.png width =""800"" height = ""200""></p>","","","","","","","","","","","",""
"","297.23999999987427","sequential-stimulus-presentation","127","394199","0.0-26.0-1.5","SS1613080175454","trial","","40","800","1097.2399999998743","images/stimuli/spore_stims/simple_12_B_b.gif","images/stimuli/spore_stims/simple_12_A_b.gif","","","","","6","simple_similar","images/stimuli/spore_stims/simple_12_A_b.gif","middle","","","","",""
"","null","html-keyboard-response","128","395121","0.0-26.0-0.6","SS1613080175454","","","null","","","","","<p><img src= images/blank.png width =""200"" height = ""200"" style = ""float:right""></p><p><img src=images/blank.png width =""800"" height = ""200""></p>","","","","","","","","","","","",""
"","556.7599999994854","sequential-stimulus-presentation","129","396502","0.0-26.0-1.6","SS1613080175454","trial","","40","800","1356.7599999994854","images/stimuli/spore_stims/simple_12_B_b.gif","images/stimuli/spore_stims/simple_12_A_b.gif","","","","","6","simple_similar","images/stimuli/spore_stims/simple_12_A_b.gif","middle","","","","",""
"","null","html-keyboard-response","130","397425","0.0-26.0-0.7","SS1613080175454","","","null","","","","","<p><img src= images/blank.png width =""200"" height = ""200"" style = ""float:right""></p><p><img src=images/blank.png width =""800"" height = ""200""></p>","","","","","","","","","","","",""
"","893.9050000008428","sequential-stimulus-presentation","131","399127","0.0-26.0-1.7","SS1613080175454","trial","","40","800","1693.9050000008428","images/stimuli/spore_stims/simple_12_B_b.gif","images/stimuli/spore_stims/simple_12_A_b.gif","","","","","6","simple_similar","images/stimuli/spore_stims/simple_12_A_b.gif","middle","","","","",""
"","1433.8500000012573","html-keyboard-response","132","400567","0.0-27.0","SS1613080175454","pref_question","","51","","","","","<video width ='960' height = '540' style='padding-top:8%' autoplay muted><source src='images/stimuli/wall_pref.mp4' type='video/mp4'></video>","3","right","66%","6","","","","","","","",""
"","2790.544999999809","sequential-stimulus-presentation","133","404167","0.0-28.0","SS1613080175454","pref_reveal","","40","800","3590.544999999809","null","null","","","","","6","","","","novel","","","",""
"","null","html-keyboard-response","134","405433","0.0-29.0-0.0","SS1613080175454","","","null","","","","","<p><img src= images/blank.png width =""200"" height = ""200"" style = ""float:right""></p><p><img src=images/blank.png width =""800"" height = ""200""></p>","","","","","","","","","","","",""
"","745.8249999982072","sequential-stimulus-presentation","135","406990","0.0-29.0-1.0","SS1613080175454","trial","","40","800","1545.8249999982072","images/stimuli/spore_stims/simple_18_A_c.gif","images/stimuli/spore_stims/simple_17_A_d.gif","","","","","7","simple_dissimilar","images/stimuli/spore_stims/simple_17_A_d.gif","middle","","","","",""
"","null","html-keyboard-response","136","408048","0.0-29.0-0.1","SS1613080175454","","","null","","","","","<p><img src= images/blank.png width =""200"" height = ""200"" style = ""float:right""></p><p><img src=images/blank.png width =""800"" height = ""200""></p>","","","","","","","","","","","",""
"","2161.2800000002608","sequential-stimulus-presentation","137","411040","0.0-29.0-1.1","SS1613080175454","trial","","40","800","2961.2800000002608","images/stimuli/spore_stims/simple_18_A_c.gif","images/stimuli/spore_stims/simple_17_A_d.gif","","","","","7","simple_dissimilar","images/stimuli/spore_stims/simple_17_A_d.gif","middle","","","","",""
"","null","html-keyboard-response","138","411986","0.0-29.0-0.2","SS1613080175454","","","null","","","","","<p><img src= images/blank.png width =""200"" height = ""200"" style = ""float:right""></p><p><img src=images/blank.png width =""800"" height = ""200""></p>","","","","","","","","","","","",""
"","425.6900000000023","sequential-stimulus-presentation","139","413224","0.0-29.0-1.2","SS1613080175454","trial","","40","800","1225.6900000000023","images/stimuli/spore_stims/simple_18_A_c.gif","images/stimuli/spore_stims/simple_17_A_d.gif","","","","","7","simple_dissimilar","images/stimuli/spore_stims/simple_17_A_d.gif","middle","","","","",""
"","null","html-keyboard-response","140","414450","0.0-29.0-0.3","SS1613080175454","","","null","","","","","<p><img src= images/blank.png width =""200"" height = ""200"" style = ""float:right""></p><p><img src=images/blank.png width =""800"" height = ""200""></p>","","","","","","","","","","","",""
"","518.660000001546","sequential-stimulus-presentation","141","415784","0.0-29.0-1.3","SS1613080175454","trial","","40","800","1318.660000001546","images/stimuli/spore_stims/simple_18_A_c.gif","images/stimuli/spore_stims/simple_17_A_d.gif","","","","","7","simple_dissimilar","images/stimuli/spore_stims/simple_17_A_d.gif","middle","","","","",""
"","null","html-keyboard-response","142","416640","0.0-29.0-0.4","SS1613080175454","","","null","","","","","<p><img src= images/blank.png width =""200"" height = ""200"" style = ""float:right""></p><p><img src=images/blank.png width =""800"" height = ""200""></p>","","","","","","","","","","","",""
"","783.6200000019744","sequential-stimulus-presentation","143","418232","0.0-29.0-1.4","SS1613080175454","trial","","40","800","1583.6200000019744","images/stimuli/spore_stims/simple_18_A_c.gif","images/stimuli/spore_stims/simple_17_A_d.gif","","","","","7","simple_dissimilar","images/stimuli/spore_stims/simple_17_A_d.gif","middle","","","","",""
"","null","html-keyboard-response","144","419159","0.0-29.0-0.5","SS1613080175454","","","null","","","","","<p><img src= images/blank.png width =""200"" height = ""200"" style = ""float:right""></p><p><img src=images/blank.png width =""800"" height = ""200""></p>","","","","","","","","","","","",""
"","813.5100000000093","sequential-stimulus-presentation","145","420800","0.0-29.0-1.5","SS1613080175454","trial","","40","800","1613.5100000000093","images/stimuli/spore_stims/simple_18_A_c.gif","images/stimuli/spore_stims/simple_17_A_d.gif","","","","","7","simple_dissimilar","images/stimuli/spore_stims/simple_17_A_d.gif","middle","","","","",""
"","null","html-keyboard-response","146","422004","0.0-29.0-0.6","SS1613080175454","","","null","","","","","<p><img src= images/blank.png width =""200"" height = ""200"" style = ""float:right""></p><p><img src=images/blank.png width =""800"" height = ""200""></p>","","","","","","","","","","","",""
"","707.3299999974552","sequential-stimulus-presentation","147","423519","0.0-29.0-1.6","SS1613080175454","trial","","40","800","1507.3299999974552","images/stimuli/spore_stims/simple_18_A_c.gif","images/stimuli/spore_stims/simple_17_A_d.gif","","","","","7","simple_dissimilar","images/stimuli/spore_stims/simple_18_A_c.gif","right","","","","",""
"","null","html-keyboard-response","148","424475","0.0-29.0-0.7","SS1613080175454","","","null","","","","","<p><img src= images/blank.png width =""200"" height = ""200"" style = ""float:right""></p><p><img src=images/blank.png width =""800"" height = ""200""></p>","","","","","","","","","","","",""
"","520.2300000019604","sequential-stimulus-presentation","149","425808","0.0-29.0-1.7","SS1613080175454","trial","","40","800","1320.2300000019604","images/stimuli/spore_stims/simple_18_A_c.gif","images/stimuli/spore_stims/simple_17_A_d.gif","","","","","7","simple_dissimilar","images/stimuli/spore_stims/simple_17_A_d.gif","middle","","","","",""
"","1454.5650000000023","html-keyboard-response","150","427272","0.0-30.0","SS1613080175454","pref_question","","49","","","","","<video width ='960' height = '540' style='padding-top:8%' autoplay muted><source src='images/stimuli/wall_pref.mp4' type='video/mp4'></video>","1","left","25%","7","","","","","","","",""
"","2198.9549999998417","sequential-stimulus-presentation","151","430279","0.0-31.0","SS1613080175454","pref_reveal","","40","800","2998.9549999998417","null","null","","","","","7","","","","novel","","","",""
"","null","html-keyboard-response","152","431435","0.0-32.0-0.0","SS1613080175454","","","null","","","","","<p><img src= images/blank.png width =""200"" height = ""200"" style = ""float:right""></p><p><img src=images/blank.png width =""800"" height = ""200""></p>","","","","","","","","","","","",""
"","2146.215000000666","sequential-stimulus-presentation","153","434392","0.0-32.0-1.0","SS1613080175454","trial","","40","800","2946.215000000666","images/stimuli/spore_stims/complex_17_A_a.gif","images/stimuli/spore_stims/complex_17_B_a.gif","","","","","8","complex_similar","images/stimuli/spore_stims/complex_17_B_a.gif","middle","","","","",""
"","null","html-keyboard-response","154","435297","0.0-32.0-0.1","SS1613080175454","","","null","","","","","<p><img src= images/blank.png width =""200"" height = ""200"" style = ""float:right""></p><p><img src=images/blank.png width =""800"" height = ""200""></p>","","","","","","","","","","","",""
"","907.0949999986333","sequential-stimulus-presentation","155","437015","0.0-32.0-1.1","SS1613080175454","trial","","40","800","1707.0949999986333","images/stimuli/spore_stims/complex_17_A_a.gif","images/stimuli/spore_stims/complex_17_B_a.gif","","","","","8","complex_similar","images/stimuli/spore_stims/complex_17_B_a.gif","middle","","","","",""
"","null","html-keyboard-response","156","438196","0.0-32.0-0.2","SS1613080175454","","","null","","","","","<p><img src= images/blank.png width =""200"" height = ""200"" style = ""float:right""></p><p><img src=images/blank.png width =""800"" height = ""200""></p>","","","","","","","","","","","",""
"","406.5550000014482","sequential-stimulus-presentation","157","439424","0.0-32.0-1.2","SS1613080175454","trial","","40","800","1206.5550000014482","images/stimuli/spore_stims/complex_17_A_a.gif","images/stimuli/spore_stims/complex_17_B_a.gif","","","","","8","complex_similar","images/stimuli/spore_stims/complex_17_B_a.gif","middle","","","","",""
"","null","html-keyboard-response","158","440458","0.0-32.0-0.3","SS1613080175454","","","null","","","","","<p><img src= images/blank.png width =""200"" height = ""200"" style = ""float:right""></p><p><img src=images/blank.png width =""800"" height = ""200""></p>","","","","","","","","","","","",""
"","476.1050000016112","sequential-stimulus-presentation","159","441743","0.0-32.0-1.3","SS1613080175454","trial","","40","800","1276.1050000016112","images/stimuli/spore_stims/complex_17_A_a.gif","images/stimuli/spore_stims/complex_17_B_a.gif","","","","","8","complex_similar","images/stimuli/spore_stims/complex_17_B_a.gif","middle","","","","",""
"","null","html-keyboard-response","160","442950","0.0-32.0-0.4","SS1613080175454","","","null","","","","","<p><img src= images/blank.png width =""200"" height = ""200"" style = ""float:right""></p><p><img src=images/blank.png width =""800"" height = ""200""></p>","","","","","","","","","","","",""
"","415.7450000020908","sequential-stimulus-presentation","161","444176","0.0-32.0-1.4","SS1613080175454","trial","","40","800","1215.7450000020908","images/stimuli/spore_stims/complex_17_A_a.gif","images/stimuli/spore_stims/complex_17_B_a.gif","","","","","8","complex_similar","images/stimuli/spore_stims/complex_17_B_a.gif","middle","","","","",""
"","null","html-keyboard-response","162","445278","0.0-32.0-0.5","SS1613080175454","","","null","","","","","<p><img src= images/blank.png width =""200"" height = ""200"" style = ""float:right""></p><p><img src=images/blank.png width =""800"" height = ""200""></p>","","","","","","","","","","","",""
"","622.2950000010314","sequential-stimulus-presentation","163","446719","0.0-32.0-1.5","SS1613080175454","trial","","40","800","1422.2950000010314","images/stimuli/spore_stims/complex_17_A_a.gif","images/stimuli/spore_stims/complex_17_B_a.gif","","","","","8","complex_similar","images/stimuli/spore_stims/complex_17_B_a.gif","middle","","","","",""
"","null","html-keyboard-response","164","447865","0.0-32.0-0.6","SS1613080175454","","","null","","","","","<p><img src= images/blank.png width =""200"" height = ""200"" style = ""float:right""></p><p><img src=images/blank.png width =""800"" height = ""200""></p>","","","","","","","","","","","",""
"","1309.7350000025472","sequential-stimulus-presentation","165","449983","0.0-32.0-1.6","SS1613080175454","trial","","40","800","2109.735000002547","images/stimuli/spore_stims/complex_17_A_a.gif","images/stimuli/spore_stims/complex_17_B_a.gif","","","","","8","complex_similar","images/stimuli/spore_stims/complex_17_B_a.gif","middle","","","","",""
"","null","html-keyboard-response","166","451130","0.0-32.0-0.7","SS1613080175454","","","null","","","","","<p><img src= images/blank.png width =""200"" height = ""200"" style = ""float:right""></p><p><img src=images/blank.png width =""800"" height = ""200""></p>","","","","","","","","","","","",""
"","1679.9600000013597","sequential-stimulus-presentation","167","453623","0.0-32.0-1.7","SS1613080175454","trial","","40","800","2479.9600000013597","images/stimuli/spore_stims/complex_17_A_a.gif","images/stimuli/spore_stims/complex_17_B_a.gif","","","","","8","complex_similar","images/stimuli/spore_stims/complex_17_A_a.gif","left","","","","",""
"","1808.8499999976484","html-keyboard-response","168","455439","0.0-33.0","SS1613080175454","pref_question","","51","","","","","<video width ='960' height = '540' style='padding-top:8%' autoplay muted><source src='images/stimuli/wall_pref.mp4' type='video/mp4'></video>","3","right","66%","8","","","","","","","",""
"","2910.1950000004144","sequential-stimulus-presentation","169","459159","0.0-34.0","SS1613080175454","pref_reveal","","40","800","3710.1950000004144","null","null","","","","","8","","","","novel","","","",""
"","null","html-keyboard-response","170","460282","0.0-35.0-0.0","SS1613080175454","","","null","","","","","<p><img src= images/blank.png width =""200"" height = ""200"" style = ""float:right""></p><p><img src=images/blank.png width =""800"" height = ""200""></p>","","","","","","","","","","","",""
"","1402.1100000027218","sequential-stimulus-presentation","171","462495","0.0-35.0-1.0","SS1613080175454","trial","","40","800","2202.110000002722","images/stimuli/spore_stims/complex_14_A_d.gif","images/stimuli/spore_stims/complex_10_A_b.gif","","","","","9","complex_dissimilar","images/stimuli/spore_stims/complex_10_A_b.gif","left","","","","",""
"","null","html-keyboard-response","172","463639","0.0-35.0-0.1","SS1613080175454","","","null","","","","","<p><img src= images/blank.png width =""200"" height = ""200"" style = ""float:right""></p><p><img src=images/blank.png width =""800"" height = ""200""></p>","","","","","","","","","","","",""
"","367.6900000027381","sequential-stimulus-presentation","173","464815","0.0-35.0-1.1","SS1613080175454","trial","","40","800","1167.690000002738","images/stimuli/spore_stims/complex_14_A_d.gif","images/stimuli/spore_stims/complex_10_A_b.gif","","","","","9","complex_dissimilar","images/stimuli/spore_stims/complex_10_A_b.gif","left","","","","",""
"","null","html-keyboard-response","174","465943","0.0-35.0-0.2","SS1613080175454","","","null","","","","","<p><img src= images/blank.png width =""200"" height = ""200"" style = ""float:right""></p><p><img src=images/blank.png width =""800"" height = ""200""></p>","","","","","","","","","","","",""
"","409.05500000010943","sequential-stimulus-presentation","175","467167","0.0-35.0-1.2","SS1613080175454","trial","","40","800","1209.0550000001094","images/stimuli/spore_stims/complex_14_A_d.gif","images/stimuli/spore_stims/complex_10_A_b.gif","","","","","9","complex_dissimilar","images/stimuli/spore_stims/complex_10_A_b.gif","left","","","","",""
"","null","html-keyboard-response","176","468389","0.0-35.0-0.3","SS1613080175454","","","null","","","","","<p><img src= images/blank.png width =""200"" height = ""200"" style = ""float:right""></p><p><img src=images/blank.png width =""800"" height = ""200""></p>","","","","","","","","","","","",""
"","1754.769999999553","sequential-stimulus-presentation","177","470953","0.0-35.0-1.3","SS1613080175454","trial","","40","800","2554.769999999553","images/stimuli/spore_stims/complex_14_A_d.gif","images/stimuli/spore_stims/complex_10_A_b.gif","","","","","9","complex_dissimilar","images/stimuli/spore_stims/complex_10_A_b.gif","left","","","","",""
"","null","html-keyboard-response","178","472133","0.0-35.0-0.4","SS1613080175454","","","null","","","","","<p><img src= images/blank.png width =""200"" height = ""200"" style = ""float:right""></p><p><img src=images/blank.png width =""800"" height = ""200""></p>","","","","","","","","","","","",""
"","912.0400000028894","sequential-stimulus-presentation","179","473855","0.0-35.0-1.4","SS1613080175454","trial","","40","800","1712.0400000028894","images/stimuli/spore_stims/complex_14_A_d.gif","images/stimuli/spore_stims/complex_10_A_b.gif","","","","","9","complex_dissimilar","images/stimuli/spore_stims/complex_10_A_b.gif","left","","","","",""
"","null","html-keyboard-response","180","474842","0.0-35.0-0.5","SS1613080175454","","","null","","","","","<p><img src= images/blank.png width =""200"" height = ""200"" style = ""float:right""></p><p><img src=images/blank.png width =""800"" height = ""200""></p>","","","","","","","","","","","",""
"","447.99500000220723","sequential-stimulus-presentation","181","476103","0.0-35.0-1.5","SS1613080175454","trial","","40","800","1247.9950000022072","images/stimuli/spore_stims/complex_14_A_d.gif","images/stimuli/spore_stims/complex_10_A_b.gif","","","","","9","complex_dissimilar","images/stimuli/spore_stims/complex_10_A_b.gif","left","","","","",""
"","null","html-keyboard-response","182","477406","0.0-35.0-0.6","SS1613080175454","","","null","","","","","<p><img src= images/blank.png width =""200"" height = ""200"" style = ""float:right""></p><p><img src=images/blank.png width =""800"" height = ""200""></p>","","","","","","","","","","","",""
"","551.8300000003655","sequential-stimulus-presentation","183","478767","0.0-35.0-1.6","SS1613080175454","trial","","40","800","1351.8300000003655","images/stimuli/spore_stims/complex_14_A_d.gif","images/stimuli/spore_stims/complex_10_A_b.gif","","","","","9","complex_dissimilar","images/stimuli/spore_stims/complex_10_A_b.gif","left","","","","",""
"","null","html-keyboard-response","184","479942","0.0-35.0-0.7","SS1613080175454","","","null","","","","","<p><img src= images/blank.png width =""200"" height = ""200"" style = ""float:right""></p><p><img src=images/blank.png width =""800"" height = ""200""></p>","","","","","","","","","","","",""
"","880.0000000009895","sequential-stimulus-presentation","185","481632","0.0-35.0-1.7","SS1613080175454","trial","","40","800","1680.0000000009895","images/stimuli/spore_stims/complex_14_A_d.gif","images/stimuli/spore_stims/complex_10_A_b.gif","","","","","9","complex_dissimilar","images/stimuli/spore_stims/complex_14_A_d.gif","right","","","","",""
"","1468.8999999998487","html-keyboard-response","186","483143","0.0-36.0","SS1613080175454","pref_question","","50","","","","","<video width ='960' height = '540' style='padding-top:8%' autoplay muted><source src='images/stimuli/wall_pref.mp4' type='video/mp4'></video>","2","middle","45%","9","","","","","","","",""
"","3403.2449999977252","sequential-stimulus-presentation","187","487351","0.0-37.0","SS1613080175454","pref_reveal","","40","800","4203.244999997725","null","null","","","","","9","","","","novel","","","",""
"","null","html-keyboard-response","188","488442","0.0-38.0-0.0","SS1613080175454","","","null","","","","","<p><img src= images/blank.png width =""200"" height = ""200"" style = ""float:right""></p><p><img src=images/blank.png width =""800"" height = ""200""></p>","","","","","","","","","","","",""
"","694.8450000018347","sequential-stimulus-presentation","189","489967","0.0-38.0-1.0","SS1613080175454","trial","","40","800","1494.8450000018347","images/stimuli/spore_stims/complex_01_B_d.gif","images/stimuli/spore_stims/complex_02_A_d.gif","","","","","10","complex_dissimilar","images/stimuli/spore_stims/complex_02_A_d.gif","right","","","","",""
"","null","html-keyboard-response","190","490821","0.0-38.0-0.1","SS1613080175454","","","null","","","","","<p><img src= images/blank.png width =""200"" height = ""200"" style = ""float:right""></p><p><img src=images/blank.png width =""800"" height = ""200""></p>","","","","","","","","","","","",""
"","408.3600000012666","sequential-stimulus-presentation","191","492040","0.0-38.0-1.1","SS1613080175454","trial","","40","800","1208.3600000012666","images/stimuli/spore_stims/complex_01_B_d.gif","images/stimuli/spore_stims/complex_02_A_d.gif","","","","","10","complex_dissimilar","images/stimuli/spore_stims/complex_02_A_d.gif","right","","","","",""
"","null","html-keyboard-response","192","493006","0.0-38.0-0.2","SS1613080175454","","","null","","","","","<p><img src= images/blank.png width =""200"" height = ""200"" style = ""float:right""></p><p><img src=images/blank.png width =""800"" height = ""200""></p>","","","","","","","","","","","",""
"","2447.7650000007125","sequential-stimulus-presentation","193","496263","0.0-38.0-1.2","SS1613080175454","trial","","40","800","3247.7650000007125","images/stimuli/spore_stims/complex_01_B_d.gif","images/stimuli/spore_stims/complex_02_A_d.gif","","","","","10","complex_dissimilar","images/stimuli/spore_stims/complex_02_A_d.gif","right","","","","",""
"","null","html-keyboard-response","194","497238","0.0-38.0-0.3","SS1613080175454","","","null","","","","","<p><img src= images/blank.png width =""200"" height = ""200"" style = ""float:right""></p><p><img src=images/blank.png width =""800"" height = ""200""></p>","","","","","","","","","","","",""
"","1196.5349999991013","sequential-stimulus-presentation","195","499247","0.0-38.0-1.3","SS1613080175454","trial","","40","800","1996.5349999991013","images/stimuli/spore_stims/complex_01_B_d.gif","images/stimuli/spore_stims/complex_02_A_d.gif","","","","","10","complex_dissimilar","images/stimuli/spore_stims/complex_01_B_d.gif","middle","","","","",""
"","null","html-keyboard-response","196","500309","0.0-38.0-0.4","SS1613080175454","","","null","","","","","<p><img src= images/blank.png width =""200"" height = ""200"" style = ""float:right""></p><p><img src=images/blank.png width =""800"" height = ""200""></p>","","","","","","","","","","","",""
"","286.14999999990687","sequential-stimulus-presentation","197","501407","0.0-38.0-1.4","SS1613080175454","trial","","40","800","1086.1499999999069","images/stimuli/spore_stims/complex_01_B_d.gif","images/stimuli/spore_stims/complex_02_A_d.gif","","","","","10","complex_dissimilar","images/stimuli/spore_stims/complex_02_A_d.gif","right","","","","",""
"","null","html-keyboard-response","198","502630","0.0-38.0-0.5","SS1613080175454","","","null","","","","","<p><img src= images/blank.png width =""200"" height = ""200"" style = ""float:right""></p><p><img src=images/blank.png width =""800"" height = ""200""></p>","","","","","","","","","","","",""
"","398.2800000011921","sequential-stimulus-presentation","199","503839","0.0-38.0-1.5","SS1613080175454","trial","","40","800","1198.280000001192","images/stimuli/spore_stims/complex_01_B_d.gif","images/stimuli/spore_stims/complex_02_A_d.gif","","","","","10","complex_dissimilar","images/stimuli/spore_stims/complex_02_A_d.gif","right","","","","",""
"","null","html-keyboard-response","200","504972","0.0-38.0-0.6","SS1613080175454","","","null","","","","","<p><img src= images/blank.png width =""200"" height = ""200"" style = ""float:right""></p><p><img src=images/blank.png width =""800"" height = ""200""></p>","","","","","","","","","","","",""
"","448.9399999984307","sequential-stimulus-presentation","201","506231","0.0-38.0-1.6","SS1613080175454","trial","","40","800","1248.9399999984307","images/stimuli/spore_stims/complex_01_B_d.gif","images/stimuli/spore_stims/complex_02_A_d.gif","","","","","10","complex_dissimilar","images/stimuli/spore_stims/complex_02_A_d.gif","right","","","","",""
"","null","html-keyboard-response","202","507500","0.0-38.0-0.7","SS1613080175454","","","null","","","","","<p><img src= images/blank.png width =""200"" height = ""200"" style = ""float:right""></p><p><img src=images/blank.png width =""800"" height = ""200""></p>","","","","","","","","","","","",""
"","448.78500000049826","sequential-stimulus-presentation","203","508759","0.0-38.0-1.7","SS1613080175454","trial","","40","800","1248.7850000004983","images/stimuli/spore_stims/complex_01_B_d.gif","images/stimuli/spore_stims/complex_02_A_d.gif","","","","","10","complex_dissimilar","images/stimuli/spore_stims/complex_02_A_d.gif","right","","","","",""
"","21311.62000000046","html-keyboard-response","204","530079","0.0-39.0","SS1613080175454","pref_question","","49","","","","","<video width ='960' height = '540' style='padding-top:8%' autoplay muted><source src='images/stimuli/wall_pref.mp4' type='video/mp4'></video>","1","left","25%","10","","","","","","","",""
"","7835.0900000005495","sequential-stimulus-presentation","205","538727","0.0-40.0","SS1613080175454","pref_reveal","","40","800","8635.09000000055","null","null","","","","","10","","","","novel","","","",""
"","null","html-keyboard-response","206","539684","0.0-41.0-0.0","SS1613080175454","","","null","","","","","<p><img src= images/blank.png width =""200"" height = ""200"" style = ""float:right""></p><p><img src=images/blank.png width =""800"" height = ""200""></p>","","","","","","","","","","","",""
"","935.1199999982491","sequential-stimulus-presentation","207","541431","0.0-41.0-1.0","SS1613080175454","trial","","40","800","1735.119999998249","images/stimuli/spore_stims/complex_16_B_b.gif","images/stimuli/spore_stims/complex_16_A_b.gif","","","","","11","complex_similar","images/stimuli/spore_stims/complex_16_A_b.gif","right","","","","",""
"","null","html-keyboard-response","208","542374","0.0-41.0-0.1","SS1613080175454","","","null","","","","","<p><img src= images/blank.png width =""200"" height = ""200"" style = ""float:right""></p><p><img src=images/blank.png width =""800"" height = ""200""></p>","","","","","","","","","","","",""
"","2797.6850000013364","sequential-stimulus-presentation","209","545983","0.0-41.0-1.1","SS1613080175454","trial","","40","800","3597.6850000013364","images/stimuli/spore_stims/complex_16_B_b.gif","images/stimuli/spore_stims/complex_16_A_b.gif","","","","","11","complex_similar","images/stimuli/spore_stims/complex_16_A_b.gif","right","","","","",""
"","null","html-keyboard-response","210","547166","0.0-41.0-0.2","SS1613080175454","","","null","","","","","<p><img src= images/blank.png width =""200"" height = ""200"" style = ""float:right""></p><p><img src=images/blank.png width =""800"" height = ""200""></p>","","","","","","","","","","","",""
"","302.3250000005355","sequential-stimulus-presentation","211","548278","0.0-41.0-1.2","SS1613080175454","trial","","40","800","1102.3250000005355","images/stimuli/spore_stims/complex_16_B_b.gif","images/stimuli/spore_stims/complex_16_A_b.gif","","","","","11","complex_similar","images/stimuli/spore_stims/complex_16_A_b.gif","right","","","","",""
"","null","html-keyboard-response","212","549142","0.0-41.0-0.3","SS1613080175454","","","null","","","","","<p><img src= images/blank.png width =""200"" height = ""200"" style = ""float:right""></p><p><img src=images/blank.png width =""800"" height = ""200""></p>","","","","","","","","","","","",""
"","341.16999999969266","sequential-stimulus-presentation","213","550294","0.0-41.0-1.3","SS1613080175454","trial","","40","800","1141.1699999996927","images/stimuli/spore_stims/complex_16_B_b.gif","images/stimuli/spore_stims/complex_16_A_b.gif","","","","","11","complex_similar","images/stimuli/spore_stims/complex_16_A_b.gif","right","","","","",""
"","null","html-keyboard-response","214","551142","0.0-41.0-0.4","SS1613080175454","","","null","","","","","<p><img src= images/blank.png width =""200"" height = ""200"" style = ""float:right""></p><p><img src=images/blank.png width =""800"" height = ""200""></p>","","","","","","","","","","","",""
"","285.63999999826774","sequential-stimulus-presentation","215","552239","0.0-41.0-1.4","SS1613080175454","trial","","40","800","1085.6399999982677","images/stimuli/spore_stims/complex_16_B_b.gif","images/stimuli/spore_stims/complex_16_A_b.gif","","","","","11","complex_similar","images/stimuli/spore_stims/complex_16_A_b.gif","right","","","","",""
"","null","html-keyboard-response","216","553431","0.0-41.0-0.5","SS1613080175454","","","null","","","","","<p><img src= images/blank.png width =""200"" height = ""200"" style = ""float:right""></p><p><img src=images/blank.png width =""800"" height = ""200""></p>","","","","","","","","","","","",""
"","346.2949999993434","sequential-stimulus-presentation","217","554590","0.0-41.0-1.5","SS1613080175454","trial","","40","800","1146.2949999993434","images/stimuli/spore_stims/complex_16_B_b.gif","images/stimuli/spore_stims/complex_16_A_b.gif","","","","","11","complex_similar","images/stimuli/spore_stims/complex_16_A_b.gif","right","","","","",""
"","null","html-keyboard-response","218","555503","0.0-41.0-0.6","SS1613080175454","","","null","","","","","<p><img src= images/blank.png width =""200"" height = ""200"" style = ""float:right""></p><p><img src=images/blank.png width =""800"" height = ""200""></p>","","","","","","","","","","","",""
"","1907.5750000011176","sequential-stimulus-presentation","219","558222","0.0-41.0-1.6","SS1613080175454","trial","","40","800","2707.5750000011176","images/stimuli/spore_stims/complex_16_B_b.gif","images/stimuli/spore_stims/complex_16_A_b.gif","","","","","11","complex_similar","images/stimuli/spore_stims/complex_16_B_b.gif","left","","","","",""
"","null","html-keyboard-response","220","559067","0.0-41.0-0.7","SS1613080175454","","","null","","","","","<p><img src= images/blank.png width =""200"" height = ""200"" style = ""float:right""></p><p><img src=images/blank.png width =""800"" height = ""200""></p>","","","","","","","","","","","",""
"","1832.3999999993248","sequential-stimulus-presentation","221","561710","0.0-41.0-1.7","SS1613080175454","trial","","40","800","2632.399999999325","images/stimuli/spore_stims/complex_16_B_b.gif","images/stimuli/spore_stims/complex_16_A_b.gif","","","","","11","complex_similar","images/stimuli/spore_stims/complex_16_A_b.gif","right","","","","",""
"","1427.7249999977648","html-keyboard-response","222","563167","0.0-42.0","SS1613080175454","pref_question","","50","","","","","<video width ='960' height = '540' style='padding-top:8%' autoplay muted><source src='images/stimuli/wall_pref.mp4' type='video/mp4'></video>","2","middle","45%","11","","","","","","","",""
"","1923.285000000731","sequential-stimulus-presentation","223","565902","0.0-43.0","SS1613080175454","pref_reveal","","40","800","2723.285000000731","null","null","","","","","11","","","","novel","","","",""
"","null","html-keyboard-response","224","567042","0.0-44.0-0.0","SS1613080175454","","","null","","","","","<p><img src= images/blank.png width =""200"" height = ""200"" style = ""float:right""></p><p><img src=images/blank.png width =""800"" height = ""200""></p>","","","","","","","","","","","",""
"","1221.4600000006612","sequential-stimulus-presentation","225","569078","0.0-44.0-1.0","SS1613080175454","trial","","40","800","2021.4600000006612","images/stimuli/spore_stims/simple_11_B_b.gif","images/stimuli/spore_stims/simple_13_A_b.gif","","","","","12","simple_dissimilar","images/stimuli/spore_stims/simple_13_A_b.gif","right","","","","",""
"","null","html-keyboard-response","226","570223","0.0-44.0-0.1","SS1613080175454","","","null","","","","","<p><img src= images/blank.png width =""200"" height = ""200"" style = ""float:right""></p><p><img src=images/blank.png width =""800"" height = ""200""></p>","","","","","","","","","","","",""
"","380.7600000000093","sequential-stimulus-presentation","227","571414","0.0-44.0-1.1","SS1613080175454","trial","","40","800","1180.7600000000093","images/stimuli/spore_stims/simple_11_B_b.gif","images/stimuli/spore_stims/simple_13_A_b.gif","","","","","12","simple_dissimilar","images/stimuli/spore_stims/simple_13_A_b.gif","right","","","","",""
"","null","html-keyboard-response","228","572323","0.0-44.0-0.2","SS1613080175454","","","null","","","","","<p><img src= images/blank.png width =""200"" height = ""200"" style = ""float:right""></p><p><img src=images/blank.png width =""800"" height = ""200""></p>","","","","","","","","","","","",""
"","318.20000000158325","sequential-stimulus-presentation","229","573446","0.0-44.0-1.2","SS1613080175454","trial","","40","800","1118.2000000015832","images/stimuli/spore_stims/simple_11_B_b.gif","images/stimuli/spore_stims/simple_13_A_b.gif","","","","","12","simple_dissimilar","images/stimuli/spore_stims/simple_13_A_b.gif","right","","","","",""
"","null","html-keyboard-response","230","574713","0.0-44.0-0.3","SS1613080175454","","","null","","","","","<p><img src= images/blank.png width =""200"" height = ""200"" style = ""float:right""></p><p><img src=images/blank.png width =""800"" height = ""200""></p>","","","","","","","","","","","",""
"","986.3949999999022","sequential-stimulus-presentation","231","576510","0.0-44.0-1.3","SS1613080175454","trial","","40","800","1786.3949999999022","images/stimuli/spore_stims/simple_11_B_b.gif","images/stimuli/spore_stims/simple_13_A_b.gif","","","","","12","simple_dissimilar","images/stimuli/spore_stims/simple_11_B_b.gif","left","","","","",""
"","null","html-keyboard-response","232","577780","0.0-44.0-0.4","SS1613080175454","","","null","","","","","<p><img src= images/blank.png width =""200"" height = ""200"" style = ""float:right""></p><p><img src=images/blank.png width =""800"" height = ""200""></p>","","","","","","","","","","","",""
"","150.24500000081025","sequential-stimulus-presentation","233","578743","0.0-44.0-1.4","SS1613080175454","trial","","40","800","950.2450000008103","images/stimuli/spore_stims/simple_11_B_b.gif","images/stimuli/spore_stims/simple_13_A_b.gif","","","","","12","simple_dissimilar","images/stimuli/spore_stims/simple_13_A_b.gif","right","","","","",""
"","null","html-keyboard-response","234","579787","0.0-44.0-0.5","SS1613080175454","","","null","","","","","<p><img src= images/blank.png width =""200"" height = ""200"" style = ""float:right""></p><p><img src=images/blank.png width =""800"" height = ""200""></p>","","","","","","","","","","","",""
"","441.3149999999441","sequential-stimulus-presentation","235","581054","0.0-44.0-1.5","SS1613080175454","trial","","40","800","1241.3149999999441","images/stimuli/spore_stims/simple_11_B_b.gif","images/stimuli/spore_stims/simple_13_A_b.gif","","","","","12","simple_dissimilar","images/stimuli/spore_stims/simple_13_A_b.gif","right","","","","",""
"","null","html-keyboard-response","236","582327","0.0-44.0-0.6","SS1613080175454","","","null","","","","","<p><img src= images/blank.png width =""200"" height = ""200"" style = ""float:right""></p><p><img src=images/blank.png width =""800"" height = ""200""></p>","","","","","","","","","","","",""
"","336.7500000022119","sequential-stimulus-presentation","237","583478","0.0-44.0-1.6","SS1613080175454","trial","","40","800","1136.750000002212","images/stimuli/spore_stims/simple_11_B_b.gif","images/stimuli/spore_stims/simple_13_A_b.gif","","","","","12","simple_dissimilar","images/stimuli/spore_stims/simple_13_A_b.gif","right","","","","",""
"","null","html-keyboard-response","238","584422","0.0-44.0-0.7","SS1613080175454","","","null","","","","","<p><img src= images/blank.png width =""200"" height = ""200"" style = ""float:right""></p><p><img src=images/blank.png width =""800"" height = ""200""></p>","","","","","","","","","","","",""
"","364.9199999999255","sequential-stimulus-presentation","239","585598","0.0-44.0-1.7","SS1613080175454","trial","","40","800","1164.9199999999255","images/stimuli/spore_stims/simple_11_B_b.gif","images/stimuli/spore_stims/simple_13_A_b.gif","","","","","12","simple_dissimilar","images/stimuli/spore_stims/simple_13_A_b.gif","right","","","","",""
"","703.7349999991711","html-keyboard-response","240","586311","0.0-45.0","SS1613080175454","pref_question","","50","","","","","<video width ='960' height = '540' style='padding-top:8%' autoplay muted><source src='images/stimuli/wall_pref.mp4' type='video/mp4'></video>","2","middle","45%","12","","","","","","","",""
"","2502.5599999971455","sequential-stimulus-presentation","241","589623","0.0-46.0","SS1613080175454","pref_reveal","","40","800","3302.5599999971455","null","null","","","","","12","","","","novel","","","",""
"","null","html-keyboard-response","242","590574","0.0-47.0-0.0","SS1613080175454","","","null","","","","","<p><img src= images/blank.png width =""200"" height = ""200"" style = ""float:right""></p><p><img src=images/blank.png width =""800"" height = ""200""></p>","","","","","","","","","","","",""
"","2041.930000003078","sequential-stimulus-presentation","243","593425","0.0-47.0-1.0","SS1613080175454","trial","","40","800","2841.930000003078","images/stimuli/spore_stims/simple_15_B_a.gif","images/stimuli/spore_stims/simple_15_A_a.gif","","","","","13","simple_similar","images/stimuli/spore_stims/simple_15_A_a.gif","middle","","","","",""
"","null","html-keyboard-response","244","594312","0.0-47.0-0.1","SS1613080175454","","","null","","","","","<p><img src= images/blank.png width =""200"" height = ""200"" style = ""float:right""></p><p><img src=images/blank.png width =""800"" height = ""200""></p>","","","","","","","","","","","",""
"","759.8750000032596","sequential-stimulus-presentation","245","595912","0.0-47.0-1.1","SS1613080175454","trial","","40","800","1559.8750000032596","images/stimuli/spore_stims/simple_15_B_a.gif","images/stimuli/spore_stims/simple_15_A_a.gif","","","","","13","simple_similar","images/stimuli/spore_stims/simple_15_A_a.gif","middle","","","","",""
"","null","html-keyboard-response","246","596768","0.0-47.0-0.2","SS1613080175454","","","null","","","","","<p><img src= images/blank.png width =""200"" height = ""200"" style = ""float:right""></p><p><img src=images/blank.png width =""800"" height = ""200""></p>","","","","","","","","","","","",""
"","539.0900000019465","sequential-stimulus-presentation","247","598119","0.0-47.0-1.2","SS1613080175454","trial","","40","800","1339.0900000019465","images/stimuli/spore_stims/simple_15_B_a.gif","images/stimuli/spore_stims/simple_15_A_a.gif","","","","","13","simple_similar","images/stimuli/spore_stims/simple_15_A_a.gif","middle","","","","",""
"","null","html-keyboard-response","248","598996","0.0-47.0-0.3","SS1613080175454","","","null","","","","","<p><img src= images/blank.png width =""200"" height = ""200"" style = ""float:right""></p><p><img src=images/blank.png width =""800"" height = ""200""></p>","","","","","","","","","","","",""
"","699.8449999991572","sequential-stimulus-presentation","249","600511","0.0-47.0-1.3","SS1613080175454","trial","","40","800","1499.8449999991572","images/stimuli/spore_stims/simple_15_B_a.gif","images/stimuli/spore_stims/simple_15_A_a.gif","","","","","13","simple_similar","images/stimuli/spore_stims/simple_15_A_a.gif","middle","","","","",""
"","null","html-keyboard-response","250","601528","0.0-47.0-0.4","SS1613080175454","","","null","","","","","<p><img src= images/blank.png width =""200"" height = ""200"" style = ""float:right""></p><p><img src=images/blank.png width =""800"" height = ""200""></p>","","","","","","","","","","","",""
"","720.8250000003027","sequential-stimulus-presentation","251","603055","0.0-47.0-1.4","SS1613080175454","trial","","40","800","1520.8250000003027","images/stimuli/spore_stims/simple_15_B_a.gif","images/stimuli/spore_stims/simple_15_A_a.gif","","","","","13","simple_similar","images/stimuli/spore_stims/simple_15_A_a.gif","middle","","","","",""
"","null","html-keyboard-response","252","604352","0.0-47.0-0.5","SS1613080175454","","","null","","","","","<p><img src= images/blank.png width =""200"" height = ""200"" style = ""float:right""></p><p><img src=images/blank.png width =""800"" height = ""200""></p>","","","","","","","","","","","",""
"","701.6750000002794","sequential-stimulus-presentation","253","605871","0.0-47.0-1.5","SS1613080175454","trial","","40","800","1501.6750000002794","images/stimuli/spore_stims/simple_15_B_a.gif","images/stimuli/spore_stims/simple_15_A_a.gif","","","","","13","simple_similar","images/stimuli/spore_stims/simple_15_A_a.gif","middle","","","","",""
"","null","html-keyboard-response","254","606753","0.0-47.0-0.6","SS1613080175454","","","null","","","","","<p><img src= images/blank.png width =""200"" height = ""200"" style = ""float:right""></p><p><img src=images/blank.png width =""800"" height = ""200""></p>","","","","","","","","","","","",""
"","1834.35499999905","sequential-stimulus-presentation","255","609399","0.0-47.0-1.6","SS1613080175454","trial","","40","800","2634.35499999905","images/stimuli/spore_stims/simple_15_B_a.gif","images/stimuli/spore_stims/simple_15_A_a.gif","","","","","13","simple_similar","images/stimuli/spore_stims/simple_15_B_a.gif","left","","","","",""
"","null","html-keyboard-response","256","610314","0.0-47.0-0.7","SS1613080175454","","","null","","","","","<p><img src= images/blank.png width =""200"" height = ""200"" style = ""float:right""></p><p><img src=images/blank.png width =""800"" height = ""200""></p>","","","","","","","","","","","",""
"","1488.969999998575","sequential-stimulus-presentation","257","612614","0.0-47.0-1.7","SS1613080175454","trial","","40","800","2288.969999998575","images/stimuli/spore_stims/simple_15_B_a.gif","images/stimuli/spore_stims/simple_15_A_a.gif","","","","","13","simple_similar","images/stimuli/spore_stims/simple_15_A_a.gif","middle","","","","",""
"","767.8949999972247","html-keyboard-response","258","613391","0.0-48.0","SS1613080175454","pref_question","","51","","","","","<video width ='960' height = '540' style='padding-top:8%' autoplay muted><source src='images/stimuli/wall_pref.mp4' type='video/mp4'></video>","3","right","66%","13","","","","","","","",""
"","2732.915000000503","sequential-stimulus-presentation","259","616934","0.0-49.0","SS1613080175454","pref_reveal","","40","800","3532.915000000503","null","null","","","","","13","","","","novel","","","",""
"","null","html-keyboard-response","260","617819","0.0-50.0-0.0","SS1613080175454","","","null","","","","","<p><img src= images/blank.png width =""200"" height = ""200"" style = ""float:right""></p><p><img src=images/blank.png width =""800"" height = ""200""></p>","","","","","","","","","","","",""
"","1069.2999999992317","sequential-stimulus-presentation","261","619703","0.0-50.0-1.0","SS1613080175454","trial","","40","800","1869.2999999992317","images/stimuli/spore_stims/complex_15_A_b.gif","images/stimuli/spore_stims/complex_15_B_b.gif","","","","","14","complex_similar","images/stimuli/spore_stims/complex_15_B_b.gif","right","","","","",""
"","null","html-keyboard-response","262","620678","0.0-50.0-0.1","SS1613080175454","","","null","","","","","<p><img src= images/blank.png width =""200"" height = ""200"" style = ""float:right""></p><p><img src=images/blank.png width =""800"" height = ""200""></p>","","","","","","","","","","","",""
"","8199.710000000894","sequential-stimulus-presentation","263","629687","0.0-50.0-1.1","SS1613080175454","trial","","40","800","8999.710000000894","images/stimuli/spore_stims/complex_15_A_b.gif","images/stimuli/spore_stims/complex_15_B_b.gif","","","","","14","complex_similar","images/stimuli/spore_stims/complex_15_B_b.gif","right","","","","",""
"","null","html-keyboard-response","264","630769","0.0-50.0-0.2","SS1613080175454","","","null","","","","","<p><img src= images/blank.png width =""200"" height = ""200"" style = ""float:right""></p><p><img src=images/blank.png width =""800"" height = ""200""></p>","","","","","","","","","","","",""
"","641.8599999997532","sequential-stimulus-presentation","265","632222","0.0-50.0-1.2","SS1613080175454","trial","","40","800","1441.8599999997532","images/stimuli/spore_stims/complex_15_A_b.gif","images/stimuli/spore_stims/complex_15_B_b.gif","","","","","14","complex_similar","images/stimuli/spore_stims/complex_15_B_b.gif","right","","","","",""
"","null","html-keyboard-response","266","633144","0.0-50.0-0.3","SS1613080175454","","","null","","","","","<p><img src= images/blank.png width =""200"" height = ""200"" style = ""float:right""></p><p><img src=images/blank.png width =""800"" height = ""200""></p>","","","","","","","","","","","",""
"","769.1550000017742","sequential-stimulus-presentation","267","634727","0.0-50.0-1.3","SS1613080175454","trial","","40","800","1569.1550000017742","images/stimuli/spore_stims/complex_15_A_b.gif","images/stimuli/spore_stims/complex_15_B_b.gif","","","","","14","complex_similar","images/stimuli/spore_stims/complex_15_B_b.gif","right","","","","",""
"","null","html-keyboard-response","268","635812","0.0-50.0-0.4","SS1613080175454","","","null","","","","","<p><img src= images/blank.png width =""200"" height = ""200"" style = ""float:right""></p><p><img src=images/blank.png width =""800"" height = ""200""></p>","","","","","","","","","","","",""
"","558.6549999971176","sequential-stimulus-presentation","269","637182","0.0-50.0-1.4","SS1613080175454","trial","","40","800","1358.6549999971176","images/stimuli/spore_stims/complex_15_A_b.gif","images/stimuli/spore_stims/complex_15_B_b.gif","","","","","14","complex_similar","images/stimuli/spore_stims/complex_15_B_b.gif","right","","","","",""
"","null","html-keyboard-response","270","638139","0.0-50.0-0.5","SS1613080175454","","","null","","","","","<p><img src= images/blank.png width =""200"" height = ""200"" style = ""float:right""></p><p><img src=images/blank.png width =""800"" height = ""200""></p>","","","","","","","","","","","",""
"","600.4500000016997","sequential-stimulus-presentation","271","639550","0.0-50.0-1.5","SS1613080175454","trial","","40","800","1400.4500000016997","images/stimuli/spore_stims/complex_15_A_b.gif","images/stimuli/spore_stims/complex_15_B_b.gif","","","","","14","complex_similar","images/stimuli/spore_stims/complex_15_B_b.gif","right","","","","",""
"","null","html-keyboard-response","272","640444","0.0-50.0-0.6","SS1613080175454","","","null","","","","","<p><img src= images/blank.png width =""200"" height = ""200"" style = ""float:right""></p><p><img src=images/blank.png width =""800"" height = ""200""></p>","","","","","","","","","","","",""
"","446.14999999979045","sequential-stimulus-presentation","273","641701","0.0-50.0-1.6","SS1613080175454","trial","","40","800","1246.1499999997905","images/stimuli/spore_stims/complex_15_A_b.gif","images/stimuli/spore_stims/complex_15_B_b.gif","","","","","14","complex_similar","images/stimuli/spore_stims/complex_15_B_b.gif","right","","","","",""
"","null","html-keyboard-response","274","642572","0.0-50.0-0.7","SS1613080175454","","","null","","","","","<p><img src= images/blank.png width =""200"" height = ""200"" style = ""float:right""></p><p><img src=images/blank.png width =""800"" height = ""200""></p>","","","","","","","","","","","",""
"","4727.490000001038","sequential-stimulus-presentation","275","648118","0.0-50.0-1.7","SS1613080175454","trial","","40","800","5527.490000001038","images/stimuli/spore_stims/complex_15_A_b.gif","images/stimuli/spore_stims/complex_15_B_b.gif","","","","","14","complex_similar","images/stimuli/spore_stims/complex_15_A_b.gif","left","","","","",""
"","830.0999999991618","html-keyboard-response","276","648958","0.0-51.0","SS1613080175454","pref_question","","50","","","","","<video width ='960' height = '540' style='padding-top:8%' autoplay muted><source src='images/stimuli/wall_pref.mp4' type='video/mp4'></video>","2","middle","45%","14","","","","","","","",""
"","1970.7600000001257","sequential-stimulus-presentation","277","651750","0.0-52.0","SS1613080175454","pref_reveal","","40","800","2770.7600000001257","null","null","","","","","14","","","","novel","","","",""
"","null","html-keyboard-response","278","652844","0.0-53.0-0.0","SS1613080175454","","","null","","","","","<p><img src= images/blank.png width =""200"" height = ""200"" style = ""float:right""></p><p><img src=images/blank.png width =""800"" height = ""200""></p>","","","","","","","","","","","",""
"","1386.3899999996647","sequential-stimulus-presentation","279","655046","0.0-53.0-1.0","SS1613080175454","trial","","40","800","2186.3899999996647","images/stimuli/spore_stims/simple_12_B_c.gif","images/stimuli/spore_stims/simple_18_B_b.gif","","","","","15","simple_dissimilar","images/stimuli/spore_stims/simple_18_B_b.gif","right","","","","",""
"","null","html-keyboard-response","280","655918","0.0-53.0-0.1","SS1613080175454","","","null","","","","","<p><img src= images/blank.png width =""200"" height = ""200"" style = ""float:right""></p><p><img src=images/blank.png width =""800"" height = ""200""></p>","","","","","","","","","","","",""
"","356.2999999994645","sequential-stimulus-presentation","281","657086","0.0-53.0-1.1","SS1613080175454","trial","","40","800","1156.2999999994645","images/stimuli/spore_stims/simple_12_B_c.gif","images/stimuli/spore_stims/simple_18_B_b.gif","","","","","15","simple_dissimilar","images/stimuli/spore_stims/simple_18_B_b.gif","right","","","","",""
"","null","html-keyboard-response","282","658273","0.0-53.0-0.2","SS1613080175454","","","null","","","","","<p><img src= images/blank.png width =""200"" height = ""200"" style = ""float:right""></p><p><img src=images/blank.png width =""800"" height = ""200""></p>","","","","","","","","","","","",""
"","1353.6349999994272","sequential-stimulus-presentation","283","660438","0.0-53.0-1.2","SS1613080175454","trial","","40","800","2153.6349999994272","images/stimuli/spore_stims/simple_12_B_c.gif","images/stimuli/spore_stims/simple_18_B_b.gif","","","","","15","simple_dissimilar","images/stimuli/spore_stims/simple_12_B_c.gif","left","","","","",""
"","null","html-keyboard-response","284","661348","0.0-53.0-0.3","SS1613080175454","","","null","","","","","<p><img src= images/blank.png width =""200"" height = ""200"" style = ""float:right""></p><p><img src=images/blank.png width =""800"" height = ""200""></p>","","","","","","","","","","","",""
"","308.99500000313856","sequential-stimulus-presentation","285","662470","0.0-53.0-1.3","SS1613080175454","trial","","40","800","1108.9950000031386","images/stimuli/spore_stims/simple_12_B_c.gif","images/stimuli/spore_stims/simple_18_B_b.gif","","","","","15","simple_dissimilar","images/stimuli/spore_stims/simple_18_B_b.gif","right","","","","",""
"","null","html-keyboard-response","286","663501","0.0-53.0-0.4","SS1613080175454","","","null","","","","","<p><img src= images/blank.png width =""200"" height = ""200"" style = ""float:right""></p><p><img src=images/blank.png width =""800"" height = ""200""></p>","","","","","","","","","","","",""
"","330.7500000009313","sequential-stimulus-presentation","287","664645","0.0-53.0-1.4","SS1613080175454","trial","","40","800","1130.7500000009313","images/stimuli/spore_stims/simple_12_B_c.gif","images/stimuli/spore_stims/simple_18_B_b.gif","","","","","15","simple_dissimilar","images/stimuli/spore_stims/simple_18_B_b.gif","right","","","","",""
"","null","html-keyboard-response","288","665584","0.0-53.0-0.5","SS1613080175454","","","null","","","","","<p><img src= images/blank.png width =""200"" height = ""200"" style = ""float:right""></p><p><img src=images/blank.png width =""800"" height = ""200""></p>","","","","","","","","","","","",""
"","1994.629999997327","sequential-stimulus-presentation","289","668390","0.0-53.0-1.5","SS1613080175454","trial","","40","800","2794.629999997327","images/stimuli/spore_stims/simple_12_B_c.gif","images/stimuli/spore_stims/simple_18_B_b.gif","","","","","15","simple_dissimilar","images/stimuli/spore_stims/simple_18_B_b.gif","right","","","","",""
"","null","html-keyboard-response","290","669524","0.0-53.0-0.6","SS1613080175454","","","null","","","","","<p><img src= images/blank.png width =""200"" height = ""200"" style = ""float:right""></p><p><img src=images/blank.png width =""800"" height = ""200""></p>","","","","","","","","","","","",""
"","316.21499999891967","sequential-stimulus-presentation","291","670654","0.0-53.0-1.6","SS1613080175454","trial","","40","800","1116.2149999989197","images/stimuli/spore_stims/simple_12_B_c.gif","images/stimuli/spore_stims/simple_18_B_b.gif","","","","","15","simple_dissimilar","images/stimuli/spore_stims/simple_18_B_b.gif","right","","","","",""
"","null","html-keyboard-response","292","671795","0.0-53.0-0.7","SS1613080175454","","","null","","","","","<p><img src= images/blank.png width =""200"" height = ""200"" style = ""float:right""></p><p><img src=images/blank.png width =""800"" height = ""200""></p>","","","","","","","","","","","",""
"","541.2949999991106","sequential-stimulus-presentation","293","673149","0.0-53.0-1.7","SS1613080175454","trial","","40","800","1341.2949999991106","images/stimuli/spore_stims/simple_12_B_c.gif","images/stimuli/spore_stims/simple_18_B_b.gif","","","","","15","simple_dissimilar","images/stimuli/spore_stims/simple_18_B_b.gif","right","","","","",""
"","741.6499999999069","html-keyboard-response","294","673903","0.0-54.0","SS1613080175454","pref_question","","50","","","","","<video width ='960' height = '540' style='padding-top:8%' autoplay muted><source src='images/stimuli/wall_pref.mp4' type='video/mp4'></video>","2","middle","45%","15","","","","","","","",""
"","3948.1200000009267","sequential-stimulus-presentation","295","678661","0.0-55.0","SS1613080175454","pref_reveal","","40","800","4748.120000000927","null","null","","","","","15","","","","novel","","","",""
"","null","html-keyboard-response","296","679682","0.0-56.0-0.0","SS1613080175454","","","null","","","","","<p><img src= images/blank.png width =""200"" height = ""200"" style = ""float:right""></p><p><img src=images/blank.png width =""800"" height = ""200""></p>","","","","","","","","","","","",""
"","2558.1449999990873","sequential-stimulus-presentation","297","683078","0.0-56.0-1.0","SS1613080175454","trial","","40","800","3358.1449999990873","images/stimuli/spore_stims/simple_19_B_b.gif","images/stimuli/spore_stims/simple_19_A_b.gif","","","","","16","simple_similar","images/stimuli/spore_stims/simple_19_A_b.gif","right","","","","",""
"","null","html-keyboard-response","298","684147","0.0-56.0-0.1","SS1613080175454","","","null","","","","","<p><img src= images/blank.png width =""200"" height = ""200"" style = ""float:right""></p><p><img src=images/blank.png width =""800"" height = ""200""></p>","","","","","","","","","","","",""
"","4717.440000000293","sequential-stimulus-presentation","299","689677","0.0-56.0-1.1","SS1613080175454","trial","","40","800","5517.440000000293","images/stimuli/spore_stims/simple_19_B_b.gif","images/stimuli/spore_stims/simple_19_A_b.gif","","","","","16","simple_similar","images/stimuli/spore_stims/simple_19_A_b.gif","right","","","","",""
"","null","html-keyboard-response","300","690815","0.0-56.0-0.2","SS1613080175454","","","null","","","","","<p><img src= images/blank.png width =""200"" height = ""200"" style = ""float:right""></p><p><img src=images/blank.png width =""800"" height = ""200""></p>","","","","","","","","","","","",""
"","480.0250000007218","sequential-stimulus-presentation","301","692109","0.0-56.0-1.2","SS1613080175454","trial","","40","800","1280.0250000007218","images/stimuli/spore_stims/simple_19_B_b.gif","images/stimuli/spore_stims/simple_19_A_b.gif","","","","","16","simple_similar","images/stimuli/spore_stims/simple_19_A_b.gif","right","","","","",""
"","null","html-keyboard-response","302","693380","0.0-56.0-0.3","SS1613080175454","","","null","","","","","<p><img src= images/blank.png width =""200"" height = ""200"" style = ""float:right""></p><p><img src=images/blank.png width =""800"" height = ""200""></p>","","","","","","","","","","","",""
"","413.1699999998091","sequential-stimulus-presentation","303","694605","0.0-56.0-1.3","SS1613080175454","trial","","40","800","1213.169999999809","images/stimuli/spore_stims/simple_19_B_b.gif","images/stimuli/spore_stims/simple_19_A_b.gif","","","","","16","simple_similar","images/stimuli/spore_stims/simple_19_A_b.gif","right","","","","",""
"","null","html-keyboard-response","304","695525","0.0-56.0-0.4","SS1613080175454","","","null","","","","","<p><img src= images/blank.png width =""200"" height = ""200"" style = ""float:right""></p><p><img src=images/blank.png width =""800"" height = ""200""></p>","","","","","","","","","","","",""
"","653.6000000014901","sequential-stimulus-presentation","305","696997","0.0-56.0-1.4","SS1613080175454","trial","","40","800","1453.6000000014901","images/stimuli/spore_stims/simple_19_B_b.gif","images/stimuli/spore_stims/simple_19_A_b.gif","","","","","16","simple_similar","images/stimuli/spore_stims/simple_19_A_b.gif","right","","","","",""
"","null","html-keyboard-response","306","697988","0.0-56.0-0.5","SS1613080175454","","","null","","","","","<p><img src= images/blank.png width =""200"" height = ""200"" style = ""float:right""></p><p><img src=images/blank.png width =""800"" height = ""200""></p>","","","","","","","","","","","",""
"","338.36499999964144","sequential-stimulus-presentation","307","699141","0.0-56.0-1.5","SS1613080175454","trial","","40","800","1138.3649999996414","images/stimuli/spore_stims/simple_19_B_b.gif","images/stimuli/spore_stims/simple_19_A_b.gif","","","","","16","simple_similar","images/stimuli/spore_stims/simple_19_A_b.gif","right","","","","",""
"","null","html-keyboard-response","308","700220","0.0-56.0-0.6","SS1613080175454","","","null","","","","","<p><img src= images/blank.png width =""200"" height = ""200"" style = ""float:right""></p><p><img src=images/blank.png width =""800"" height = ""200""></p>","","","","","","","","","","","",""
"","1046.5000000003492","sequential-stimulus-presentation","309","702077","0.0-56.0-1.6","SS1613080175454","trial","","40","800","1846.5000000003492","images/stimuli/spore_stims/simple_19_B_b.gif","images/stimuli/spore_stims/simple_19_A_b.gif","","","","","16","simple_similar","images/stimuli/spore_stims/simple_19_A_b.gif","right","","","","",""
"","null","html-keyboard-response","310","703192","0.0-56.0-0.7","SS1613080175454","","","null","","","","","<p><img src= images/blank.png width =""200"" height = ""200"" style = ""float:right""></p><p><img src=images/blank.png width =""800"" height = ""200""></p>","","","","","","","","","","","",""
"","1080.6650000013178","sequential-stimulus-presentation","311","705085","0.0-56.0-1.7","SS1613080175454","trial","","40","800","1880.6650000013178","images/stimuli/spore_stims/simple_19_B_b.gif","images/stimuli/spore_stims/simple_19_A_b.gif","","","","","16","simple_similar","images/stimuli/spore_stims/simple_19_B_b.gif","middle","","","","",""
