"view_history","rt","trial_type","trial_index","time_elapsed","internal_node_id","subject","stimulus_type","trial_stimulus","key_press","minimum_viewing_duration","trial_looking_time","block_deviant","block_background","stimulus","wall_pref","location","location_percent","block_number","block_type","stimulus_displayed","position_displayed","stim_type_selected","responses","question_order","stimulus_left","stimulus_right"
"[{""page_index"":0,""viewing_time"":21129.000000015367}]","21132.00000001234","instructions","0","21139","0.0-0.0","SS1613079892573","","","","","","","","","","","","","","","","","","","",""
"[{""page_index"":0,""viewing_time"":10089.000000007218},{""page_index"":1,""viewing_time"":7144.999999989523}]","17235.000000015134","instructions","1","40382","0.0-1.0","SS1613079892573","instructions","","","","","","","","","","","","","","","","","","",""
"","7574.000000022352","sequential-stimulus-presentation","2","48767","0.0-2.0","SS1613079892573","","","40","800","8374.000000022352","null","null","","","","","","","","","","","","",""
"","4341.000000014901","sequential-stimulus-presentation","3","53916","0.0-3.0","SS1613079892573","","","40","800","5141.000000014901","null","null","","","","","","","","","","","","",""
"[{""page_index"":0,""viewing_time"":5179.999999993015}]","5180.999999982305","instructions","4","59100","0.0-4.0","SS1613079892573","instructions","","","","","","","","","","","","","","","","","","",""
"","9527.999999991152","html-keyboard-response","5","68636","0.0-5.0","SS1613079892573","instructions","","50","","","","","<video width ='960' height = '540' autoplay muted><source src='images/stimuli/wall_pref.mp4' type='video/mp4'></video>","2","middle","45%","","","","","","","","",""
"","5240.999999979977","sequential-stimulus-presentation","6","74685","0.0-6.0","SS1613079892573","pref_reveal","","40","800","6040.999999979977","null","null","","","","","","","","","","","","",""
"[{""page_index"":0,""viewing_time"":27748.00000002142},{""page_index"":1,""viewing_time"":6873.999999981606},{""page_index"":2,""viewing_time"":1864.000000001397},{""page_index"":3,""viewing_time"":2561.0000000160653}]","39048.00000000978","instructions","7","113736","0.0-7.0","SS1613079892573","instructions","","","","","","","","","","","","","","","","","","",""
"","null","html-keyboard-response","8","114912","0.0-8.0-0.0","SS1613079892573","","","null","","","","","<p><img src= images/blank.png width =""200"" height = ""200"" style = ""float:right""></p><p><img src=images/blank.png width =""800"" height = ""200""></p>","","","","","","","","","","","",""
"","9057.000000000698","sequential-stimulus-presentation","9","124829","0.0-8.0-1.0","SS1613079892573","trial","","40","800","9857.000000000698","images/stimuli/spore_stims/complex_19_A_a.gif","images/stimuli/spore_stims/complex_08_B_d.gif","","","","","0","complex_dissimilar","images/stimuli/spore_stims/complex_08_B_d.gif","right","","","","",""
"","null","html-keyboard-response","10","125898","0.0-8.0-0.1","SS1613079892573","","","null","","","","","<p><img src= images/blank.png width =""200"" height = ""200"" style = ""float:right""></p><p><img src=images/blank.png width =""800"" height = ""200""></p>","","","","","","","","","","","",""
"","6073.999999993248","sequential-stimulus-presentation","11","132828","0.0-8.0-1.1","SS1613079892573","trial","","40","800","6873.999999993248","images/stimuli/spore_stims/complex_19_A_a.gif","images/stimuli/spore_stims/complex_08_B_d.gif","","","","","0","complex_dissimilar","images/stimuli/spore_stims/complex_08_B_d.gif","right","","","","",""
"","null","html-keyboard-response","12","134127","0.0-8.0-0.2","SS1613079892573","","","null","","","","","<p><img src= images/blank.png width =""200"" height = ""200"" style = ""float:right""></p><p><img src=images/blank.png width =""800"" height = ""200""></p>","","","","","","","","","","","",""
"","7473.999999987427","sequential-stimulus-presentation","13","142415","0.0-8.0-1.2","SS1613079892573","trial","","40","800","8273.999999987427","images/stimuli/spore_stims/complex_19_A_a.gif","images/stimuli/spore_stims/complex_08_B_d.gif","","","","","0","complex_dissimilar","images/stimuli/spore_stims/complex_08_B_d.gif","right","","","","",""
"","null","html-keyboard-response","14","143279","0.0-8.0-0.3","SS1613079892573","","","null","","","","","<p><img src= images/blank.png width =""200"" height = ""200"" style = ""float:right""></p><p><img src=images/blank.png width =""800"" height = ""200""></p>","","","","","","","","","","","",""
"","3445.9999999962747","sequential-stimulus-presentation","15","147548","0.0-8.0-1.3","SS1613079892573","trial","","40","800","4245.999999996275","images/stimuli/spore_stims/complex_19_A_a.gif","images/stimuli/spore_stims/complex_08_B_d.gif","","","","","0","complex_dissimilar","images/stimuli/spore_stims/complex_08_B_d.gif","right","","","","",""
"","null","html-keyboard-response","16","148593","0.0-8.0-0.4","SS1613079892573","","","null","","","","","<p><img src= images/blank.png width =""200"" height = ""200"" style = ""float:right""></p><p><img src=images/blank.png width =""800"" height = ""200""></p>","","","","","","","","","","","",""
"","5355.999999999767","sequential-stimulus-presentation","17","154767","0.0-8.0-1.4","SS1613079892573","trial","","40","800","6155.999999999767","images/stimuli/spore_stims/complex_19_A_a.gif","images/stimuli/spore_stims/complex_08_B_d.gif","","","","","0","complex_dissimilar","images/stimuli/spore_stims/complex_08_B_d.gif","right","","","","",""
"","null","html-keyboard-response","18","156022","0.0-8.0-0.5","SS1613079892573","","","null","","","","","<p><img src= images/blank.png width =""200"" height = ""200"" style = ""float:right""></p><p><img src=images/blank.png width =""800"" height = ""200""></p>","","","","","","","","","","","",""
"","8280.999999988126","sequential-stimulus-presentation","19","165165","0.0-8.0-1.5","SS1613079892573","trial","","40","800","9080.999999988126","images/stimuli/spore_stims/complex_19_A_a.gif","images/stimuli/spore_stims/complex_08_B_d.gif","","","","","0","complex_dissimilar","images/stimuli/spore_stims/complex_19_A_a.gif","left","","","","",""
"","null","html-keyboard-response","20","166278","0.0-8.0-0.6","SS1613079892573","","","null","","","","","<p><img src= images/blank.png width =""200"" height = ""200"" style = ""float:right""></p><p><img src=images/blank.png width =""800"" height = ""200""></p>","","","","","","","","","","","",""
"","3771.999999997206","sequential-stimulus-presentation","21","170859","0.0-8.0-1.6","SS1613079892573","trial","","40","800","4571.999999997206","images/stimuli/spore_stims/complex_19_A_a.gif","images/stimuli/spore_stims/complex_08_B_d.gif","","","","","0","complex_dissimilar","images/stimuli/spore_stims/complex_08_B_d.gif","right","","","","",""
"","null","html-keyboard-response","22","171715","0.0-8.0-0.7","SS1613079892573","","","null","","","","","<p><img src= images/blank.png width =""200"" height = ""200"" style = ""float:right""></p><p><img src=images/blank.png width =""800"" height = ""200""></p>","","","","","","","","","","","",""
"","2048.000000009779","sequential-stimulus-presentation","23","174574","0.0-8.0-1.7","SS1613079892573","trial","","40","800","2848.000000009779","images/stimuli/spore_stims/complex_19_A_a.gif","images/stimuli/spore_stims/complex_08_B_d.gif","","","","","0","complex_dissimilar","images/stimuli/spore_stims/complex_08_B_d.gif","right","","","","",""
"","2075.0000000116415","html-keyboard-response","24","176654","0.0-9.0","SS1613079892573","pref_question","","50","","","","","<video width ='960' height = '540' style='padding-top:8%' autoplay muted><source src='images/stimuli/wall_pref.mp4' type='video/mp4'></video>","2","middle","45%","0","","","","","","","",""
"","4964.000000007218","sequential-stimulus-presentation","25","182428","0.0-10.0","SS1613079892573","pref_reveal","","40","800","5764.000000007218","null","null","","","","","0","","","","novel","","","",""
"","null","html-keyboard-response","26","183304","0.0-11.0-0.0","SS1613079892573","","","null","","","","","<p><img src= images/blank.png width =""200"" height = ""200"" style = ""float:right""></p><p><img src=images/blank.png width =""800"" height = ""200""></p>","","","","","","","","","","","",""
"","5769.999999989523","sequential-stimulus-presentation","27","189887","0.0-11.0-1.0","SS1613079892573","trial","","40","800","6569.999999989523","images/stimuli/spore_stims/simple_16_B_b.gif","images/stimuli/spore_stims/simple_16_A_b.gif","","","","","1","simple_similar","images/stimuli/spore_stims/simple_16_A_b.gif","left","","","","",""
"","null","html-keyboard-response","28","190754","0.0-11.0-0.1","SS1613079892573","","","null","","","","","<p><img src= images/blank.png width =""200"" height = ""200"" style = ""float:right""></p><p><img src=images/blank.png width =""800"" height = ""200""></p>","","","","","","","","","","","",""
"","2016.0000000032596","sequential-stimulus-presentation","29","193579","0.0-11.0-1.1","SS1613079892573","trial","","40","800","2816.0000000032596","images/stimuli/spore_stims/simple_16_B_b.gif","images/stimuli/spore_stims/simple_16_A_b.gif","","","","","1","simple_similar","images/stimuli/spore_stims/simple_16_A_b.gif","left","","","","",""
"","null","html-keyboard-response","30","194538","0.0-11.0-0.2","SS1613079892573","","","null","","","","","<p><img src= images/blank.png width =""200"" height = ""200"" style = ""float:right""></p><p><img src=images/blank.png width =""800"" height = ""200""></p>","","","","","","","","","","","",""
"","2350.0000000058208","sequential-stimulus-presentation","31","197707","0.0-11.0-1.2","SS1613079892573","trial","","40","800","3150.0000000058208","images/stimuli/spore_stims/simple_16_B_b.gif","images/stimuli/spore_stims/simple_16_A_b.gif","","","","","1","simple_similar","images/stimuli/spore_stims/simple_16_A_b.gif","left","","","","",""
"","null","html-keyboard-response","32","198519","0.0-11.0-0.3","SS1613079892573","","","null","","","","","<p><img src= images/blank.png width =""200"" height = ""200"" style = ""float:right""></p><p><img src=images/blank.png width =""800"" height = ""200""></p>","","","","","","","","","","","",""
"","1413.9999999897555","sequential-stimulus-presentation","33","200789","0.0-11.0-1.3","SS1613079892573","trial","","40","800","2213.9999999897555","images/stimuli/spore_stims/simple_16_B_b.gif","images/stimuli/spore_stims/simple_16_A_b.gif","","","","","1","simple_similar","images/stimuli/spore_stims/simple_16_A_b.gif","left","","","","",""
"","null","html-keyboard-response","34","202055","0.0-11.0-0.4","SS1613079892573","","","null","","","","","<p><img src= images/blank.png width =""200"" height = ""200"" style = ""float:right""></p><p><img src=images/blank.png width =""800"" height = ""200""></p>","","","","","","","","","","","",""
"","1391.0000000032596","sequential-stimulus-presentation","35","204267","0.0-11.0-1.4","SS1613079892573","trial","","40","800","2191.0000000032596","images/stimuli/spore_stims/simple_16_B_b.gif","images/stimuli/spore_stims/simple_16_A_b.gif","","","","","1","simple_similar","images/stimuli/spore_stims/simple_16_A_b.gif","left","","","","",""
"","null","html-keyboard-response","36","205125","0.0-11.0-0.5","SS1613079892573","","","null","","","","","<p><img src= images/blank.png width =""200"" height = ""200"" style = ""float:right""></p><p><img src=images/blank.png width =""800"" height = ""200""></p>","","","","","","","","","","","",""
"","1912.0000000111759","sequential-stimulus-presentation","37","207851","0.0-11.0-1.5","SS1613079892573","trial","","40","800","2712.000000011176","images/stimuli/spore_stims/simple_16_B_b.gif","images/stimuli/spore_stims/simple_16_A_b.gif","","","","","1","simple_similar","images/stimuli/spore_stims/simple_16_A_b.gif","left","","","","",""
"","null","html-keyboard-response","38","208951","0.0-11.0-0.6","SS1613079892573","","","null","","","","","<p><img src= images/blank.png width =""200"" height = ""200"" style = ""float:right""></p><p><img src=images/blank.png width =""800"" height = ""200""></p>","","","","","","","","","","","",""
"","4116.99999999837","sequential-stimulus-presentation","39","213884","0.0-11.0-1.6","SS1613079892573","trial","","40","800","4916.99999999837","images/stimuli/spore_stims/simple_16_B_b.gif","images/stimuli/spore_stims/simple_16_A_b.gif","","","","","1","simple_similar","images/stimuli/spore_stims/simple_16_B_b.gif","right","","","","",""
"","null","html-keyboard-response","40","214891","0.0-11.0-0.7","SS1613079892573","","","null","","","","","<p><img src= images/blank.png width =""200"" height = ""200"" style = ""float:right""></p><p><img src=images/blank.png width =""800"" height = ""200""></p>","","","","","","","","","","","",""
"","1681.0000000114087","sequential-stimulus-presentation","41","217435","0.0-11.0-1.7","SS1613079892573","trial","","40","800","2481.0000000114087","images/stimuli/spore_stims/simple_16_B_b.gif","images/stimuli/spore_stims/simple_16_A_b.gif","","","","","1","simple_similar","images/stimuli/spore_stims/simple_16_A_b.gif","left","","","","",""
"","1898.9999999757856","html-keyboard-response","42","219340","0.0-12.0","SS1613079892573","pref_question","","50","","","","","<video width ='960' height = '540' style='padding-top:8%' autoplay muted><source src='images/stimuli/wall_pref.mp4' type='video/mp4'></video>","2","middle","45%","1","","","","","","","",""
"","6288.999999989755","sequential-stimulus-presentation","43","226447","0.0-13.0","SS1613079892573","pref_reveal","","40","800","7088.999999989755","null","null","","","","","1","","","","novel","","","",""
"","null","html-keyboard-response","44","227777","0.0-14.0-0.0","SS1613079892573","","","null","","","","","<p><img src= images/blank.png width =""200"" height = ""200"" style = ""float:right""></p><p><img src=images/blank.png width =""800"" height = ""200""></p>","","","","","","","","","","","",""
"","6494.000000006054","sequential-stimulus-presentation","45","235084","0.0-14.0-1.0","SS1613079892573","trial","","40","800","7294.000000006054","images/stimuli/spore_stims/simple_04_A_b.gif","images/stimuli/spore_stims/simple_17_B_b.gif","","","","","2","simple_dissimilar","images/stimuli/spore_stims/simple_17_B_b.gif","middle","","","","",""
"","null","html-keyboard-response","46","236165","0.0-14.0-0.1","SS1613079892573","","","null","","","","","<p><img src= images/blank.png width =""200"" height = ""200"" style = ""float:right""></p><p><img src=images/blank.png width =""800"" height = ""200""></p>","","","","","","","","","","","",""
"","2467.000000004191","sequential-stimulus-presentation","47","239473","0.0-14.0-1.1","SS1613079892573","trial","","40","800","3267.000000004191","images/stimuli/spore_stims/simple_04_A_b.gif","images/stimuli/spore_stims/simple_17_B_b.gif","","","","","2","simple_dissimilar","images/stimuli/spore_stims/simple_17_B_b.gif","middle","","","","",""
"","null","html-keyboard-response","48","240436","0.0-14.0-0.2","SS1613079892573","","","null","","","","","<p><img src= images/blank.png width =""200"" height = ""200"" style = ""float:right""></p><p><img src=images/blank.png width =""800"" height = ""200""></p>","","","","","","","","","","","",""
"","2580.000000016298","sequential-stimulus-presentation","49","243837","0.0-14.0-1.2","SS1613079892573","trial","","40","800","3380.000000016298","images/stimuli/spore_stims/simple_04_A_b.gif","images/stimuli/spore_stims/simple_17_B_b.gif","","","","","2","simple_dissimilar","images/stimuli/spore_stims/simple_17_B_b.gif","middle","","","","",""
"","null","html-keyboard-response","50","244827","0.0-14.0-0.3","SS1613079892573","","","null","","","","","<p><img src= images/blank.png width =""200"" height = ""200"" style = ""float:right""></p><p><img src=images/blank.png width =""800"" height = ""200""></p>","","","","","","","","","","","",""
"","4923.999999999069","sequential-stimulus-presentation","51","250573","0.0-14.0-1.3","SS1613079892573","trial","","40","800","5723.999999999069","images/stimuli/spore_stims/simple_04_A_b.gif","images/stimuli/spore_stims/simple_17_B_b.gif","","","","","2","simple_dissimilar","images/stimuli/spore_stims/simple_04_A_b.gif","left","","","","",""
"","null","html-keyboard-response","52","251683","0.0-14.0-0.4","SS1613079892573","","","null","","","","","<p><img src= images/blank.png width =""200"" height = ""200"" style = ""float:right""></p><p><img src=images/blank.png width =""800"" height = ""200""></p>","","","","","","","","","","","",""
"","2331.9999999948777","sequential-stimulus-presentation","53","254859","0.0-14.0-1.4","SS1613079892573","trial","","40","800","3131.9999999948777","images/stimuli/spore_stims/simple_04_A_b.gif","images/stimuli/spore_stims/simple_17_B_b.gif","","","","","2","simple_dissimilar","images/stimuli/spore_stims/simple_17_B_b.gif","middle","","","","",""
"","null","html-keyboard-response","54","256052","0.0-14.0-0.5","SS1613079892573","","","null","","","","","<p><img src= images/blank.png width =""200"" height = ""200"" style = ""float:right""></p><p><img src=images/blank.png width =""800"" height = ""200""></p>","","","","","","","","","","","",""
"","1743.0000000167638","sequential-stimulus-presentation","55","258603","0.0-14.0-1.5","SS1613079892573","trial","","40","800","2543.000000016764","images/stimuli/spore_stims/simple_04_A_b.gif","images/stimuli/spore_stims/simple_17_B_b.gif","","","","","2","simple_dissimilar","images/stimuli/spore_stims/simple_17_B_b.gif","middle","","","","",""
"","null","html-keyboard-response","56","259800","0.0-14.0-0.6","SS1613079892573","","","null","","","","","<p><img src= images/blank.png width =""200"" height = ""200"" style = ""float:right""></p><p><img src=images/blank.png width =""800"" height = ""200""></p>","","","","","","","","","","","",""
"","1872.0000000030268","sequential-stimulus-presentation","57","262478","0.0-14.0-1.6","SS1613079892573","trial","","40","800","2672.000000003027","images/stimuli/spore_stims/simple_04_A_b.gif","images/stimuli/spore_stims/simple_17_B_b.gif","","","","","2","simple_dissimilar","images/stimuli/spore_stims/simple_17_B_b.gif","middle","","","","",""
"","null","html-keyboard-response","58","263569","0.0-14.0-0.7","SS1613079892573","","","null","","","","","<p><img src= images/blank.png width =""200"" height = ""200"" style = ""float:right""></p><p><img src=images/blank.png width =""800"" height = ""200""></p>","","","","","","","","","","","",""
"","1298.9999999990687","sequential-stimulus-presentation","59","265710","0.0-14.0-1.7","SS1613079892573","trial","","40","800","2098.9999999990687","images/stimuli/spore_stims/simple_04_A_b.gif","images/stimuli/spore_stims/simple_17_B_b.gif","","","","","2","simple_dissimilar","images/stimuli/spore_stims/simple_17_B_b.gif","middle","","","","",""
"","1907.999999995809","html-keyboard-response","60","267627","0.0-15.0","SS1613079892573","pref_question","","51","","","","","<video width ='960' height = '540' style='padding-top:8%' autoplay muted><source src='images/stimuli/wall_pref.mp4' type='video/mp4'></video>","3","right","66%","2","","","","","","","",""
"","6303.9999999746215","sequential-stimulus-presentation","61","274781","0.0-16.0","SS1613079892573","pref_reveal","","40","800","7103.9999999746215","null","null","","","","","2","","","","novel","","","",""
"","null","html-keyboard-response","62","275915","0.0-17.0-0.0","SS1613079892573","","","null","","","","","<p><img src= images/blank.png width =""200"" height = ""200"" style = ""float:right""></p><p><img src=images/blank.png width =""800"" height = ""200""></p>","","","","","","","","","","","",""
"","5578.9999999979045","sequential-stimulus-presentation","63","282351","0.0-17.0-1.0","SS1613079892573","trial","","40","800","6378.9999999979045","images/stimuli/spore_stims/complex_12_B_a.gif","images/stimuli/spore_stims/complex_07_A_c.gif","","","","","3","complex_dissimilar","images/stimuli/spore_stims/complex_07_A_c.gif","right","","","","",""
"","null","html-keyboard-response","64","283207","0.0-17.0-0.1","SS1613079892573","","","null","","","","","<p><img src= images/blank.png width =""200"" height = ""200"" style = ""float:right""></p><p><img src=images/blank.png width =""800"" height = ""200""></p>","","","","","","","","","","","",""
"","2441.999999980908","sequential-stimulus-presentation","65","286461","0.0-17.0-1.1","SS1613079892573","trial","","40","800","3241.999999980908","images/stimuli/spore_stims/complex_12_B_a.gif","images/stimuli/spore_stims/complex_07_A_c.gif","","","","","3","complex_dissimilar","images/stimuli/spore_stims/complex_07_A_c.gif","right","","","","",""
"","null","html-keyboard-response","66","287646","0.0-17.0-0.2","SS1613079892573","","","null","","","","","<p><img src= images/blank.png width =""200"" height = ""200"" style = ""float:right""></p><p><img src=images/blank.png width =""800"" height = ""200""></p>","","","","","","","","","","","",""
"","2486.9999999937136","sequential-stimulus-presentation","67","290971","0.0-17.0-1.2","SS1613079892573","trial","","40","800","3286.9999999937136","images/stimuli/spore_stims/complex_12_B_a.gif","images/stimuli/spore_stims/complex_07_A_c.gif","","","","","3","complex_dissimilar","images/stimuli/spore_stims/complex_07_A_c.gif","right","","","","",""
"","null","html-keyboard-response","68","292075","0.0-17.0-0.3","SS1613079892573","","","null","","","","","<p><img src= images/blank.png width =""200"" height = ""200"" style = ""float:right""></p><p><img src=images/blank.png width =""800"" height = ""200""></p>","","","","","","","","","","","",""
"","1145.0000000186265","sequential-stimulus-presentation","69","294045","0.0-17.0-1.3","SS1613079892573","trial","","40","800","1945.0000000186265","images/stimuli/spore_stims/complex_12_B_a.gif","images/stimuli/spore_stims/complex_07_A_c.gif","","","","","3","complex_dissimilar","images/stimuli/spore_stims/complex_07_A_c.gif","right","","","","",""
"","null","html-keyboard-response","70","295224","0.0-17.0-0.4","SS1613079892573","","","null","","","","","<p><img src= images/blank.png width =""200"" height = ""200"" style = ""float:right""></p><p><img src=images/blank.png width =""800"" height = ""200""></p>","","","","","","","","","","","",""
"","1220.999999990454","sequential-stimulus-presentation","71","297260","0.0-17.0-1.4","SS1613079892573","trial","","40","800","2020.999999990454","images/stimuli/spore_stims/complex_12_B_a.gif","images/stimuli/spore_stims/complex_07_A_c.gif","","","","","3","complex_dissimilar","images/stimuli/spore_stims/complex_07_A_c.gif","right","","","","",""
"","null","html-keyboard-response","72","298354","0.0-17.0-0.5","SS1613079892573","","","null","","","","","<p><img src= images/blank.png width =""200"" height = ""200"" style = ""float:right""></p><p><img src=images/blank.png width =""800"" height = ""200""></p>","","","","","","","","","","","",""
"","6588.999999978114","sequential-stimulus-presentation","73","305771","0.0-17.0-1.5","SS1613079892573","trial","","40","800","7388.999999978114","images/stimuli/spore_stims/complex_12_B_a.gif","images/stimuli/spore_stims/complex_07_A_c.gif","","","","","3","complex_dissimilar","images/stimuli/spore_stims/complex_12_B_a.gif","left","","","","",""
"","null","html-keyboard-response","74","306899","0.0-17.0-0.6","SS1613079892573","","","null","","","","","<p><img src= images/blank.png width =""200"" height = ""200"" style = ""float:right""></p><p><img src=images/blank.png width =""800"" height = ""200""></p>","","","","","","","","","","","",""
"","1346.9999999797437","sequential-stimulus-presentation","75","309116","0.0-17.0-1.6","SS1613079892573","trial","","40","800","2146.9999999797437","images/stimuli/spore_stims/complex_12_B_a.gif","images/stimuli/spore_stims/complex_07_A_c.gif","","","","","3","complex_dissimilar","images/stimuli/spore_stims/complex_07_A_c.gif","right","","","","",""
"","null","html-keyboard-response","76","310250","0.0-17.0-0.7","SS1613079892573","","","null","","","","","<p><img src= images/blank.png width =""200"" height = ""200"" style = ""float:right""></p><p><img src=images/blank.png width =""800"" height = ""200""></p>","","","","","","","","","","","",""
"","1728.9999999920838","sequential-stimulus-presentation","77","312795","0.0-17.0-1.7","SS1613079892573","trial","","40","800","2528.9999999920838","images/stimuli/spore_stims/complex_12_B_a.gif","images/stimuli/spore_stims/complex_07_A_c.gif","","","","","3","complex_dissimilar","images/stimuli/spore_stims/complex_07_A_c.gif","right","","","","",""
"","1146.999999997206","html-keyboard-response","78","313948","0.0-18.0","SS1613079892573","pref_question","","50","","","","","<video width ='960' height = '540' style='padding-top:8%' autoplay muted><source src='images/stimuli/wall_pref.mp4' type='video/mp4'></video>","2","middle","45%","3","","","","","","","",""
"","5756.999999983236","sequential-stimulus-presentation","79","320524","0.0-19.0","SS1613079892573","pref_reveal","","40","800","6556.999999983236","null","null","","","","","3","","","","novel","","","",""
"","null","html-keyboard-response","80","321365","0.0-20.0-0.0","SS1613079892573","","","null","","","","","<p><img src= images/blank.png width =""200"" height = ""200"" style = ""float:right""></p><p><img src=images/blank.png width =""800"" height = ""200""></p>","","","","","","","","","","","",""
"","5298.000000009779","sequential-stimulus-presentation","81","327484","0.0-20.0-1.0","SS1613079892573","trial","","40","800","6098.000000009779","images/stimuli/spore_stims/complex_08_A_c.gif","images/stimuli/spore_stims/complex_19_B_c.gif","","","","","4","complex_dissimilar","images/stimuli/spore_stims/complex_19_B_c.gif","middle","","","","",""
"","null","html-keyboard-response","82","328412","0.0-20.0-0.1","SS1613079892573","","","null","","","","","<p><img src= images/blank.png width =""200"" height = ""200"" style = ""float:right""></p><p><img src=images/blank.png width =""800"" height = ""200""></p>","","","","","","","","","","","",""
"","2399.9999999941792","sequential-stimulus-presentation","83","331703","0.0-20.0-1.1","SS1613079892573","trial","","40","800","3199.9999999941792","images/stimuli/spore_stims/complex_08_A_c.gif","images/stimuli/spore_stims/complex_19_B_c.gif","","","","","4","complex_dissimilar","images/stimuli/spore_stims/complex_19_B_c.gif","middle","","","","",""
"","null","html-keyboard-response","84","332592","0.0-20.0-0.2","SS1613079892573","","","null","","","","","<p><img src= images/blank.png width =""200"" height = ""200"" style = ""float:right""></p><p><img src=images/blank.png width =""800"" height = ""200""></p>","","","","","","","","","","","",""
"","4901.999999972759","sequential-stimulus-presentation","85","338331","0.0-20.0-1.2","SS1613079892573","trial","","40","800","5701.999999972759","images/stimuli/spore_stims/complex_08_A_c.gif","images/stimuli/spore_stims/complex_19_B_c.gif","","","","","4","complex_dissimilar","images/stimuli/spore_stims/complex_08_A_c.gif","left","","","","",""
"","null","html-keyboard-response","86","339529","0.0-20.0-0.3","SS1613079892573","","","null","","","","","<p><img src= images/blank.png width =""200"" height = ""200"" style = ""float:right""></p><p><img src=images/blank.png width =""800"" height = ""200""></p>","","","","","","","","","","","",""
"","2005.0000000046566","sequential-stimulus-presentation","87","342364","0.0-20.0-1.3","SS1613079892573","trial","","40","800","2805.0000000046566","images/stimuli/spore_stims/complex_08_A_c.gif","images/stimuli/spore_stims/complex_19_B_c.gif","","","","","4","complex_dissimilar","images/stimuli/spore_stims/complex_19_B_c.gif","middle","","","","",""
"","null","html-keyboard-response","88","343412","0.0-20.0-0.4","SS1613079892573","","","null","","","","","<p><img src= images/blank.png width =""200"" height = ""200"" style = ""float:right""></p><p><img src=images/blank.png width =""800"" height = ""200""></p>","","","","","","","","","","","",""
"","1632.00000001234","sequential-stimulus-presentation","89","345883","0.0-20.0-1.4","SS1613079892573","trial","","40","800","2432.00000001234","images/stimuli/spore_stims/complex_08_A_c.gif","images/stimuli/spore_stims/complex_19_B_c.gif","","","","","4","complex_dissimilar","images/stimuli/spore_stims/complex_19_B_c.gif","middle","","","","",""
"","null","html-keyboard-response","90","346888","0.0-20.0-0.5","SS1613079892573","","","null","","","","","<p><img src= images/blank.png width =""200"" height = ""200"" style = ""float:right""></p><p><img src=images/blank.png width =""800"" height = ""200""></p>","","","","","","","","","","","",""
"","1632.00000001234","sequential-stimulus-presentation","91","349403","0.0-20.0-1.5","SS1613079892573","trial","","40","800","2432.00000001234","images/stimuli/spore_stims/complex_08_A_c.gif","images/stimuli/spore_stims/complex_19_B_c.gif","","","","","4","complex_dissimilar","images/stimuli/spore_stims/complex_19_B_c.gif","middle","","","","",""
"","null","html-keyboard-response","92","350331","0.0-20.0-0.6","SS1613079892573","","","null","","","","","<p><img src= images/blank.png width =""200"" height = ""200"" style = ""float:right""></p><p><img src=images/blank.png width =""800"" height = ""200""></p>","","","","","","","","","","","",""
"","1698.0000000039581","sequential-stimulus-presentation","93","352847","0.0-20.0-1.6","SS1613079892573","trial","","40","800","2498.000000003958","images/stimuli/spore_stims/complex_08_A_c.gif","images/stimuli/spore_stims/complex_19_B_c.gif","","","","","4","complex_dissimilar","images/stimuli/spore_stims/complex_19_B_c.gif","middle","","","","",""
"","null","html-keyboard-response","94","353767","0.0-20.0-0.7","SS1613079892573","","","null","","","","","<p><img src= images/blank.png width =""200"" height = ""200"" style = ""float:right""></p><p><img src=images/blank.png width =""800"" height = ""200""></p>","","","","","","","","","","","",""
"","1187.000000005355","sequential-stimulus-presentation","95","355787","0.0-20.0-1.7","SS1613079892573","trial","","40","800","1987.000000005355","images/stimuli/spore_stims/complex_08_A_c.gif","images/stimuli/spore_stims/complex_19_B_c.gif","","","","","4","complex_dissimilar","images/stimuli/spore_stims/complex_19_B_c.gif","middle","","","","",""
"","1413.9999999897555","html-keyboard-response","96","357211","0.0-21.0","SS1613079892573","pref_question","","51","","","","","<video width ='960' height = '540' style='padding-top:8%' autoplay muted><source src='images/stimuli/wall_pref.mp4' type='video/mp4'></video>","3","right","66%","4","","","","","","","",""
"","6608.99999999674","sequential-stimulus-presentation","97","364700","0.0-22.0","SS1613079892573","pref_reveal","","40","800","7408.99999999674","null","null","","","","","4","","","","novel","","","",""
"","null","html-keyboard-response","98","365916","0.0-23.0-0.0","SS1613079892573","","","null","","","","","<p><img src= images/blank.png width =""200"" height = ""200"" style = ""float:right""></p><p><img src=images/blank.png width =""800"" height = ""200""></p>","","","","","","","","","","","",""
"","5581.000000005588","sequential-stimulus-presentation","99","372363","0.0-23.0-1.0","SS1613079892573","trial","","40","800","6381.000000005588","images/stimuli/spore_stims/complex_10_B_a.gif","images/stimuli/spore_stims/complex_03_A_c.gif","","","","","5","complex_dissimilar","images/stimuli/spore_stims/complex_03_A_c.gif","middle","","","","",""
"","null","html-keyboard-response","100","373626","0.0-23.0-0.1","SS1613079892573","","","null","","","","","<p><img src= images/blank.png width =""200"" height = ""200"" style = ""float:right""></p><p><img src=images/blank.png width =""800"" height = ""200""></p>","","","","","","","","","","","",""
"","2967.9999999934807","sequential-stimulus-presentation","101","377422","0.0-23.0-1.1","SS1613079892573","trial","","40","800","3767.9999999934807","images/stimuli/spore_stims/complex_10_B_a.gif","images/stimuli/spore_stims/complex_03_A_c.gif","","","","","5","complex_dissimilar","images/stimuli/spore_stims/complex_03_A_c.gif","middle","","","","",""
"","null","html-keyboard-response","102","378419","0.0-23.0-0.2","SS1613079892573","","","null","","","","","<p><img src= images/blank.png width =""200"" height = ""200"" style = ""float:right""></p><p><img src=images/blank.png width =""800"" height = ""200""></p>","","","","","","","","","","","",""
"","2310.0000000267755","sequential-stimulus-presentation","103","381554","0.0-23.0-1.2","SS1613079892573","trial","","40","800","3110.0000000267755","images/stimuli/spore_stims/complex_10_B_a.gif","images/stimuli/spore_stims/complex_03_A_c.gif","","","","","5","complex_dissimilar","images/stimuli/spore_stims/complex_03_A_c.gif","middle","","","","",""
"","null","html-keyboard-response","104","382411","0.0-23.0-0.3","SS1613079892573","","","null","","","","","<p><img src= images/blank.png width =""200"" height = ""200"" style = ""float:right""></p><p><img src=images/blank.png width =""800"" height = ""200""></p>","","","","","","","","","","","",""
"","6079.999999987194","sequential-stimulus-presentation","105","389308","0.0-23.0-1.3","SS1613079892573","trial","","40","800","6879.999999987194","images/stimuli/spore_stims/complex_10_B_a.gif","images/stimuli/spore_stims/complex_03_A_c.gif","","","","","5","complex_dissimilar","images/stimuli/spore_stims/complex_10_B_a.gif","right","","","","",""
"","null","html-keyboard-response","106","390431","0.0-23.0-0.4","SS1613079892573","","","null","","","","","<p><img src= images/blank.png width =""200"" height = ""200"" style = ""float:right""></p><p><img src=images/blank.png width =""800"" height = ""200""></p>","","","","","","","","","","","",""
"","1399.0000000048894","sequential-stimulus-presentation","107","392655","0.0-23.0-1.4","SS1613079892573","trial","","40","800","2199.0000000048894","images/stimuli/spore_stims/complex_10_B_a.gif","images/stimuli/spore_stims/complex_03_A_c.gif","","","","","5","complex_dissimilar","images/stimuli/spore_stims/complex_03_A_c.gif","middle","","","","",""
"","null","html-keyboard-response","108","393849","0.0-23.0-0.5","SS1613079892573","","","null","","","","","<p><img src= images/blank.png width =""200"" height = ""200"" style = ""float:right""></p><p><img src=images/blank.png width =""800"" height = ""200""></p>","","","","","","","","","","","",""
"","1683.000000019092","sequential-stimulus-presentation","109","396459","0.0-23.0-1.5","SS1613079892573","trial","","40","800","2483.000000019092","images/stimuli/spore_stims/complex_10_B_a.gif","images/stimuli/spore_stims/complex_03_A_c.gif","","","","","5","complex_dissimilar","images/stimuli/spore_stims/complex_03_A_c.gif","middle","","","","",""
"","null","html-keyboard-response","110","397575","0.0-23.0-0.6","SS1613079892573","","","null","","","","","<p><img src= images/blank.png width =""200"" height = ""200"" style = ""float:right""></p><p><img src=images/blank.png width =""800"" height = ""200""></p>","","","","","","","","","","","",""
"","1760.999999998603","sequential-stimulus-presentation","111","400156","0.0-23.0-1.6","SS1613079892573","trial","","40","800","2560.999999998603","images/stimuli/spore_stims/complex_10_B_a.gif","images/stimuli/spore_stims/complex_03_A_c.gif","","","","","5","complex_dissimilar","images/stimuli/spore_stims/complex_03_A_c.gif","middle","","","","",""
"","null","html-keyboard-response","112","401247","0.0-23.0-0.7","SS1613079892573","","","null","","","","","<p><img src= images/blank.png width =""200"" height = ""200"" style = ""float:right""></p><p><img src=images/blank.png width =""800"" height = ""200""></p>","","","","","","","","","","","",""
"","2059.000000008382","sequential-stimulus-presentation","113","404171","0.0-23.0-1.7","SS1613079892573","trial","","40","800","2859.000000008382","images/stimuli/spore_stims/complex_10_B_a.gif","images/stimuli/spore_stims/complex_03_A_c.gif","","","","","5","complex_dissimilar","images/stimuli/spore_stims/complex_03_A_c.gif","middle","","","","",""
"","937.0000000053551","html-keyboard-response","114","405178","0.0-24.0","SS1613079892573","pref_question","","49","","","","","<video width ='960' height = '540' style='padding-top:8%' autoplay muted><source src='images/stimuli/wall_pref.mp4' type='video/mp4'></video>","1","left","25%","5","","","","","","","",""
"","6839.9999999965075","sequential-stimulus-presentation","115","412827","0.0-25.0","SS1613079892573","pref_reveal","","40","800","7639.9999999965075","null","null","","","","","5","","","","novel","","","",""
"","null","html-keyboard-response","116","413823","0.0-26.0-0.0","SS1613079892573","","","null","","","","","<p><img src= images/blank.png width =""200"" height = ""200"" style = ""float:right""></p><p><img src=images/blank.png width =""800"" height = ""200""></p>","","","","","","","","","","","",""
"","5912.000000011176","sequential-stimulus-presentation","117","420555","0.0-26.0-1.0","SS1613079892573","trial","","40","800","6712.000000011176","images/stimuli/spore_stims/simple_18_A_d.gif","images/stimuli/spore_stims/simple_02_A_c.gif","","","","","6","simple_dissimilar","images/stimuli/spore_stims/simple_02_A_c.gif","right","","","","",""
"","null","html-keyboard-response","118","421836","0.0-26.0-0.1","SS1613079892573","","","null","","","","","<p><img src= images/blank.png width =""200"" height = ""200"" style = ""float:right""></p><p><img src=images/blank.png width =""800"" height = ""200""></p>","","","","","","","","","","","",""
"","2292.0000000158325","sequential-stimulus-presentation","119","424940","0.0-26.0-1.1","SS1613079892573","trial","","40","800","3092.0000000158325","images/stimuli/spore_stims/simple_18_A_d.gif","images/stimuli/spore_stims/simple_02_A_c.gif","","","","","6","simple_dissimilar","images/stimuli/spore_stims/simple_02_A_c.gif","right","","","","",""
"","null","html-keyboard-response","120","426147","0.0-26.0-0.2","SS1613079892573","","","null","","","","","<p><img src= images/blank.png width =""200"" height = ""200"" style = ""float:right""></p><p><img src=images/blank.png width =""800"" height = ""200""></p>","","","","","","","","","","","",""
"","2124.00000001071","sequential-stimulus-presentation","121","429115","0.0-26.0-1.2","SS1613079892573","trial","","40","800","2924.00000001071","images/stimuli/spore_stims/simple_18_A_d.gif","images/stimuli/spore_stims/simple_02_A_c.gif","","","","","6","simple_dissimilar","images/stimuli/spore_stims/simple_02_A_c.gif","right","","","","",""
"","null","html-keyboard-response","122","430260","0.0-26.0-0.3","SS1613079892573","","","null","","","","","<p><img src= images/blank.png width =""200"" height = ""200"" style = ""float:right""></p><p><img src=images/blank.png width =""800"" height = ""200""></p>","","","","","","","","","","","",""
"","1192.9999999993015","sequential-stimulus-presentation","123","432267","0.0-26.0-1.3","SS1613079892573","trial","","40","800","1992.9999999993015","images/stimuli/spore_stims/simple_18_A_d.gif","images/stimuli/spore_stims/simple_02_A_c.gif","","","","","6","simple_dissimilar","images/stimuli/spore_stims/simple_02_A_c.gif","right","","","","",""
"","null","html-keyboard-response","124","433250","0.0-26.0-0.4","SS1613079892573","","","null","","","","","<p><img src= images/blank.png width =""200"" height = ""200"" style = ""float:right""></p><p><img src=images/blank.png width =""800"" height = ""200""></p>","","","","","","","","","","","",""
"","3760.999999998603","sequential-stimulus-presentation","125","437821","0.0-26.0-1.4","SS1613079892573","trial","","40","800","4560.999999998603","images/stimuli/spore_stims/simple_18_A_d.gif","images/stimuli/spore_stims/simple_02_A_c.gif","","","","","6","simple_dissimilar","images/stimuli/spore_stims/simple_18_A_d.gif","middle","","","","",""
"","null","html-keyboard-response","126","439080","0.0-26.0-0.5","SS1613079892573","","","null","","","","","<p><img src= images/blank.png width =""200"" height = ""200"" style = ""float:right""></p><p><img src=images/blank.png width =""800"" height = ""200""></p>","","","","","","","","","","","",""
"","1616.9999999983702","sequential-stimulus-presentation","127","441514","0.0-26.0-1.5","SS1613079892573","trial","","40","800","2416.99999999837","images/stimuli/spore_stims/simple_18_A_d.gif","images/stimuli/spore_stims/simple_02_A_c.gif","","","","","6","simple_dissimilar","images/stimuli/spore_stims/simple_02_A_c.gif","right","","","","",""
"","null","html-keyboard-response","128","442772","0.0-26.0-0.6","SS1613079892573","","","null","","","","","<p><img src= images/blank.png width =""200"" height = ""200"" style = ""float:right""></p><p><img src=images/blank.png width =""800"" height = ""200""></p>","","","","","","","","","","","",""
"","1076.999999990221","sequential-stimulus-presentation","129","444667","0.0-26.0-1.6","SS1613079892573","trial","","40","800","1876.999999990221","images/stimuli/spore_stims/simple_18_A_d.gif","images/stimuli/spore_stims/simple_02_A_c.gif","","","","","6","simple_dissimilar","images/stimuli/spore_stims/simple_02_A_c.gif","right","","","","",""
"","null","html-keyboard-response","130","445574","0.0-26.0-0.7","SS1613079892573","","","null","","","","","<p><img src= images/blank.png width =""200"" height = ""200"" style = ""float:right""></p><p><img src=images/blank.png width =""800"" height = ""200""></p>","","","","","","","","","","","",""
"","1356.999999989057","sequential-stimulus-presentation","131","447739","0.0-26.0-1.7","SS1613079892573","trial","","40","800","2156.999999989057","images/stimuli/spore_stims/simple_18_A_d.gif","images/stimuli/spore_stims/simple_02_A_c.gif","","","","","6","simple_dissimilar","images/stimuli/spore_stims/simple_02_A_c.gif","right","","","","",""
"","1639.999999984866","html-keyboard-response","132","449453","0.0-27.0","SS1613079892573","pref_question","","49","","","","","<video width ='960' height = '540' style='padding-top:8%' autoplay muted><source src='images/stimuli/wall_pref.mp4' type='video/mp4'></video>","1","left","25%","6","","","","","","","",""
"","7074.999999982538","sequential-stimulus-presentation","133","457354","0.0-28.0","SS1613079892573","pref_reveal","","40","800","7874.999999982538","null","null","","","","","6","","","","novel","","","",""
"","null","html-keyboard-response","134","458441","0.0-29.0-0.0","SS1613079892573","","","null","","","","","<p><img src= images/blank.png width =""200"" height = ""200"" style = ""float:right""></p><p><img src=images/blank.png width =""800"" height = ""200""></p>","","","","","","","","","","","",""
"","7435.9999999869615","sequential-stimulus-presentation","135","466700","0.0-29.0-1.0","SS1613079892573","trial","","40","800","8235.999999986961","images/stimuli/spore_stims/complex_18_B_b.gif","images/stimuli/spore_stims/complex_18_A_b.gif","","","","","7","complex_similar","images/stimuli/spore_stims/complex_18_A_b.gif","left","","","","",""
"","null","html-keyboard-response","136","467934","0.0-29.0-0.1","SS1613079892573","","","null","","","","","<p><img src= images/blank.png width =""200"" height = ""200"" style = ""float:right""></p><p><img src=images/blank.png width =""800"" height = ""200""></p>","","","","","","","","","","","",""
"","1942.9999999993015","sequential-stimulus-presentation","137","470730","0.0-29.0-1.1","SS1613079892573","trial","","40","800","2742.9999999993015","images/stimuli/spore_stims/complex_18_B_b.gif","images/stimuli/spore_stims/complex_18_A_b.gif","","","","","7","complex_similar","images/stimuli/spore_stims/complex_18_A_b.gif","left","","","","",""
"","null","html-keyboard-response","138","471860","0.0-29.0-0.2","SS1613079892573","","","null","","","","","<p><img src= images/blank.png width =""200"" height = ""200"" style = ""float:right""></p><p><img src=images/blank.png width =""800"" height = ""200""></p>","","","","","","","","","","","",""
"","1546.0000000020955","sequential-stimulus-presentation","139","474219","0.0-29.0-1.2","SS1613079892573","trial","","40","800","2346.0000000020955","images/stimuli/spore_stims/complex_18_B_b.gif","images/stimuli/spore_stims/complex_18_A_b.gif","","","","","7","complex_similar","images/stimuli/spore_stims/complex_18_A_b.gif","left","","","","",""
"","null","html-keyboard-response","140","475528","0.0-29.0-0.3","SS1613079892573","","","null","","","","","<p><img src= images/blank.png width =""200"" height = ""200"" style = ""float:right""></p><p><img src=images/blank.png width =""800"" height = ""200""></p>","","","","","","","","","","","",""
"","5393.000000010943","sequential-stimulus-presentation","141","481740","0.0-29.0-1.3","SS1613079892573","trial","","40","800","6193.000000010943","images/stimuli/spore_stims/complex_18_B_b.gif","images/stimuli/spore_stims/complex_18_A_b.gif","","","","","7","complex_similar","images/stimuli/spore_stims/complex_18_B_b.gif","middle","","","","",""
"","null","html-keyboard-response","142","482599","0.0-29.0-0.4","SS1613079892573","","","null","","","","","<p><img src= images/blank.png width =""200"" height = ""200"" style = ""float:right""></p><p><img src=images/blank.png width =""800"" height = ""200""></p>","","","","","","","","","","","",""
"","1791.9999999867287","sequential-stimulus-presentation","143","485226","0.0-29.0-1.4","SS1613079892573","trial","","40","800","2591.9999999867287","images/stimuli/spore_stims/complex_18_B_b.gif","images/stimuli/spore_stims/complex_18_A_b.gif","","","","","7","complex_similar","images/stimuli/spore_stims/complex_18_A_b.gif","left","","","","",""
"","null","html-keyboard-response","144","486203","0.0-29.0-0.5","SS1613079892573","","","null","","","","","<p><img src= images/blank.png width =""200"" height = ""200"" style = ""float:right""></p><p><img src=images/blank.png width =""800"" height = ""200""></p>","","","","","","","","","","","",""
"","2002.9999999969732","sequential-stimulus-presentation","145","489018","0.0-29.0-1.5","SS1613079892573","trial","","40","800","2802.999999996973","images/stimuli/spore_stims/complex_18_B_b.gif","images/stimuli/spore_stims/complex_18_A_b.gif","","","","","7","complex_similar","images/stimuli/spore_stims/complex_18_A_b.gif","left","","","","",""
"","null","html-keyboard-response","146","490131","0.0-29.0-0.6","SS1613079892573","","","null","","","","","<p><img src= images/blank.png width =""200"" height = ""200"" style = ""float:right""></p><p><img src=images/blank.png width =""800"" height = ""200""></p>","","","","","","","","","","","",""
"","1541.9999999867287","sequential-stimulus-presentation","147","492507","0.0-29.0-1.6","SS1613079892573","trial","","40","800","2341.9999999867287","images/stimuli/spore_stims/complex_18_B_b.gif","images/stimuli/spore_stims/complex_18_A_b.gif","","","","","7","complex_similar","images/stimuli/spore_stims/complex_18_A_b.gif","left","","","","",""
"","null","html-keyboard-response","148","493758","0.0-29.0-0.7","SS1613079892573","","","null","","","","","<p><img src= images/blank.png width =""200"" height = ""200"" style = ""float:right""></p><p><img src=images/blank.png width =""800"" height = ""200""></p>","","","","","","","","","","","",""
"","1546.0000000020955","sequential-stimulus-presentation","149","496122","0.0-29.0-1.7","SS1613079892573","trial","","40","800","2346.0000000020955","images/stimuli/spore_stims/complex_18_B_b.gif","images/stimuli/spore_stims/complex_18_A_b.gif","","","","","7","complex_similar","images/stimuli/spore_stims/complex_18_A_b.gif","left","","","","",""
"","1126.0000000183936","html-keyboard-response","150","497260","0.0-30.0","SS1613079892573","pref_question","","51","","","","","<video width ='960' height = '540' style='padding-top:8%' autoplay muted><source src='images/stimuli/wall_pref.mp4' type='video/mp4'></video>","3","right","66%","7","","","","","","","",""
"","8093.000000022585","sequential-stimulus-presentation","151","506171","0.0-31.0","SS1613079892573","pref_reveal","","40","800","8893.000000022585","null","null","","","","","7","","","","novel","","","",""
"","null","html-keyboard-response","152","507210","0.0-32.0-0.0","SS1613079892573","","","null","","","","","<p><img src= images/blank.png width =""200"" height = ""200"" style = ""float:right""></p><p><img src=images/blank.png width =""800"" height = ""200""></p>","","","","","","","","","","","",""
"","6328.000000008615","sequential-stimulus-presentation","153","514362","0.0-32.0-1.0","SS1613079892573","trial","","40","800","7128.000000008615","images/stimuli/spore_stims/complex_14_A_c.gif","images/stimuli/spore_stims/complex_14_B_c.gif","","","","","8","complex_similar","images/stimuli/spore_stims/complex_14_B_c.gif","right","","","","",""
"","null","html-keyboard-response","154","515627","0.0-32.0-0.1","SS1613079892573","","","null","","","","","<p><img src= images/blank.png width =""200"" height = ""200"" style = ""float:right""></p><p><img src=images/blank.png width =""800"" height = ""200""></p>","","","","","","","","","","","",""
"","2021.0000000079162","sequential-stimulus-presentation","155","518459","0.0-32.0-1.1","SS1613079892573","trial","","40","800","2821.0000000079162","images/stimuli/spore_stims/complex_14_A_c.gif","images/stimuli/spore_stims/complex_14_B_c.gif","","","","","8","complex_similar","images/stimuli/spore_stims/complex_14_B_c.gif","right","","","","",""
"","null","html-keyboard-response","156","519462","0.0-32.0-0.2","SS1613079892573","","","null","","","","","<p><img src= images/blank.png width =""200"" height = ""200"" style = ""float:right""></p><p><img src=images/blank.png width =""800"" height = ""200""></p>","","","","","","","","","","","",""
"","2360.000000015134","sequential-stimulus-presentation","157","522634","0.0-32.0-1.2","SS1613079892573","trial","","40","800","3160.000000015134","images/stimuli/spore_stims/complex_14_A_c.gif","images/stimuli/spore_stims/complex_14_B_c.gif","","","","","8","complex_similar","images/stimuli/spore_stims/complex_14_B_c.gif","right","","","","",""
"","null","html-keyboard-response","158","523694","0.0-32.0-0.3","SS1613079892573","","","null","","","","","<p><img src= images/blank.png width =""200"" height = ""200"" style = ""float:right""></p><p><img src=images/blank.png width =""800"" height = ""200""></p>","","","","","","","","","","","",""
"","4651.000000012573","sequential-stimulus-presentation","159","529164","0.0-32.0-1.3","SS1613079892573","trial","","40","800","5451.000000012573","images/stimuli/spore_stims/complex_14_A_c.gif","images/stimuli/spore_stims/complex_14_B_c.gif","","","","","8","complex_similar","images/stimuli/spore_stims/complex_14_A_c.gif","middle","","","","",""
"","null","html-keyboard-response","160","530120","0.0-32.0-0.4","SS1613079892573","","","null","","","","","<p><img src= images/blank.png width =""200"" height = ""200"" style = ""float:right""></p><p><img src=images/blank.png width =""800"" height = ""200""></p>","","","","","","","","","","","",""
"","2053.9999999746215","sequential-stimulus-presentation","161","532987","0.0-32.0-1.4","SS1613079892573","trial","","40","800","2853.9999999746215","images/stimuli/spore_stims/complex_14_A_c.gif","images/stimuli/spore_stims/complex_14_B_c.gif","","","","","8","complex_similar","images/stimuli/spore_stims/complex_14_B_c.gif","right","","","","",""
"","null","html-keyboard-response","162","534233","0.0-32.0-0.5","SS1613079892573","","","null","","","","","<p><img src= images/blank.png width =""200"" height = ""200"" style = ""float:right""></p><p><img src=images/blank.png width =""800"" height = ""200""></p>","","","","","","","","","","","",""
"","1986.0000000044238","sequential-stimulus-presentation","163","537050","0.0-32.0-1.5","SS1613079892573","trial","","40","800","2786.000000004424","images/stimuli/spore_stims/complex_14_A_c.gif","images/stimuli/spore_stims/complex_14_B_c.gif","","","","","8","complex_similar","images/stimuli/spore_stims/complex_14_B_c.gif","right","","","","",""
"","null","html-keyboard-response","164","537912","0.0-32.0-0.6","SS1613079892573","","","null","","","","","<p><img src= images/blank.png width =""200"" height = ""200"" style = ""float:right""></p><p><img src=images/blank.png width =""800"" height = ""200""></p>","","","","","","","","","","","",""
"","1500","sequential-stimulus-presentation","165","540235","0.0-32.0-1.6","SS1613079892573","trial","","40","800","2300","images/stimuli/spore_stims/complex_14_A_c.gif","images/stimuli/spore_stims/complex_14_B_c.gif","","","","","8","complex_similar","images/stimuli/spore_stims/complex_14_B_c.gif","right","","","","",""
"","null","html-keyboard-response","166","541303","0.0-32.0-0.7","SS1613079892573","","","null","","","","","<p><img src= images/blank.png width =""200"" height = ""200"" style = ""float:right""></p><p><img src=images/blank.png width =""800"" height = ""200""></p>","","","","","","","","","","","",""
"","1103.000000002794","sequential-stimulus-presentation","167","543226","0.0-32.0-1.7","SS1613079892573","trial","","40","800","1903.000000002794","images/stimuli/spore_stims/complex_14_A_c.gif","images/stimuli/spore_stims/complex_14_B_c.gif","","","","","8","complex_similar","images/stimuli/spore_stims/complex_14_B_c.gif","right","","","","",""
"","1239.9999999906868","html-keyboard-response","168","544475","0.0-33.0","SS1613079892573","pref_question","","49","","","","","<video width ='960' height = '540' style='padding-top:8%' autoplay muted><source src='images/stimuli/wall_pref.mp4' type='video/mp4'></video>","1","left","25%","8","","","","","","","",""
"","6458.000000013271","sequential-stimulus-presentation","169","551772","0.0-34.0","SS1613079892573","pref_reveal","","40","800","7258.000000013271","null","null","","","","","8","","","","novel","","","",""
"","null","html-keyboard-response","170","553042","0.0-35.0-0.0","SS1613079892573","","","null","","","","","<p><img src= images/blank.png width =""200"" height = ""200"" style = ""float:right""></p><p><img src=images/blank.png width =""800"" height = ""200""></p>","","","","","","","","","","","",""
"","5821.9999999855645","sequential-stimulus-presentation","171","559692","0.0-35.0-1.0","SS1613079892573","trial","","40","800","6621.9999999855645","images/stimuli/spore_stims/complex_17_A_d.gif","images/stimuli/spore_stims/complex_11_A_c.gif","","","","","9","complex_dissimilar","images/stimuli/spore_stims/complex_11_A_c.gif","right","","","","",""
"","null","html-keyboard-response","172","560849","0.0-35.0-0.1","SS1613079892573","","","null","","","","","<p><img src= images/blank.png width =""200"" height = ""200"" style = ""float:right""></p><p><img src=images/blank.png width =""800"" height = ""200""></p>","","","","","","","","","","","",""
"","1886.9999999878928","sequential-stimulus-presentation","173","563547","0.0-35.0-1.1","SS1613079892573","trial","","40","800","2686.999999987893","images/stimuli/spore_stims/complex_17_A_d.gif","images/stimuli/spore_stims/complex_11_A_c.gif","","","","","9","complex_dissimilar","images/stimuli/spore_stims/complex_11_A_c.gif","right","","","","",""
"","null","html-keyboard-response","174","564402","0.0-35.0-0.2","SS1613079892573","","","null","","","","","<p><img src= images/blank.png width =""200"" height = ""200"" style = ""float:right""></p><p><img src=images/blank.png width =""800"" height = ""200""></p>","","","","","","","","","","","",""
"","2109.99999998603","sequential-stimulus-presentation","175","567342","0.0-35.0-1.2","SS1613079892573","trial","","40","800","2909.99999998603","images/stimuli/spore_stims/complex_17_A_d.gif","images/stimuli/spore_stims/complex_11_A_c.gif","","","","","9","complex_dissimilar","images/stimuli/spore_stims/complex_11_A_c.gif","right","","","","",""
"","null","html-keyboard-response","176","568165","0.0-35.0-0.3","SS1613079892573","","","null","","","","","<p><img src= images/blank.png width =""200"" height = ""200"" style = ""float:right""></p><p><img src=images/blank.png width =""800"" height = ""200""></p>","","","","","","","","","","","",""
"","1429.999999993015","sequential-stimulus-presentation","177","570411","0.0-35.0-1.3","SS1613079892573","trial","","40","800","2229.999999993015","images/stimuli/spore_stims/complex_17_A_d.gif","images/stimuli/spore_stims/complex_11_A_c.gif","","","","","9","complex_dissimilar","images/stimuli/spore_stims/complex_11_A_c.gif","right","","","","",""
"","null","html-keyboard-response","178","571700","0.0-35.0-0.4","SS1613079892573","","","null","","","","","<p><img src= images/blank.png width =""200"" height = ""200"" style = ""float:right""></p><p><img src=images/blank.png width =""800"" height = ""200""></p>","","","","","","","","","","","",""
"","1557.0000000006985","sequential-stimulus-presentation","179","574076","0.0-35.0-1.4","SS1613079892573","trial","","40","800","2357.0000000006985","images/stimuli/spore_stims/complex_17_A_d.gif","images/stimuli/spore_stims/complex_11_A_c.gif","","","","","9","complex_dissimilar","images/stimuli/spore_stims/complex_11_A_c.gif","right","","","","",""
"","null","html-keyboard-response","180","575265","0.0-35.0-0.5","SS1613079892573","","","null","","","","","<p><img src= images/blank.png width =""200"" height = ""200"" style = ""float:right""></p><p><img src=images/blank.png width =""800"" height = ""200""></p>","","","","","","","","","","","",""
"","1625","sequential-stimulus-presentation","181","577707","0.0-35.0-1.5","SS1613079892573","trial","","40","800","2425","images/stimuli/spore_stims/complex_17_A_d.gif","images/stimuli/spore_stims/complex_11_A_c.gif","","","","","9","complex_dissimilar","images/stimuli/spore_stims/complex_11_A_c.gif","right","","","","",""
"","null","html-keyboard-response","182","578701","0.0-35.0-0.6","SS1613079892573","","","null","","","","","<p><img src= images/blank.png width =""200"" height = ""200"" style = ""float:right""></p><p><img src=images/blank.png width =""800"" height = ""200""></p>","","","","","","","","","","","",""
"","3821.9999999855645","sequential-stimulus-presentation","183","583355","0.0-35.0-1.6","SS1613079892573","trial","","40","800","4621.9999999855645","images/stimuli/spore_stims/complex_17_A_d.gif","images/stimuli/spore_stims/complex_11_A_c.gif","","","","","9","complex_dissimilar","images/stimuli/spore_stims/complex_17_A_d.gif","middle","","","","",""
"","null","html-keyboard-response","184","584373","0.0-35.0-0.7","SS1613079892573","","","null","","","","","<p><img src= images/blank.png width =""200"" height = ""200"" style = ""float:right""></p><p><img src=images/blank.png width =""800"" height = ""200""></p>","","","","","","","","","","","",""
"","1381.9999999832362","sequential-stimulus-presentation","185","586572","0.0-35.0-1.7","SS1613079892573","trial","","40","800","2181.999999983236","images/stimuli/spore_stims/complex_17_A_d.gif","images/stimuli/spore_stims/complex_11_A_c.gif","","","","","9","complex_dissimilar","images/stimuli/spore_stims/complex_11_A_c.gif","right","","","","",""
"","1239.000000001397","html-keyboard-response","186","587821","0.0-36.0","SS1613079892573","pref_question","","49","","","","","<video width ='960' height = '540' style='padding-top:8%' autoplay muted><source src='images/stimuli/wall_pref.mp4' type='video/mp4'></video>","1","left","25%","9","","","","","","","",""
"","4725.999999995111","sequential-stimulus-presentation","187","593371","0.0-37.0","SS1613079892573","pref_reveal","","40","800","5525.999999995111","null","null","","","","","9","","","","novel","","","",""
"","null","html-keyboard-response","188","594298","0.0-38.0-0.0","SS1613079892573","","","null","","","","","<p><img src= images/blank.png width =""200"" height = ""200"" style = ""float:right""></p><p><img src=images/blank.png width =""800"" height = ""200""></p>","","","","","","","","","","","",""
"","5727.000000013504","sequential-stimulus-presentation","189","600843","0.0-38.0-1.0","SS1613079892573","trial","","40","800","6527.000000013504","images/stimuli/spore_stims/simple_19_A_a.gif","images/stimuli/spore_stims/simple_19_B_a.gif","","","","","10","simple_similar","images/stimuli/spore_stims/simple_19_B_a.gif","middle","","","","",""
"","null","html-keyboard-response","190","602119","0.0-38.0-0.1","SS1613079892573","","","null","","","","","<p><img src= images/blank.png width =""200"" height = ""200"" style = ""float:right""></p><p><img src=images/blank.png width =""800"" height = ""200""></p>","","","","","","","","","","","",""
"","1127.9999999969732","sequential-stimulus-presentation","191","604058","0.0-38.0-1.1","SS1613079892573","trial","","40","800","1927.9999999969732","images/stimuli/spore_stims/simple_19_A_a.gif","images/stimuli/spore_stims/simple_19_B_a.gif","","","","","10","simple_similar","images/stimuli/spore_stims/simple_19_B_a.gif","middle","","","","",""
"","null","html-keyboard-response","192","605361","0.0-38.0-0.2","SS1613079892573","","","null","","","","","<p><img src= images/blank.png width =""200"" height = ""200"" style = ""float:right""></p><p><img src=images/blank.png width =""800"" height = ""200""></p>","","","","","","","","","","","",""
"","919.9999999837019","sequential-stimulus-presentation","193","607099","0.0-38.0-1.2","SS1613079892573","trial","","40","800","1719.9999999837019","images/stimuli/spore_stims/simple_19_A_a.gif","images/stimuli/spore_stims/simple_19_B_a.gif","","","","","10","simple_similar","images/stimuli/spore_stims/simple_19_B_a.gif","middle","","","","",""
"","null","html-keyboard-response","194","608293","0.0-38.0-0.3","SS1613079892573","","","null","","","","","<p><img src= images/blank.png width =""200"" height = ""200"" style = ""float:right""></p><p><img src=images/blank.png width =""800"" height = ""200""></p>","","","","","","","","","","","",""
"","1195.9999999962747","sequential-stimulus-presentation","195","610300","0.0-38.0-1.3","SS1613079892573","trial","","40","800","1995.9999999962747","images/stimuli/spore_stims/simple_19_A_a.gif","images/stimuli/spore_stims/simple_19_B_a.gif","","","","","10","simple_similar","images/stimuli/spore_stims/simple_19_B_a.gif","middle","","","","",""
"","null","html-keyboard-response","196","611456","0.0-38.0-0.4","SS1613079892573","","","null","","","","","<p><img src= images/blank.png width =""200"" height = ""200"" style = ""float:right""></p><p><img src=images/blank.png width =""800"" height = ""200""></p>","","","","","","","","","","","",""
"","1278.0000000202563","sequential-stimulus-presentation","197","613550","0.0-38.0-1.4","SS1613079892573","trial","","40","800","2078.0000000202563","images/stimuli/spore_stims/simple_19_A_a.gif","images/stimuli/spore_stims/simple_19_B_a.gif","","","","","10","simple_similar","images/stimuli/spore_stims/simple_19_B_a.gif","middle","","","","",""
"","null","html-keyboard-response","198","614607","0.0-38.0-0.5","SS1613079892573","","","null","","","","","<p><img src= images/blank.png width =""200"" height = ""200"" style = ""float:right""></p><p><img src=images/blank.png width =""800"" height = ""200""></p>","","","","","","","","","","","",""
"","4673.000000009779","sequential-stimulus-presentation","199","620139","0.0-38.0-1.5","SS1613079892573","trial","","40","800","5473.000000009779","images/stimuli/spore_stims/simple_19_A_a.gif","images/stimuli/spore_stims/simple_19_B_a.gif","","","","","10","simple_similar","images/stimuli/spore_stims/simple_19_A_a.gif","right","","","","",""
"","null","html-keyboard-response","200","621431","0.0-38.0-0.6","SS1613079892573","","","null","","","","","<p><img src= images/blank.png width =""200"" height = ""200"" style = ""float:right""></p><p><img src=images/blank.png width =""800"" height = ""200""></p>","","","","","","","","","","","",""
"","1410.9999999927823","sequential-stimulus-presentation","201","623676","0.0-38.0-1.6","SS1613079892573","trial","","40","800","2210.9999999927823","images/stimuli/spore_stims/simple_19_A_a.gif","images/stimuli/spore_stims/simple_19_B_a.gif","","","","","10","simple_similar","images/stimuli/spore_stims/simple_19_B_a.gif","middle","","","","",""
"","null","html-keyboard-response","202","624500","0.0-38.0-0.7","SS1613079892573","","","null","","","","","<p><img src= images/blank.png width =""200"" height = ""200"" style = ""float:right""></p><p><img src=images/blank.png width =""800"" height = ""200""></p>","","","","","","","","","","","",""
"","1160.0000000034925","sequential-stimulus-presentation","203","626476","0.0-38.0-1.7","SS1613079892573","trial","","40","800","1960.0000000034925","images/stimuli/spore_stims/simple_19_A_a.gif","images/stimuli/spore_stims/simple_19_B_a.gif","","","","","10","simple_similar","images/stimuli/spore_stims/simple_19_B_a.gif","middle","","","","",""
"","1195.000000006985","html-keyboard-response","204","627723","0.0-39.0","SS1613079892573","pref_question","","49","","","","","<video width ='960' height = '540' style='padding-top:8%' autoplay muted><source src='images/stimuli/wall_pref.mp4' type='video/mp4'></video>","1","left","25%","10","","","","","","","",""
"","4442.000000010012","sequential-stimulus-presentation","205","633019","0.0-40.0","SS1613079892573","pref_reveal","","40","800","5242.000000010012","null","null","","","","","10","","","","novel","","","",""
"","null","html-keyboard-response","206","634332","0.0-41.0-0.0","SS1613079892573","","","null","","","","","<p><img src= images/blank.png width =""200"" height = ""200"" style = ""float:right""></p><p><img src=images/blank.png width =""800"" height = ""200""></p>","","","","","","","","","","","",""
"","5836.999999999534","sequential-stimulus-presentation","207","641020","0.0-41.0-1.0","SS1613079892573","trial","","40","800","6636.999999999534","images/stimuli/spore_stims/simple_11_B_b.gif","images/stimuli/spore_stims/simple_07_A_a.gif","","","","","11","simple_dissimilar","images/stimuli/spore_stims/simple_07_A_a.gif","right","","","","",""
"","null","html-keyboard-response","208","642183","0.0-41.0-0.1","SS1613079892573","","","null","","","","","<p><img src= images/blank.png width =""200"" height = ""200"" style = ""float:right""></p><p><img src=images/blank.png width =""800"" height = ""200""></p>","","","","","","","","","","","",""
"","1263.9999999955762","sequential-stimulus-presentation","209","644298","0.0-41.0-1.1","SS1613079892573","trial","","40","800","2063.999999995576","images/stimuli/spore_stims/simple_11_B_b.gif","images/stimuli/spore_stims/simple_07_A_a.gif","","","","","11","simple_dissimilar","images/stimuli/spore_stims/simple_07_A_a.gif","right","","","","",""
"","null","html-keyboard-response","210","645290","0.0-41.0-0.2","SS1613079892573","","","null","","","","","<p><img src= images/blank.png width =""200"" height = ""200"" style = ""float:right""></p><p><img src=images/blank.png width =""800"" height = ""200""></p>","","","","","","","","","","","",""
"","1712.9999999888241","sequential-stimulus-presentation","211","647818","0.0-41.0-1.2","SS1613079892573","trial","","40","800","2512.999999988824","images/stimuli/spore_stims/simple_11_B_b.gif","images/stimuli/spore_stims/simple_07_A_a.gif","","","","","11","simple_dissimilar","images/stimuli/spore_stims/simple_07_A_a.gif","right","","","","",""
"","null","html-keyboard-response","212","648942","0.0-41.0-0.3","SS1613079892573","","","null","","","","","<p><img src= images/blank.png width =""200"" height = ""200"" style = ""float:right""></p><p><img src=images/blank.png width =""800"" height = ""200""></p>","","","","","","","","","","","",""
"","1567.0000000100117","sequential-stimulus-presentation","213","651339","0.0-41.0-1.3","SS1613079892573","trial","","40","800","2367.0000000100117","images/stimuli/spore_stims/simple_11_B_b.gif","images/stimuli/spore_stims/simple_07_A_a.gif","","","","","11","simple_dissimilar","images/stimuli/spore_stims/simple_07_A_a.gif","right","","","","",""
"","null","html-keyboard-response","214","652494","0.0-41.0-0.4","SS1613079892573","","","null","","","","","<p><img src= images/blank.png width =""200"" height = ""200"" style = ""float:right""></p><p><img src=images/blank.png width =""800"" height = ""200""></p>","","","","","","","","","","","",""
"","942.9999999993015","sequential-stimulus-presentation","215","654283","0.0-41.0-1.4","SS1613079892573","trial","","40","800","1742.9999999993015","images/stimuli/spore_stims/simple_11_B_b.gif","images/stimuli/spore_stims/simple_07_A_a.gif","","","","","11","simple_dissimilar","images/stimuli/spore_stims/simple_07_A_a.gif","right","","","","",""
"","null","html-keyboard-response","216","655492","0.0-41.0-0.5","SS1613079892573","","","null","","","","","<p><img src= images/blank.png width =""200"" height = ""200"" style = ""float:right""></p><p><img src=images/blank.png width =""800"" height = ""200""></p>","","","","","","","","","","","",""
"","7050.000000017462","sequential-stimulus-presentation","217","663356","0.0-41.0-1.5","SS1613079892573","trial","","40","800","7850.000000017462","images/stimuli/spore_stims/simple_11_B_b.gif","images/stimuli/spore_stims/simple_07_A_a.gif","","","","","11","simple_dissimilar","images/stimuli/spore_stims/simple_11_B_b.gif","left","","","","",""
"","null","html-keyboard-response","218","664623","0.0-41.0-0.6","SS1613079892573","","","null","","","","","<p><img src= images/blank.png width =""200"" height = ""200"" style = ""float:right""></p><p><img src=images/blank.png width =""800"" height = ""200""></p>","","","","","","","","","","","",""
"","825.0000000116415","sequential-stimulus-presentation","219","666266","0.0-41.0-1.6","SS1613079892573","trial","","40","800","1625.0000000116415","images/stimuli/spore_stims/simple_11_B_b.gif","images/stimuli/spore_stims/simple_07_A_a.gif","","","","","11","simple_dissimilar","images/stimuli/spore_stims/simple_07_A_a.gif","right","","","","",""
"","null","html-keyboard-response","220","667242","0.0-41.0-0.7","SS1613079892573","","","null","","","","","<p><img src= images/blank.png width =""200"" height = ""200"" style = ""float:right""></p><p><img src=images/blank.png width =""800"" height = ""200""></p>","","","","","","","","","","","",""
"","592.9999999934807","sequential-stimulus-presentation","221","668650","0.0-41.0-1.7","SS1613079892573","trial","","40","800","1392.9999999934807","images/stimuli/spore_stims/simple_11_B_b.gif","images/stimuli/spore_stims/simple_07_A_a.gif","","","","","11","simple_dissimilar","images/stimuli/spore_stims/simple_07_A_a.gif","right","","","","",""
"","1268.000000010943","html-keyboard-response","222","669931","0.0-42.0","SS1613079892573","pref_question","","50","","","","","<video width ='960' height = '540' style='padding-top:8%' autoplay muted><source src='images/stimuli/wall_pref.mp4' type='video/mp4'></video>","2","middle","45%","11","","","","","","","",""
"","4690.000000002328","sequential-stimulus-presentation","223","675436","0.0-43.0","SS1613079892573","pref_reveal","","40","800","5490.000000002328","null","null","","","","","11","","","","novel","","","",""
"","null","html-keyboard-response","224","676337","0.0-44.0-0.0","SS1613079892573","","","null","","","","","<p><img src= images/blank.png width =""200"" height = ""200"" style = ""float:right""></p><p><img src=images/blank.png width =""800"" height = ""200""></p>","","","","","","","","","","","",""
"","9703.000000008615","sequential-stimulus-presentation","225","686860","0.0-44.0-1.0","SS1613079892573","trial","","40","800","10503.000000008615","images/stimuli/spore_stims/simple_13_B_a.gif","images/stimuli/spore_stims/simple_08_B_d.gif","","","","","12","simple_dissimilar","images/stimuli/spore_stims/simple_08_B_d.gif","left","","","","",""
"","null","html-keyboard-response","226","687785","0.0-44.0-0.1","SS1613079892573","","","null","","","","","<p><img src= images/blank.png width =""200"" height = ""200"" style = ""float:right""></p><p><img src=images/blank.png width =""800"" height = ""200""></p>","","","","","","","","","","","",""
"","1880.0000000046566","sequential-stimulus-presentation","227","690491","0.0-44.0-1.1","SS1613079892573","trial","","40","800","2680.0000000046566","images/stimuli/spore_stims/simple_13_B_a.gif","images/stimuli/spore_stims/simple_08_B_d.gif","","","","","12","simple_dissimilar","images/stimuli/spore_stims/simple_08_B_d.gif","left","","","","",""
"","null","html-keyboard-response","228","691724","0.0-44.0-0.2","SS1613079892573","","","null","","","","","<p><img src= images/blank.png width =""200"" height = ""200"" style = ""float:right""></p><p><img src=images/blank.png width =""800"" height = ""200""></p>","","","","","","","","","","","",""
"","2438.9999999839347","sequential-stimulus-presentation","229","694987","0.0-44.0-1.2","SS1613079892573","trial","","40","800","3238.9999999839347","images/stimuli/spore_stims/simple_13_B_a.gif","images/stimuli/spore_stims/simple_08_B_d.gif","","","","","12","simple_dissimilar","images/stimuli/spore_stims/simple_08_B_d.gif","left","","","","",""
"","null","html-keyboard-response","230","696220","0.0-44.0-0.3","SS1613079892573","","","null","","","","","<p><img src= images/blank.png width =""200"" height = ""200"" style = ""float:right""></p><p><img src=images/blank.png width =""800"" height = ""200""></p>","","","","","","","","","","","",""
"","2030.9999999881256","sequential-stimulus-presentation","231","699071","0.0-44.0-1.3","SS1613079892573","trial","","40","800","2830.9999999881256","images/stimuli/spore_stims/simple_13_B_a.gif","images/stimuli/spore_stims/simple_08_B_d.gif","","","","","12","simple_dissimilar","images/stimuli/spore_stims/simple_08_B_d.gif","left","","","","",""
"","null","html-keyboard-response","232","700053","0.0-44.0-0.4","SS1613079892573","","","null","","","","","<p><img src= images/blank.png width =""200"" height = ""200"" style = ""float:right""></p><p><img src=images/blank.png width =""800"" height = ""200""></p>","","","","","","","","","","","",""
"","7053.9999999746215","sequential-stimulus-presentation","233","707995","0.0-44.0-1.4","SS1613079892573","trial","","40","800","7853.9999999746215","images/stimuli/spore_stims/simple_13_B_a.gif","images/stimuli/spore_stims/simple_08_B_d.gif","","","","","12","simple_dissimilar","images/stimuli/spore_stims/simple_13_B_a.gif","middle","","","","",""
"","null","html-keyboard-response","234","708825","0.0-44.0-0.5","SS1613079892573","","","null","","","","","<p><img src= images/blank.png width =""200"" height = ""200"" style = ""float:right""></p><p><img src=images/blank.png width =""800"" height = ""200""></p>","","","","","","","","","","","",""
"","1206.000000005588","sequential-stimulus-presentation","235","710860","0.0-44.0-1.5","SS1613079892573","trial","","40","800","2006.000000005588","images/stimuli/spore_stims/simple_13_B_a.gif","images/stimuli/spore_stims/simple_08_B_d.gif","","","","","12","simple_dissimilar","images/stimuli/spore_stims/simple_08_B_d.gif","left","","","","",""
"","null","html-keyboard-response","236","711936","0.0-44.0-0.6","SS1613079892573","","","null","","","","","<p><img src= images/blank.png width =""200"" height = ""200"" style = ""float:right""></p><p><img src=images/blank.png width =""800"" height = ""200""></p>","","","","","","","","","","","",""
"","972.9999999981374","sequential-stimulus-presentation","237","713739","0.0-44.0-1.6","SS1613079892573","trial","","40","800","1772.9999999981374","images/stimuli/spore_stims/simple_13_B_a.gif","images/stimuli/spore_stims/simple_08_B_d.gif","","","","","12","simple_dissimilar","images/stimuli/spore_stims/simple_08_B_d.gif","left","","","","",""
"","null","html-keyboard-response","238","714886","0.0-44.0-0.7","SS1613079892573","","","null","","","","","<p><img src= images/blank.png width =""200"" height = ""200"" style = ""float:right""></p><p><img src=images/blank.png width =""800"" height = ""200""></p>","","","","","","","","","","","",""
"","954.9999999871943","sequential-stimulus-presentation","239","716715","0.0-44.0-1.7","SS1613079892573","trial","","40","800","1754.9999999871943","images/stimuli/spore_stims/simple_13_B_a.gif","images/stimuli/spore_stims/simple_08_B_d.gif","","","","","12","simple_dissimilar","images/stimuli/spore_stims/simple_08_B_d.gif","left","","","","",""
"","1554.999999993015","html-keyboard-response","240","718285","0.0-45.0","SS1613079892573","pref_question","","51","","","","","<video width ='960' height = '540' style='padding-top:8%' autoplay muted><source src='images/stimuli/wall_pref.mp4' type='video/mp4'></video>","3","right","66%","12","","","","","","","",""
"","6114.999999990687","sequential-stimulus-presentation","241","725212","0.0-46.0","SS1613079892573","pref_reveal","","40","800","6914.999999990687","null","null","","","","","12","","","","novel","","","",""
"","null","html-keyboard-response","242","726079","0.0-47.0-0.0","SS1613079892573","","","null","","","","","<p><img src= images/blank.png width =""200"" height = ""200"" style = ""float:right""></p><p><img src=images/blank.png width =""800"" height = ""200""></p>","","","","","","","","","","","",""
"","4407.999999995809","sequential-stimulus-presentation","243","731323","0.0-47.0-1.0","SS1613079892573","trial","","40","800","5207.999999995809","images/stimuli/spore_stims/simple_07_B_d.gif","images/stimuli/spore_stims/simple_05_A_a.gif","","","","","13","simple_dissimilar","images/stimuli/spore_stims/simple_05_A_a.gif","middle","","","","",""
"","null","html-keyboard-response","244","732256","0.0-47.0-0.1","SS1613079892573","","","null","","","","","<p><img src= images/blank.png width =""200"" height = ""200"" style = ""float:right""></p><p><img src=images/blank.png width =""800"" height = ""200""></p>","","","","","","","","","","","",""
"","1076.0000000009313","sequential-stimulus-presentation","245","734161","0.0-47.0-1.1","SS1613079892573","trial","","40","800","1876.0000000009313","images/stimuli/spore_stims/simple_07_B_d.gif","images/stimuli/spore_stims/simple_05_A_a.gif","","","","","13","simple_dissimilar","images/stimuli/spore_stims/simple_05_A_a.gif","middle","","","","",""
"","null","html-keyboard-response","246","735100","0.0-47.0-0.2","SS1613079892573","","","null","","","","","<p><img src= images/blank.png width =""200"" height = ""200"" style = ""float:right""></p><p><img src=images/blank.png width =""800"" height = ""200""></p>","","","","","","","","","","","",""
"","1429.999999993015","sequential-stimulus-presentation","247","737361","0.0-47.0-1.2","SS1613079892573","trial","","40","800","2229.999999993015","images/stimuli/spore_stims/simple_07_B_d.gif","images/stimuli/spore_stims/simple_05_A_a.gif","","","","","13","simple_dissimilar","images/stimuli/spore_stims/simple_05_A_a.gif","middle","","","","",""
"","null","html-keyboard-response","248","738433","0.0-47.0-0.3","SS1613079892573","","","null","","","","","<p><img src= images/blank.png width =""200"" height = ""200"" style = ""float:right""></p><p><img src=images/blank.png width =""800"" height = ""200""></p>","","","","","","","","","","","",""
"","705.0000000162981","sequential-stimulus-presentation","249","740090","0.0-47.0-1.3","SS1613079892573","trial","","40","800","1505.0000000162981","images/stimuli/spore_stims/simple_07_B_d.gif","images/stimuli/spore_stims/simple_05_A_a.gif","","","","","13","simple_dissimilar","images/stimuli/spore_stims/simple_05_A_a.gif","middle","","","","",""
"","null","html-keyboard-response","250","741218","0.0-47.0-0.4","SS1613079892573","","","null","","","","","<p><img src= images/blank.png width =""200"" height = ""200"" style = ""float:right""></p><p><img src=images/blank.png width =""800"" height = ""200""></p>","","","","","","","","","","","",""
"","1638.0000000062864","sequential-stimulus-presentation","251","743675","0.0-47.0-1.4","SS1613079892573","trial","","40","800","2438.0000000062864","images/stimuli/spore_stims/simple_07_B_d.gif","images/stimuli/spore_stims/simple_05_A_a.gif","","","","","13","simple_dissimilar","images/stimuli/spore_stims/simple_05_A_a.gif","middle","","","","",""
"","null","html-keyboard-response","252","744683","0.0-47.0-0.5","SS1613079892573","","","null","","","","","<p><img src= images/blank.png width =""200"" height = ""200"" style = ""float:right""></p><p><img src=images/blank.png width =""800"" height = ""200""></p>","","","","","","","","","","","",""
"","4755.999999993946","sequential-stimulus-presentation","253","750253","0.0-47.0-1.5","SS1613079892573","trial","","40","800","5555.999999993946","images/stimuli/spore_stims/simple_07_B_d.gif","images/stimuli/spore_stims/simple_05_A_a.gif","","","","","13","simple_dissimilar","images/stimuli/spore_stims/simple_07_B_d.gif","left","","","","",""
"","null","html-keyboard-response","254","751165","0.0-47.0-0.6","SS1613079892573","","","null","","","","","<p><img src= images/blank.png width =""200"" height = ""200"" style = ""float:right""></p><p><img src=images/blank.png width =""800"" height = ""200""></p>","","","","","","","","","","","",""
"","1148.9999999757856","sequential-stimulus-presentation","255","753131","0.0-47.0-1.6","SS1613079892573","trial","","40","800","1948.9999999757856","images/stimuli/spore_stims/simple_07_B_d.gif","images/stimuli/spore_stims/simple_05_A_a.gif","","","","","13","simple_dissimilar","images/stimuli/spore_stims/simple_05_A_a.gif","middle","","","","",""
"","null","html-keyboard-response","256","754313","0.0-47.0-0.7","SS1613079892573","","","null","","","","","<p><img src= images/blank.png width =""200"" height = ""200"" style = ""float:right""></p><p><img src=images/blank.png width =""800"" height = ""200""></p>","","","","","","","","","","","",""
"","1134.0000000200234","sequential-stimulus-presentation","257","756270","0.0-47.0-1.7","SS1613079892573","trial","","40","800","1934.0000000200234","images/stimuli/spore_stims/simple_07_B_d.gif","images/stimuli/spore_stims/simple_05_A_a.gif","","","","","13","simple_dissimilar","images/stimuli/spore_stims/simple_05_A_a.gif","middle","","","","",""
"","1173.9999999990687","html-keyboard-response","258","757456","0.0-48.0","SS1613079892573","pref_question","","51","","","","","<video width ='960' height = '540' style='padding-top:8%' autoplay muted><source src='images/stimuli/wall_pref.mp4' type='video/mp4'></video>","3","right","66%","13","","","","","","","",""
"","7074.000000022352","sequential-stimulus-presentation","259","765357","0.0-49.0","SS1613079892573","pref_reveal","","40","800","7874.000000022352","null","null","","","","","13","","","","novel","","","",""
"","null","html-keyboard-response","260","766175","0.0-50.0-0.0","SS1613079892573","","","null","","","","","<p><img src= images/blank.png width =""200"" height = ""200"" style = ""float:right""></p><p><img src=images/blank.png width =""800"" height = ""200""></p>","","","","","","","","","","","",""
"","7097.999999998137","sequential-stimulus-presentation","261","774091","0.0-50.0-1.0","SS1613079892573","trial","","40","800","7897.999999998137","images/stimuli/spore_stims/complex_01_A_d.gif","images/stimuli/spore_stims/complex_01_B_d.gif","","","","","14","complex_similar","images/stimuli/spore_stims/complex_01_B_d.gif","middle","","","","",""
"","null","html-keyboard-response","262","774919","0.0-50.0-0.1","SS1613079892573","","","null","","","","","<p><img src= images/blank.png width =""200"" height = ""200"" style = ""float:right""></p><p><img src=images/blank.png width =""800"" height = ""200""></p>","","","","","","","","","","","",""
"","769.0000000002328","sequential-stimulus-presentation","263","776541","0.0-50.0-1.1","SS1613079892573","trial","","40","800","1569.0000000002328","images/stimuli/spore_stims/complex_01_A_d.gif","images/stimuli/spore_stims/complex_01_B_d.gif","","","","","14","complex_similar","images/stimuli/spore_stims/complex_01_B_d.gif","middle","","","","",""
"","null","html-keyboard-response","264","777775","0.0-50.0-0.2","SS1613079892573","","","null","","","","","<p><img src= images/blank.png width =""200"" height = ""200"" style = ""float:right""></p><p><img src=images/blank.png width =""800"" height = ""200""></p>","","","","","","","","","","","",""
"","1300.0000000174623","sequential-stimulus-presentation","265","779890","0.0-50.0-1.2","SS1613079892573","trial","","40","800","2100.0000000174623","images/stimuli/spore_stims/complex_01_A_d.gif","images/stimuli/spore_stims/complex_01_B_d.gif","","","","","14","complex_similar","images/stimuli/spore_stims/complex_01_B_d.gif","middle","","","","",""
"","null","html-keyboard-response","266","780856","0.0-50.0-0.3","SS1613079892573","","","null","","","","","<p><img src= images/blank.png width =""200"" height = ""200"" style = ""float:right""></p><p><img src=images/blank.png width =""800"" height = ""200""></p>","","","","","","","","","","","",""
"","4885.999999998603","sequential-stimulus-presentation","267","786556","0.0-50.0-1.3","SS1613079892573","trial","","40","800","5685.999999998603","images/stimuli/spore_stims/complex_01_A_d.gif","images/stimuli/spore_stims/complex_01_B_d.gif","","","","","14","complex_similar","images/stimuli/spore_stims/complex_01_A_d.gif","left","","","","",""
"","null","html-keyboard-response","268","787775","0.0-50.0-0.4","SS1613079892573","","","null","","","","","<p><img src= images/blank.png width =""200"" height = ""200"" style = ""float:right""></p><p><img src=images/blank.png width =""800"" height = ""200""></p>","","","","","","","","","","","",""
"","2972.0000000088476","sequential-stimulus-presentation","269","791564","0.0-50.0-1.4","SS1613079892573","trial","","40","800","3772.0000000088476","images/stimuli/spore_stims/complex_01_A_d.gif","images/stimuli/spore_stims/complex_01_B_d.gif","","","","","14","complex_similar","images/stimuli/spore_stims/complex_01_B_d.gif","middle","","","","",""
"","null","html-keyboard-response","270","792774","0.0-50.0-0.5","SS1613079892573","","","null","","","","","<p><img src= images/blank.png width =""200"" height = ""200"" style = ""float:right""></p><p><img src=images/blank.png width =""800"" height = ""200""></p>","","","","","","","","","","","",""
"","947.0000000146683","sequential-stimulus-presentation","271","794539","0.0-50.0-1.5","SS1613079892573","trial","","40","800","1747.0000000146683","images/stimuli/spore_stims/complex_01_A_d.gif","images/stimuli/spore_stims/complex_01_B_d.gif","","","","","14","complex_similar","images/stimuli/spore_stims/complex_01_B_d.gif","middle","","","","",""
"","null","html-keyboard-response","272","795811","0.0-50.0-0.6","SS1613079892573","","","null","","","","","<p><img src= images/blank.png width =""200"" height = ""200"" style = ""float:right""></p><p><img src=images/blank.png width =""800"" height = ""200""></p>","","","","","","","","","","","",""
"","782.999999995809","sequential-stimulus-presentation","273","797420","0.0-50.0-1.6","SS1613079892573","trial","","40","800","1582.999999995809","images/stimuli/spore_stims/complex_01_A_d.gif","images/stimuli/spore_stims/complex_01_B_d.gif","","","","","14","complex_similar","images/stimuli/spore_stims/complex_01_B_d.gif","middle","","","","",""
"","null","html-keyboard-response","274","798314","0.0-50.0-0.7","SS1613079892573","","","null","","","","","<p><img src= images/blank.png width =""200"" height = ""200"" style = ""float:right""></p><p><img src=images/blank.png width =""800"" height = ""200""></p>","","","","","","","","","","","",""
"","1747.9999999923166","sequential-stimulus-presentation","275","800879","0.0-50.0-1.7","SS1613079892573","trial","","40","800","2547.9999999923166","images/stimuli/spore_stims/complex_01_A_d.gif","images/stimuli/spore_stims/complex_01_B_d.gif","","","","","14","complex_similar","images/stimuli/spore_stims/complex_01_B_d.gif","middle","","","","",""
"","1462.9999999888241","html-keyboard-response","276","802382","0.0-51.0","SS1613079892573","pref_question","","51","","","","","<video width ='960' height = '540' style='padding-top:8%' autoplay muted><source src='images/stimuli/wall_pref.mp4' type='video/mp4'></video>","3","right","66%","14","","","","","","","",""
"","6463.000000017928","sequential-stimulus-presentation","277","809660","0.0-52.0","SS1613079892573","pref_reveal","","40","800","7263.000000017928","null","null","","","","","14","","","","novel","","","",""
"","null","html-keyboard-response","278","810732","0.0-53.0-0.0","SS1613079892573","","","null","","","","","<p><img src= images/blank.png width =""200"" height = ""200"" style = ""float:right""></p><p><img src=images/blank.png width =""800"" height = ""200""></p>","","","","","","","","","","","",""
"","3209.999999991851","sequential-stimulus-presentation","279","814762","0.0-53.0-1.0","SS1613079892573","trial","","40","800","4009.999999991851","images/stimuli/spore_stims/simple_10_B_c.gif","images/stimuli/spore_stims/simple_10_A_c.gif","","","","","15","simple_similar","images/stimuli/spore_stims/simple_10_A_c.gif","left","","","","",""
"","null","html-keyboard-response","280","816011","0.0-53.0-0.1","SS1613079892573","","","null","","","","","<p><img src= images/blank.png width =""200"" height = ""200"" style = ""float:right""></p><p><img src=images/blank.png width =""800"" height = ""200""></p>","","","","","","","","","","","",""
"","1342.9999999934807","sequential-stimulus-presentation","281","818187","0.0-53.0-1.1","SS1613079892573","trial","","40","800","2142.9999999934807","images/stimuli/spore_stims/simple_10_B_c.gif","images/stimuli/spore_stims/simple_10_A_c.gif","","","","","15","simple_similar","images/stimuli/spore_stims/simple_10_A_c.gif","left","","","","",""
"","null","html-keyboard-response","282","819307","0.0-53.0-0.2","SS1613079892573","","","null","","","","","<p><img src= images/blank.png width =""200"" height = ""200"" style = ""float:right""></p><p><img src=images/blank.png width =""800"" height = ""200""></p>","","","","","","","","","","","",""
"","1567.0000000100117","sequential-stimulus-presentation","283","821694","0.0-53.0-1.2","SS1613079892573","trial","","40","800","2367.0000000100117","images/stimuli/spore_stims/simple_10_B_c.gif","images/stimuli/spore_stims/simple_10_A_c.gif","","","","","15","simple_similar","images/stimuli/spore_stims/simple_10_A_c.gif","left","","","","",""
"","null","html-keyboard-response","284","822743","0.0-53.0-0.3","SS1613079892573","","","null","","","","","<p><img src= images/blank.png width =""200"" height = ""200"" style = ""float:right""></p><p><img src=images/blank.png width =""800"" height = ""200""></p>","","","","","","","","","","","",""
"","1022.9999999864958","sequential-stimulus-presentation","285","824618","0.0-53.0-1.3","SS1613079892573","trial","","40","800","1822.9999999864958","images/stimuli/spore_stims/simple_10_B_c.gif","images/stimuli/spore_stims/simple_10_A_c.gif","","","","","15","simple_similar","images/stimuli/spore_stims/simple_10_A_c.gif","left","","","","",""
"","null","html-keyboard-response","286","825849","0.0-53.0-0.4","SS1613079892573","","","null","","","","","<p><img src= images/blank.png width =""200"" height = ""200"" style = ""float:right""></p><p><img src=images/blank.png width =""800"" height = ""200""></p>","","","","","","","","","","","",""
"","812.9999999946449","sequential-stimulus-presentation","287","827482","0.0-53.0-1.4","SS1613079892573","trial","","40","800","1612.999999994645","images/stimuli/spore_stims/simple_10_B_c.gif","images/stimuli/spore_stims/simple_10_A_c.gif","","","","","15","simple_similar","images/stimuli/spore_stims/simple_10_A_c.gif","left","","","","",""
"","null","html-keyboard-response","288","828597","0.0-53.0-0.5","SS1613079892573","","","null","","","","","<p><img src= images/blank.png width =""200"" height = ""200"" style = ""float:right""></p><p><img src=images/blank.png width =""800"" height = ""200""></p>","","","","","","","","","","","",""
"","964.0000000072177","sequential-stimulus-presentation","289","830394","0.0-53.0-1.5","SS1613079892573","trial","","40","800","1764.0000000072177","images/stimuli/spore_stims/simple_10_B_c.gif","images/stimuli/spore_stims/simple_10_A_c.gif","","","","","15","simple_similar","images/stimuli/spore_stims/simple_10_A_c.gif","left","","","","",""
"","null","html-keyboard-response","290","831499","0.0-53.0-0.6","SS1613079892573","","","null","","","","","<p><img src= images/blank.png width =""200"" height = ""200"" style = ""float:right""></p><p><img src=images/blank.png width =""800"" height = ""200""></p>","","","","","","","","","","","",""
"","3573.000000003958","sequential-stimulus-presentation","291","835914","0.0-53.0-1.6","SS1613079892573","trial","","40","800","4373.000000003958","images/stimuli/spore_stims/simple_10_B_c.gif","images/stimuli/spore_stims/simple_10_A_c.gif","","","","","15","simple_similar","images/stimuli/spore_stims/simple_10_B_c.gif","middle","","","","",""
"","null","html-keyboard-response","292","836779","0.0-53.0-0.7","SS1613079892573","","","null","","","","","<p><img src= images/blank.png width =""200"" height = ""200"" style = ""float:right""></p><p><img src=images/blank.png width =""800"" height = ""200""></p>","","","","","","","","","","","",""
"","1968.9999999827705","sequential-stimulus-presentation","293","839562","0.0-53.0-1.7","SS1613079892573","trial","","40","800","2768.9999999827705","images/stimuli/spore_stims/simple_10_B_c.gif","images/stimuli/spore_stims/simple_10_A_c.gif","","","","","15","simple_similar","images/stimuli/spore_stims/simple_10_A_c.gif","left","","","","",""
"","1380.9999999939464","html-keyboard-response","294","840954","0.0-54.0","SS1613079892573","pref_question","","51","","","","","<video width ='960' height = '540' style='padding-top:8%' autoplay muted><source src='images/stimuli/wall_pref.mp4' type='video/mp4'></video>","3","right","66%","15","","","","","","","",""
"","4850.000000005821","sequential-stimulus-presentation","295","846683","0.0-55.0","SS1613079892573","pref_reveal","","40","800","5650.000000005821","null","null","","","","","15","","","","novel","","","",""
"","null","html-keyboard-response","296","847964","0.0-56.0-0.0","SS1613079892573","","","null","","","","","<p><img src= images/blank.png width =""200"" height = ""200"" style = ""float:right""></p><p><img src=images/blank.png width =""800"" height = ""200""></p>","","","","","","","","","","","",""
"","4308.000000019092","sequential-stimulus-presentation","297","853098","0.0-56.0-1.0","SS1613079892573","trial","","40","800","5108.000000019092","images/stimuli/spore_stims/simple_03_A_a.gif","images/stimuli/spore_stims/simple_03_B_a.gif","","","","","16","simple_similar","images/stimuli/spore_stims/simple_03_B_a.gif","left","","","","",""
"","null","html-keyboard-response","298","854134","0.0-56.0-0.1","SS1613079892573","","","null","","","","","<p><img src= images/blank.png width =""200"" height = ""200"" style = ""float:right""></p><p><img src=images/blank.png width =""800"" height = ""200""></p>","","","","","","","","","","","",""
"","3236.000000004424","sequential-stimulus-presentation","299","858187","0.0-56.0-1.1","SS1613079892573","trial","","40","800","4036.000000004424","images/stimuli/spore_stims/simple_03_A_a.gif","images/stimuli/spore_stims/simple_03_B_a.gif","","","","","16","simple_similar","images/stimuli/spore_stims/simple_03_B_a.gif","left","","","","",""
"","null","html-keyboard-response","300","859017","0.0-56.0-0.2","SS1613079892573","","","null","","","","","<p><img src= images/blank.png width =""200"" height = ""200"" style = ""float:right""></p><p><img src=images/blank.png width =""800"" height = ""200""></p>","","","","","","","","","","","",""
"","921.9999999913853","sequential-stimulus-presentation","301","860778","0.0-56.0-1.2","SS1613079892573","trial","","40","800","1721.9999999913853","images/stimuli/spore_stims/simple_03_A_a.gif","images/stimuli/spore_stims/simple_03_B_a.gif","","","","","16","simple_similar","images/stimuli/spore_stims/simple_03_B_a.gif","left","","","","",""
"","null","html-keyboard-response","302","862087","0.0-56.0-0.3","SS1613079892573","","","null","","","","","<p><img src= images/blank.png width =""200"" height = ""200"" style = ""float:right""></p><p><img src=images/blank.png width =""800"" height = ""200""></p>","","","","","","","","","","","",""
"","1298.9999999990687","sequential-stimulus-presentation","303","864202","0.0-56.0-1.3","SS1613079892573","trial","","40","800","2098.9999999990687","images/stimuli/spore_stims/simple_03_A_a.gif","images/stimuli/spore_stims/simple_03_B_a.gif","","","","","16","simple_similar","images/stimuli/spore_stims/simple_03_B_a.gif","left","","","","",""
"","null","html-keyboard-response","304","865348","0.0-56.0-0.4","SS1613079892573","","","null","","","","","<p><img src= images/blank.png width =""200"" height = ""200"" style = ""float:right""></p><p><img src=images/blank.png width =""800"" height = ""200""></p>","","","","","","","","","","","",""
"","2062.000000005355","sequential-stimulus-presentation","305","868235","0.0-56.0-1.4","SS1613079892573","trial","","40","800","2862.000000005355","images/stimuli/spore_stims/simple_03_A_a.gif","images/stimuli/spore_stims/simple_03_B_a.gif","","","","","16","simple_similar","images/stimuli/spore_stims/simple_03_B_a.gif","left","","","","",""
"","null","html-keyboard-response","306","869185","0.0-56.0-0.5","SS1613079892573","","","null","","","","","<p><img src= images/blank.png width =""200"" height = ""200"" style = ""float:right""></p><p><img src=images/blank.png width =""800"" height = ""200""></p>","","","","","","","","","","","",""
"","4562.999999994645","sequential-stimulus-presentation","307","874570","0.0-56.0-1.5","SS1613079892573","trial","","40","800","5362.999999994645","images/stimuli/spore_stims/simple_03_A_a.gif","images/stimuli/spore_stims/simple_03_B_a.gif","","","","","16","simple_similar","images/stimuli/spore_stims/simple_03_A_a.gif","middle","","","","",""
"","null","html-keyboard-response","308","875384","0.0-56.0-0.6","SS1613079892573","","","null","","","","","<p><img src= images/blank.png width =""200"" height = ""200"" style = ""float:right""></p><p><img src=images/blank.png width =""800"" height = ""200""></p>","","","","","","","","","","","",""
"","799.9999999883585","sequential-stimulus-presentation","309","877010","0.0-56.0-1.6","SS1613079892573","trial","","40","800","1599.9999999883585","images/stimuli/spore_stims/simple_03_A_a.gif","images/stimuli/spore_stims/simple_03_B_a.gif","","","","","16","simple_similar","images/stimuli/spore_stims/simple_03_B_a.gif","left","","","","",""
"","null","html-keyboard-response","310","878189","0.0-56.0-0.7","SS1613079892573","","","null","","","","","<p><img src= images/blank.png width =""200"" height = ""200"" style = ""float:right""></p><p><img src=images/blank.png width =""800"" height = ""200""></p>","","","","","","","","","","","",""
"","881.0000000230502","sequential-stimulus-presentation","311","879883","0.0-56.0-1.7","SS1613079892573","trial","","40","800","1681.0000000230502","images/stimuli/spore_stims/simple_03_A_a.gif","images/stimuli/spore_stims/simple_03_B_a.gif","","","","","16","simple_similar","images/stimuli/spore_stims/simple_03_B_a.gif","left","","","","",""
"","1140.0000000139698","html-keyboard-response","312","881035","0.0-57.0","SS1613079892573","pref_question","","51","","","","","<video width ='960' height = '540' style='padding-top:8%' autoplay muted><source src='images/stimuli/wall_pref.mp4' type='video/mp4'></video>","3","right","66%","16","","","","","","","",""
