"view_history","rt","trial_type","trial_index","time_elapsed","internal_node_id","subject","stimulus_type","trial_stimulus","key_press","minimum_viewing_duration","trial_looking_time","block_deviant","block_background","stimulus","wall_pref","location","location_percent","block_number","block_type","stimulus_displayed","position_displayed","stim_type_selected","responses","question_order","stimulus_left","stimulus_right"
"[{""page_index"":0,""viewing_time"":12387.56000000285}]","12388.455000007525","instructions","0","12392","0.0-0.0","SS1613169619565","","","","","","","","","","","","","","","","","","","",""
"[{""page_index"":0,""viewing_time"":20829.484999994747},{""page_index"":1,""viewing_time"":16432.314999983646}]","37262.19499995932","instructions","1","51664","0.0-1.0","SS1613169619565","instructions","","","","","","","","","","","","","","","","","","",""
"","20806.284999998752","sequential-stimulus-presentation","2","73278","0.0-2.0","SS1613169619565","","","40","800","21606.284999998752","null","null","","","","","","","","","","","","",""
"","2412.850000022445","sequential-stimulus-presentation","3","76504","0.0-3.0","SS1613169619565","","","40","800","3212.850000022445","null","null","","","","","","","","","","","","",""
"[{""page_index"":0,""viewing_time"":22701.88499998767}]","22702.295000024606","instructions","4","99207","0.0-4.0","SS1613169619565","instructions","","","","","","","","","","","","","","","","","","",""
"","17771.84500003932","html-keyboard-response","5","116983","0.0-5.0","SS1613169619565","instructions","","50","","","","","<video width ='960' height = '540' autoplay muted><source src='images/stimuli/wall_pref.mp4' type='video/mp4'></video>","2","middle","45%","","","","","","","","",""
"","4742.035000002943","sequential-stimulus-presentation","6","122535","0.0-6.0","SS1613169619565","pref_reveal","","40","800","5542.035000002943","null","null","","","","","","","","","","","","",""
"[{""page_index"":0,""viewing_time"":13164.02999998536},{""page_index"":1,""viewing_time"":9840.459999977611},{""page_index"":2,""viewing_time"":2463.190000038594},{""page_index"":3,""viewing_time"":1784.0349999605678}]","27252.069999987725","instructions","7","149790","0.0-7.0","SS1613169619565","instructions","","","","","","","","","","","","","","","","","","",""
"","null","html-keyboard-response","8","150974","0.0-8.0-0.0","SS1613169619565","","","null","","","","","<p><img src= images/blank.png width =""200"" height = ""200"" style = ""float:right""></p><p><img src=images/blank.png width =""800"" height = ""200""></p>","","","","","","","","","","","",""
"","7330.74999996461","sequential-stimulus-presentation","9","159118","0.0-8.0-1.0","SS1613169619565","trial","","40","800","8130.74999996461","images/stimuli/spore_stims/simple_14_B_d.gif","images/stimuli/spore_stims/simple_05_B_b.gif","","","","","0","simple_dissimilar","images/stimuli/spore_stims/simple_05_B_b.gif","left","","","","",""
"","null","html-keyboard-response","10","160112","0.0-8.0-0.1","SS1613169619565","","","null","","","","","<p><img src= images/blank.png width =""200"" height = ""200"" style = ""float:right""></p><p><img src=images/blank.png width =""800"" height = ""200""></p>","","","","","","","","","","","",""
"","6688.0749999545515","sequential-stimulus-presentation","11","167610","0.0-8.0-1.1","SS1613169619565","trial","","40","800","7488.0749999545515","images/stimuli/spore_stims/simple_14_B_d.gif","images/stimuli/spore_stims/simple_05_B_b.gif","","","","","0","simple_dissimilar","images/stimuli/spore_stims/simple_05_B_b.gif","left","","","","",""
"","null","html-keyboard-response","12","168478","0.0-8.0-0.2","SS1613169619565","","","null","","","","","<p><img src= images/blank.png width =""200"" height = ""200"" style = ""float:right""></p><p><img src=images/blank.png width =""800"" height = ""200""></p>","","","","","","","","","","","",""
"","6349.6800000430085","sequential-stimulus-presentation","13","175641","0.0-8.0-1.2","SS1613169619565","trial","","40","800","7149.6800000430085","images/stimuli/spore_stims/simple_14_B_d.gif","images/stimuli/spore_stims/simple_05_B_b.gif","","","","","0","simple_dissimilar","images/stimuli/spore_stims/simple_05_B_b.gif","left","","","","",""
"","null","html-keyboard-response","14","176593","0.0-8.0-0.3","SS1613169619565","","","null","","","","","<p><img src= images/blank.png width =""200"" height = ""200"" style = ""float:right""></p><p><img src=images/blank.png width =""800"" height = ""200""></p>","","","","","","","","","","","",""
"","7682.595000020228","sequential-stimulus-presentation","15","185089","0.0-8.0-1.3","SS1613169619565","trial","","40","800","8482.595000020228","images/stimuli/spore_stims/simple_14_B_d.gif","images/stimuli/spore_stims/simple_05_B_b.gif","","","","","0","simple_dissimilar","images/stimuli/spore_stims/simple_05_B_b.gif","left","","","","",""
"","null","html-keyboard-response","16","186071","0.0-8.0-0.4","SS1613169619565","","","null","","","","","<p><img src= images/blank.png width =""200"" height = ""200"" style = ""float:right""></p><p><img src=images/blank.png width =""800"" height = ""200""></p>","","","","","","","","","","","",""
"","4701.375000004191","sequential-stimulus-presentation","17","191580","0.0-8.0-1.4","SS1613169619565","trial","","40","800","5501.375000004191","images/stimuli/spore_stims/simple_14_B_d.gif","images/stimuli/spore_stims/simple_05_B_b.gif","","","","","0","simple_dissimilar","images/stimuli/spore_stims/simple_05_B_b.gif","left","","","","",""
"","null","html-keyboard-response","18","192712","0.0-8.0-0.5","SS1613169619565","","","null","","","","","<p><img src= images/blank.png width =""200"" height = ""200"" style = ""float:right""></p><p><img src=images/blank.png width =""800"" height = ""200""></p>","","","","","","","","","","","",""
"","8764.63499997044","sequential-stimulus-presentation","19","202286","0.0-8.0-1.5","SS1613169619565","trial","","40","800","9564.63499997044","images/stimuli/spore_stims/simple_14_B_d.gif","images/stimuli/spore_stims/simple_05_B_b.gif","","","","","0","simple_dissimilar","images/stimuli/spore_stims/simple_14_B_d.gif","right","","","","",""
"","null","html-keyboard-response","20","203416","0.0-8.0-0.6","SS1613169619565","","","null","","","","","<p><img src= images/blank.png width =""200"" height = ""200"" style = ""float:right""></p><p><img src=images/blank.png width =""800"" height = ""200""></p>","","","","","","","","","","","",""
"","3720.0900000170805","sequential-stimulus-presentation","21","207944","0.0-8.0-1.6","SS1613169619565","trial","","40","800","4520.0900000170805","images/stimuli/spore_stims/simple_14_B_d.gif","images/stimuli/spore_stims/simple_05_B_b.gif","","","","","0","simple_dissimilar","images/stimuli/spore_stims/simple_05_B_b.gif","left","","","","",""
"","null","html-keyboard-response","22","208987","0.0-8.0-0.7","SS1613169619565","","","null","","","","","<p><img src= images/blank.png width =""200"" height = ""200"" style = ""float:right""></p><p><img src=images/blank.png width =""800"" height = ""200""></p>","","","","","","","","","","","",""
"","2689.2450000159442","sequential-stimulus-presentation","23","212488","0.0-8.0-1.7","SS1613169619565","trial","","40","800","3489.2450000159442","images/stimuli/spore_stims/simple_14_B_d.gif","images/stimuli/spore_stims/simple_05_B_b.gif","","","","","0","simple_dissimilar","images/stimuli/spore_stims/simple_05_B_b.gif","left","","","","",""
"","6003.179999999702","html-keyboard-response","24","218495","0.0-9.0","SS1613169619565","pref_question","","50","","","","","<video width ='960' height = '540' style='padding-top:8%' autoplay muted><source src='images/stimuli/wall_pref.mp4' type='video/mp4'></video>","2","middle","45%","0","","","","","","","",""
"","5571.215000003576","sequential-stimulus-presentation","25","224878","0.0-10.0","SS1613169619565","pref_reveal","","40","800","6371.215000003576","null","null","","","","","0","","","","novel","","","",""
"","null","html-keyboard-response","26","225945","0.0-11.0-0.0","SS1613169619565","","","null","","","","","<p><img src= images/blank.png width =""200"" height = ""200"" style = ""float:right""></p><p><img src=images/blank.png width =""800"" height = ""200""></p>","","","","","","","","","","","",""
"","4657.520000007935","sequential-stimulus-presentation","27","231417","0.0-11.0-1.0","SS1613169619565","trial","","40","800","5457.520000007935","images/stimuli/spore_stims/complex_12_B_a.gif","images/stimuli/spore_stims/complex_12_A_a.gif","","","","","1","complex_similar","images/stimuli/spore_stims/complex_12_A_a.gif","middle","","","","",""
"","null","html-keyboard-response","28","232561","0.0-11.0-0.1","SS1613169619565","","","null","","","","","<p><img src= images/blank.png width =""200"" height = ""200"" style = ""float:right""></p><p><img src=images/blank.png width =""800"" height = ""200""></p>","","","","","","","","","","","",""
"","2326.4000000199303","sequential-stimulus-presentation","29","235697","0.0-11.0-1.1","SS1613169619565","trial","","40","800","3126.4000000199303","images/stimuli/spore_stims/complex_12_B_a.gif","images/stimuli/spore_stims/complex_12_A_a.gif","","","","","1","complex_similar","images/stimuli/spore_stims/complex_12_A_a.gif","middle","","","","",""
"","null","html-keyboard-response","30","236560","0.0-11.0-0.2","SS1613169619565","","","null","","","","","<p><img src= images/blank.png width =""200"" height = ""200"" style = ""float:right""></p><p><img src=images/blank.png width =""800"" height = ""200""></p>","","","","","","","","","","","",""
"","1870.7549999817275","sequential-stimulus-presentation","31","239242","0.0-11.0-1.2","SS1613169619565","trial","","40","800","2670.7549999817275","images/stimuli/spore_stims/complex_12_B_a.gif","images/stimuli/spore_stims/complex_12_A_a.gif","","","","","1","complex_similar","images/stimuli/spore_stims/complex_12_A_a.gif","middle","","","","",""
"","null","html-keyboard-response","32","240424","0.0-11.0-0.3","SS1613169619565","","","null","","","","","<p><img src= images/blank.png width =""200"" height = ""200"" style = ""float:right""></p><p><img src=images/blank.png width =""800"" height = ""200""></p>","","","","","","","","","","","",""
"","4645.169999974314","sequential-stimulus-presentation","33","245885","0.0-11.0-1.3","SS1613169619565","trial","","40","800","5445.169999974314","images/stimuli/spore_stims/complex_12_B_a.gif","images/stimuli/spore_stims/complex_12_A_a.gif","","","","","1","complex_similar","images/stimuli/spore_stims/complex_12_B_a.gif","left","","","","",""
"","null","html-keyboard-response","34","247181","0.0-11.0-0.4","SS1613169619565","","","null","","","","","<p><img src= images/blank.png width =""200"" height = ""200"" style = ""float:right""></p><p><img src=images/blank.png width =""800"" height = ""200""></p>","","","","","","","","","","","",""
"","1526.2549999752082","sequential-stimulus-presentation","35","249522","0.0-11.0-1.4","SS1613169619565","trial","","40","800","2326.254999975208","images/stimuli/spore_stims/complex_12_B_a.gif","images/stimuli/spore_stims/complex_12_A_a.gif","","","","","1","complex_similar","images/stimuli/spore_stims/complex_12_A_a.gif","middle","","","","",""
"","null","html-keyboard-response","36","250550","0.0-11.0-0.5","SS1613169619565","","","null","","","","","<p><img src= images/blank.png width =""200"" height = ""200"" style = ""float:right""></p><p><img src=images/blank.png width =""800"" height = ""200""></p>","","","","","","","","","","","",""
"","1624.614999978803","sequential-stimulus-presentation","37","252986","0.0-11.0-1.5","SS1613169619565","trial","","40","800","2424.614999978803","images/stimuli/spore_stims/complex_12_B_a.gif","images/stimuli/spore_stims/complex_12_A_a.gif","","","","","1","complex_similar","images/stimuli/spore_stims/complex_12_A_a.gif","middle","","","","",""
"","null","html-keyboard-response","38","253916","0.0-11.0-0.6","SS1613169619565","","","null","","","","","<p><img src= images/blank.png width =""200"" height = ""200"" style = ""float:right""></p><p><img src=images/blank.png width =""800"" height = ""200""></p>","","","","","","","","","","","",""
"","854.2200000374578","sequential-stimulus-presentation","39","255581","0.0-11.0-1.6","SS1613169619565","trial","","40","800","1654.2200000374578","images/stimuli/spore_stims/complex_12_B_a.gif","images/stimuli/spore_stims/complex_12_A_a.gif","","","","","1","complex_similar","images/stimuli/spore_stims/complex_12_A_a.gif","middle","","","","",""
"","null","html-keyboard-response","40","256544","0.0-11.0-0.7","SS1613169619565","","","null","","","","","<p><img src= images/blank.png width =""200"" height = ""200"" style = ""float:right""></p><p><img src=images/blank.png width =""800"" height = ""200""></p>","","","","","","","","","","","",""
"","805.3250000230037","sequential-stimulus-presentation","41","258160","0.0-11.0-1.7","SS1613169619565","trial","","40","800","1605.3250000230037","images/stimuli/spore_stims/complex_12_B_a.gif","images/stimuli/spore_stims/complex_12_A_a.gif","","","","","1","complex_similar","images/stimuli/spore_stims/complex_12_A_a.gif","middle","","","","",""
"","2248.7749999854714","html-keyboard-response","42","260414","0.0-12.0","SS1613169619565","pref_question","","51","","","","","<video width ='960' height = '540' style='padding-top:8%' autoplay muted><source src='images/stimuli/wall_pref.mp4' type='video/mp4'></video>","3","right","66%","1","","","","","","","",""
"","4843.159999989439","sequential-stimulus-presentation","43","266091","0.0-13.0","SS1613169619565","pref_reveal","","40","800","5643.159999989439","null","null","","","","","1","","","","novel","","","",""
"","null","html-keyboard-response","44","267058","0.0-14.0-0.0","SS1613169619565","","","null","","","","","<p><img src= images/blank.png width =""200"" height = ""200"" style = ""float:right""></p><p><img src=images/blank.png width =""800"" height = ""200""></p>","","","","","","","","","","","",""
"","3338.6000000173226","sequential-stimulus-presentation","45","271213","0.0-14.0-1.0","SS1613169619565","trial","","40","800","4138.600000017323","images/stimuli/spore_stims/complex_10_B_a.gif","images/stimuli/spore_stims/complex_10_A_a.gif","","","","","2","complex_similar","images/stimuli/spore_stims/complex_10_A_a.gif","left","","","","",""
"","null","html-keyboard-response","46","272448","0.0-14.0-0.1","SS1613169619565","","","null","","","","","<p><img src= images/blank.png width =""200"" height = ""200"" style = ""float:right""></p><p><img src=images/blank.png width =""800"" height = ""200""></p>","","","","","","","","","","","",""
"","4811.395000026096","sequential-stimulus-presentation","47","278066","0.0-14.0-1.1","SS1613169619565","trial","","40","800","5611.395000026096","images/stimuli/spore_stims/complex_10_B_a.gif","images/stimuli/spore_stims/complex_10_A_a.gif","","","","","2","complex_similar","images/stimuli/spore_stims/complex_10_A_a.gif","left","","","","",""
"","null","html-keyboard-response","48","279324","0.0-14.0-0.2","SS1613169619565","","","null","","","","","<p><img src= images/blank.png width =""200"" height = ""200"" style = ""float:right""></p><p><img src=images/blank.png width =""800"" height = ""200""></p>","","","","","","","","","","","",""
"","1422.1250000409782","sequential-stimulus-presentation","49","281551","0.0-14.0-1.2","SS1613169619565","trial","","40","800","2222.125000040978","images/stimuli/spore_stims/complex_10_B_a.gif","images/stimuli/spore_stims/complex_10_A_a.gif","","","","","2","complex_similar","images/stimuli/spore_stims/complex_10_A_a.gif","left","","","","",""
"","null","html-keyboard-response","50","282781","0.0-14.0-0.3","SS1613169619565","","","null","","","","","<p><img src= images/blank.png width =""200"" height = ""200"" style = ""float:right""></p><p><img src=images/blank.png width =""800"" height = ""200""></p>","","","","","","","","","","","",""
"","947.0550000551157","sequential-stimulus-presentation","51","284539","0.0-14.0-1.3","SS1613169619565","trial","","40","800","1747.0550000551157","images/stimuli/spore_stims/complex_10_B_a.gif","images/stimuli/spore_stims/complex_10_A_a.gif","","","","","2","complex_similar","images/stimuli/spore_stims/complex_10_A_a.gif","left","","","","",""
"","null","html-keyboard-response","52","285667","0.0-14.0-0.4","SS1613169619565","","","null","","","","","<p><img src= images/blank.png width =""200"" height = ""200"" style = ""float:right""></p><p><img src=images/blank.png width =""800"" height = ""200""></p>","","","","","","","","","","","",""
"","806.9649999961257","sequential-stimulus-presentation","53","287290","0.0-14.0-1.4","SS1613169619565","trial","","40","800","1606.9649999961257","images/stimuli/spore_stims/complex_10_B_a.gif","images/stimuli/spore_stims/complex_10_A_a.gif","","","","","2","complex_similar","images/stimuli/spore_stims/complex_10_A_a.gif","left","","","","",""
"","null","html-keyboard-response","54","288532","0.0-14.0-0.5","SS1613169619565","","","null","","","","","<p><img src= images/blank.png width =""200"" height = ""200"" style = ""float:right""></p><p><img src=images/blank.png width =""800"" height = ""200""></p>","","","","","","","","","","","",""
"","669.5900000049733","sequential-stimulus-presentation","55","290019","0.0-14.0-1.5","SS1613169619565","trial","","40","800","1469.5900000049733","images/stimuli/spore_stims/complex_10_B_a.gif","images/stimuli/spore_stims/complex_10_A_a.gif","","","","","2","complex_similar","images/stimuli/spore_stims/complex_10_A_a.gif","left","","","","",""
"","null","html-keyboard-response","56","291292","0.0-14.0-0.6","SS1613169619565","","","null","","","","","<p><img src= images/blank.png width =""200"" height = ""200"" style = ""float:right""></p><p><img src=images/blank.png width =""800"" height = ""200""></p>","","","","","","","","","","","",""
"","3078.9549999753945","sequential-stimulus-presentation","57","295210","0.0-14.0-1.6","SS1613169619565","trial","","40","800","3878.9549999753945","images/stimuli/spore_stims/complex_10_B_a.gif","images/stimuli/spore_stims/complex_10_A_a.gif","","","","","2","complex_similar","images/stimuli/spore_stims/complex_10_B_a.gif","middle","","","","",""
"","null","html-keyboard-response","58","296452","0.0-14.0-0.7","SS1613169619565","","","null","","","","","<p><img src= images/blank.png width =""200"" height = ""200"" style = ""float:right""></p><p><img src=images/blank.png width =""800"" height = ""200""></p>","","","","","","","","","","","",""
"","1842.8200000198558","sequential-stimulus-presentation","59","299107","0.0-14.0-1.7","SS1613169619565","trial","","40","800","2642.820000019856","images/stimuli/spore_stims/complex_10_B_a.gif","images/stimuli/spore_stims/complex_10_A_a.gif","","","","","2","complex_similar","images/stimuli/spore_stims/complex_10_A_a.gif","left","","","","",""
"","2661.054999975022","html-keyboard-response","60","301774","0.0-15.0","SS1613169619565","pref_question","","51","","","","","<video width ='960' height = '540' style='padding-top:8%' autoplay muted><source src='images/stimuli/wall_pref.mp4' type='video/mp4'></video>","3","right","66%","2","","","","","","","",""
"","4786.85500001302","sequential-stimulus-presentation","61","307372","0.0-16.0","SS1613169619565","pref_reveal","","40","800","5586.85500001302","null","null","","","","","2","","","","novel","","","",""
"","null","html-keyboard-response","62","308196","0.0-17.0-0.0","SS1613169619565","","","null","","","","","<p><img src= images/blank.png width =""200"" height = ""200"" style = ""float:right""></p><p><img src=images/blank.png width =""800"" height = ""200""></p>","","","","","","","","","","","",""
"","2712.4100000364706","sequential-stimulus-presentation","63","311740","0.0-17.0-1.0","SS1613169619565","trial","","40","800","3512.4100000364706","images/stimuli/spore_stims/complex_14_B_c.gif","images/stimuli/spore_stims/complex_02_A_d.gif","","","","","3","complex_dissimilar","images/stimuli/spore_stims/complex_02_A_d.gif","middle","","","","",""
"","null","html-keyboard-response","64","312887","0.0-17.0-0.1","SS1613169619565","","","null","","","","","<p><img src= images/blank.png width =""200"" height = ""200"" style = ""float:right""></p><p><img src=images/blank.png width =""800"" height = ""200""></p>","","","","","","","","","","","",""
"","4419.409999973141","sequential-stimulus-presentation","65","318125","0.0-17.0-1.1","SS1613169619565","trial","","40","800","5219.409999973141","images/stimuli/spore_stims/complex_14_B_c.gif","images/stimuli/spore_stims/complex_02_A_d.gif","","","","","3","complex_dissimilar","images/stimuli/spore_stims/complex_02_A_d.gif","middle","","","","",""
"","null","html-keyboard-response","66","319224","0.0-17.0-0.2","SS1613169619565","","","null","","","","","<p><img src= images/blank.png width =""200"" height = ""200"" style = ""float:right""></p><p><img src=images/blank.png width =""800"" height = ""200""></p>","","","","","","","","","","","",""
"","612.0200000004843","sequential-stimulus-presentation","67","320650","0.0-17.0-1.2","SS1613169619565","trial","","40","800","1412.0200000004843","images/stimuli/spore_stims/complex_14_B_c.gif","images/stimuli/spore_stims/complex_02_A_d.gif","","","","","3","complex_dissimilar","images/stimuli/spore_stims/complex_02_A_d.gif","middle","","","","",""
"","null","html-keyboard-response","68","321837","0.0-17.0-0.3","SS1613169619565","","","null","","","","","<p><img src= images/blank.png width =""200"" height = ""200"" style = ""float:right""></p><p><img src=images/blank.png width =""800"" height = ""200""></p>","","","","","","","","","","","",""
"","1701.679999998305","sequential-stimulus-presentation","69","324349","0.0-17.0-1.3","SS1613169619565","trial","","40","800","2501.679999998305","images/stimuli/spore_stims/complex_14_B_c.gif","images/stimuli/spore_stims/complex_02_A_d.gif","","","","","3","complex_dissimilar","images/stimuli/spore_stims/complex_02_A_d.gif","middle","","","","",""
"","null","html-keyboard-response","70","325474","0.0-17.0-0.4","SS1613169619565","","","null","","","","","<p><img src= images/blank.png width =""200"" height = ""200"" style = ""float:right""></p><p><img src=images/blank.png width =""800"" height = ""200""></p>","","","","","","","","","","","",""
"","2356.0900000156835","sequential-stimulus-presentation","71","328659","0.0-17.0-1.4","SS1613169619565","trial","","40","800","3156.0900000156835","images/stimuli/spore_stims/complex_14_B_c.gif","images/stimuli/spore_stims/complex_02_A_d.gif","","","","","3","complex_dissimilar","images/stimuli/spore_stims/complex_02_A_d.gif","middle","","","","",""
"","null","html-keyboard-response","72","329738","0.0-17.0-0.5","SS1613169619565","","","null","","","","","<p><img src= images/blank.png width =""200"" height = ""200"" style = ""float:right""></p><p><img src=images/blank.png width =""800"" height = ""200""></p>","","","","","","","","","","","",""
"","3080.8100000140257","sequential-stimulus-presentation","73","333631","0.0-17.0-1.5","SS1613169619565","trial","","40","800","3880.8100000140257","images/stimuli/spore_stims/complex_14_B_c.gif","images/stimuli/spore_stims/complex_02_A_d.gif","","","","","3","complex_dissimilar","images/stimuli/spore_stims/complex_02_A_d.gif","middle","","","","",""
"","null","html-keyboard-response","74","334655","0.0-17.0-0.6","SS1613169619565","","","null","","","","","<p><img src= images/blank.png width =""200"" height = ""200"" style = ""float:right""></p><p><img src=images/blank.png width =""800"" height = ""200""></p>","","","","","","","","","","","",""
"","4190.294999978505","sequential-stimulus-presentation","75","339656","0.0-17.0-1.6","SS1613169619565","trial","","40","800","4990.294999978505","images/stimuli/spore_stims/complex_14_B_c.gif","images/stimuli/spore_stims/complex_02_A_d.gif","","","","","3","complex_dissimilar","images/stimuli/spore_stims/complex_14_B_c.gif","left","","","","",""
"","null","html-keyboard-response","76","340917","0.0-17.0-0.7","SS1613169619565","","","null","","","","","<p><img src= images/blank.png width =""200"" height = ""200"" style = ""float:right""></p><p><img src=images/blank.png width =""800"" height = ""200""></p>","","","","","","","","","","","",""
"","2561.344999994617","sequential-stimulus-presentation","77","344303","0.0-17.0-1.7","SS1613169619565","trial","","40","800","3361.344999994617","images/stimuli/spore_stims/complex_14_B_c.gif","images/stimuli/spore_stims/complex_02_A_d.gif","","","","","3","complex_dissimilar","images/stimuli/spore_stims/complex_02_A_d.gif","middle","","","","",""
"","3931.700000015553","html-keyboard-response","78","348242","0.0-18.0","SS1613169619565","pref_question","","49","","","","","<video width ='960' height = '540' style='padding-top:8%' autoplay muted><source src='images/stimuli/wall_pref.mp4' type='video/mp4'></video>","1","left","25%","3","","","","","","","",""
"","3161.2850000383332","sequential-stimulus-presentation","79","352213","0.0-19.0","SS1613169619565","pref_reveal","","40","800","3961.2850000383332","null","null","","","","","3","","","","deviant","","","",""
"","null","html-keyboard-response","80","353404","0.0-20.0-0.0","SS1613169619565","","","null","","","","","<p><img src= images/blank.png width =""200"" height = ""200"" style = ""float:right""></p><p><img src=images/blank.png width =""800"" height = ""200""></p>","","","","","","","","","","","",""
"","4872.574999986682","sequential-stimulus-presentation","81","359088","0.0-20.0-1.0","SS1613169619565","trial","","40","800","5672.574999986682","images/stimuli/spore_stims/simple_19_A_a.gif","images/stimuli/spore_stims/simple_13_A_d.gif","","","","","4","simple_dissimilar","images/stimuli/spore_stims/simple_13_A_d.gif","left","","","","",""
"","null","html-keyboard-response","82","359906","0.0-20.0-0.1","SS1613169619565","","","null","","","","","<p><img src= images/blank.png width =""200"" height = ""200"" style = ""float:right""></p><p><img src=images/blank.png width =""800"" height = ""200""></p>","","","","","","","","","","","",""
"","2238.9449999900535","sequential-stimulus-presentation","83","362953","0.0-20.0-1.1","SS1613169619565","trial","","40","800","3038.9449999900535","images/stimuli/spore_stims/simple_19_A_a.gif","images/stimuli/spore_stims/simple_13_A_d.gif","","","","","4","simple_dissimilar","images/stimuli/spore_stims/simple_13_A_d.gif","left","","","","",""
"","null","html-keyboard-response","84","364034","0.0-20.0-0.2","SS1613169619565","","","null","","","","","<p><img src= images/blank.png width =""200"" height = ""200"" style = ""float:right""></p><p><img src=images/blank.png width =""800"" height = ""200""></p>","","","","","","","","","","","",""
"","3785.759999998845","sequential-stimulus-presentation","85","368628","0.0-20.0-1.2","SS1613169619565","trial","","40","800","4585.759999998845","images/stimuli/spore_stims/simple_19_A_a.gif","images/stimuli/spore_stims/simple_13_A_d.gif","","","","","4","simple_dissimilar","images/stimuli/spore_stims/simple_13_A_d.gif","left","","","","",""
"","null","html-keyboard-response","86","369707","0.0-20.0-0.3","SS1613169619565","","","null","","","","","<p><img src= images/blank.png width =""200"" height = ""200"" style = ""float:right""></p><p><img src=images/blank.png width =""800"" height = ""200""></p>","","","","","","","","","","","",""
"","593.1100000161678","sequential-stimulus-presentation","87","371123","0.0-20.0-1.3","SS1613169619565","trial","","40","800","1393.1100000161678","images/stimuli/spore_stims/simple_19_A_a.gif","images/stimuli/spore_stims/simple_13_A_d.gif","","","","","4","simple_dissimilar","images/stimuli/spore_stims/simple_13_A_d.gif","left","","","","",""
"","null","html-keyboard-response","88","372178","0.0-20.0-0.4","SS1613169619565","","","null","","","","","<p><img src= images/blank.png width =""200"" height = ""200"" style = ""float:right""></p><p><img src=images/blank.png width =""800"" height = ""200""></p>","","","","","","","","","","","",""
"","865.0200000265613","sequential-stimulus-presentation","89","373857","0.0-20.0-1.4","SS1613169619565","trial","","40","800","1665.0200000265613","images/stimuli/spore_stims/simple_19_A_a.gif","images/stimuli/spore_stims/simple_13_A_d.gif","","","","","4","simple_dissimilar","images/stimuli/spore_stims/simple_13_A_d.gif","left","","","","",""
"","null","html-keyboard-response","90","375152","0.0-20.0-0.5","SS1613169619565","","","null","","","","","<p><img src= images/blank.png width =""200"" height = ""200"" style = ""float:right""></p><p><img src=images/blank.png width =""800"" height = ""200""></p>","","","","","","","","","","","",""
"","2737.7650000271387","sequential-stimulus-presentation","91","378704","0.0-20.0-1.5","SS1613169619565","trial","","40","800","3537.7650000271387","images/stimuli/spore_stims/simple_19_A_a.gif","images/stimuli/spore_stims/simple_13_A_d.gif","","","","","4","simple_dissimilar","images/stimuli/spore_stims/simple_13_A_d.gif","left","","","","",""
"","null","html-keyboard-response","92","379647","0.0-20.0-0.6","SS1613169619565","","","null","","","","","<p><img src= images/blank.png width =""200"" height = ""200"" style = ""float:right""></p><p><img src=images/blank.png width =""800"" height = ""200""></p>","","","","","","","","","","","",""
"","1462.954999995418","sequential-stimulus-presentation","93","381918","0.0-20.0-1.6","SS1613169619565","trial","","40","800","2262.954999995418","images/stimuli/spore_stims/simple_19_A_a.gif","images/stimuli/spore_stims/simple_13_A_d.gif","","","","","4","simple_dissimilar","images/stimuli/spore_stims/simple_13_A_d.gif","left","","","","",""
"","null","html-keyboard-response","94","383030","0.0-20.0-0.7","SS1613169619565","","","null","","","","","<p><img src= images/blank.png width =""200"" height = ""200"" style = ""float:right""></p><p><img src=images/blank.png width =""800"" height = ""200""></p>","","","","","","","","","","","",""
"","3434.720000019297","sequential-stimulus-presentation","95","387279","0.0-20.0-1.7","SS1613169619565","trial","","40","800","4234.720000019297","images/stimuli/spore_stims/simple_19_A_a.gif","images/stimuli/spore_stims/simple_13_A_d.gif","","","","","4","simple_dissimilar","images/stimuli/spore_stims/simple_19_A_a.gif","middle","","","","",""
"","2173.960000043735","html-keyboard-response","96","389461","0.0-21.0","SS1613169619565","pref_question","","51","","","","","<video width ='960' height = '540' style='padding-top:8%' autoplay muted><source src='images/stimuli/wall_pref.mp4' type='video/mp4'></video>","3","right","66%","4","","","","","","","",""
"","5569.485000043642","sequential-stimulus-presentation","97","395845","0.0-22.0","SS1613169619565","pref_reveal","","40","800","6369.485000043642","null","null","","","","","4","","","","novel","","","",""
"","null","html-keyboard-response","98","396874","0.0-23.0-0.0","SS1613169619565","","","null","","","","","<p><img src= images/blank.png width =""200"" height = ""200"" style = ""float:right""></p><p><img src=images/blank.png width =""800"" height = ""200""></p>","","","","","","","","","","","",""
"","2382.534999982454","sequential-stimulus-presentation","99","400070","0.0-23.0-1.0","SS1613169619565","trial","","40","800","3182.534999982454","images/stimuli/spore_stims/simple_15_B_d.gif","images/stimuli/spore_stims/simple_15_A_d.gif","","","","","5","simple_similar","images/stimuli/spore_stims/simple_15_A_d.gif","right","","","","",""
"","null","html-keyboard-response","100","401317","0.0-23.0-0.1","SS1613169619565","","","null","","","","","<p><img src= images/blank.png width =""200"" height = ""200"" style = ""float:right""></p><p><img src=images/blank.png width =""800"" height = ""200""></p>","","","","","","","","","","","",""
"","1321.9199999584816","sequential-stimulus-presentation","101","403453","0.0-23.0-1.1","SS1613169619565","trial","","40","800","2121.9199999584816","images/stimuli/spore_stims/simple_15_B_d.gif","images/stimuli/spore_stims/simple_15_A_d.gif","","","","","5","simple_similar","images/stimuli/spore_stims/simple_15_A_d.gif","right","","","","",""
"","null","html-keyboard-response","102","404308","0.0-23.0-0.2","SS1613169619565","","","null","","","","","<p><img src= images/blank.png width =""200"" height = ""200"" style = ""float:right""></p><p><img src=images/blank.png width =""800"" height = ""200""></p>","","","","","","","","","","","",""
"","2097.4000000278465","sequential-stimulus-presentation","103","407215","0.0-23.0-1.2","SS1613169619565","trial","","40","800","2897.4000000278465","images/stimuli/spore_stims/simple_15_B_d.gif","images/stimuli/spore_stims/simple_15_A_d.gif","","","","","5","simple_similar","images/stimuli/spore_stims/simple_15_A_d.gif","right","","","","",""
"","null","html-keyboard-response","104","408440","0.0-23.0-0.3","SS1613169619565","","","null","","","","","<p><img src= images/blank.png width =""200"" height = ""200"" style = ""float:right""></p><p><img src=images/blank.png width =""800"" height = ""200""></p>","","","","","","","","","","","",""
"","2797.1299999626353","sequential-stimulus-presentation","105","412050","0.0-23.0-1.3","SS1613169619565","trial","","40","800","3597.1299999626353","images/stimuli/spore_stims/simple_15_B_d.gif","images/stimuli/spore_stims/simple_15_A_d.gif","","","","","5","simple_similar","images/stimuli/spore_stims/simple_15_A_d.gif","right","","","","",""
"","null","html-keyboard-response","106","412987","0.0-23.0-0.4","SS1613169619565","","","null","","","","","<p><img src= images/blank.png width =""200"" height = ""200"" style = ""float:right""></p><p><img src=images/blank.png width =""800"" height = ""200""></p>","","","","","","","","","","","",""
"","981.1399999889545","sequential-stimulus-presentation","107","414781","0.0-23.0-1.4","SS1613169619565","trial","","40","800","1781.1399999889545","images/stimuli/spore_stims/simple_15_B_d.gif","images/stimuli/spore_stims/simple_15_A_d.gif","","","","","5","simple_similar","images/stimuli/spore_stims/simple_15_A_d.gif","right","","","","",""
"","null","html-keyboard-response","108","416067","0.0-23.0-0.5","SS1613169619565","","","null","","","","","<p><img src= images/blank.png width =""200"" height = ""200"" style = ""float:right""></p><p><img src=images/blank.png width =""800"" height = ""200""></p>","","","","","","","","","","","",""
"","1043.98499999661","sequential-stimulus-presentation","109","417925","0.0-23.0-1.5","SS1613169619565","trial","","40","800","1843.98499999661","images/stimuli/spore_stims/simple_15_B_d.gif","images/stimuli/spore_stims/simple_15_A_d.gif","","","","","5","simple_similar","images/stimuli/spore_stims/simple_15_A_d.gif","right","","","","",""
"","null","html-keyboard-response","110","418849","0.0-23.0-0.6","SS1613169619565","","","null","","","","","<p><img src= images/blank.png width =""200"" height = ""200"" style = ""float:right""></p><p><img src=images/blank.png width =""800"" height = ""200""></p>","","","","","","","","","","","",""
"","1618.9599999925122","sequential-stimulus-presentation","111","421279","0.0-23.0-1.6","SS1613169619565","trial","","40","800","2418.959999992512","images/stimuli/spore_stims/simple_15_B_d.gif","images/stimuli/spore_stims/simple_15_A_d.gif","","","","","5","simple_similar","images/stimuli/spore_stims/simple_15_B_d.gif","left","","","","",""
"","null","html-keyboard-response","112","422521","0.0-23.0-0.7","SS1613169619565","","","null","","","","","<p><img src= images/blank.png width =""200"" height = ""200"" style = ""float:right""></p><p><img src=images/blank.png width =""800"" height = ""200""></p>","","","","","","","","","","","",""
"","1286.4150000386871","sequential-stimulus-presentation","113","424621","0.0-23.0-1.7","SS1613169619565","trial","","40","800","2086.415000038687","images/stimuli/spore_stims/simple_15_B_d.gif","images/stimuli/spore_stims/simple_15_A_d.gif","","","","","5","simple_similar","images/stimuli/spore_stims/simple_15_A_d.gif","right","","","","",""
"","2434.099999954924","html-keyboard-response","114","427063","0.0-24.0","SS1613169619565","pref_question","","50","","","","","<video width ='960' height = '540' style='padding-top:8%' autoplay muted><source src='images/stimuli/wall_pref.mp4' type='video/mp4'></video>","2","middle","45%","5","","","","","","","",""
"","4363.760000036564","sequential-stimulus-presentation","115","432241","0.0-25.0","SS1613169619565","pref_reveal","","40","800","5163.760000036564","null","null","","","","","5","","","","novel","","","",""
"","null","html-keyboard-response","116","433172","0.0-26.0-0.0","SS1613169619565","","","null","","","","","<p><img src= images/blank.png width =""200"" height = ""200"" style = ""float:right""></p><p><img src=images/blank.png width =""800"" height = ""200""></p>","","","","","","","","","","","",""
"","1034.250000026077","sequential-stimulus-presentation","117","435021","0.0-26.0-1.0","SS1613169619565","trial","","40","800","1834.250000026077","images/stimuli/spore_stims/complex_05_B_b.gif","images/stimuli/spore_stims/complex_05_A_b.gif","","","","","6","complex_similar","images/stimuli/spore_stims/complex_05_A_b.gif","middle","","","","",""
"","null","html-keyboard-response","118","435971","0.0-26.0-0.1","SS1613169619565","","","null","","","","","<p><img src= images/blank.png width =""200"" height = ""200"" style = ""float:right""></p><p><img src=images/blank.png width =""800"" height = ""200""></p>","","","","","","","","","","","",""
"","1015.1999999652617","sequential-stimulus-presentation","119","437798","0.0-26.0-1.1","SS1613169619565","trial","","40","800","1815.1999999652617","images/stimuli/spore_stims/complex_05_B_b.gif","images/stimuli/spore_stims/complex_05_A_b.gif","","","","","6","complex_similar","images/stimuli/spore_stims/complex_05_A_b.gif","middle","","","","",""
"","null","html-keyboard-response","120","438693","0.0-26.0-0.2","SS1613169619565","","","null","","","","","<p><img src= images/blank.png width =""200"" height = ""200"" style = ""float:right""></p><p><img src=images/blank.png width =""800"" height = ""200""></p>","","","","","","","","","","","",""
"","2214.41000001505","sequential-stimulus-presentation","121","441722","0.0-26.0-1.2","SS1613169619565","trial","","40","800","3014.41000001505","images/stimuli/spore_stims/complex_05_B_b.gif","images/stimuli/spore_stims/complex_05_A_b.gif","","","","","6","complex_similar","images/stimuli/spore_stims/complex_05_B_b.gif","left","","","","",""
"","null","html-keyboard-response","122","442850","0.0-26.0-0.3","SS1613169619565","","","null","","","","","<p><img src= images/blank.png width =""200"" height = ""200"" style = ""float:right""></p><p><img src=images/blank.png width =""800"" height = ""200""></p>","","","","","","","","","","","",""
"","907.535000005737","sequential-stimulus-presentation","123","444585","0.0-26.0-1.3","SS1613169619565","trial","","40","800","1707.535000005737","images/stimuli/spore_stims/complex_05_B_b.gif","images/stimuli/spore_stims/complex_05_A_b.gif","","","","","6","complex_similar","images/stimuli/spore_stims/complex_05_A_b.gif","middle","","","","",""
"","null","html-keyboard-response","124","445866","0.0-26.0-0.4","SS1613169619565","","","null","","","","","<p><img src= images/blank.png width =""200"" height = ""200"" style = ""float:right""></p><p><img src=images/blank.png width =""800"" height = ""200""></p>","","","","","","","","","","","",""
"","1610.7450000126846","sequential-stimulus-presentation","125","448295","0.0-26.0-1.4","SS1613169619565","trial","","40","800","2410.7450000126846","images/stimuli/spore_stims/complex_05_B_b.gif","images/stimuli/spore_stims/complex_05_A_b.gif","","","","","6","complex_similar","images/stimuli/spore_stims/complex_05_A_b.gif","middle","","","","",""
"","null","html-keyboard-response","126","449210","0.0-26.0-0.5","SS1613169619565","","","null","","","","","<p><img src= images/blank.png width =""200"" height = ""200"" style = ""float:right""></p><p><img src=images/blank.png width =""800"" height = ""200""></p>","","","","","","","","","","","",""
"","959.5799999660812","sequential-stimulus-presentation","127","451006","0.0-26.0-1.5","SS1613169619565","trial","","40","800","1759.5799999660812","images/stimuli/spore_stims/complex_05_B_b.gif","images/stimuli/spore_stims/complex_05_A_b.gif","","","","","6","complex_similar","images/stimuli/spore_stims/complex_05_A_b.gif","middle","","","","",""
"","null","html-keyboard-response","128","451894","0.0-26.0-0.6","SS1613169619565","","","null","","","","","<p><img src= images/blank.png width =""200"" height = ""200"" style = ""float:right""></p><p><img src=images/blank.png width =""800"" height = ""200""></p>","","","","","","","","","","","",""
"","1043.390000006184","sequential-stimulus-presentation","129","453748","0.0-26.0-1.6","SS1613169619565","trial","","40","800","1843.390000006184","images/stimuli/spore_stims/complex_05_B_b.gif","images/stimuli/spore_stims/complex_05_A_b.gif","","","","","6","complex_similar","images/stimuli/spore_stims/complex_05_A_b.gif","middle","","","","",""
"","null","html-keyboard-response","130","454980","0.0-26.0-0.7","SS1613169619565","","","null","","","","","<p><img src= images/blank.png width =""200"" height = ""200"" style = ""float:right""></p><p><img src=images/blank.png width =""800"" height = ""200""></p>","","","","","","","","","","","",""
"","942.7000000141561","sequential-stimulus-presentation","131","456730","0.0-26.0-1.7","SS1613169619565","trial","","40","800","1742.700000014156","images/stimuli/spore_stims/complex_05_B_b.gif","images/stimuli/spore_stims/complex_05_A_b.gif","","","","","6","complex_similar","images/stimuli/spore_stims/complex_05_A_b.gif","middle","","","","",""
"","3455.1299999584444","html-keyboard-response","132","460195","0.0-27.0","SS1613169619565","pref_question","","51","","","","","<video width ='960' height = '540' style='padding-top:8%' autoplay muted><source src='images/stimuli/wall_pref.mp4' type='video/mp4'></video>","3","right","66%","6","","","","","","","",""
"","2528.7000000244007","sequential-stimulus-presentation","133","463540","0.0-28.0","SS1613169619565","pref_reveal","","40","800","3328.7000000244007","null","null","","","","","6","","","","novel","","","",""
"","null","html-keyboard-response","134","464772","0.0-29.0-0.0","SS1613169619565","","","null","","","","","<p><img src= images/blank.png width =""200"" height = ""200"" style = ""float:right""></p><p><img src=images/blank.png width =""800"" height = ""200""></p>","","","","","","","","","","","",""
"","1532.8499999595806","sequential-stimulus-presentation","135","467123","0.0-29.0-1.0","SS1613169619565","trial","","40","800","2332.8499999595806","images/stimuli/spore_stims/simple_07_A_c.gif","images/stimuli/spore_stims/simple_07_B_c.gif","","","","","7","simple_similar","images/stimuli/spore_stims/simple_07_B_c.gif","left","","","","",""
"","null","html-keyboard-response","136","468019","0.0-29.0-0.1","SS1613169619565","","","null","","","","","<p><img src= images/blank.png width =""200"" height = ""200"" style = ""float:right""></p><p><img src=images/blank.png width =""800"" height = ""200""></p>","","","","","","","","","","","",""
"","823.7100000260398","sequential-stimulus-presentation","137","469663","0.0-29.0-1.1","SS1613169619565","trial","","40","800","1623.7100000260398","images/stimuli/spore_stims/simple_07_A_c.gif","images/stimuli/spore_stims/simple_07_B_c.gif","","","","","7","simple_similar","images/stimuli/spore_stims/simple_07_B_c.gif","left","","","","",""
"","null","html-keyboard-response","138","470919","0.0-29.0-0.2","SS1613169619565","","","null","","","","","<p><img src= images/blank.png width =""200"" height = ""200"" style = ""float:right""></p><p><img src=images/blank.png width =""800"" height = ""200""></p>","","","","","","","","","","","",""
"","940.7149999751709","sequential-stimulus-presentation","139","472670","0.0-29.0-1.2","SS1613169619565","trial","","40","800","1740.714999975171","images/stimuli/spore_stims/simple_07_A_c.gif","images/stimuli/spore_stims/simple_07_B_c.gif","","","","","7","simple_similar","images/stimuli/spore_stims/simple_07_B_c.gif","left","","","","",""
"","null","html-keyboard-response","140","473651","0.0-29.0-0.3","SS1613169619565","","","null","","","","","<p><img src= images/blank.png width =""200"" height = ""200"" style = ""float:right""></p><p><img src=images/blank.png width =""800"" height = ""200""></p>","","","","","","","","","","","",""
"","672.2399999853224","sequential-stimulus-presentation","141","475138","0.0-29.0-1.3","SS1613169619565","trial","","40","800","1472.2399999853224","images/stimuli/spore_stims/simple_07_A_c.gif","images/stimuli/spore_stims/simple_07_B_c.gif","","","","","7","simple_similar","images/stimuli/spore_stims/simple_07_B_c.gif","left","","","","",""
"","null","html-keyboard-response","142","476340","0.0-29.0-0.4","SS1613169619565","","","null","","","","","<p><img src= images/blank.png width =""200"" height = ""200"" style = ""float:right""></p><p><img src=images/blank.png width =""800"" height = ""200""></p>","","","","","","","","","","","",""
"","623.7249999539927","sequential-stimulus-presentation","143","477782","0.0-29.0-1.4","SS1613169619565","trial","","40","800","1423.7249999539927","images/stimuli/spore_stims/simple_07_A_c.gif","images/stimuli/spore_stims/simple_07_B_c.gif","","","","","7","simple_similar","images/stimuli/spore_stims/simple_07_B_c.gif","left","","","","",""
"","null","html-keyboard-response","144","478654","0.0-29.0-0.5","SS1613169619565","","","null","","","","","<p><img src= images/blank.png width =""200"" height = ""200"" style = ""float:right""></p><p><img src=images/blank.png width =""800"" height = ""200""></p>","","","","","","","","","","","",""
"","833.5099999676459","sequential-stimulus-presentation","145","480304","0.0-29.0-1.5","SS1613169619565","trial","","40","800","1633.5099999676459","images/stimuli/spore_stims/simple_07_A_c.gif","images/stimuli/spore_stims/simple_07_B_c.gif","","","","","7","simple_similar","images/stimuli/spore_stims/simple_07_B_c.gif","left","","","","",""
"","null","html-keyboard-response","146","481602","0.0-29.0-0.6","SS1613169619565","","","null","","","","","<p><img src= images/blank.png width =""200"" height = ""200"" style = ""float:right""></p><p><img src=images/blank.png width =""800"" height = ""200""></p>","","","","","","","","","","","",""
"","629.6650000149384","sequential-stimulus-presentation","147","483043","0.0-29.0-1.6","SS1613169619565","trial","","40","800","1429.6650000149384","images/stimuli/spore_stims/simple_07_A_c.gif","images/stimuli/spore_stims/simple_07_B_c.gif","","","","","7","simple_similar","images/stimuli/spore_stims/simple_07_B_c.gif","left","","","","",""
"","null","html-keyboard-response","148","484072","0.0-29.0-0.7","SS1613169619565","","","null","","","","","<p><img src= images/blank.png width =""200"" height = ""200"" style = ""float:right""></p><p><img src=images/blank.png width =""800"" height = ""200""></p>","","","","","","","","","","","",""
"","1207.315000006929","sequential-stimulus-presentation","149","486100","0.0-29.0-1.7","SS1613169619565","trial","","40","800","2007.315000006929","images/stimuli/spore_stims/simple_07_A_c.gif","images/stimuli/spore_stims/simple_07_B_c.gif","","","","","7","simple_similar","images/stimuli/spore_stims/simple_07_A_c.gif","right","","","","",""
"","2010.7650000136346","html-keyboard-response","150","488119","0.0-30.0","SS1613169619565","pref_question","","50","","","","","<video width ='960' height = '540' style='padding-top:8%' autoplay muted><source src='images/stimuli/wall_pref.mp4' type='video/mp4'></video>","2","middle","45%","7","","","","","","","",""
"","5371.365000028163","sequential-stimulus-presentation","151","494305","0.0-31.0","SS1613169619565","pref_reveal","","40","800","6171.365000028163","null","null","","","","","7","","","","novel","","","",""
"","null","html-keyboard-response","152","495136","0.0-32.0-0.0","SS1613169619565","","","null","","","","","<p><img src= images/blank.png width =""200"" height = ""200"" style = ""float:right""></p><p><img src=images/blank.png width =""800"" height = ""200""></p>","","","","","","","","","","","",""
"","3999.134999990929","sequential-stimulus-presentation","153","499946","0.0-32.0-1.0","SS1613169619565","trial","","40","800","4799.134999990929","images/stimuli/spore_stims/simple_13_B_a.gif","images/stimuli/spore_stims/simple_17_B_d.gif","","","","","8","simple_dissimilar","images/stimuli/spore_stims/simple_17_B_d.gif","middle","","","","",""
"","null","html-keyboard-response","154","501027","0.0-32.0-0.1","SS1613169619565","","","null","","","","","<p><img src= images/blank.png width =""200"" height = ""200"" style = ""float:right""></p><p><img src=images/blank.png width =""800"" height = ""200""></p>","","","","","","","","","","","",""
"","887.5750000006519","sequential-stimulus-presentation","155","502730","0.0-32.0-1.1","SS1613169619565","trial","","40","800","1687.575000000652","images/stimuli/spore_stims/simple_13_B_a.gif","images/stimuli/spore_stims/simple_17_B_d.gif","","","","","8","simple_dissimilar","images/stimuli/spore_stims/simple_17_B_d.gif","middle","","","","",""
"","null","html-keyboard-response","156","503580","0.0-32.0-0.2","SS1613169619565","","","null","","","","","<p><img src= images/blank.png width =""200"" height = ""200"" style = ""float:right""></p><p><img src=images/blank.png width =""800"" height = ""200""></p>","","","","","","","","","","","",""
"","2071.8999999808148","sequential-stimulus-presentation","157","506463","0.0-32.0-1.2","SS1613169619565","trial","","40","800","2871.8999999808148","images/stimuli/spore_stims/simple_13_B_a.gif","images/stimuli/spore_stims/simple_17_B_d.gif","","","","","8","simple_dissimilar","images/stimuli/spore_stims/simple_13_B_a.gif","right","","","","",""
"","null","html-keyboard-response","158","507671","0.0-32.0-0.3","SS1613169619565","","","null","","","","","<p><img src= images/blank.png width =""200"" height = ""200"" style = ""float:right""></p><p><img src=images/blank.png width =""800"" height = ""200""></p>","","","","","","","","","","","",""
"","1390.9550000098534","sequential-stimulus-presentation","159","509876","0.0-32.0-1.3","SS1613169619565","trial","","40","800","2190.9550000098534","images/stimuli/spore_stims/simple_13_B_a.gif","images/stimuli/spore_stims/simple_17_B_d.gif","","","","","8","simple_dissimilar","images/stimuli/spore_stims/simple_17_B_d.gif","middle","","","","",""
"","null","html-keyboard-response","160","510876","0.0-32.0-0.4","SS1613169619565","","","null","","","","","<p><img src= images/blank.png width =""200"" height = ""200"" style = ""float:right""></p><p><img src=images/blank.png width =""800"" height = ""200""></p>","","","","","","","","","","","",""
"","1759.7800000221469","sequential-stimulus-presentation","161","513463","0.0-32.0-1.4","SS1613169619565","trial","","40","800","2559.780000022147","images/stimuli/spore_stims/simple_13_B_a.gif","images/stimuli/spore_stims/simple_17_B_d.gif","","","","","8","simple_dissimilar","images/stimuli/spore_stims/simple_17_B_d.gif","middle","","","","",""
"","null","html-keyboard-response","162","514507","0.0-32.0-0.5","SS1613169619565","","","null","","","","","<p><img src= images/blank.png width =""200"" height = ""200"" style = ""float:right""></p><p><img src=images/blank.png width =""800"" height = ""200""></p>","","","","","","","","","","","",""
"","1292.0499999891035","sequential-stimulus-presentation","163","516638","0.0-32.0-1.5","SS1613169619565","trial","","40","800","2092.0499999891035","images/stimuli/spore_stims/simple_13_B_a.gif","images/stimuli/spore_stims/simple_17_B_d.gif","","","","","8","simple_dissimilar","images/stimuli/spore_stims/simple_17_B_d.gif","middle","","","","",""
"","null","html-keyboard-response","164","517563","0.0-32.0-0.6","SS1613169619565","","","null","","","","","<p><img src= images/blank.png width =""200"" height = ""200"" style = ""float:right""></p><p><img src=images/blank.png width =""800"" height = ""200""></p>","","","","","","","","","","","",""
"","1157.3349999962375","sequential-stimulus-presentation","165","519543","0.0-32.0-1.6","SS1613169619565","trial","","40","800","1957.3349999962375","images/stimuli/spore_stims/simple_13_B_a.gif","images/stimuli/spore_stims/simple_17_B_d.gif","","","","","8","simple_dissimilar","images/stimuli/spore_stims/simple_17_B_d.gif","middle","","","","",""
"","null","html-keyboard-response","166","520741","0.0-32.0-0.7","SS1613169619565","","","null","","","","","<p><img src= images/blank.png width =""200"" height = ""200"" style = ""float:right""></p><p><img src=images/blank.png width =""800"" height = ""200""></p>","","","","","","","","","","","",""
"","1264.4899999722838","sequential-stimulus-presentation","167","522824","0.0-32.0-1.7","SS1613169619565","trial","","40","800","2064.489999972284","images/stimuli/spore_stims/simple_13_B_a.gif","images/stimuli/spore_stims/simple_17_B_d.gif","","","","","8","simple_dissimilar","images/stimuli/spore_stims/simple_17_B_d.gif","middle","","","","",""
"","1975.395000015851","html-keyboard-response","168","524807","0.0-33.0","SS1613169619565","pref_question","","49","","","","","<video width ='960' height = '540' style='padding-top:8%' autoplay muted><source src='images/stimuli/wall_pref.mp4' type='video/mp4'></video>","1","left","25%","8","","","","","","","",""
"","2971.9800000311807","sequential-stimulus-presentation","169","528613","0.0-34.0","SS1613169619565","pref_reveal","","40","800","3771.9800000311807","null","null","","","","","8","","","","novel","","","",""
"","null","html-keyboard-response","170","529715","0.0-35.0-0.0","SS1613169619565","","","null","","","","","<p><img src= images/blank.png width =""200"" height = ""200"" style = ""float:right""></p><p><img src=images/blank.png width =""800"" height = ""200""></p>","","","","","","","","","","","",""
"","2226.0799999930896","sequential-stimulus-presentation","171","532756","0.0-35.0-1.0","SS1613169619565","trial","","40","800","3026.0799999930896","images/stimuli/spore_stims/complex_16_A_d.gif","images/stimuli/spore_stims/complex_20_A_d.gif","","","","","9","complex_dissimilar","images/stimuli/spore_stims/complex_20_A_d.gif","left","","","","",""
"","null","html-keyboard-response","172","533740","0.0-35.0-0.1","SS1613169619565","","","null","","","","","<p><img src= images/blank.png width =""200"" height = ""200"" style = ""float:right""></p><p><img src=images/blank.png width =""800"" height = ""200""></p>","","","","","","","","","","","",""
"","1823.0099999927916","sequential-stimulus-presentation","173","536384","0.0-35.0-1.1","SS1613169619565","trial","","40","800","2623.0099999927916","images/stimuli/spore_stims/complex_16_A_d.gif","images/stimuli/spore_stims/complex_20_A_d.gif","","","","","9","complex_dissimilar","images/stimuli/spore_stims/complex_20_A_d.gif","left","","","","",""
"","null","html-keyboard-response","174","537443","0.0-35.0-0.2","SS1613169619565","","","null","","","","","<p><img src= images/blank.png width =""200"" height = ""200"" style = ""float:right""></p><p><img src=images/blank.png width =""800"" height = ""200""></p>","","","","","","","","","","","",""
"","2825.399999972433","sequential-stimulus-presentation","175","541079","0.0-35.0-1.2","SS1613169619565","trial","","40","800","3625.399999972433","images/stimuli/spore_stims/complex_16_A_d.gif","images/stimuli/spore_stims/complex_20_A_d.gif","","","","","9","complex_dissimilar","images/stimuli/spore_stims/complex_16_A_d.gif","right","","","","",""
"","null","html-keyboard-response","176","542149","0.0-35.0-0.3","SS1613169619565","","","null","","","","","<p><img src= images/blank.png width =""200"" height = ""200"" style = ""float:right""></p><p><img src=images/blank.png width =""800"" height = ""200""></p>","","","","","","","","","","","",""
"","2908.815000031609","sequential-stimulus-presentation","177","545871","0.0-35.0-1.3","SS1613169619565","trial","","40","800","3708.815000031609","images/stimuli/spore_stims/complex_16_A_d.gif","images/stimuli/spore_stims/complex_20_A_d.gif","","","","","9","complex_dissimilar","images/stimuli/spore_stims/complex_20_A_d.gif","left","","","","",""
"","null","html-keyboard-response","178","547099","0.0-35.0-0.4","SS1613169619565","","","null","","","","","<p><img src= images/blank.png width =""200"" height = ""200"" style = ""float:right""></p><p><img src=images/blank.png width =""800"" height = ""200""></p>","","","","","","","","","","","",""
"","2367.590000038035","sequential-stimulus-presentation","179","550284","0.0-35.0-1.4","SS1613169619565","trial","","40","800","3167.590000038035","images/stimuli/spore_stims/complex_16_A_d.gif","images/stimuli/spore_stims/complex_20_A_d.gif","","","","","9","complex_dissimilar","images/stimuli/spore_stims/complex_20_A_d.gif","left","","","","",""
"","null","html-keyboard-response","180","551432","0.0-35.0-0.5","SS1613169619565","","","null","","","","","<p><img src= images/blank.png width =""200"" height = ""200"" style = ""float:right""></p><p><img src=images/blank.png width =""800"" height = ""200""></p>","","","","","","","","","","","",""
"","2102.825000009034","sequential-stimulus-presentation","181","554354","0.0-35.0-1.5","SS1613169619565","trial","","40","800","2902.825000009034","images/stimuli/spore_stims/complex_16_A_d.gif","images/stimuli/spore_stims/complex_20_A_d.gif","","","","","9","complex_dissimilar","images/stimuli/spore_stims/complex_20_A_d.gif","left","","","","",""
"","null","html-keyboard-response","182","555373","0.0-35.0-0.6","SS1613169619565","","","null","","","","","<p><img src= images/blank.png width =""200"" height = ""200"" style = ""float:right""></p><p><img src=images/blank.png width =""800"" height = ""200""></p>","","","","","","","","","","","",""
"","1348.5450000152923","sequential-stimulus-presentation","183","557540","0.0-35.0-1.6","SS1613169619565","trial","","40","800","2148.5450000152923","images/stimuli/spore_stims/complex_16_A_d.gif","images/stimuli/spore_stims/complex_20_A_d.gif","","","","","9","complex_dissimilar","images/stimuli/spore_stims/complex_20_A_d.gif","left","","","","",""
"","null","html-keyboard-response","184","558604","0.0-35.0-0.7","SS1613169619565","","","null","","","","","<p><img src= images/blank.png width =""200"" height = ""200"" style = ""float:right""></p><p><img src=images/blank.png width =""800"" height = ""200""></p>","","","","","","","","","","","",""
"","1085.7899999828078","sequential-stimulus-presentation","185","560506","0.0-35.0-1.7","SS1613169619565","trial","","40","800","1885.7899999828078","images/stimuli/spore_stims/complex_16_A_d.gif","images/stimuli/spore_stims/complex_20_A_d.gif","","","","","9","complex_dissimilar","images/stimuli/spore_stims/complex_20_A_d.gif","left","","","","",""
"","1883.4700000006706","html-keyboard-response","186","562399","0.0-36.0","SS1613169619565","pref_question","","50","","","","","<video width ='960' height = '540' style='padding-top:8%' autoplay muted><source src='images/stimuli/wall_pref.mp4' type='video/mp4'></video>","2","middle","45%","9","","","","","","","",""
"","1707.700000028126","sequential-stimulus-presentation","187","564918","0.0-37.0","SS1613169619565","pref_reveal","","40","800","2507.700000028126","null","null","","","","","9","","","","novel","","","",""
"","null","html-keyboard-response","188","566145","0.0-38.0-0.0","SS1613169619565","","","null","","","","","<p><img src= images/blank.png width =""200"" height = ""200"" style = ""float:right""></p><p><img src=images/blank.png width =""800"" height = ""200""></p>","","","","","","","","","","","",""
"","1806.304999976419","sequential-stimulus-presentation","189","568764","0.0-38.0-1.0","SS1613169619565","trial","","40","800","2606.304999976419","images/stimuli/spore_stims/complex_18_B_d.gif","images/stimuli/spore_stims/complex_18_A_d.gif","","","","","10","complex_similar","images/stimuli/spore_stims/complex_18_A_d.gif","left","","","","",""
"","null","html-keyboard-response","190","569652","0.0-38.0-0.1","SS1613169619565","","","null","","","","","<p><img src= images/blank.png width =""200"" height = ""200"" style = ""float:right""></p><p><img src=images/blank.png width =""800"" height = ""200""></p>","","","","","","","","","","","",""
"","1121.1100000073202","sequential-stimulus-presentation","191","571587","0.0-38.0-1.1","SS1613169619565","trial","","40","800","1921.1100000073202","images/stimuli/spore_stims/complex_18_B_d.gif","images/stimuli/spore_stims/complex_18_A_d.gif","","","","","10","complex_similar","images/stimuli/spore_stims/complex_18_A_d.gif","left","","","","",""
"","null","html-keyboard-response","192","572595","0.0-38.0-0.2","SS1613169619565","","","null","","","","","<p><img src= images/blank.png width =""200"" height = ""200"" style = ""float:right""></p><p><img src=images/blank.png width =""800"" height = ""200""></p>","","","","","","","","","","","",""
"","1642.8849999792874","sequential-stimulus-presentation","193","575055","0.0-38.0-1.2","SS1613169619565","trial","","40","800","2442.8849999792874","images/stimuli/spore_stims/complex_18_B_d.gif","images/stimuli/spore_stims/complex_18_A_d.gif","","","","","10","complex_similar","images/stimuli/spore_stims/complex_18_A_d.gif","left","","","","",""
"","null","html-keyboard-response","194","576239","0.0-38.0-0.3","SS1613169619565","","","null","","","","","<p><img src= images/blank.png width =""200"" height = ""200"" style = ""float:right""></p><p><img src=images/blank.png width =""800"" height = ""200""></p>","","","","","","","","","","","",""
"","1066.3599999970756","sequential-stimulus-presentation","195","578132","0.0-38.0-1.3","SS1613169619565","trial","","40","800","1866.3599999970756","images/stimuli/spore_stims/complex_18_B_d.gif","images/stimuli/spore_stims/complex_18_A_d.gif","","","","","10","complex_similar","images/stimuli/spore_stims/complex_18_A_d.gif","left","","","","",""
"","null","html-keyboard-response","196","579063","0.0-38.0-0.4","SS1613169619565","","","null","","","","","<p><img src= images/blank.png width =""200"" height = ""200"" style = ""float:right""></p><p><img src=images/blank.png width =""800"" height = ""200""></p>","","","","","","","","","","","",""
"","1482.175000011921","sequential-stimulus-presentation","197","581354","0.0-38.0-1.4","SS1613169619565","trial","","40","800","2282.175000011921","images/stimuli/spore_stims/complex_18_B_d.gif","images/stimuli/spore_stims/complex_18_A_d.gif","","","","","10","complex_similar","images/stimuli/spore_stims/complex_18_A_d.gif","left","","","","",""
"","null","html-keyboard-response","198","582259","0.0-38.0-0.5","SS1613169619565","","","null","","","","","<p><img src= images/blank.png width =""200"" height = ""200"" style = ""float:right""></p><p><img src=images/blank.png width =""800"" height = ""200""></p>","","","","","","","","","","","",""
"","2044.6000000229105","sequential-stimulus-presentation","199","585130","0.0-38.0-1.5","SS1613169619565","trial","","40","800","2844.6000000229105","images/stimuli/spore_stims/complex_18_B_d.gif","images/stimuli/spore_stims/complex_18_A_d.gif","","","","","10","complex_similar","images/stimuli/spore_stims/complex_18_A_d.gif","left","","","","",""
"","null","html-keyboard-response","200","586283","0.0-38.0-0.6","SS1613169619565","","","null","","","","","<p><img src= images/blank.png width =""200"" height = ""200"" style = ""float:right""></p><p><img src=images/blank.png width =""800"" height = ""200""></p>","","","","","","","","","","","",""
"","2863.690000027418","sequential-stimulus-presentation","201","589963","0.0-38.0-1.6","SS1613169619565","trial","","40","800","3663.690000027418","images/stimuli/spore_stims/complex_18_B_d.gif","images/stimuli/spore_stims/complex_18_A_d.gif","","","","","10","complex_similar","images/stimuli/spore_stims/complex_18_B_d.gif","right","","","","",""
"","null","html-keyboard-response","202","590904","0.0-38.0-0.7","SS1613169619565","","","null","","","","","<p><img src= images/blank.png width =""200"" height = ""200"" style = ""float:right""></p><p><img src=images/blank.png width =""800"" height = ""200""></p>","","","","","","","","","","","",""
"","1033.5700000287034","sequential-stimulus-presentation","203","592752","0.0-38.0-1.7","SS1613169619565","trial","","40","800","1833.5700000287034","images/stimuli/spore_stims/complex_18_B_d.gif","images/stimuli/spore_stims/complex_18_A_d.gif","","","","","10","complex_similar","images/stimuli/spore_stims/complex_18_A_d.gif","left","","","","",""
"","2650.3150000353344","html-keyboard-response","204","595409","0.0-39.0","SS1613169619565","pref_question","","51","","","","","<video width ='960' height = '540' style='padding-top:8%' autoplay muted><source src='images/stimuli/wall_pref.mp4' type='video/mp4'></video>","3","right","66%","10","","","","","","","",""
"","4140.300000028219","sequential-stimulus-presentation","205","600363","0.0-40.0","SS1613169619565","pref_reveal","","40","800","4940.300000028219","null","null","","","","","10","","","","deviant","","","",""
"","null","html-keyboard-response","206","601449","0.0-41.0-0.0","SS1613169619565","","","null","","","","","<p><img src= images/blank.png width =""200"" height = ""200"" style = ""float:right""></p><p><img src=images/blank.png width =""800"" height = ""200""></p>","","","","","","","","","","","",""
"","5692.255000001751","sequential-stimulus-presentation","207","607956","0.0-41.0-1.0","SS1613169619565","trial","","40","800","6492.255000001751","images/stimuli/spore_stims/simple_14_B_b.gif","images/stimuli/spore_stims/simple_14_A_b.gif","","","","","11","simple_similar","images/stimuli/spore_stims/simple_14_A_b.gif","left","","","","",""
"","null","html-keyboard-response","208","609027","0.0-41.0-0.1","SS1613169619565","","","null","","","","","<p><img src= images/blank.png width =""200"" height = ""200"" style = ""float:right""></p><p><img src=images/blank.png width =""800"" height = ""200""></p>","","","","","","","","","","","",""
"","1283.2449999987148","sequential-stimulus-presentation","209","611125","0.0-41.0-1.1","SS1613169619565","trial","","40","800","2083.244999998715","images/stimuli/spore_stims/simple_14_B_b.gif","images/stimuli/spore_stims/simple_14_A_b.gif","","","","","11","simple_similar","images/stimuli/spore_stims/simple_14_A_b.gif","left","","","","",""
"","null","html-keyboard-response","210","612012","0.0-41.0-0.2","SS1613169619565","","","null","","","","","<p><img src= images/blank.png width =""200"" height = ""200"" style = ""float:right""></p><p><img src=images/blank.png width =""800"" height = ""200""></p>","","","","","","","","","","","",""
"","1182.9199999920093","sequential-stimulus-presentation","211","614009","0.0-41.0-1.2","SS1613169619565","trial","","40","800","1982.9199999920093","images/stimuli/spore_stims/simple_14_B_b.gif","images/stimuli/spore_stims/simple_14_A_b.gif","","","","","11","simple_similar","images/stimuli/spore_stims/simple_14_A_b.gif","left","","","","",""
"","null","html-keyboard-response","212","615221","0.0-41.0-0.3","SS1613169619565","","","null","","","","","<p><img src= images/blank.png width =""200"" height = ""200"" style = ""float:right""></p><p><img src=images/blank.png width =""800"" height = ""200""></p>","","","","","","","","","","","",""
"","814.2050000024028","sequential-stimulus-presentation","213","616848","0.0-41.0-1.3","SS1613169619565","trial","","40","800","1614.2050000024028","images/stimuli/spore_stims/simple_14_B_b.gif","images/stimuli/spore_stims/simple_14_A_b.gif","","","","","11","simple_similar","images/stimuli/spore_stims/simple_14_A_b.gif","left","","","","",""
"","null","html-keyboard-response","214","618052","0.0-41.0-0.4","SS1613169619565","","","null","","","","","<p><img src= images/blank.png width =""200"" height = ""200"" style = ""float:right""></p><p><img src=images/blank.png width =""800"" height = ""200""></p>","","","","","","","","","","","",""
"","885.9449999872595","sequential-stimulus-presentation","215","619750","0.0-41.0-1.4","SS1613169619565","trial","","40","800","1685.9449999872595","images/stimuli/spore_stims/simple_14_B_b.gif","images/stimuli/spore_stims/simple_14_A_b.gif","","","","","11","simple_similar","images/stimuli/spore_stims/simple_14_A_b.gif","left","","","","",""
"","null","html-keyboard-response","216","620812","0.0-41.0-0.5","SS1613169619565","","","null","","","","","<p><img src= images/blank.png width =""200"" height = ""200"" style = ""float:right""></p><p><img src=images/blank.png width =""800"" height = ""200""></p>","","","","","","","","","","","",""
"","1281.7250000080094","sequential-stimulus-presentation","217","622908","0.0-41.0-1.5","SS1613169619565","trial","","40","800","2081.7250000080094","images/stimuli/spore_stims/simple_14_B_b.gif","images/stimuli/spore_stims/simple_14_A_b.gif","","","","","11","simple_similar","images/stimuli/spore_stims/simple_14_B_b.gif","middle","","","","",""
"","null","html-keyboard-response","218","624079","0.0-41.0-0.6","SS1613169619565","","","null","","","","","<p><img src= images/blank.png width =""200"" height = ""200"" style = ""float:right""></p><p><img src=images/blank.png width =""800"" height = ""200""></p>","","","","","","","","","","","",""
"","1443.4500000206754","sequential-stimulus-presentation","219","626340","0.0-41.0-1.6","SS1613169619565","trial","","40","800","2243.4500000206754","images/stimuli/spore_stims/simple_14_B_b.gif","images/stimuli/spore_stims/simple_14_A_b.gif","","","","","11","simple_similar","images/stimuli/spore_stims/simple_14_A_b.gif","left","","","","",""
"","null","html-keyboard-response","220","627314","0.0-41.0-0.7","SS1613169619565","","","null","","","","","<p><img src= images/blank.png width =""200"" height = ""200"" style = ""float:right""></p><p><img src=images/blank.png width =""800"" height = ""200""></p>","","","","","","","","","","","",""
"","1308.4600000292994","sequential-stimulus-presentation","221","629435","0.0-41.0-1.7","SS1613169619565","trial","","40","800","2108.4600000292994","images/stimuli/spore_stims/simple_14_B_b.gif","images/stimuli/spore_stims/simple_14_A_b.gif","","","","","11","simple_similar","images/stimuli/spore_stims/simple_14_A_b.gif","left","","","","",""
"","2727.0299999509007","html-keyboard-response","222","632176","0.0-42.0","SS1613169619565","pref_question","","51","","","","","<video width ='960' height = '540' style='padding-top:8%' autoplay muted><source src='images/stimuli/wall_pref.mp4' type='video/mp4'></video>","3","right","66%","11","","","","","","","",""
"","2211.5950000006706","sequential-stimulus-presentation","223","635200","0.0-43.0","SS1613169619565","pref_reveal","","40","800","3011.5950000006706","null","null","","","","","11","","","","novel","","","",""
"","null","html-keyboard-response","224","636082","0.0-44.0-0.0","SS1613169619565","","","null","","","","","<p><img src= images/blank.png width =""200"" height = ""200"" style = ""float:right""></p><p><img src=images/blank.png width =""800"" height = ""200""></p>","","","","","","","","","","","",""
"","2249.0100000286475","sequential-stimulus-presentation","225","639149","0.0-44.0-1.0","SS1613169619565","trial","","40","800","3049.0100000286475","images/stimuli/spore_stims/complex_17_A_a.gif","images/stimuli/spore_stims/complex_17_B_a.gif","","","","","12","complex_similar","images/stimuli/spore_stims/complex_17_B_a.gif","right","","","","",""
"","null","html-keyboard-response","226","640379","0.0-44.0-0.1","SS1613169619565","","","null","","","","","<p><img src= images/blank.png width =""200"" height = ""200"" style = ""float:right""></p><p><img src=images/blank.png width =""800"" height = ""200""></p>","","","","","","","","","","","",""
"","901.0899999993853","sequential-stimulus-presentation","227","642093","0.0-44.0-1.1","SS1613169619565","trial","","40","800","1701.0899999993853","images/stimuli/spore_stims/complex_17_A_a.gif","images/stimuli/spore_stims/complex_17_B_a.gif","","","","","12","complex_similar","images/stimuli/spore_stims/complex_17_B_a.gif","right","","","","",""
"","null","html-keyboard-response","228","643264","0.0-44.0-0.2","SS1613169619565","","","null","","","","","<p><img src= images/blank.png width =""200"" height = ""200"" style = ""float:right""></p><p><img src=images/blank.png width =""800"" height = ""200""></p>","","","","","","","","","","","",""
"","1325.795000011567","sequential-stimulus-presentation","229","645407","0.0-44.0-1.2","SS1613169619565","trial","","40","800","2125.795000011567","images/stimuli/spore_stims/complex_17_A_a.gif","images/stimuli/spore_stims/complex_17_B_a.gif","","","","","12","complex_similar","images/stimuli/spore_stims/complex_17_B_a.gif","right","","","","",""
"","null","html-keyboard-response","230","646448","0.0-44.0-0.3","SS1613169619565","","","null","","","","","<p><img src= images/blank.png width =""200"" height = ""200"" style = ""float:right""></p><p><img src=images/blank.png width =""800"" height = ""200""></p>","","","","","","","","","","","",""
"","1148.7299999571405","sequential-stimulus-presentation","231","648413","0.0-44.0-1.3","SS1613169619565","trial","","40","800","1948.7299999571405","images/stimuli/spore_stims/complex_17_A_a.gif","images/stimuli/spore_stims/complex_17_B_a.gif","","","","","12","complex_similar","images/stimuli/spore_stims/complex_17_B_a.gif","right","","","","",""
"","null","html-keyboard-response","232","649328","0.0-44.0-0.4","SS1613169619565","","","null","","","","","<p><img src= images/blank.png width =""200"" height = ""200"" style = ""float:right""></p><p><img src=images/blank.png width =""800"" height = ""200""></p>","","","","","","","","","","","",""
"","1750.4600000102073","sequential-stimulus-presentation","233","651893","0.0-44.0-1.4","SS1613169619565","trial","","40","800","2550.4600000102073","images/stimuli/spore_stims/complex_17_A_a.gif","images/stimuli/spore_stims/complex_17_B_a.gif","","","","","12","complex_similar","images/stimuli/spore_stims/complex_17_A_a.gif","left","","","","",""
"","null","html-keyboard-response","234","652945","0.0-44.0-0.5","SS1613169619565","","","null","","","","","<p><img src= images/blank.png width =""200"" height = ""200"" style = ""float:right""></p><p><img src=images/blank.png width =""800"" height = ""200""></p>","","","","","","","","","","","",""
"","1308.290000015404","sequential-stimulus-presentation","235","655104","0.0-44.0-1.5","SS1613169619565","trial","","40","800","2108.290000015404","images/stimuli/spore_stims/complex_17_A_a.gif","images/stimuli/spore_stims/complex_17_B_a.gif","","","","","12","complex_similar","images/stimuli/spore_stims/complex_17_B_a.gif","right","","","","",""
"","null","html-keyboard-response","236","656345","0.0-44.0-0.6","SS1613169619565","","","null","","","","","<p><img src= images/blank.png width =""200"" height = ""200"" style = ""float:right""></p><p><img src=images/blank.png width =""800"" height = ""200""></p>","","","","","","","","","","","",""
"","1830.184999969788","sequential-stimulus-presentation","237","658994","0.0-44.0-1.6","SS1613169619565","trial","","40","800","2630.184999969788","images/stimuli/spore_stims/complex_17_A_a.gif","images/stimuli/spore_stims/complex_17_B_a.gif","","","","","12","complex_similar","images/stimuli/spore_stims/complex_17_B_a.gif","right","","","","",""
"","null","html-keyboard-response","238","660097","0.0-44.0-0.7","SS1613169619565","","","null","","","","","<p><img src= images/blank.png width =""200"" height = ""200"" style = ""float:right""></p><p><img src=images/blank.png width =""800"" height = ""200""></p>","","","","","","","","","","","",""
"","1009.3099999940023","sequential-stimulus-presentation","239","661931","0.0-44.0-1.7","SS1613169619565","trial","","40","800","1809.3099999940023","images/stimuli/spore_stims/complex_17_A_a.gif","images/stimuli/spore_stims/complex_17_B_a.gif","","","","","12","complex_similar","images/stimuli/spore_stims/complex_17_B_a.gif","right","","","","",""
"","1863.8250000076368","html-keyboard-response","240","663807","0.0-45.0","SS1613169619565","pref_question","","50","","","","","<video width ='960' height = '540' style='padding-top:8%' autoplay muted><source src='images/stimuli/wall_pref.mp4' type='video/mp4'></video>","2","middle","45%","12","","","","","","","",""
"","1706.1850000172853","sequential-stimulus-presentation","241","666322","0.0-46.0","SS1613169619565","pref_reveal","","40","800","2506.1850000172853","null","null","","","","","12","","","","novel","","","",""
"","null","html-keyboard-response","242","667360","0.0-47.0-0.0","SS1613169619565","","","null","","","","","<p><img src= images/blank.png width =""200"" height = ""200"" style = ""float:right""></p><p><img src=images/blank.png width =""800"" height = ""200""></p>","","","","","","","","","","","",""
"","1373.1849999749102","sequential-stimulus-presentation","243","669551","0.0-47.0-1.0","SS1613169619565","trial","","40","800","2173.18499997491","images/stimuli/spore_stims/complex_07_A_a.gif","images/stimuli/spore_stims/complex_14_A_c.gif","","","","","13","complex_dissimilar","images/stimuli/spore_stims/complex_14_A_c.gif","left","","","","",""
"","null","html-keyboard-response","244","670590","0.0-47.0-0.1","SS1613169619565","","","null","","","","","<p><img src= images/blank.png width =""200"" height = ""200"" style = ""float:right""></p><p><img src=images/blank.png width =""800"" height = ""200""></p>","","","","","","","","","","","",""
"","1147.8749999660067","sequential-stimulus-presentation","245","672553","0.0-47.0-1.1","SS1613169619565","trial","","40","800","1947.8749999660067","images/stimuli/spore_stims/complex_07_A_a.gif","images/stimuli/spore_stims/complex_14_A_c.gif","","","","","13","complex_dissimilar","images/stimuli/spore_stims/complex_14_A_c.gif","left","","","","",""
"","null","html-keyboard-response","246","673733","0.0-47.0-0.2","SS1613169619565","","","null","","","","","<p><img src= images/blank.png width =""200"" height = ""200"" style = ""float:right""></p><p><img src=images/blank.png width =""800"" height = ""200""></p>","","","","","","","","","","","",""
"","1076.8300000345334","sequential-stimulus-presentation","247","675644","0.0-47.0-1.2","SS1613169619565","trial","","40","800","1876.8300000345334","images/stimuli/spore_stims/complex_07_A_a.gif","images/stimuli/spore_stims/complex_14_A_c.gif","","","","","13","complex_dissimilar","images/stimuli/spore_stims/complex_14_A_c.gif","left","","","","",""
"","null","html-keyboard-response","248","676900","0.0-47.0-0.3","SS1613169619565","","","null","","","","","<p><img src= images/blank.png width =""200"" height = ""200"" style = ""float:right""></p><p><img src=images/blank.png width =""800"" height = ""200""></p>","","","","","","","","","","","",""
"","569.4650000077672","sequential-stimulus-presentation","249","678289","0.0-47.0-1.3","SS1613169619565","trial","","40","800","1369.4650000077672","images/stimuli/spore_stims/complex_07_A_a.gif","images/stimuli/spore_stims/complex_14_A_c.gif","","","","","13","complex_dissimilar","images/stimuli/spore_stims/complex_14_A_c.gif","left","","","","",""
"","null","html-keyboard-response","250","679387","0.0-47.0-0.4","SS1613169619565","","","null","","","","","<p><img src= images/blank.png width =""200"" height = ""200"" style = ""float:right""></p><p><img src=images/blank.png width =""800"" height = ""200""></p>","","","","","","","","","","","",""
"","1145.2200000057928","sequential-stimulus-presentation","251","681348","0.0-47.0-1.4","SS1613169619565","trial","","40","800","1945.2200000057928","images/stimuli/spore_stims/complex_07_A_a.gif","images/stimuli/spore_stims/complex_14_A_c.gif","","","","","13","complex_dissimilar","images/stimuli/spore_stims/complex_07_A_a.gif","right","","","","",""
"","null","html-keyboard-response","252","682173","0.0-47.0-0.5","SS1613169619565","","","null","","","","","<p><img src= images/blank.png width =""200"" height = ""200"" style = ""float:right""></p><p><img src=images/blank.png width =""800"" height = ""200""></p>","","","","","","","","","","","",""
"","1991.829999955371","sequential-stimulus-presentation","253","684981","0.0-47.0-1.5","SS1613169619565","trial","","40","800","2791.829999955371","images/stimuli/spore_stims/complex_07_A_a.gif","images/stimuli/spore_stims/complex_14_A_c.gif","","","","","13","complex_dissimilar","images/stimuli/spore_stims/complex_14_A_c.gif","left","","","","",""
"","null","html-keyboard-response","254","686255","0.0-47.0-0.6","SS1613169619565","","","null","","","","","<p><img src= images/blank.png width =""200"" height = ""200"" style = ""float:right""></p><p><img src=images/blank.png width =""800"" height = ""200""></p>","","","","","","","","","","","",""
"","1209.7549999598414","sequential-stimulus-presentation","255","688276","0.0-47.0-1.6","SS1613169619565","trial","","40","800","2009.7549999598414","images/stimuli/spore_stims/complex_07_A_a.gif","images/stimuli/spore_stims/complex_14_A_c.gif","","","","","13","complex_dissimilar","images/stimuli/spore_stims/complex_14_A_c.gif","left","","","","",""
"","null","html-keyboard-response","256","689574","0.0-47.0-0.7","SS1613169619565","","","null","","","","","<p><img src= images/blank.png width =""200"" height = ""200"" style = ""float:right""></p><p><img src=images/blank.png width =""800"" height = ""200""></p>","","","","","","","","","","","",""
"","663.2100000279024","sequential-stimulus-presentation","257","691055","0.0-47.0-1.7","SS1613169619565","trial","","40","800","1463.2100000279024","images/stimuli/spore_stims/complex_07_A_a.gif","images/stimuli/spore_stims/complex_14_A_c.gif","","","","","13","complex_dissimilar","images/stimuli/spore_stims/complex_14_A_c.gif","left","","","","",""
"","1865.659999952186","html-keyboard-response","258","692935","0.0-48.0","SS1613169619565","pref_question","","50","","","","","<video width ='960' height = '540' style='padding-top:8%' autoplay muted><source src='images/stimuli/wall_pref.mp4' type='video/mp4'></video>","2","middle","45%","13","","","","","","","",""
"","2594.8450000141747","sequential-stimulus-presentation","259","696341","0.0-49.0","SS1613169619565","pref_reveal","","40","800","3394.8450000141747","null","null","","","","","13","","","","novel","","","",""
"","null","html-keyboard-response","260","697376","0.0-50.0-0.0","SS1613169619565","","","null","","","","","<p><img src= images/blank.png width =""200"" height = ""200"" style = ""float:right""></p><p><img src=images/blank.png width =""800"" height = ""200""></p>","","","","","","","","","","","",""
"","3277.1150000044145","sequential-stimulus-presentation","261","701473","0.0-50.0-1.0","SS1613169619565","trial","","40","800","4077.1150000044145","images/stimuli/spore_stims/simple_01_B_a.gif","images/stimuli/spore_stims/simple_01_A_b.gif","","","","","14","simple_dissimilar","images/stimuli/spore_stims/simple_01_A_b.gif","left","","","","",""
"","null","html-keyboard-response","262","702301","0.0-50.0-0.1","SS1613169619565","","","null","","","","","<p><img src= images/blank.png width =""200"" height = ""200"" style = ""float:right""></p><p><img src=images/blank.png width =""800"" height = ""200""></p>","","","","","","","","","","","",""
"","2118.5800000093877","sequential-stimulus-presentation","263","705241","0.0-50.0-1.1","SS1613169619565","trial","","40","800","2918.5800000093877","images/stimuli/spore_stims/simple_01_B_a.gif","images/stimuli/spore_stims/simple_01_A_b.gif","","","","","14","simple_dissimilar","images/stimuli/spore_stims/simple_01_A_b.gif","left","","","","",""
"","null","html-keyboard-response","264","706055","0.0-50.0-0.2","SS1613169619565","","","null","","","","","<p><img src= images/blank.png width =""200"" height = ""200"" style = ""float:right""></p><p><img src=images/blank.png width =""800"" height = ""200""></p>","","","","","","","","","","","",""
"","1894.8600000003353","sequential-stimulus-presentation","265","708770","0.0-50.0-1.2","SS1613169619565","trial","","40","800","2694.8600000003353","images/stimuli/spore_stims/simple_01_B_a.gif","images/stimuli/spore_stims/simple_01_A_b.gif","","","","","14","simple_dissimilar","images/stimuli/spore_stims/simple_01_A_b.gif","left","","","","",""
"","null","html-keyboard-response","266","710013","0.0-50.0-0.3","SS1613169619565","","","null","","","","","<p><img src= images/blank.png width =""200"" height = ""200"" style = ""float:right""></p><p><img src=images/blank.png width =""800"" height = ""200""></p>","","","","","","","","","","","",""
"","932.1600000257604","sequential-stimulus-presentation","267","711758","0.0-50.0-1.3","SS1613169619565","trial","","40","800","1732.1600000257604","images/stimuli/spore_stims/simple_01_B_a.gif","images/stimuli/spore_stims/simple_01_A_b.gif","","","","","14","simple_dissimilar","images/stimuli/spore_stims/simple_01_A_b.gif","left","","","","",""
"","null","html-keyboard-response","268","712914","0.0-50.0-0.4","SS1613169619565","","","null","","","","","<p><img src= images/blank.png width =""200"" height = ""200"" style = ""float:right""></p><p><img src=images/blank.png width =""800"" height = ""200""></p>","","","","","","","","","","","",""
"","1225.4550000070594","sequential-stimulus-presentation","269","714963","0.0-50.0-1.4","SS1613169619565","trial","","40","800","2025.4550000070594","images/stimuli/spore_stims/simple_01_B_a.gif","images/stimuli/spore_stims/simple_01_A_b.gif","","","","","14","simple_dissimilar","images/stimuli/spore_stims/simple_01_A_b.gif","left","","","","",""
"","null","html-keyboard-response","270","716193","0.0-50.0-0.5","SS1613169619565","","","null","","","","","<p><img src= images/blank.png width =""200"" height = ""200"" style = ""float:right""></p><p><img src=images/blank.png width =""800"" height = ""200""></p>","","","","","","","","","","","",""
"","1183.740000007674","sequential-stimulus-presentation","271","718195","0.0-50.0-1.5","SS1613169619565","trial","","40","800","1983.740000007674","images/stimuli/spore_stims/simple_01_B_a.gif","images/stimuli/spore_stims/simple_01_A_b.gif","","","","","14","simple_dissimilar","images/stimuli/spore_stims/simple_01_A_b.gif","left","","","","",""
"","null","html-keyboard-response","272","719487","0.0-50.0-0.6","SS1613169619565","","","null","","","","","<p><img src= images/blank.png width =""200"" height = ""200"" style = ""float:right""></p><p><img src=images/blank.png width =""800"" height = ""200""></p>","","","","","","","","","","","",""
"","796.8550000223331","sequential-stimulus-presentation","273","721101","0.0-50.0-1.6","SS1613169619565","trial","","40","800","1596.8550000223331","images/stimuli/spore_stims/simple_01_B_a.gif","images/stimuli/spore_stims/simple_01_A_b.gif","","","","","14","simple_dissimilar","images/stimuli/spore_stims/simple_01_A_b.gif","left","","","","",""
"","null","html-keyboard-response","274","722402","0.0-50.0-0.7","SS1613169619565","","","null","","","","","<p><img src= images/blank.png width =""200"" height = ""200"" style = ""float:right""></p><p><img src=images/blank.png width =""800"" height = ""200""></p>","","","","","","","","","","","",""
"","1317.490000044927","sequential-stimulus-presentation","275","724533","0.0-50.0-1.7","SS1613169619565","trial","","40","800","2117.490000044927","images/stimuli/spore_stims/simple_01_B_a.gif","images/stimuli/spore_stims/simple_01_A_b.gif","","","","","14","simple_dissimilar","images/stimuli/spore_stims/simple_01_B_a.gif","right","","","","",""
"","2675.874999957159","html-keyboard-response","276","727221","0.0-51.0","SS1613169619565","pref_question","","50","","","","","<video width ='960' height = '540' style='padding-top:8%' autoplay muted><source src='images/stimuli/wall_pref.mp4' type='video/mp4'></video>","2","middle","45%","14","","","","","","","",""
"","1825.7599999778904","sequential-stimulus-presentation","277","729863","0.0-52.0","SS1613169619565","pref_reveal","","40","800","2625.7599999778904","null","null","","","","","14","","","","novel","","","",""
"","null","html-keyboard-response","278","731125","0.0-53.0-0.0","SS1613169619565","","","null","","","","","<p><img src= images/blank.png width =""200"" height = ""200"" style = ""float:right""></p><p><img src=images/blank.png width =""800"" height = ""200""></p>","","","","","","","","","","","",""
"","1195.6350000109524","sequential-stimulus-presentation","279","733142","0.0-53.0-1.0","SS1613169619565","trial","","40","800","1995.6350000109524","images/stimuli/spore_stims/complex_19_B_d.gif","images/stimuli/spore_stims/complex_08_A_d.gif","","","","","15","complex_dissimilar","images/stimuli/spore_stims/complex_08_A_d.gif","middle","","","","",""
"","null","html-keyboard-response","280","734286","0.0-53.0-0.1","SS1613169619565","","","null","","","","","<p><img src= images/blank.png width =""200"" height = ""200"" style = ""float:right""></p><p><img src=images/blank.png width =""800"" height = ""200""></p>","","","","","","","","","","","",""
"","1140.1000000187196","sequential-stimulus-presentation","281","736241","0.0-53.0-1.1","SS1613169619565","trial","","40","800","1940.1000000187196","images/stimuli/spore_stims/complex_19_B_d.gif","images/stimuli/spore_stims/complex_08_A_d.gif","","","","","15","complex_dissimilar","images/stimuli/spore_stims/complex_08_A_d.gif","middle","","","","",""
"","null","html-keyboard-response","282","737272","0.0-53.0-0.2","SS1613169619565","","","null","","","","","<p><img src= images/blank.png width =""200"" height = ""200"" style = ""float:right""></p><p><img src=images/blank.png width =""800"" height = ""200""></p>","","","","","","","","","","","",""
"","1057.0050000096671","sequential-stimulus-presentation","283","739167","0.0-53.0-1.2","SS1613169619565","trial","","40","800","1857.0050000096671","images/stimuli/spore_stims/complex_19_B_d.gif","images/stimuli/spore_stims/complex_08_A_d.gif","","","","","15","complex_dissimilar","images/stimuli/spore_stims/complex_08_A_d.gif","middle","","","","",""
"","null","html-keyboard-response","284","740326","0.0-53.0-0.3","SS1613169619565","","","null","","","","","<p><img src= images/blank.png width =""200"" height = ""200"" style = ""float:right""></p><p><img src=images/blank.png width =""800"" height = ""200""></p>","","","","","","","","","","","",""
"","904.3599999858998","sequential-stimulus-presentation","285","742045","0.0-53.0-1.3","SS1613169619565","trial","","40","800","1704.3599999858998","images/stimuli/spore_stims/complex_19_B_d.gif","images/stimuli/spore_stims/complex_08_A_d.gif","","","","","15","complex_dissimilar","images/stimuli/spore_stims/complex_08_A_d.gif","middle","","","","",""
"","null","html-keyboard-response","286","743165","0.0-53.0-0.4","SS1613169619565","","","null","","","","","<p><img src= images/blank.png width =""200"" height = ""200"" style = ""float:right""></p><p><img src=images/blank.png width =""800"" height = ""200""></p>","","","","","","","","","","","",""
"","811.8600000161678","sequential-stimulus-presentation","287","744791","0.0-53.0-1.4","SS1613169619565","trial","","40","800","1611.8600000161678","images/stimuli/spore_stims/complex_19_B_d.gif","images/stimuli/spore_stims/complex_08_A_d.gif","","","","","15","complex_dissimilar","images/stimuli/spore_stims/complex_08_A_d.gif","middle","","","","",""
"","null","html-keyboard-response","288","745641","0.0-53.0-0.5","SS1613169619565","","","null","","","","","<p><img src= images/blank.png width =""200"" height = ""200"" style = ""float:right""></p><p><img src=images/blank.png width =""800"" height = ""200""></p>","","","","","","","","","","","",""
"","1198.915000015404","sequential-stimulus-presentation","289","747653","0.0-53.0-1.5","SS1613169619565","trial","","40","800","1998.915000015404","images/stimuli/spore_stims/complex_19_B_d.gif","images/stimuli/spore_stims/complex_08_A_d.gif","","","","","15","complex_dissimilar","images/stimuli/spore_stims/complex_08_A_d.gif","middle","","","","",""
"","null","html-keyboard-response","290","748721","0.0-53.0-0.6","SS1613169619565","","","null","","","","","<p><img src= images/blank.png width =""200"" height = ""200"" style = ""float:right""></p><p><img src=images/blank.png width =""800"" height = ""200""></p>","","","","","","","","","","","",""
"","769.8899999959394","sequential-stimulus-presentation","291","750309","0.0-53.0-1.6","SS1613169619565","trial","","40","800","1569.8899999959394","images/stimuli/spore_stims/complex_19_B_d.gif","images/stimuli/spore_stims/complex_08_A_d.gif","","","","","15","complex_dissimilar","images/stimuli/spore_stims/complex_08_A_d.gif","middle","","","","",""
"","null","html-keyboard-response","292","751438","0.0-53.0-0.7","SS1613169619565","","","null","","","","","<p><img src= images/blank.png width =""200"" height = ""200"" style = ""float:right""></p><p><img src=images/blank.png width =""800"" height = ""200""></p>","","","","","","","","","","","",""
"","1147.1249999594875","sequential-stimulus-presentation","293","753432","0.0-53.0-1.7","SS1613169619565","trial","","40","800","1947.1249999594875","images/stimuli/spore_stims/complex_19_B_d.gif","images/stimuli/spore_stims/complex_08_A_d.gif","","","","","15","complex_dissimilar","images/stimuli/spore_stims/complex_19_B_d.gif","left","","","","",""
"","2683.9150000014342","html-keyboard-response","294","756128","0.0-54.0","SS1613169619565","pref_question","","51","","","","","<video width ='960' height = '540' style='padding-top:8%' autoplay muted><source src='images/stimuli/wall_pref.mp4' type='video/mp4'></video>","3","right","66%","15","","","","","","","",""
"","2456.4549999777228","sequential-stimulus-presentation","295","759399","0.0-55.0","SS1613169619565","pref_reveal","","40","800","3256.4549999777228","null","null","","","","","15","","","","novel","","","",""
"","null","html-keyboard-response","296","760305","0.0-56.0-0.0","SS1613169619565","","","null","","","","","<p><img src= images/blank.png width =""200"" height = ""200"" style = ""float:right""></p><p><img src=images/blank.png width =""800"" height = ""200""></p>","","","","","","","","","","","",""
"","1318.9899999997579","sequential-stimulus-presentation","297","762443","0.0-56.0-1.0","SS1613169619565","trial","","40","800","2118.989999999758","images/stimuli/spore_stims/simple_20_A_b.gif","images/stimuli/spore_stims/simple_20_B_b.gif","","","","","16","simple_similar","images/stimuli/spore_stims/simple_20_B_b.gif","right","","","","",""
"","null","html-keyboard-response","298","763532","0.0-56.0-0.1","SS1613169619565","","","null","","","","","<p><img src= images/blank.png width =""200"" height = ""200"" style = ""float:right""></p><p><img src=images/blank.png width =""800"" height = ""200""></p>","","","","","","","","","","","",""
"","1034.0849999920465","sequential-stimulus-presentation","299","765385","0.0-56.0-1.1","SS1613169619565","trial","","40","800","1834.0849999920465","images/stimuli/spore_stims/simple_20_A_b.gif","images/stimuli/spore_stims/simple_20_B_b.gif","","","","","16","simple_similar","images/stimuli/spore_stims/simple_20_B_b.gif","right","","","","",""
"","null","html-keyboard-response","300","766642","0.0-56.0-0.2","SS1613169619565","","","null","","","","","<p><img src= images/blank.png width =""200"" height = ""200"" style = ""float:right""></p><p><img src=images/blank.png width =""800"" height = ""200""></p>","","","","","","","","","","","",""
"","613.6050000204705","sequential-stimulus-presentation","301","768071","0.0-56.0-1.2","SS1613169619565","trial","","40","800","1413.6050000204705","images/stimuli/spore_stims/simple_20_A_b.gif","images/stimuli/spore_stims/simple_20_B_b.gif","","","","","16","simple_similar","images/stimuli/spore_stims/simple_20_B_b.gif","right","","","","",""
"","null","html-keyboard-response","302","769268","0.0-56.0-0.3","SS1613169619565","","","null","","","","","<p><img src= images/blank.png width =""200"" height = ""200"" style = ""float:right""></p><p><img src=images/blank.png width =""800"" height = ""200""></p>","","","","","","","","","","","",""
"","457.3600000003353","sequential-stimulus-presentation","303","770546","0.0-56.0-1.3","SS1613169619565","trial","","40","800","1257.3600000003353","images/stimuli/spore_stims/simple_20_A_b.gif","images/stimuli/spore_stims/simple_20_B_b.gif","","","","","16","simple_similar","images/stimuli/spore_stims/simple_20_B_b.gif","right","","","","",""
"","null","html-keyboard-response","304","771873","0.0-56.0-0.4","SS1613169619565","","","null","","","","","<p><img src= images/blank.png width =""200"" height = ""200"" style = ""float:right""></p><p><img src=images/blank.png width =""800"" height = ""200""></p>","","","","","","","","","","","",""
"","864.8650000104681","sequential-stimulus-presentation","305","773548","0.0-56.0-1.4","SS1613169619565","trial","","40","800","1664.865000010468","images/stimuli/spore_stims/simple_20_A_b.gif","images/stimuli/spore_stims/simple_20_B_b.gif","","","","","16","simple_similar","images/stimuli/spore_stims/simple_20_A_b.gif","middle","","","","",""
"","null","html-keyboard-response","306","774403","0.0-56.0-0.5","SS1613169619565","","","null","","","","","<p><img src= images/blank.png width =""200"" height = ""200"" style = ""float:right""></p><p><img src=images/blank.png width =""800"" height = ""200""></p>","","","","","","","","","","","",""
"","661.5650000167079","sequential-stimulus-presentation","307","775880","0.0-56.0-1.5","SS1613169619565","trial","","40","800","1461.565000016708","images/stimuli/spore_stims/simple_20_A_b.gif","images/stimuli/spore_stims/simple_20_B_b.gif","","","","","16","simple_similar","images/stimuli/spore_stims/simple_20_B_b.gif","right","","","","",""
"","null","html-keyboard-response","308","777094","0.0-56.0-0.6","SS1613169619565","","","null","","","","","<p><img src= images/blank.png width =""200"" height = ""200"" style = ""float:right""></p><p><img src=images/blank.png width =""800"" height = ""200""></p>","","","","","","","","","","","",""
"","783.3150000078604","sequential-stimulus-presentation","309","778696","0.0-56.0-1.6","SS1613169619565","trial","","40","800","1583.3150000078604","images/stimuli/spore_stims/simple_20_A_b.gif","images/stimuli/spore_stims/simple_20_B_b.gif","","","","","16","simple_similar","images/stimuli/spore_stims/simple_20_B_b.gif","right","","","","",""
"","null","html-keyboard-response","310","779971","0.0-56.0-0.7","SS1613169619565","","","null","","","","","<p><img src= images/blank.png width =""200"" height = ""200"" style = ""float:right""></p><p><img src=images/blank.png width =""800"" height = ""200""></p>","","","","","","","","","","","",""
"","650.8000000030734","sequential-stimulus-presentation","311","781430","0.0-56.0-1.7","SS1613169619565","trial","","40","800","1450.8000000030734","images/stimuli/spore_stims/simple_20_A_b.gif","images/stimuli/spore_stims/simple_20_B_b.gif","","","","","16","simple_similar","images/stimuli/spore_stims/simple_20_B_b.gif","right","","","","",""
"","5918.865000014193","html-keyboard-response","312","787360","0.0-57.0","SS1613169619565","pref_question","","50","","","","","<video width ='960' height = '540' style='padding-top:8%' autoplay muted><source src='images/stimuli/wall_pref.mp4' type='video/mp4'></video>","2","middle","45%","16","","","","","","","",""
