"view_history","rt","trial_type","trial_index","time_elapsed","internal_node_id","subject","stimulus_type","trial_stimulus","key_press","minimum_viewing_duration","trial_looking_time","block_deviant","block_background","stimulus","wall_pref","location","location_percent","block_number","block_type","stimulus_displayed","position_displayed","stim_type_selected","responses","question_order","stimulus_left","stimulus_right"
"[{""page_index"":0,""viewing_time"":42358.86000003666}]","42359.58500020206","instructions","0","42366","0.0-0.0","SS1613080424634","","","","","","","","","","","","","","","","","","","",""
"[{""page_index"":0,""viewing_time"":20413.31999981776},{""page_index"":1,""viewing_time"":12125.615000259131}]","32539.390000049025","instructions","1","76909","0.0-1.0","SS1613080424634","instructions","","","","","","","","","","","","","","","","","","",""
"","14952.470000367612","sequential-stimulus-presentation","2","92678","0.0-2.0","SS1613080424634","","","40","800","15752.470000367612","null","null","","","","","","","","","","","","",""
"","7044.525000266731","sequential-stimulus-presentation","3","100532","0.0-3.0","SS1613080424634","","","40","800","7844.525000266731","null","null","","","","","","","","","","","","",""
"[{""page_index"":0,""viewing_time"":8774.849999696016}]","8775.304999668151","instructions","4","109311","0.0-4.0","SS1613080424634","instructions","","","","","","","","","","","","","","","","","","",""
"","4127.2399998269975","html-keyboard-response","5","113446","0.0-5.0","SS1613080424634","instructions","","50","","","","","<video width ='960' height = '540' autoplay muted><source src='images/stimuli/wall_pref.mp4' type='video/mp4'></video>","2","middle","45%","","","","","","","","",""
"","3984.90499984473","sequential-stimulus-presentation","6","118240","0.0-6.0","SS1613080424634","pref_reveal","","40","800","4784.90499984473","null","null","","","","","","","","","","","","",""
"[{""page_index"":0,""viewing_time"":15195.540000218898},{""page_index"":1,""viewing_time"":7848.009999841452},{""page_index"":2,""viewing_time"":2024.0000002086163},{""page_index"":3,""viewing_time"":2984.4149998389184}]","28052.500000223517","instructions","7","146296","0.0-7.0","SS1613080424634","instructions","","","","","","","","","","","","","","","","","","",""
"","null","html-keyboard-response","8","147117","0.0-8.0-0.0","SS1613080424634","","","null","","","","","<p><img src= images/blank.png width =""200"" height = ""200"" style = ""float:right""></p><p><img src=images/blank.png width =""800"" height = ""200""></p>","","","","","","","","","","","",""
"","6299.654999747872","sequential-stimulus-presentation","9","154232","0.0-8.0-1.0","SS1613080424634","trial","","40","800","7099.654999747872","images/stimuli/spore_stims/complex_12_B_d.gif","images/stimuli/spore_stims/complex_11_A_d.gif","","","","","0","complex_dissimilar","images/stimuli/spore_stims/complex_11_A_d.gif","middle","","","","",""
"","null","html-keyboard-response","10","155141","0.0-8.0-0.1","SS1613080424634","","","null","","","","","<p><img src= images/blank.png width =""200"" height = ""200"" style = ""float:right""></p><p><img src=images/blank.png width =""800"" height = ""200""></p>","","","","","","","","","","","",""
"","8847.735000308603","sequential-stimulus-presentation","11","164794","0.0-8.0-1.1","SS1613080424634","trial","","40","800","9647.735000308603","images/stimuli/spore_stims/complex_12_B_d.gif","images/stimuli/spore_stims/complex_11_A_d.gif","","","","","0","complex_dissimilar","images/stimuli/spore_stims/complex_11_A_d.gif","middle","","","","",""
"","null","html-keyboard-response","12","166058","0.0-8.0-0.2","SS1613080424634","","","null","","","","","<p><img src= images/blank.png width =""200"" height = ""200"" style = ""float:right""></p><p><img src=images/blank.png width =""800"" height = ""200""></p>","","","","","","","","","","","",""
"","12291.819999925792","sequential-stimulus-presentation","13","179161","0.0-8.0-1.2","SS1613080424634","trial","","40","800","13091.819999925792","images/stimuli/spore_stims/complex_12_B_d.gif","images/stimuli/spore_stims/complex_11_A_d.gif","","","","","0","complex_dissimilar","images/stimuli/spore_stims/complex_11_A_d.gif","middle","","","","",""
"","null","html-keyboard-response","14","180349","0.0-8.0-0.3","SS1613080424634","","","null","","","","","<p><img src= images/blank.png width =""200"" height = ""200"" style = ""float:right""></p><p><img src=images/blank.png width =""800"" height = ""200""></p>","","","","","","","","","","","",""
"","7412.244999781251","sequential-stimulus-presentation","15","188569","0.0-8.0-1.3","SS1613080424634","trial","","40","800","8212.244999781251","images/stimuli/spore_stims/complex_12_B_d.gif","images/stimuli/spore_stims/complex_11_A_d.gif","","","","","0","complex_dissimilar","images/stimuli/spore_stims/complex_11_A_d.gif","middle","","","","",""
"","null","html-keyboard-response","16","189408","0.0-8.0-0.4","SS1613080424634","","","null","","","","","<p><img src= images/blank.png width =""200"" height = ""200"" style = ""float:right""></p><p><img src=images/blank.png width =""800"" height = ""200""></p>","","","","","","","","","","","",""
"","7893.644999712706","sequential-stimulus-presentation","17","198110","0.0-8.0-1.4","SS1613080424634","trial","","40","800","8693.644999712706","images/stimuli/spore_stims/complex_12_B_d.gif","images/stimuli/spore_stims/complex_11_A_d.gif","","","","","0","complex_dissimilar","images/stimuli/spore_stims/complex_11_A_d.gif","middle","","","","",""
"","null","html-keyboard-response","18","199227","0.0-8.0-0.5","SS1613080424634","","","null","","","","","<p><img src= images/blank.png width =""200"" height = ""200"" style = ""float:right""></p><p><img src=images/blank.png width =""800"" height = ""200""></p>","","","","","","","","","","","",""
"","4261.354999616742","sequential-stimulus-presentation","19","204297","0.0-8.0-1.5","SS1613080424634","trial","","40","800","5061.354999616742","images/stimuli/spore_stims/complex_12_B_d.gif","images/stimuli/spore_stims/complex_11_A_d.gif","","","","","0","complex_dissimilar","images/stimuli/spore_stims/complex_12_B_d.gif","right","","","","",""
"","null","html-keyboard-response","20","205509","0.0-8.0-0.6","SS1613080424634","","","null","","","","","<p><img src= images/blank.png width =""200"" height = ""200"" style = ""float:right""></p><p><img src=images/blank.png width =""800"" height = ""200""></p>","","","","","","","","","","","",""
"","7122.514999937266","sequential-stimulus-presentation","21","213438","0.0-8.0-1.6","SS1613080424634","trial","","40","800","7922.514999937266","images/stimuli/spore_stims/complex_12_B_d.gif","images/stimuli/spore_stims/complex_11_A_d.gif","","","","","0","complex_dissimilar","images/stimuli/spore_stims/complex_11_A_d.gif","middle","","","","",""
"","null","html-keyboard-response","22","214739","0.0-8.0-0.7","SS1613080424634","","","null","","","","","<p><img src= images/blank.png width =""200"" height = ""200"" style = ""float:right""></p><p><img src=images/blank.png width =""800"" height = ""200""></p>","","","","","","","","","","","",""
"","5520.190000068396","sequential-stimulus-presentation","23","221067","0.0-8.0-1.7","SS1613080424634","trial","","40","800","6320.190000068396","images/stimuli/spore_stims/complex_12_B_d.gif","images/stimuli/spore_stims/complex_11_A_d.gif","","","","","0","complex_dissimilar","images/stimuli/spore_stims/complex_11_A_d.gif","middle","","","","",""
"","6676.5749999322","html-keyboard-response","24","227750","0.0-9.0","SS1613080424634","pref_question","","51","","","","","<video width ='960' height = '540' style='padding-top:8%' autoplay muted><source src='images/stimuli/wall_pref.mp4' type='video/mp4'></video>","3","right","66%","0","","","","","","","",""
"","9880.915000103414","sequential-stimulus-presentation","25","238439","0.0-10.0","SS1613080424634","pref_reveal","","40","800","10680.915000103414","null","null","","","","","0","","","","deviant","","","",""
"","null","html-keyboard-response","26","239584","0.0-11.0-0.0","SS1613080424634","","","null","","","","","<p><img src= images/blank.png width =""200"" height = ""200"" style = ""float:right""></p><p><img src=images/blank.png width =""800"" height = ""200""></p>","","","","","","","","","","","",""
"","11583.219999913126","sequential-stimulus-presentation","27","251980","0.0-11.0-1.0","SS1613080424634","trial","","40","800","12383.219999913126","images/stimuli/spore_stims/complex_19_A_b.gif","images/stimuli/spore_stims/complex_19_B_b.gif","","","","","1","complex_similar","images/stimuli/spore_stims/complex_19_B_b.gif","middle","","","","",""
"","null","html-keyboard-response","28","253024","0.0-11.0-0.1","SS1613080424634","","","null","","","","","<p><img src= images/blank.png width =""200"" height = ""200"" style = ""float:right""></p><p><img src=images/blank.png width =""800"" height = ""200""></p>","","","","","","","","","","","",""
"","7597.000000067055","sequential-stimulus-presentation","29","261432","0.0-11.0-1.1","SS1613080424634","trial","","40","800","8397.000000067055","images/stimuli/spore_stims/complex_19_A_b.gif","images/stimuli/spore_stims/complex_19_B_b.gif","","","","","1","complex_similar","images/stimuli/spore_stims/complex_19_B_b.gif","middle","","","","",""
"","null","html-keyboard-response","30","262287","0.0-11.0-0.2","SS1613080424634","","","null","","","","","<p><img src= images/blank.png width =""200"" height = ""200"" style = ""float:right""></p><p><img src=images/blank.png width =""800"" height = ""200""></p>","","","","","","","","","","","",""
"","6355.8849999681115","sequential-stimulus-presentation","31","269450","0.0-11.0-1.2","SS1613080424634","trial","","40","800","7155.8849999681115","images/stimuli/spore_stims/complex_19_A_b.gif","images/stimuli/spore_stims/complex_19_B_b.gif","","","","","1","complex_similar","images/stimuli/spore_stims/complex_19_B_b.gif","middle","","","","",""
"","null","html-keyboard-response","32","270628","0.0-11.0-0.3","SS1613080424634","","","null","","","","","<p><img src= images/blank.png width =""200"" height = ""200"" style = ""float:right""></p><p><img src=images/blank.png width =""800"" height = ""200""></p>","","","","","","","","","","","",""
"","8542.129999957979","sequential-stimulus-presentation","33","279977","0.0-11.0-1.3","SS1613080424634","trial","","40","800","9342.129999957979","images/stimuli/spore_stims/complex_19_A_b.gif","images/stimuli/spore_stims/complex_19_B_b.gif","","","","","1","complex_similar","images/stimuli/spore_stims/complex_19_A_b.gif","left","","","","",""
"","null","html-keyboard-response","34","281074","0.0-11.0-0.4","SS1613080424634","","","null","","","","","<p><img src= images/blank.png width =""200"" height = ""200"" style = ""float:right""></p><p><img src=images/blank.png width =""800"" height = ""200""></p>","","","","","","","","","","","",""
"","5355.084999930114","sequential-stimulus-presentation","35","287237","0.0-11.0-1.4","SS1613080424634","trial","","40","800","6155.084999930114","images/stimuli/spore_stims/complex_19_A_b.gif","images/stimuli/spore_stims/complex_19_B_b.gif","","","","","1","complex_similar","images/stimuli/spore_stims/complex_19_B_b.gif","middle","","","","",""
"","null","html-keyboard-response","36","288367","0.0-11.0-0.5","SS1613080424634","","","null","","","","","<p><img src= images/blank.png width =""200"" height = ""200"" style = ""float:right""></p><p><img src=images/blank.png width =""800"" height = ""200""></p>","","","","","","","","","","","",""
"","5054.64500002563","sequential-stimulus-presentation","37","294229","0.0-11.0-1.5","SS1613080424634","trial","","40","800","5854.64500002563","images/stimuli/spore_stims/complex_19_A_b.gif","images/stimuli/spore_stims/complex_19_B_b.gif","","","","","1","complex_similar","images/stimuli/spore_stims/complex_19_B_b.gif","middle","","","","",""
"","null","html-keyboard-response","38","295148","0.0-11.0-0.6","SS1613080424634","","","null","","","","","<p><img src= images/blank.png width =""200"" height = ""200"" style = ""float:right""></p><p><img src=images/blank.png width =""800"" height = ""200""></p>","","","","","","","","","","","",""
"","8345.775000285357","sequential-stimulus-presentation","39","304304","0.0-11.0-1.6","SS1613080424634","trial","","40","800","9145.775000285357","images/stimuli/spore_stims/complex_19_A_b.gif","images/stimuli/spore_stims/complex_19_B_b.gif","","","","","1","complex_similar","images/stimuli/spore_stims/complex_19_B_b.gif","middle","","","","",""
"","null","html-keyboard-response","40","305544","0.0-11.0-0.7","SS1613080424634","","","null","","","","","<p><img src= images/blank.png width =""200"" height = ""200"" style = ""float:right""></p><p><img src=images/blank.png width =""800"" height = ""200""></p>","","","","","","","","","","","",""
"","3986.564999911934","sequential-stimulus-presentation","41","310339","0.0-11.0-1.7","SS1613080424634","trial","","40","800","4786.564999911934","images/stimuli/spore_stims/complex_19_A_b.gif","images/stimuli/spore_stims/complex_19_B_b.gif","","","","","1","complex_similar","images/stimuli/spore_stims/complex_19_B_b.gif","middle","","","","",""
"","3914.290000218898","html-keyboard-response","42","314261","0.0-12.0","SS1613080424634","pref_question","","49","","","","","<video width ='960' height = '540' style='padding-top:8%' autoplay muted><source src='images/stimuli/wall_pref.mp4' type='video/mp4'></video>","1","left","25%","1","","","","","","","",""
"","2232.4649998918176","sequential-stimulus-presentation","43","317302","0.0-13.0","SS1613080424634","pref_reveal","","40","800","3032.4649998918176","null","null","","","","","1","","","","deviant","","","",""
"","null","html-keyboard-response","44","318315","0.0-14.0-0.0","SS1613080424634","","","null","","","","","<p><img src= images/blank.png width =""200"" height = ""200"" style = ""float:right""></p><p><img src=images/blank.png width =""800"" height = ""200""></p>","","","","","","","","","","","",""
"","3281.0349999926984","sequential-stimulus-presentation","45","322405","0.0-14.0-1.0","SS1613080424634","trial","","40","800","4081.0349999926984","images/stimuli/spore_stims/complex_16_A_a.gif","images/stimuli/spore_stims/complex_16_B_a.gif","","","","","2","complex_similar","images/stimuli/spore_stims/complex_16_B_a.gif","left","","","","",""
"","null","html-keyboard-response","46","323305","0.0-14.0-0.1","SS1613080424634","","","null","","","","","<p><img src= images/blank.png width =""200"" height = ""200"" style = ""float:right""></p><p><img src=images/blank.png width =""800"" height = ""200""></p>","","","","","","","","","","","",""
"","2604.0400001220405","sequential-stimulus-presentation","47","326725","0.0-14.0-1.1","SS1613080424634","trial","","40","800","3404.0400001220405","images/stimuli/spore_stims/complex_16_A_a.gif","images/stimuli/spore_stims/complex_16_B_a.gif","","","","","2","complex_similar","images/stimuli/spore_stims/complex_16_B_a.gif","left","","","","",""
"","null","html-keyboard-response","48","327584","0.0-14.0-0.2","SS1613080424634","","","null","","","","","<p><img src= images/blank.png width =""200"" height = ""200"" style = ""float:right""></p><p><img src=images/blank.png width =""800"" height = ""200""></p>","","","","","","","","","","","",""
"","683.8449998758733","sequential-stimulus-presentation","49","329074","0.0-14.0-1.2","SS1613080424634","trial","","40","800","1483.8449998758733","images/stimuli/spore_stims/complex_16_A_a.gif","images/stimuli/spore_stims/complex_16_B_a.gif","","","","","2","complex_similar","images/stimuli/spore_stims/complex_16_B_a.gif","left","","","","",""
"","null","html-keyboard-response","50","330211","0.0-14.0-0.3","SS1613080424634","","","null","","","","","<p><img src= images/blank.png width =""200"" height = ""200"" style = ""float:right""></p><p><img src=images/blank.png width =""800"" height = ""200""></p>","","","","","","","","","","","",""
"","3032.2600002400577","sequential-stimulus-presentation","51","334052","0.0-14.0-1.3","SS1613080424634","trial","","40","800","3832.2600002400577","images/stimuli/spore_stims/complex_16_A_a.gif","images/stimuli/spore_stims/complex_16_B_a.gif","","","","","2","complex_similar","images/stimuli/spore_stims/complex_16_B_a.gif","left","","","","",""
"","null","html-keyboard-response","52","335164","0.0-14.0-0.4","SS1613080424634","","","null","","","","","<p><img src= images/blank.png width =""200"" height = ""200"" style = ""float:right""></p><p><img src=images/blank.png width =""800"" height = ""200""></p>","","","","","","","","","","","",""
"","7556.399999652058","sequential-stimulus-presentation","53","343527","0.0-14.0-1.4","SS1613080424634","trial","","40","800","8356.399999652058","images/stimuli/spore_stims/complex_16_A_a.gif","images/stimuli/spore_stims/complex_16_B_a.gif","","","","","2","complex_similar","images/stimuli/spore_stims/complex_16_A_a.gif","right","","","","",""
"","null","html-keyboard-response","54","344672","0.0-14.0-0.5","SS1613080424634","","","null","","","","","<p><img src= images/blank.png width =""200"" height = ""200"" style = ""float:right""></p><p><img src=images/blank.png width =""800"" height = ""200""></p>","","","","","","","","","","","",""
"","598.8150001503527","sequential-stimulus-presentation","55","346079","0.0-14.0-1.5","SS1613080424634","trial","","40","800","1398.8150001503527","images/stimuli/spore_stims/complex_16_A_a.gif","images/stimuli/spore_stims/complex_16_B_a.gif","","","","","2","complex_similar","images/stimuli/spore_stims/complex_16_B_a.gif","left","","","","",""
"","null","html-keyboard-response","56","347086","0.0-14.0-0.6","SS1613080424634","","","null","","","","","<p><img src= images/blank.png width =""200"" height = ""200"" style = ""float:right""></p><p><img src=images/blank.png width =""800"" height = ""200""></p>","","","","","","","","","","","",""
"","4351.430000271648","sequential-stimulus-presentation","57","352245","0.0-14.0-1.6","SS1613080424634","trial","","40","800","5151.430000271648","images/stimuli/spore_stims/complex_16_A_a.gif","images/stimuli/spore_stims/complex_16_B_a.gif","","","","","2","complex_similar","images/stimuli/spore_stims/complex_16_B_a.gif","left","","","","",""
"","null","html-keyboard-response","58","353271","0.0-14.0-0.7","SS1613080424634","","","null","","","","","<p><img src= images/blank.png width =""200"" height = ""200"" style = ""float:right""></p><p><img src=images/blank.png width =""800"" height = ""200""></p>","","","","","","","","","","","",""
"","2634.974999818951","sequential-stimulus-presentation","59","356713","0.0-14.0-1.7","SS1613080424634","trial","","40","800","3434.974999818951","images/stimuli/spore_stims/complex_16_A_a.gif","images/stimuli/spore_stims/complex_16_B_a.gif","","","","","2","complex_similar","images/stimuli/spore_stims/complex_16_B_a.gif","left","","","","",""
"","3724.764999933541","html-keyboard-response","60","360443","0.0-15.0","SS1613080424634","pref_question","","50","","","","","<video width ='960' height = '540' style='padding-top:8%' autoplay muted><source src='images/stimuli/wall_pref.mp4' type='video/mp4'></video>","2","middle","45%","2","","","","","","","",""
"","3737.3199998401105","sequential-stimulus-presentation","61","364989","0.0-16.0","SS1613080424634","pref_reveal","","40","800","4537.3199998401105","null","null","","","","","2","","","","novel","","","",""
"","null","html-keyboard-response","62","366252","0.0-17.0-0.0","SS1613080424634","","","null","","","","","<p><img src= images/blank.png width =""200"" height = ""200"" style = ""float:right""></p><p><img src=images/blank.png width =""800"" height = ""200""></p>","","","","","","","","","","","",""
"","1546.0700001567602","sequential-stimulus-presentation","63","368608","0.0-17.0-1.0","SS1613080424634","trial","","40","800","2346.07000015676","images/stimuli/spore_stims/complex_05_A_a.gif","images/stimuli/spore_stims/complex_08_B_c.gif","","","","","3","complex_dissimilar","images/stimuli/spore_stims/complex_08_B_c.gif","middle","","","","",""
"","null","html-keyboard-response","64","369719","0.0-17.0-0.1","SS1613080424634","","","null","","","","","<p><img src= images/blank.png width =""200"" height = ""200"" style = ""float:right""></p><p><img src=images/blank.png width =""800"" height = ""200""></p>","","","","","","","","","","","",""
"","543.8250000588596","sequential-stimulus-presentation","65","371071","0.0-17.0-1.1","SS1613080424634","trial","","40","800","1343.8250000588596","images/stimuli/spore_stims/complex_05_A_a.gif","images/stimuli/spore_stims/complex_08_B_c.gif","","","","","3","complex_dissimilar","images/stimuli/spore_stims/complex_08_B_c.gif","middle","","","","",""
"","null","html-keyboard-response","66","372129","0.0-17.0-0.2","SS1613080424634","","","null","","","","","<p><img src= images/blank.png width =""200"" height = ""200"" style = ""float:right""></p><p><img src=images/blank.png width =""800"" height = ""200""></p>","","","","","","","","","","","",""
"","488.5100000537932","sequential-stimulus-presentation","67","373427","0.0-17.0-1.2","SS1613080424634","trial","","40","800","1288.5100000537932","images/stimuli/spore_stims/complex_05_A_a.gif","images/stimuli/spore_stims/complex_08_B_c.gif","","","","","3","complex_dissimilar","images/stimuli/spore_stims/complex_08_B_c.gif","middle","","","","",""
"","null","html-keyboard-response","68","374529","0.0-17.0-0.3","SS1613080424634","","","null","","","","","<p><img src= images/blank.png width =""200"" height = ""200"" style = ""float:right""></p><p><img src=images/blank.png width =""800"" height = ""200""></p>","","","","","","","","","","","",""
"","469.26499996334314","sequential-stimulus-presentation","69","375807","0.0-17.0-1.3","SS1613080424634","trial","","40","800","1269.2649999633431","images/stimuli/spore_stims/complex_05_A_a.gif","images/stimuli/spore_stims/complex_08_B_c.gif","","","","","3","complex_dissimilar","images/stimuli/spore_stims/complex_08_B_c.gif","middle","","","","",""
"","null","html-keyboard-response","70","376970","0.0-17.0-0.4","SS1613080424634","","","null","","","","","<p><img src= images/blank.png width =""200"" height = ""200"" style = ""float:right""></p><p><img src=images/blank.png width =""800"" height = ""200""></p>","","","","","","","","","","","",""
"","945.3849997371435","sequential-stimulus-presentation","71","378723","0.0-17.0-1.4","SS1613080424634","trial","","40","800","1745.3849997371435","images/stimuli/spore_stims/complex_05_A_a.gif","images/stimuli/spore_stims/complex_08_B_c.gif","","","","","3","complex_dissimilar","images/stimuli/spore_stims/complex_08_B_c.gif","middle","","","","",""
"","null","html-keyboard-response","72","379549","0.0-17.0-0.5","SS1613080424634","","","null","","","","","<p><img src= images/blank.png width =""200"" height = ""200"" style = ""float:right""></p><p><img src=images/blank.png width =""800"" height = ""200""></p>","","","","","","","","","","","",""
"","2527.2099999710917","sequential-stimulus-presentation","73","382886","0.0-17.0-1.5","SS1613080424634","trial","","40","800","3327.2099999710917","images/stimuli/spore_stims/complex_05_A_a.gif","images/stimuli/spore_stims/complex_08_B_c.gif","","","","","3","complex_dissimilar","images/stimuli/spore_stims/complex_05_A_a.gif","left","","","","",""
"","null","html-keyboard-response","74","384121","0.0-17.0-0.6","SS1613080424634","","","null","","","","","<p><img src= images/blank.png width =""200"" height = ""200"" style = ""float:right""></p><p><img src=images/blank.png width =""800"" height = ""200""></p>","","","","","","","","","","","",""
"","616.8599999509752","sequential-stimulus-presentation","75","385546","0.0-17.0-1.6","SS1613080424634","trial","","40","800","1416.8599999509752","images/stimuli/spore_stims/complex_05_A_a.gif","images/stimuli/spore_stims/complex_08_B_c.gif","","","","","3","complex_dissimilar","images/stimuli/spore_stims/complex_08_B_c.gif","middle","","","","",""
"","null","html-keyboard-response","76","386388","0.0-17.0-0.7","SS1613080424634","","","null","","","","","<p><img src= images/blank.png width =""200"" height = ""200"" style = ""float:right""></p><p><img src=images/blank.png width =""800"" height = ""200""></p>","","","","","","","","","","","",""
"","114.27500005811453","sequential-stimulus-presentation","77","387311","0.0-17.0-1.7","SS1613080424634","trial","","40","800","914.2750000581145","images/stimuli/spore_stims/complex_05_A_a.gif","images/stimuli/spore_stims/complex_08_B_c.gif","","","","","3","complex_dissimilar","images/stimuli/spore_stims/complex_08_B_c.gif","middle","","","","",""
"","2417.8599999286234","html-keyboard-response","78","389738","0.0-18.0","SS1613080424634","pref_question","","50","","","","","<video width ='960' height = '540' style='padding-top:8%' autoplay muted><source src='images/stimuli/wall_pref.mp4' type='video/mp4'></video>","2","middle","45%","3","","","","","","","",""
"","32.115000300109386","sequential-stimulus-presentation","79","390582","0.0-19.0","SS1613080424634","pref_reveal","","40","800","832.1150003001094","null","null","","","","","3","","","","background","","","",""
"","null","html-keyboard-response","80","391872","0.0-20.0-0.0","SS1613080424634","","","null","","","","","<p><img src= images/blank.png width =""200"" height = ""200"" style = ""float:right""></p><p><img src=images/blank.png width =""800"" height = ""200""></p>","","","","","","","","","","","",""
"","725.8000001311302","sequential-stimulus-presentation","81","393409","0.0-20.0-1.0","SS1613080424634","trial","","40","800","1525.8000001311302","images/stimuli/spore_stims/complex_17_A_c.gif","images/stimuli/spore_stims/complex_17_B_c.gif","","","","","4","complex_similar","images/stimuli/spore_stims/complex_17_B_c.gif","left","","","","",""
"","null","html-keyboard-response","82","394217","0.0-20.0-0.1","SS1613080424634","","","null","","","","","<p><img src= images/blank.png width =""200"" height = ""200"" style = ""float:right""></p><p><img src=images/blank.png width =""800"" height = ""200""></p>","","","","","","","","","","","",""
"","185.49500033259392","sequential-stimulus-presentation","83","395214","0.0-20.0-1.1","SS1613080424634","trial","","40","800","985.4950003325939","images/stimuli/spore_stims/complex_17_A_c.gif","images/stimuli/spore_stims/complex_17_B_c.gif","","","","","4","complex_similar","images/stimuli/spore_stims/complex_17_B_c.gif","left","","","","",""
"","null","html-keyboard-response","84","396032","0.0-20.0-0.2","SS1613080424634","","","null","","","","","<p><img src= images/blank.png width =""200"" height = ""200"" style = ""float:right""></p><p><img src=images/blank.png width =""800"" height = ""200""></p>","","","","","","","","","","","",""
"","729.7199997119606","sequential-stimulus-presentation","85","397573","0.0-20.0-1.2","SS1613080424634","trial","","40","800","1529.7199997119606","images/stimuli/spore_stims/complex_17_A_c.gif","images/stimuli/spore_stims/complex_17_B_c.gif","","","","","4","complex_similar","images/stimuli/spore_stims/complex_17_B_c.gif","left","","","","",""
"","null","html-keyboard-response","86","398398","0.0-20.0-0.3","SS1613080424634","","","null","","","","","<p><img src= images/blank.png width =""200"" height = ""200"" style = ""float:right""></p><p><img src=images/blank.png width =""800"" height = ""200""></p>","","","","","","","","","","","",""
"","582.1550004184246","sequential-stimulus-presentation","87","399788","0.0-20.0-1.3","SS1613080424634","trial","","40","800","1382.1550004184246","images/stimuli/spore_stims/complex_17_A_c.gif","images/stimuli/spore_stims/complex_17_B_c.gif","","","","","4","complex_similar","images/stimuli/spore_stims/complex_17_B_c.gif","left","","","","",""
"","null","html-keyboard-response","88","400834","0.0-20.0-0.4","SS1613080424634","","","null","","","","","<p><img src= images/blank.png width =""200"" height = ""200"" style = ""float:right""></p><p><img src=images/blank.png width =""800"" height = ""200""></p>","","","","","","","","","","","",""
"","750.9249998256564","sequential-stimulus-presentation","89","402392","0.0-20.0-1.4","SS1613080424634","trial","","40","800","1550.9249998256564","images/stimuli/spore_stims/complex_17_A_c.gif","images/stimuli/spore_stims/complex_17_B_c.gif","","","","","4","complex_similar","images/stimuli/spore_stims/complex_17_B_c.gif","left","","","","",""
"","null","html-keyboard-response","90","403449","0.0-20.0-0.5","SS1613080424634","","","null","","","","","<p><img src= images/blank.png width =""200"" height = ""200"" style = ""float:right""></p><p><img src=images/blank.png width =""800"" height = ""200""></p>","","","","","","","","","","","",""
"","543.6199996620417","sequential-stimulus-presentation","91","404800","0.0-20.0-1.5","SS1613080424634","trial","","40","800","1343.6199996620417","images/stimuli/spore_stims/complex_17_A_c.gif","images/stimuli/spore_stims/complex_17_B_c.gif","","","","","4","complex_similar","images/stimuli/spore_stims/complex_17_B_c.gif","left","","","","",""
"","null","html-keyboard-response","92","406047","0.0-20.0-0.6","SS1613080424634","","","null","","","","","<p><img src= images/blank.png width =""200"" height = ""200"" style = ""float:right""></p><p><img src=images/blank.png width =""800"" height = ""200""></p>","","","","","","","","","","","",""
"","128.2399999909103","sequential-stimulus-presentation","93","406988","0.0-20.0-1.6","SS1613080424634","trial","","40","800","928.2399999909103","images/stimuli/spore_stims/complex_17_A_c.gif","images/stimuli/spore_stims/complex_17_B_c.gif","","","","","4","complex_similar","images/stimuli/spore_stims/complex_17_A_c.gif","right","","","","",""
"","null","html-keyboard-response","94","408123","0.0-20.0-0.7","SS1613080424634","","","null","","","","","<p><img src= images/blank.png width =""200"" height = ""200"" style = ""float:right""></p><p><img src=images/blank.png width =""800"" height = ""200""></p>","","","","","","","","","","","",""
"","408.1549998372793","sequential-stimulus-presentation","95","409337","0.0-20.0-1.7","SS1613080424634","trial","","40","800","1208.1549998372793","images/stimuli/spore_stims/complex_17_A_c.gif","images/stimuli/spore_stims/complex_17_B_c.gif","","","","","4","complex_similar","images/stimuli/spore_stims/complex_17_B_c.gif","left","","","","",""
"","4741.004999727011","html-keyboard-response","96","414084","0.0-21.0","SS1613080424634","pref_question","","51","","","","","<video width ='960' height = '540' style='padding-top:8%' autoplay muted><source src='images/stimuli/wall_pref.mp4' type='video/mp4'></video>","3","right","66%","4","","","","","","","",""
"","946.425000205636","sequential-stimulus-presentation","97","415847","0.0-22.0","SS1613080424634","pref_reveal","","40","800","1746.425000205636","null","null","","","","","4","","","","deviant","","","",""
"","null","html-keyboard-response","98","417026","0.0-23.0-0.0","SS1613080424634","","","null","","","","","<p><img src= images/blank.png width =""200"" height = ""200"" style = ""float:right""></p><p><img src=images/blank.png width =""800"" height = ""200""></p>","","","","","","","","","","","",""
"","178.32499975338578","sequential-stimulus-presentation","99","418015","0.0-23.0-1.0","SS1613080424634","trial","","40","800","978.3249997533858","images/stimuli/spore_stims/simple_09_B_a.gif","images/stimuli/spore_stims/simple_02_B_b.gif","","","","","5","simple_dissimilar","images/stimuli/spore_stims/simple_02_B_b.gif","right","","","","",""
"","null","html-keyboard-response","100","419262","0.0-23.0-0.1","SS1613080424634","","","null","","","","","<p><img src= images/blank.png width =""200"" height = ""200"" style = ""float:right""></p><p><img src=images/blank.png width =""800"" height = ""200""></p>","","","","","","","","","","","",""
"","665.5100001953542","sequential-stimulus-presentation","101","420734","0.0-23.0-1.1","SS1613080424634","trial","","40","800","1465.5100001953542","images/stimuli/spore_stims/simple_09_B_a.gif","images/stimuli/spore_stims/simple_02_B_b.gif","","","","","5","simple_dissimilar","images/stimuli/spore_stims/simple_02_B_b.gif","right","","","","",""
"","null","html-keyboard-response","102","421648","0.0-23.0-0.2","SS1613080424634","","","null","","","","","<p><img src= images/blank.png width =""200"" height = ""200"" style = ""float:right""></p><p><img src=images/blank.png width =""800"" height = ""200""></p>","","","","","","","","","","","",""
"","469.90999998524785","sequential-stimulus-presentation","103","422925","0.0-23.0-1.2","SS1613080424634","trial","","40","800","1269.9099999852479","images/stimuli/spore_stims/simple_09_B_a.gif","images/stimuli/spore_stims/simple_02_B_b.gif","","","","","5","simple_dissimilar","images/stimuli/spore_stims/simple_02_B_b.gif","right","","","","",""
"","null","html-keyboard-response","104","423976","0.0-23.0-0.3","SS1613080424634","","","null","","","","","<p><img src= images/blank.png width =""200"" height = ""200"" style = ""float:right""></p><p><img src=images/blank.png width =""800"" height = ""200""></p>","","","","","","","","","","","",""
"","551.4100003056228","sequential-stimulus-presentation","105","425338","0.0-23.0-1.3","SS1613080424634","trial","","40","800","1351.4100003056228","images/stimuli/spore_stims/simple_09_B_a.gif","images/stimuli/spore_stims/simple_02_B_b.gif","","","","","5","simple_dissimilar","images/stimuli/spore_stims/simple_02_B_b.gif","right","","","","",""
"","null","html-keyboard-response","106","426503","0.0-23.0-0.4","SS1613080424634","","","null","","","","","<p><img src= images/blank.png width =""200"" height = ""200"" style = ""float:right""></p><p><img src=images/blank.png width =""800"" height = ""200""></p>","","","","","","","","","","","",""
"","736.6849998943508","sequential-stimulus-presentation","107","428053","0.0-23.0-1.4","SS1613080424634","trial","","40","800","1536.6849998943508","images/stimuli/spore_stims/simple_09_B_a.gif","images/stimuli/spore_stims/simple_02_B_b.gif","","","","","5","simple_dissimilar","images/stimuli/spore_stims/simple_09_B_a.gif","left","","","","",""
"","null","html-keyboard-response","108","429043","0.0-23.0-0.5","SS1613080424634","","","null","","","","","<p><img src= images/blank.png width =""200"" height = ""200"" style = ""float:right""></p><p><img src=images/blank.png width =""800"" height = ""200""></p>","","","","","","","","","","","",""
"","567.6900004036725","sequential-stimulus-presentation","109","430421","0.0-23.0-1.5","SS1613080424634","trial","","40","800","1367.6900004036725","images/stimuli/spore_stims/simple_09_B_a.gif","images/stimuli/spore_stims/simple_02_B_b.gif","","","","","5","simple_dissimilar","images/stimuli/spore_stims/simple_02_B_b.gif","right","","","","",""
"","null","html-keyboard-response","110","431430","0.0-23.0-0.6","SS1613080424634","","","null","","","","","<p><img src= images/blank.png width =""200"" height = ""200"" style = ""float:right""></p><p><img src=images/blank.png width =""800"" height = ""200""></p>","","","","","","","","","","","",""
"","416.9600000604987","sequential-stimulus-presentation","111","432654","0.0-23.0-1.6","SS1613080424634","trial","","40","800","1216.9600000604987","images/stimuli/spore_stims/simple_09_B_a.gif","images/stimuli/spore_stims/simple_02_B_b.gif","","","","","5","simple_dissimilar","images/stimuli/spore_stims/simple_02_B_b.gif","right","","","","",""
"","null","html-keyboard-response","112","433892","0.0-23.0-0.7","SS1613080424634","","","null","","","","","<p><img src= images/blank.png width =""200"" height = ""200"" style = ""float:right""></p><p><img src=images/blank.png width =""800"" height = ""200""></p>","","","","","","","","","","","",""
"","439.455000218004","sequential-stimulus-presentation","113","435140","0.0-23.0-1.7","SS1613080424634","trial","","40","800","1239.455000218004","images/stimuli/spore_stims/simple_09_B_a.gif","images/stimuli/spore_stims/simple_02_B_b.gif","","","","","5","simple_dissimilar","images/stimuli/spore_stims/simple_02_B_b.gif","right","","","","",""
"","1944.7949999012053","html-keyboard-response","114","437091","0.0-24.0","SS1613080424634","pref_question","","50","","","","","<video width ='960' height = '540' style='padding-top:8%' autoplay muted><source src='images/stimuli/wall_pref.mp4' type='video/mp4'></video>","2","middle","45%","5","","","","","","","",""
"","943.6300001107156","sequential-stimulus-presentation","115","438843","0.0-25.0","SS1613080424634","pref_reveal","","40","800","1743.6300001107156","null","null","","","","","5","","","","novel","","","",""
"","null","html-keyboard-response","116","439781","0.0-26.0-0.0","SS1613080424634","","","null","","","","","<p><img src= images/blank.png width =""200"" height = ""200"" style = ""float:right""></p><p><img src=images/blank.png width =""800"" height = ""200""></p>","","","","","","","","","","","",""
"","733.8049998506904","sequential-stimulus-presentation","117","441325","0.0-26.0-1.0","SS1613080424634","trial","","40","800","1533.8049998506904","images/stimuli/spore_stims/simple_20_A_c.gif","images/stimuli/spore_stims/simple_01_A_c.gif","","","","","6","simple_dissimilar","images/stimuli/spore_stims/simple_01_A_c.gif","middle","","","","",""
"","null","html-keyboard-response","118","442593","0.0-26.0-0.1","SS1613080424634","","","null","","","","","<p><img src= images/blank.png width =""200"" height = ""200"" style = ""float:right""></p><p><img src=images/blank.png width =""800"" height = ""200""></p>","","","","","","","","","","","",""
"","714.7049997001886","sequential-stimulus-presentation","119","444131","0.0-26.0-1.1","SS1613080424634","trial","","40","800","1514.7049997001886","images/stimuli/spore_stims/simple_20_A_c.gif","images/stimuli/spore_stims/simple_01_A_c.gif","","","","","6","simple_dissimilar","images/stimuli/spore_stims/simple_01_A_c.gif","middle","","","","",""
"","null","html-keyboard-response","120","445279","0.0-26.0-0.2","SS1613080424634","","","null","","","","","<p><img src= images/blank.png width =""200"" height = ""200"" style = ""float:right""></p><p><img src=images/blank.png width =""800"" height = ""200""></p>","","","","","","","","","","","",""
"","449.97999956831336","sequential-stimulus-presentation","121","446538","0.0-26.0-1.2","SS1613080424634","trial","","40","800","1249.9799995683134","images/stimuli/spore_stims/simple_20_A_c.gif","images/stimuli/spore_stims/simple_01_A_c.gif","","","","","6","simple_dissimilar","images/stimuli/spore_stims/simple_01_A_c.gif","middle","","","","",""
"","null","html-keyboard-response","122","447742","0.0-26.0-0.3","SS1613080424634","","","null","","","","","<p><img src= images/blank.png width =""200"" height = ""200"" style = ""float:right""></p><p><img src=images/blank.png width =""800"" height = ""200""></p>","","","","","","","","","","","",""
"","433.10000002384186","sequential-stimulus-presentation","123","448986","0.0-26.0-1.3","SS1613080424634","trial","","40","800","1233.1000000238419","images/stimuli/spore_stims/simple_20_A_c.gif","images/stimuli/spore_stims/simple_01_A_c.gif","","","","","6","simple_dissimilar","images/stimuli/spore_stims/simple_01_A_c.gif","middle","","","","",""
"","null","html-keyboard-response","124","450197","0.0-26.0-0.4","SS1613080424634","","","null","","","","","<p><img src= images/blank.png width =""200"" height = ""200"" style = ""float:right""></p><p><img src=images/blank.png width =""800"" height = ""200""></p>","","","","","","","","","","","",""
"","677.5449998676777","sequential-stimulus-presentation","125","451685","0.0-26.0-1.4","SS1613080424634","trial","","40","800","1477.5449998676777","images/stimuli/spore_stims/simple_20_A_c.gif","images/stimuli/spore_stims/simple_01_A_c.gif","","","","","6","simple_dissimilar","images/stimuli/spore_stims/simple_20_A_c.gif","right","","","","",""
"","null","html-keyboard-response","126","452718","0.0-26.0-0.5","SS1613080424634","","","null","","","","","<p><img src= images/blank.png width =""200"" height = ""200"" style = ""float:right""></p><p><img src=images/blank.png width =""800"" height = ""200""></p>","","","","","","","","","","","",""
"","538.7450000271201","sequential-stimulus-presentation","127","454064","0.0-26.0-1.5","SS1613080424634","trial","","40","800","1338.74500002712","images/stimuli/spore_stims/simple_20_A_c.gif","images/stimuli/spore_stims/simple_01_A_c.gif","","","","","6","simple_dissimilar","images/stimuli/spore_stims/simple_01_A_c.gif","middle","","","","",""
"","null","html-keyboard-response","128","455097","0.0-26.0-0.6","SS1613080424634","","","null","","","","","<p><img src= images/blank.png width =""200"" height = ""200"" style = ""float:right""></p><p><img src=images/blank.png width =""800"" height = ""200""></p>","","","","","","","","","","","",""
"","384.2799998819828","sequential-stimulus-presentation","129","456291","0.0-26.0-1.6","SS1613080424634","trial","","40","800","1184.2799998819828","images/stimuli/spore_stims/simple_20_A_c.gif","images/stimuli/spore_stims/simple_01_A_c.gif","","","","","6","simple_dissimilar","images/stimuli/spore_stims/simple_01_A_c.gif","middle","","","","",""
"","null","html-keyboard-response","130","457575","0.0-26.0-0.7","SS1613080424634","","","null","","","","","<p><img src= images/blank.png width =""200"" height = ""200"" style = ""float:right""></p><p><img src=images/blank.png width =""800"" height = ""200""></p>","","","","","","","","","","","",""
"","477.72999992594123","sequential-stimulus-presentation","131","458862","0.0-26.0-1.7","SS1613080424634","trial","","40","800","1277.7299999259412","images/stimuli/spore_stims/simple_20_A_c.gif","images/stimuli/spore_stims/simple_01_A_c.gif","","","","","6","simple_dissimilar","images/stimuli/spore_stims/simple_01_A_c.gif","middle","","","","",""
"","1196.4300000108778","html-keyboard-response","132","460066","0.0-27.0","SS1613080424634","pref_question","","49","","","","","<video width ='960' height = '540' style='padding-top:8%' autoplay muted><source src='images/stimuli/wall_pref.mp4' type='video/mp4'></video>","1","left","25%","6","","","","","","","",""
"","1061.7499998770654","sequential-stimulus-presentation","133","461937","0.0-28.0","SS1613080424634","pref_reveal","","40","800","1861.7499998770654","null","null","","","","","6","","","","novel","","","",""
"","null","html-keyboard-response","134","463061","0.0-29.0-0.0","SS1613080424634","","","null","","","","","<p><img src= images/blank.png width =""200"" height = ""200"" style = ""float:right""></p><p><img src=images/blank.png width =""800"" height = ""200""></p>","","","","","","","","","","","",""
"","812.4299999326468","sequential-stimulus-presentation","135","464682","0.0-29.0-1.0","SS1613080424634","trial","","40","800","1612.4299999326468","images/stimuli/spore_stims/simple_06_A_a.gif","images/stimuli/spore_stims/simple_06_B_a.gif","","","","","7","simple_similar","images/stimuli/spore_stims/simple_06_B_a.gif","left","","","","",""
"","null","html-keyboard-response","136","465658","0.0-29.0-0.1","SS1613080424634","","","null","","","","","<p><img src= images/blank.png width =""200"" height = ""200"" style = ""float:right""></p><p><img src=images/blank.png width =""800"" height = ""200""></p>","","","","","","","","","","","",""
"","446.7549999244511","sequential-stimulus-presentation","137","466912","0.0-29.0-1.1","SS1613080424634","trial","","40","800","1246.754999924451","images/stimuli/spore_stims/simple_06_A_a.gif","images/stimuli/spore_stims/simple_06_B_a.gif","","","","","7","simple_similar","images/stimuli/spore_stims/simple_06_B_a.gif","left","","","","",""
"","null","html-keyboard-response","138","467893","0.0-29.0-0.2","SS1613080424634","","","null","","","","","<p><img src= images/blank.png width =""200"" height = ""200"" style = ""float:right""></p><p><img src=images/blank.png width =""800"" height = ""200""></p>","","","","","","","","","","","",""
"","400.64499992877245","sequential-stimulus-presentation","139","469105","0.0-29.0-1.2","SS1613080424634","trial","","40","800","1200.6449999287724","images/stimuli/spore_stims/simple_06_A_a.gif","images/stimuli/spore_stims/simple_06_B_a.gif","","","","","7","simple_similar","images/stimuli/spore_stims/simple_06_B_a.gif","left","","","","",""
"","null","html-keyboard-response","140","470222","0.0-29.0-0.3","SS1613080424634","","","null","","","","","<p><img src= images/blank.png width =""200"" height = ""200"" style = ""float:right""></p><p><img src=images/blank.png width =""800"" height = ""200""></p>","","","","","","","","","","","",""
"","603.6050003021955","sequential-stimulus-presentation","141","471634","0.0-29.0-1.3","SS1613080424634","trial","","40","800","1403.6050003021955","images/stimuli/spore_stims/simple_06_A_a.gif","images/stimuli/spore_stims/simple_06_B_a.gif","","","","","7","simple_similar","images/stimuli/spore_stims/simple_06_A_a.gif","right","","","","",""
"","null","html-keyboard-response","142","472579","0.0-29.0-0.4","SS1613080424634","","","null","","","","","<p><img src= images/blank.png width =""200"" height = ""200"" style = ""float:right""></p><p><img src=images/blank.png width =""800"" height = ""200""></p>","","","","","","","","","","","",""
"","681.6899999976158","sequential-stimulus-presentation","143","474070","0.0-29.0-1.4","SS1613080424634","trial","","40","800","1481.6899999976158","images/stimuli/spore_stims/simple_06_A_a.gif","images/stimuli/spore_stims/simple_06_B_a.gif","","","","","7","simple_similar","images/stimuli/spore_stims/simple_06_B_a.gif","left","","","","",""
"","null","html-keyboard-response","144","475011","0.0-29.0-0.5","SS1613080424634","","","null","","","","","<p><img src= images/blank.png width =""200"" height = ""200"" style = ""float:right""></p><p><img src=images/blank.png width =""800"" height = ""200""></p>","","","","","","","","","","","",""
"","527.0249997265637","sequential-stimulus-presentation","145","476349","0.0-29.0-1.5","SS1613080424634","trial","","40","800","1327.0249997265637","images/stimuli/spore_stims/simple_06_A_a.gif","images/stimuli/spore_stims/simple_06_B_a.gif","","","","","7","simple_similar","images/stimuli/spore_stims/simple_06_B_a.gif","left","","","","",""
"","null","html-keyboard-response","146","477413","0.0-29.0-0.6","SS1613080424634","","","null","","","","","<p><img src= images/blank.png width =""200"" height = ""200"" style = ""float:right""></p><p><img src=images/blank.png width =""800"" height = ""200""></p>","","","","","","","","","","","",""
"","1041.759999934584","sequential-stimulus-presentation","147","479266","0.0-29.0-1.6","SS1613080424634","trial","","40","800","1841.759999934584","images/stimuli/spore_stims/simple_06_A_a.gif","images/stimuli/spore_stims/simple_06_B_a.gif","","","","","7","simple_similar","images/stimuli/spore_stims/simple_06_B_a.gif","left","","","","",""
"","null","html-keyboard-response","148","480521","0.0-29.0-0.7","SS1613080424634","","","null","","","","","<p><img src= images/blank.png width =""200"" height = ""200"" style = ""float:right""></p><p><img src=images/blank.png width =""800"" height = ""200""></p>","","","","","","","","","","","",""
"","934.6499997191131","sequential-stimulus-presentation","149","482265","0.0-29.0-1.7","SS1613080424634","trial","","40","800","1734.649999719113","images/stimuli/spore_stims/simple_06_A_a.gif","images/stimuli/spore_stims/simple_06_B_a.gif","","","","","7","simple_similar","images/stimuli/spore_stims/simple_06_B_a.gif","left","","","","",""
"","1379.1999998502433","html-keyboard-response","150","483652","0.0-30.0","SS1613080424634","pref_question","","50","","","","","<video width ='960' height = '540' style='padding-top:8%' autoplay muted><source src='images/stimuli/wall_pref.mp4' type='video/mp4'></video>","2","middle","45%","7","","","","","","","",""
"","774.3350001983345","sequential-stimulus-presentation","151","485236","0.0-31.0","SS1613080424634","pref_reveal","","40","800","1574.3350001983345","null","null","","","","","7","","","","novel","","","",""
"","null","html-keyboard-response","152","486392","0.0-32.0-0.0","SS1613080424634","","","null","","","","","<p><img src= images/blank.png width =""200"" height = ""200"" style = ""float:right""></p><p><img src=images/blank.png width =""800"" height = ""200""></p>","","","","","","","","","","","",""
"","924.1599999368191","sequential-stimulus-presentation","153","488127","0.0-32.0-1.0","SS1613080424634","trial","","40","800","1724.159999936819","images/stimuli/spore_stims/simple_15_A_c.gif","images/stimuli/spore_stims/simple_15_B_c.gif","","","","","8","simple_similar","images/stimuli/spore_stims/simple_15_B_c.gif","left","","","","",""
"","null","html-keyboard-response","154","489086","0.0-32.0-0.1","SS1613080424634","","","null","","","","","<p><img src= images/blank.png width =""200"" height = ""200"" style = ""float:right""></p><p><img src=images/blank.png width =""800"" height = ""200""></p>","","","","","","","","","","","",""
"","197.74000020697713","sequential-stimulus-presentation","155","490094","0.0-32.0-1.1","SS1613080424634","trial","","40","800","997.7400002069771","images/stimuli/spore_stims/simple_15_A_c.gif","images/stimuli/spore_stims/simple_15_B_c.gif","","","","","8","simple_similar","images/stimuli/spore_stims/simple_15_B_c.gif","left","","","","",""
"","null","html-keyboard-response","156","491174","0.0-32.0-0.2","SS1613080424634","","","null","","","","","<p><img src= images/blank.png width =""200"" height = ""200"" style = ""float:right""></p><p><img src=images/blank.png width =""800"" height = ""200""></p>","","","","","","","","","","","",""
"","548.6449999734759","sequential-stimulus-presentation","157","492537","0.0-32.0-1.2","SS1613080424634","trial","","40","800","1348.644999973476","images/stimuli/spore_stims/simple_15_A_c.gif","images/stimuli/spore_stims/simple_15_B_c.gif","","","","","8","simple_similar","images/stimuli/spore_stims/simple_15_B_c.gif","left","","","","",""
"","null","html-keyboard-response","158","493641","0.0-32.0-0.3","SS1613080424634","","","null","","","","","<p><img src= images/blank.png width =""200"" height = ""200"" style = ""float:right""></p><p><img src=images/blank.png width =""800"" height = ""200""></p>","","","","","","","","","","","",""
"","527.5300000794232","sequential-stimulus-presentation","159","494987","0.0-32.0-1.3","SS1613080424634","trial","","40","800","1327.5300000794232","images/stimuli/spore_stims/simple_15_A_c.gif","images/stimuli/spore_stims/simple_15_B_c.gif","","","","","8","simple_similar","images/stimuli/spore_stims/simple_15_B_c.gif","left","","","","",""
"","null","html-keyboard-response","160","496166","0.0-32.0-0.4","SS1613080424634","","","null","","","","","<p><img src= images/blank.png width =""200"" height = ""200"" style = ""float:right""></p><p><img src=images/blank.png width =""800"" height = ""200""></p>","","","","","","","","","","","",""
"","549.3149999529123","sequential-stimulus-presentation","161","497526","0.0-32.0-1.4","SS1613080424634","trial","","40","800","1349.3149999529123","images/stimuli/spore_stims/simple_15_A_c.gif","images/stimuli/spore_stims/simple_15_B_c.gif","","","","","8","simple_similar","images/stimuli/spore_stims/simple_15_B_c.gif","left","","","","",""
"","null","html-keyboard-response","162","498671","0.0-32.0-0.5","SS1613080424634","","","null","","","","","<p><img src= images/blank.png width =""200"" height = ""200"" style = ""float:right""></p><p><img src=images/blank.png width =""800"" height = ""200""></p>","","","","","","","","","","","",""
"","502.36500008031726","sequential-stimulus-presentation","163","499984","0.0-32.0-1.5","SS1613080424634","trial","","40","800","1302.3650000803173","images/stimuli/spore_stims/simple_15_A_c.gif","images/stimuli/spore_stims/simple_15_B_c.gif","","","","","8","simple_similar","images/stimuli/spore_stims/simple_15_B_c.gif","left","","","","",""
"","null","html-keyboard-response","164","501210","0.0-32.0-0.6","SS1613080424634","","","null","","","","","<p><img src= images/blank.png width =""200"" height = ""200"" style = ""float:right""></p><p><img src=images/blank.png width =""800"" height = ""200""></p>","","","","","","","","","","","",""
"","527.2899996489286","sequential-stimulus-presentation","165","502548","0.0-32.0-1.6","SS1613080424634","trial","","40","800","1327.2899996489286","images/stimuli/spore_stims/simple_15_A_c.gif","images/stimuli/spore_stims/simple_15_B_c.gif","","","","","8","simple_similar","images/stimuli/spore_stims/simple_15_B_c.gif","left","","","","",""
"","null","html-keyboard-response","166","503473","0.0-32.0-0.7","SS1613080424634","","","null","","","","","<p><img src= images/blank.png width =""200"" height = ""200"" style = ""float:right""></p><p><img src=images/blank.png width =""800"" height = ""200""></p>","","","","","","","","","","","",""
"","128.27999982982874","sequential-stimulus-presentation","167","504415","0.0-32.0-1.7","SS1613080424634","trial","","40","800","928.2799998298287","images/stimuli/spore_stims/simple_15_A_c.gif","images/stimuli/spore_stims/simple_15_B_c.gif","","","","","8","simple_similar","images/stimuli/spore_stims/simple_15_A_c.gif","right","","","","",""
"","1877.6250001974404","html-keyboard-response","168","506300","0.0-33.0","SS1613080424634","pref_question","","51","","","","","<video width ='960' height = '540' style='padding-top:8%' autoplay muted><source src='images/stimuli/wall_pref.mp4' type='video/mp4'></video>","3","right","66%","8","","","","","","","",""
"","936.9749999605119","sequential-stimulus-presentation","169","508048","0.0-34.0","SS1613080424634","pref_reveal","","40","800","1736.974999960512","null","null","","","","","8","","","","deviant","","","",""
"","null","html-keyboard-response","170","508908","0.0-35.0-0.0","SS1613080424634","","","null","","","","","<p><img src= images/blank.png width =""200"" height = ""200"" style = ""float:right""></p><p><img src=images/blank.png width =""800"" height = ""200""></p>","","","","","","","","","","","",""
"","411.05000022798777","sequential-stimulus-presentation","171","510129","0.0-35.0-1.0","SS1613080424634","trial","","40","800","1211.0500002279878","images/stimuli/spore_stims/complex_07_B_d.gif","images/stimuli/spore_stims/complex_14_A_a.gif","","","","","9","complex_dissimilar","images/stimuli/spore_stims/complex_14_A_a.gif","right","","","","",""
"","null","html-keyboard-response","172","511221","0.0-35.0-0.1","SS1613080424634","","","null","","","","","<p><img src= images/blank.png width =""200"" height = ""200"" style = ""float:right""></p><p><img src=images/blank.png width =""800"" height = ""200""></p>","","","","","","","","","","","",""
"","457.61499973013997","sequential-stimulus-presentation","173","512488","0.0-35.0-1.1","SS1613080424634","trial","","40","800","1257.61499973014","images/stimuli/spore_stims/complex_07_B_d.gif","images/stimuli/spore_stims/complex_14_A_a.gif","","","","","9","complex_dissimilar","images/stimuli/spore_stims/complex_14_A_a.gif","right","","","","",""
"","null","html-keyboard-response","174","513722","0.0-35.0-0.2","SS1613080424634","","","null","","","","","<p><img src= images/blank.png width =""200"" height = ""200"" style = ""float:right""></p><p><img src=images/blank.png width =""800"" height = ""200""></p>","","","","","","","","","","","",""
"","364.4949998706579","sequential-stimulus-presentation","175","514894","0.0-35.0-1.2","SS1613080424634","trial","","40","800","1164.494999870658","images/stimuli/spore_stims/complex_07_B_d.gif","images/stimuli/spore_stims/complex_14_A_a.gif","","","","","9","complex_dissimilar","images/stimuli/spore_stims/complex_14_A_a.gif","right","","","","",""
"","null","html-keyboard-response","176","515763","0.0-35.0-0.3","SS1613080424634","","","null","","","","","<p><img src= images/blank.png width =""200"" height = ""200"" style = ""float:right""></p><p><img src=images/blank.png width =""800"" height = ""200""></p>","","","","","","","","","","","",""
"","381.8500000052154","sequential-stimulus-presentation","177","516952","0.0-35.0-1.3","SS1613080424634","trial","","40","800","1181.8500000052154","images/stimuli/spore_stims/complex_07_B_d.gif","images/stimuli/spore_stims/complex_14_A_a.gif","","","","","9","complex_dissimilar","images/stimuli/spore_stims/complex_14_A_a.gif","right","","","","",""
"","null","html-keyboard-response","178","517878","0.0-35.0-0.4","SS1613080424634","","","null","","","","","<p><img src= images/blank.png width =""200"" height = ""200"" style = ""float:right""></p><p><img src=images/blank.png width =""800"" height = ""200""></p>","","","","","","","","","","","",""
"","343.71500043198466","sequential-stimulus-presentation","179","519040","0.0-35.0-1.4","SS1613080424634","trial","","40","800","1143.7150004319847","images/stimuli/spore_stims/complex_07_B_d.gif","images/stimuli/spore_stims/complex_14_A_a.gif","","","","","9","complex_dissimilar","images/stimuli/spore_stims/complex_14_A_a.gif","right","","","","",""
"","null","html-keyboard-response","180","519905","0.0-35.0-0.5","SS1613080424634","","","null","","","","","<p><img src= images/blank.png width =""200"" height = ""200"" style = ""float:right""></p><p><img src=images/blank.png width =""800"" height = ""200""></p>","","","","","","","","","","","",""
"","1048.5749999061227","sequential-stimulus-presentation","181","521762","0.0-35.0-1.5","SS1613080424634","trial","","40","800","1848.5749999061227","images/stimuli/spore_stims/complex_07_B_d.gif","images/stimuli/spore_stims/complex_14_A_a.gif","","","","","9","complex_dissimilar","images/stimuli/spore_stims/complex_07_B_d.gif","middle","","","","",""
"","null","html-keyboard-response","182","522925","0.0-35.0-0.6","SS1613080424634","","","null","","","","","<p><img src= images/blank.png width =""200"" height = ""200"" style = ""float:right""></p><p><img src=images/blank.png width =""800"" height = ""200""></p>","","","","","","","","","","","",""
"","381.9099999964237","sequential-stimulus-presentation","183","524120","0.0-35.0-1.6","SS1613080424634","trial","","40","800","1181.9099999964237","images/stimuli/spore_stims/complex_07_B_d.gif","images/stimuli/spore_stims/complex_14_A_a.gif","","","","","9","complex_dissimilar","images/stimuli/spore_stims/complex_14_A_a.gif","right","","","","",""
"","null","html-keyboard-response","184","524962","0.0-35.0-0.7","SS1613080424634","","","null","","","","","<p><img src= images/blank.png width =""200"" height = ""200"" style = ""float:right""></p><p><img src=images/blank.png width =""800"" height = ""200""></p>","","","","","","","","","","","",""
"","371.9250001013279","sequential-stimulus-presentation","185","526143","0.0-35.0-1.7","SS1613080424634","trial","","40","800","1171.925000101328","images/stimuli/spore_stims/complex_07_B_d.gif","images/stimuli/spore_stims/complex_14_A_a.gif","","","","","9","complex_dissimilar","images/stimuli/spore_stims/complex_14_A_a.gif","right","","","","",""
"","1362.3500000685453","html-keyboard-response","186","527518","0.0-36.0","SS1613080424634","pref_question","","50","","","","","<video width ='960' height = '540' style='padding-top:8%' autoplay muted><source src='images/stimuli/wall_pref.mp4' type='video/mp4'></video>","2","middle","45%","9","","","","","","","",""
"","855.489999987185","sequential-stimulus-presentation","187","529185","0.0-37.0","SS1613080424634","pref_reveal","","40","800","1655.489999987185","null","null","","","","","9","","","","deviant","","","",""
"","null","html-keyboard-response","188","530028","0.0-38.0-0.0","SS1613080424634","","","null","","","","","<p><img src= images/blank.png width =""200"" height = ""200"" style = ""float:right""></p><p><img src=images/blank.png width =""800"" height = ""200""></p>","","","","","","","","","","","",""
"","422.11000015959144","sequential-stimulus-presentation","189","531265","0.0-38.0-1.0","SS1613080424634","trial","","40","800","1222.1100001595914","images/stimuli/spore_stims/simple_16_B_a.gif","images/stimuli/spore_stims/simple_11_B_d.gif","","","","","10","simple_dissimilar","images/stimuli/spore_stims/simple_11_B_d.gif","right","","","","",""
"","null","html-keyboard-response","190","532542","0.0-38.0-0.1","SS1613080424634","","","null","","","","","<p><img src= images/blank.png width =""200"" height = ""200"" style = ""float:right""></p><p><img src=images/blank.png width =""800"" height = ""200""></p>","","","","","","","","","","","",""
"","312.52000015228987","sequential-stimulus-presentation","191","533663","0.0-38.0-1.1","SS1613080424634","trial","","40","800","1112.5200001522899","images/stimuli/spore_stims/simple_16_B_a.gif","images/stimuli/spore_stims/simple_11_B_d.gif","","","","","10","simple_dissimilar","images/stimuli/spore_stims/simple_11_B_d.gif","right","","","","",""
"","null","html-keyboard-response","192","534696","0.0-38.0-0.2","SS1613080424634","","","null","","","","","<p><img src= images/blank.png width =""200"" height = ""200"" style = ""float:right""></p><p><img src=images/blank.png width =""800"" height = ""200""></p>","","","","","","","","","","","",""
"","359.71499979496","sequential-stimulus-presentation","193","535863","0.0-38.0-1.2","SS1613080424634","trial","","40","800","1159.71499979496","images/stimuli/spore_stims/simple_16_B_a.gif","images/stimuli/spore_stims/simple_11_B_d.gif","","","","","10","simple_dissimilar","images/stimuli/spore_stims/simple_11_B_d.gif","right","","","","",""
"","null","html-keyboard-response","194","536775","0.0-38.0-0.3","SS1613080424634","","","null","","","","","<p><img src= images/blank.png width =""200"" height = ""200"" style = ""float:right""></p><p><img src=images/blank.png width =""800"" height = ""200""></p>","","","","","","","","","","","",""
"","285.43000016361475","sequential-stimulus-presentation","195","537869","0.0-38.0-1.3","SS1613080424634","trial","","40","800","1085.4300001636147","images/stimuli/spore_stims/simple_16_B_a.gif","images/stimuli/spore_stims/simple_11_B_d.gif","","","","","10","simple_dissimilar","images/stimuli/spore_stims/simple_11_B_d.gif","right","","","","",""
"","null","html-keyboard-response","196","538842","0.0-38.0-0.4","SS1613080424634","","","null","","","","","<p><img src= images/blank.png width =""200"" height = ""200"" style = ""float:right""></p><p><img src=images/blank.png width =""800"" height = ""200""></p>","","","","","","","","","","","",""
"","433.10000002384186","sequential-stimulus-presentation","197","540084","0.0-38.0-1.4","SS1613080424634","trial","","40","800","1233.1000000238419","images/stimuli/spore_stims/simple_16_B_a.gif","images/stimuli/spore_stims/simple_11_B_d.gif","","","","","10","simple_dissimilar","images/stimuli/spore_stims/simple_11_B_d.gif","right","","","","",""
"","null","html-keyboard-response","198","541365","0.0-38.0-0.5","SS1613080424634","","","null","","","","","<p><img src= images/blank.png width =""200"" height = ""200"" style = ""float:right""></p><p><img src=images/blank.png width =""800"" height = ""200""></p>","","","","","","","","","","","",""
"","552.5600002147257","sequential-stimulus-presentation","199","542730","0.0-38.0-1.5","SS1613080424634","trial","","40","800","1352.5600002147257","images/stimuli/spore_stims/simple_16_B_a.gif","images/stimuli/spore_stims/simple_11_B_d.gif","","","","","10","simple_dissimilar","images/stimuli/spore_stims/simple_16_B_a.gif","middle","","","","",""
"","null","html-keyboard-response","200","543612","0.0-38.0-0.6","SS1613080424634","","","null","","","","","<p><img src= images/blank.png width =""200"" height = ""200"" style = ""float:right""></p><p><img src=images/blank.png width =""800"" height = ""200""></p>","","","","","","","","","","","",""
"","1021.720000077039","sequential-stimulus-presentation","201","545451","0.0-38.0-1.6","SS1613080424634","trial","","40","800","1821.720000077039","images/stimuli/spore_stims/simple_16_B_a.gif","images/stimuli/spore_stims/simple_11_B_d.gif","","","","","10","simple_dissimilar","images/stimuli/spore_stims/simple_11_B_d.gif","right","","","","",""
"","null","html-keyboard-response","202","546410","0.0-38.0-0.7","SS1613080424634","","","null","","","","","<p><img src= images/blank.png width =""200"" height = ""200"" style = ""float:right""></p><p><img src=images/blank.png width =""800"" height = ""200""></p>","","","","","","","","","","","",""
"","499.8050001449883","sequential-stimulus-presentation","203","547719","0.0-38.0-1.7","SS1613080424634","trial","","40","800","1299.8050001449883","images/stimuli/spore_stims/simple_16_B_a.gif","images/stimuli/spore_stims/simple_11_B_d.gif","","","","","10","simple_dissimilar","images/stimuli/spore_stims/simple_11_B_d.gif","right","","","","",""
"","1321.5549997985363","html-keyboard-response","204","549051","0.0-39.0","SS1613080424634","pref_question","","49","","","","","<video width ='960' height = '540' style='padding-top:8%' autoplay muted><source src='images/stimuli/wall_pref.mp4' type='video/mp4'></video>","1","left","25%","10","","","","","","","",""
"","45.055000111460686","sequential-stimulus-presentation","205","549908","0.0-40.0","SS1613080424634","pref_reveal","","40","800","845.0550001114607","null","null","","","","","10","","","","novel","","","",""
"","null","html-keyboard-response","206","551204","0.0-41.0-0.0","SS1613080424634","","","null","","","","","<p><img src= images/blank.png width =""200"" height = ""200"" style = ""float:right""></p><p><img src=images/blank.png width =""800"" height = ""200""></p>","","","","","","","","","","","",""
"","557.9900001175702","sequential-stimulus-presentation","207","552578","0.0-41.0-1.0","SS1613080424634","trial","","40","800","1357.9900001175702","images/stimuli/spore_stims/complex_18_B_b.gif","images/stimuli/spore_stims/complex_03_A_c.gif","","","","","11","complex_dissimilar","images/stimuli/spore_stims/complex_03_A_c.gif","middle","","","","",""
"","null","html-keyboard-response","208","553861","0.0-41.0-0.1","SS1613080424634","","","null","","","","","<p><img src= images/blank.png width =""200"" height = ""200"" style = ""float:right""></p><p><img src=images/blank.png width =""800"" height = ""200""></p>","","","","","","","","","","","",""
"","480.33499997109175","sequential-stimulus-presentation","209","555150","0.0-41.0-1.1","SS1613080424634","trial","","40","800","1280.3349999710917","images/stimuli/spore_stims/complex_18_B_b.gif","images/stimuli/spore_stims/complex_03_A_c.gif","","","","","11","complex_dissimilar","images/stimuli/spore_stims/complex_03_A_c.gif","middle","","","","",""
"","null","html-keyboard-response","210","556346","0.0-41.0-0.2","SS1613080424634","","","null","","","","","<p><img src= images/blank.png width =""200"" height = ""200"" style = ""float:right""></p><p><img src=images/blank.png width =""800"" height = ""200""></p>","","","","","","","","","","","",""
"","467.24999975413084","sequential-stimulus-presentation","211","557622","0.0-41.0-1.2","SS1613080424634","trial","","40","800","1267.2499997541308","images/stimuli/spore_stims/complex_18_B_b.gif","images/stimuli/spore_stims/complex_03_A_c.gif","","","","","11","complex_dissimilar","images/stimuli/spore_stims/complex_03_A_c.gif","middle","","","","",""
"","null","html-keyboard-response","212","558636","0.0-41.0-0.3","SS1613080424634","","","null","","","","","<p><img src= images/blank.png width =""200"" height = ""200"" style = ""float:right""></p><p><img src=images/blank.png width =""800"" height = ""200""></p>","","","","","","","","","","","",""
"","440.9650000743568","sequential-stimulus-presentation","213","559890","0.0-41.0-1.3","SS1613080424634","trial","","40","800","1240.9650000743568","images/stimuli/spore_stims/complex_18_B_b.gif","images/stimuli/spore_stims/complex_03_A_c.gif","","","","","11","complex_dissimilar","images/stimuli/spore_stims/complex_03_A_c.gif","middle","","","","",""
"","null","html-keyboard-response","214","560889","0.0-41.0-0.4","SS1613080424634","","","null","","","","","<p><img src= images/blank.png width =""200"" height = ""200"" style = ""float:right""></p><p><img src=images/blank.png width =""800"" height = ""200""></p>","","","","","","","","","","","",""
"","124.22499991953373","sequential-stimulus-presentation","215","561823","0.0-41.0-1.4","SS1613080424634","trial","","40","800","924.2249999195337","images/stimuli/spore_stims/complex_18_B_b.gif","images/stimuli/spore_stims/complex_03_A_c.gif","","","","","11","complex_dissimilar","images/stimuli/spore_stims/complex_03_A_c.gif","middle","","","","",""
"","null","html-keyboard-response","216","562900","0.0-41.0-0.5","SS1613080424634","","","null","","","","","<p><img src= images/blank.png width =""200"" height = ""200"" style = ""float:right""></p><p><img src=images/blank.png width =""800"" height = ""200""></p>","","","","","","","","","","","",""
"","415.9149997867644","sequential-stimulus-presentation","217","564129","0.0-41.0-1.5","SS1613080424634","trial","","40","800","1215.9149997867644","images/stimuli/spore_stims/complex_18_B_b.gif","images/stimuli/spore_stims/complex_03_A_c.gif","","","","","11","complex_dissimilar","images/stimuli/spore_stims/complex_03_A_c.gif","middle","","","","",""
"","null","html-keyboard-response","218","565250","0.0-41.0-0.6","SS1613080424634","","","null","","","","","<p><img src= images/blank.png width =""200"" height = ""200"" style = ""float:right""></p><p><img src=images/blank.png width =""800"" height = ""200""></p>","","","","","","","","","","","",""
"","456.07500011101365","sequential-stimulus-presentation","219","566516","0.0-41.0-1.6","SS1613080424634","trial","","40","800","1256.0750001110137","images/stimuli/spore_stims/complex_18_B_b.gif","images/stimuli/spore_stims/complex_03_A_c.gif","","","","","11","complex_dissimilar","images/stimuli/spore_stims/complex_03_A_c.gif","middle","","","","",""
"","null","html-keyboard-response","220","567473","0.0-41.0-0.7","SS1613080424634","","","null","","","","","<p><img src= images/blank.png width =""200"" height = ""200"" style = ""float:right""></p><p><img src=images/blank.png width =""800"" height = ""200""></p>","","","","","","","","","","","",""
"","887.2050000354648","sequential-stimulus-presentation","221","569173","0.0-41.0-1.7","SS1613080424634","trial","","40","800","1687.2050000354648","images/stimuli/spore_stims/complex_18_B_b.gif","images/stimuli/spore_stims/complex_03_A_c.gif","","","","","11","complex_dissimilar","images/stimuli/spore_stims/complex_18_B_b.gif","right","","","","",""
"","1322.7849998511374","html-keyboard-response","222","570506","0.0-42.0","SS1613080424634","pref_question","","51","","","","","<video width ='960' height = '540' style='padding-top:8%' autoplay muted><source src='images/stimuli/wall_pref.mp4' type='video/mp4'></video>","3","right","66%","11","","","","","","","",""
"","603.380000218749","sequential-stimulus-presentation","223","571921","0.0-43.0","SS1613080424634","pref_reveal","","40","800","1403.380000218749","null","null","","","","","11","","","","deviant","","","",""
"","null","html-keyboard-response","224","572797","0.0-44.0-0.0","SS1613080424634","","","null","","","","","<p><img src= images/blank.png width =""200"" height = ""200"" style = ""float:right""></p><p><img src=images/blank.png width =""800"" height = ""200""></p>","","","","","","","","","","","",""
"","636.3650001585484","sequential-stimulus-presentation","225","574244","0.0-44.0-1.0","SS1613080424634","trial","","40","800","1436.3650001585484","images/stimuli/spore_stims/complex_02_B_d.gif","images/stimuli/spore_stims/complex_02_A_d.gif","","","","","12","complex_similar","images/stimuli/spore_stims/complex_02_A_d.gif","middle","","","","",""
"","null","html-keyboard-response","226","575087","0.0-44.0-0.1","SS1613080424634","","","null","","","","","<p><img src= images/blank.png width =""200"" height = ""200"" style = ""float:right""></p><p><img src=images/blank.png width =""800"" height = ""200""></p>","","","","","","","","","","","",""
"","448.49999994039536","sequential-stimulus-presentation","227","576344","0.0-44.0-1.1","SS1613080424634","trial","","40","800","1248.4999999403954","images/stimuli/spore_stims/complex_02_B_d.gif","images/stimuli/spore_stims/complex_02_A_d.gif","","","","","12","complex_similar","images/stimuli/spore_stims/complex_02_A_d.gif","middle","","","","",""
"","null","html-keyboard-response","228","577156","0.0-44.0-0.2","SS1613080424634","","","null","","","","","<p><img src= images/blank.png width =""200"" height = ""200"" style = ""float:right""></p><p><img src=images/blank.png width =""800"" height = ""200""></p>","","","","","","","","","","","",""
"","392.90000032633543","sequential-stimulus-presentation","229","578358","0.0-44.0-1.2","SS1613080424634","trial","","40","800","1192.9000003263354","images/stimuli/spore_stims/complex_02_B_d.gif","images/stimuli/spore_stims/complex_02_A_d.gif","","","","","12","complex_similar","images/stimuli/spore_stims/complex_02_A_d.gif","middle","","","","",""
"","null","html-keyboard-response","230","579296","0.0-44.0-0.3","SS1613080424634","","","null","","","","","<p><img src= images/blank.png width =""200"" height = ""200"" style = ""float:right""></p><p><img src=images/blank.png width =""800"" height = ""200""></p>","","","","","","","","","","","",""
"","539.8600003682077","sequential-stimulus-presentation","231","580644","0.0-44.0-1.3","SS1613080424634","trial","","40","800","1339.8600003682077","images/stimuli/spore_stims/complex_02_B_d.gif","images/stimuli/spore_stims/complex_02_A_d.gif","","","","","12","complex_similar","images/stimuli/spore_stims/complex_02_A_d.gif","middle","","","","",""
"","null","html-keyboard-response","232","581774","0.0-44.0-0.4","SS1613080424634","","","null","","","","","<p><img src= images/blank.png width =""200"" height = ""200"" style = ""float:right""></p><p><img src=images/blank.png width =""800"" height = ""200""></p>","","","","","","","","","","","",""
"","467.67499996349216","sequential-stimulus-presentation","233","583066","0.0-44.0-1.4","SS1613080424634","trial","","40","800","1267.6749999634922","images/stimuli/spore_stims/complex_02_B_d.gif","images/stimuli/spore_stims/complex_02_A_d.gif","","","","","12","complex_similar","images/stimuli/spore_stims/complex_02_A_d.gif","middle","","","","",""
"","null","html-keyboard-response","234","584230","0.0-44.0-0.5","SS1613080424634","","","null","","","","","<p><img src= images/blank.png width =""200"" height = ""200"" style = ""float:right""></p><p><img src=images/blank.png width =""800"" height = ""200""></p>","","","","","","","","","","","",""
"","718.2200001552701","sequential-stimulus-presentation","235","585759","0.0-44.0-1.5","SS1613080424634","trial","","40","800","1518.22000015527","images/stimuli/spore_stims/complex_02_B_d.gif","images/stimuli/spore_stims/complex_02_A_d.gif","","","","","12","complex_similar","images/stimuli/spore_stims/complex_02_B_d.gif","right","","","","",""
"","null","html-keyboard-response","236","586618","0.0-44.0-0.6","SS1613080424634","","","null","","","","","<p><img src= images/blank.png width =""200"" height = ""200"" style = ""float:right""></p><p><img src=images/blank.png width =""800"" height = ""200""></p>","","","","","","","","","","","",""
"","701.2450001202524","sequential-stimulus-presentation","237","588135","0.0-44.0-1.6","SS1613080424634","trial","","40","800","1501.2450001202524","images/stimuli/spore_stims/complex_02_B_d.gif","images/stimuli/spore_stims/complex_02_A_d.gif","","","","","12","complex_similar","images/stimuli/spore_stims/complex_02_A_d.gif","middle","","","","",""
"","null","html-keyboard-response","238","589445","0.0-44.0-0.7","SS1613080424634","","","null","","","","","<p><img src= images/blank.png width =""200"" height = ""200"" style = ""float:right""></p><p><img src=images/blank.png width =""800"" height = ""200""></p>","","","","","","","","","","","",""
"","471.9650000333786","sequential-stimulus-presentation","239","590728","0.0-44.0-1.7","SS1613080424634","trial","","40","800","1271.9650000333786","images/stimuli/spore_stims/complex_02_B_d.gif","images/stimuli/spore_stims/complex_02_A_d.gif","","","","","12","complex_similar","images/stimuli/spore_stims/complex_02_A_d.gif","middle","","","","",""
"","1149.1549997590482","html-keyboard-response","240","591903","0.0-45.0","SS1613080424634","pref_question","","49","","","","","<video width ='960' height = '540' style='padding-top:8%' autoplay muted><source src='images/stimuli/wall_pref.mp4' type='video/mp4'></video>","1","left","25%","12","","","","","","","",""
"","1734.8000002093613","sequential-stimulus-presentation","241","594448","0.0-46.0","SS1613080424634","pref_reveal","","40","800","2534.8000002093613","null","null","","","","","12","","","","novel","","","",""
"","null","html-keyboard-response","242","595401","0.0-47.0-0.0","SS1613080424634","","","null","","","","","<p><img src= images/blank.png width =""200"" height = ""200"" style = ""float:right""></p><p><img src=images/blank.png width =""800"" height = ""200""></p>","","","","","","","","","","","",""
"","491.71500001102686","sequential-stimulus-presentation","243","596703","0.0-47.0-1.0","SS1613080424634","trial","","40","800","1291.7150000110269","images/stimuli/spore_stims/simple_12_B_d.gif","images/stimuli/spore_stims/simple_12_A_d.gif","","","","","13","simple_similar","images/stimuli/spore_stims/simple_12_A_d.gif","left","","","","",""
"","null","html-keyboard-response","244","597621","0.0-47.0-0.1","SS1613080424634","","","null","","","","","<p><img src= images/blank.png width =""200"" height = ""200"" style = ""float:right""></p><p><img src=images/blank.png width =""800"" height = ""200""></p>","","","","","","","","","","","",""
"","412.6499998383224","sequential-stimulus-presentation","245","598847","0.0-47.0-1.1","SS1613080424634","trial","","40","800","1212.6499998383224","images/stimuli/spore_stims/simple_12_B_d.gif","images/stimuli/spore_stims/simple_12_A_d.gif","","","","","13","simple_similar","images/stimuli/spore_stims/simple_12_A_d.gif","left","","","","",""
"","null","html-keyboard-response","246","599890","0.0-47.0-0.2","SS1613080424634","","","null","","","","","<p><img src= images/blank.png width =""200"" height = ""200"" style = ""float:right""></p><p><img src=images/blank.png width =""800"" height = ""200""></p>","","","","","","","","","","","",""
"","456.13500010222197","sequential-stimulus-presentation","247","601157","0.0-47.0-1.2","SS1613080424634","trial","","40","800","1256.135000102222","images/stimuli/spore_stims/simple_12_B_d.gif","images/stimuli/spore_stims/simple_12_A_d.gif","","","","","13","simple_similar","images/stimuli/spore_stims/simple_12_A_d.gif","left","","","","",""
"","null","html-keyboard-response","248","602452","0.0-47.0-0.3","SS1613080424634","","","null","","","","","<p><img src= images/blank.png width =""200"" height = ""200"" style = ""float:right""></p><p><img src=images/blank.png width =""800"" height = ""200""></p>","","","","","","","","","","","",""
"","14556.005000136793","sequential-stimulus-presentation","249","617821","0.0-47.0-1.3","SS1613080424634","trial","","40","800","15356.005000136793","images/stimuli/spore_stims/simple_12_B_d.gif","images/stimuli/spore_stims/simple_12_A_d.gif","","","","","13","simple_similar","images/stimuli/spore_stims/simple_12_A_d.gif","left","","","","",""
"","null","html-keyboard-response","250","618794","0.0-47.0-0.4","SS1613080424634","","","null","","","","","<p><img src= images/blank.png width =""200"" height = ""200"" style = ""float:right""></p><p><img src=images/blank.png width =""800"" height = ""200""></p>","","","","","","","","","","","",""
"","8278.810000047088","sequential-stimulus-presentation","251","627884","0.0-47.0-1.4","SS1613080424634","trial","","40","800","9078.810000047088","images/stimuli/spore_stims/simple_12_B_d.gif","images/stimuli/spore_stims/simple_12_A_d.gif","","","","","13","simple_similar","images/stimuli/spore_stims/simple_12_A_d.gif","left","","","","",""
"","null","html-keyboard-response","252","629083","0.0-47.0-0.5","SS1613080424634","","","null","","","","","<p><img src= images/blank.png width =""200"" height = ""200"" style = ""float:right""></p><p><img src=images/blank.png width =""800"" height = ""200""></p>","","","","","","","","","","","",""
"","20056.37999996543","sequential-stimulus-presentation","253","649952","0.0-47.0-1.5","SS1613080424634","trial","","40","800","20856.37999996543","images/stimuli/spore_stims/simple_12_B_d.gif","images/stimuli/spore_stims/simple_12_A_d.gif","","","","","13","simple_similar","images/stimuli/spore_stims/simple_12_B_d.gif","middle","","","","",""
"","null","html-keyboard-response","254","651259","0.0-47.0-0.6","SS1613080424634","","","null","","","","","<p><img src= images/blank.png width =""200"" height = ""200"" style = ""float:right""></p><p><img src=images/blank.png width =""800"" height = ""200""></p>","","","","","","","","","","","",""
"","976.8400001339614","sequential-stimulus-presentation","255","653048","0.0-47.0-1.6","SS1613080424634","trial","","40","800","1776.8400001339614","images/stimuli/spore_stims/simple_12_B_d.gif","images/stimuli/spore_stims/simple_12_A_d.gif","","","","","13","simple_similar","images/stimuli/spore_stims/simple_12_A_d.gif","left","","","","",""
"","null","html-keyboard-response","256","653975","0.0-47.0-0.7","SS1613080424634","","","null","","","","","<p><img src= images/blank.png width =""200"" height = ""200"" style = ""float:right""></p><p><img src=images/blank.png width =""800"" height = ""200""></p>","","","","","","","","","","","",""
"","7684.040000196546","sequential-stimulus-presentation","257","662470","0.0-47.0-1.7","SS1613080424634","trial","","40","800","8484.040000196546","images/stimuli/spore_stims/simple_12_B_d.gif","images/stimuli/spore_stims/simple_12_A_d.gif","","","","","13","simple_similar","images/stimuli/spore_stims/simple_12_A_d.gif","left","","","","",""
"","4813.855000305921","html-keyboard-response","258","667301","0.0-48.0","SS1613080424634","pref_question","","50","","","","","<video width ='960' height = '540' style='padding-top:8%' autoplay muted><source src='images/stimuli/wall_pref.mp4' type='video/mp4'></video>","2","middle","45%","13","","","","","","","",""
"","2199.61000001058","sequential-stimulus-presentation","259","670313","0.0-49.0","SS1613080424634","pref_reveal","","40","800","2999.61000001058","null","null","","","","","13","","","","deviant","","","",""
"","null","html-keyboard-response","260","671604","0.0-50.0-0.0","SS1613080424634","","","null","","","","","<p><img src= images/blank.png width =""200"" height = ""200"" style = ""float:right""></p><p><img src=images/blank.png width =""800"" height = ""200""></p>","","","","","","","","","","","",""
"","1068.3399997651577","sequential-stimulus-presentation","261","673497","0.0-50.0-1.0","SS1613080424634","trial","","40","800","1868.3399997651577","images/stimuli/spore_stims/complex_01_A_b.gif","images/stimuli/spore_stims/complex_09_B_c.gif","","","","","14","complex_dissimilar","images/stimuli/spore_stims/complex_09_B_c.gif","right","","","","",""
"","null","html-keyboard-response","262","674355","0.0-50.0-0.1","SS1613080424634","","","null","","","","","<p><img src= images/blank.png width =""200"" height = ""200"" style = ""float:right""></p><p><img src=images/blank.png width =""800"" height = ""200""></p>","","","","","","","","","","","",""
"","989.8149999789894","sequential-stimulus-presentation","263","676154","0.0-50.0-1.1","SS1613080424634","trial","","40","800","1789.8149999789894","images/stimuli/spore_stims/complex_01_A_b.gif","images/stimuli/spore_stims/complex_09_B_c.gif","","","","","14","complex_dissimilar","images/stimuli/spore_stims/complex_09_B_c.gif","right","","","","",""
"","null","html-keyboard-response","264","677216","0.0-50.0-0.2","SS1613080424634","","","null","","","","","<p><img src= images/blank.png width =""200"" height = ""200"" style = ""float:right""></p><p><img src=images/blank.png width =""800"" height = ""200""></p>","","","","","","","","","","","",""
"","1675.955000333488","sequential-stimulus-presentation","265","679702","0.0-50.0-1.2","SS1613080424634","trial","","40","800","2475.955000333488","images/stimuli/spore_stims/complex_01_A_b.gif","images/stimuli/spore_stims/complex_09_B_c.gif","","","","","14","complex_dissimilar","images/stimuli/spore_stims/complex_09_B_c.gif","right","","","","",""
"","null","html-keyboard-response","266","680798","0.0-50.0-0.3","SS1613080424634","","","null","","","","","<p><img src= images/blank.png width =""200"" height = ""200"" style = ""float:right""></p><p><img src=images/blank.png width =""800"" height = ""200""></p>","","","","","","","","","","","",""
"","224.23500008881092","sequential-stimulus-presentation","267","681834","0.0-50.0-1.3","SS1613080424634","trial","","40","800","1024.235000088811","images/stimuli/spore_stims/complex_01_A_b.gif","images/stimuli/spore_stims/complex_09_B_c.gif","","","","","14","complex_dissimilar","images/stimuli/spore_stims/complex_09_B_c.gif","right","","","","",""
"","null","html-keyboard-response","268","682790","0.0-50.0-0.4","SS1613080424634","","","null","","","","","<p><img src= images/blank.png width =""200"" height = ""200"" style = ""float:right""></p><p><img src=images/blank.png width =""800"" height = ""200""></p>","","","","","","","","","","","",""
"","594.6450000628829","sequential-stimulus-presentation","269","684203","0.0-50.0-1.4","SS1613080424634","trial","","40","800","1394.645000062883","images/stimuli/spore_stims/complex_01_A_b.gif","images/stimuli/spore_stims/complex_09_B_c.gif","","","","","14","complex_dissimilar","images/stimuli/spore_stims/complex_01_A_b.gif","left","","","","",""
"","null","html-keyboard-response","270","685457","0.0-50.0-0.5","SS1613080424634","","","null","","","","","<p><img src= images/blank.png width =""200"" height = ""200"" style = ""float:right""></p><p><img src=images/blank.png width =""800"" height = ""200""></p>","","","","","","","","","","","",""
"","458.1050002016127","sequential-stimulus-presentation","271","686726","0.0-50.0-1.5","SS1613080424634","trial","","40","800","1258.1050002016127","images/stimuli/spore_stims/complex_01_A_b.gif","images/stimuli/spore_stims/complex_09_B_c.gif","","","","","14","complex_dissimilar","images/stimuli/spore_stims/complex_09_B_c.gif","right","","","","",""
"","null","html-keyboard-response","272","687597","0.0-50.0-0.6","SS1613080424634","","","null","","","","","<p><img src= images/blank.png width =""200"" height = ""200"" style = ""float:right""></p><p><img src=images/blank.png width =""800"" height = ""200""></p>","","","","","","","","","","","",""
"","401.5250001102686","sequential-stimulus-presentation","273","688812","0.0-50.0-1.6","SS1613080424634","trial","","40","800","1201.5250001102686","images/stimuli/spore_stims/complex_01_A_b.gif","images/stimuli/spore_stims/complex_09_B_c.gif","","","","","14","complex_dissimilar","images/stimuli/spore_stims/complex_09_B_c.gif","right","","","","",""
"","null","html-keyboard-response","274","689718","0.0-50.0-0.7","SS1613080424634","","","null","","","","","<p><img src= images/blank.png width =""200"" height = ""200"" style = ""float:right""></p><p><img src=images/blank.png width =""800"" height = ""200""></p>","","","","","","","","","","","",""
"","693.3499998413026","sequential-stimulus-presentation","275","691222","0.0-50.0-1.7","SS1613080424634","trial","","40","800","1493.3499998413026","images/stimuli/spore_stims/complex_01_A_b.gif","images/stimuli/spore_stims/complex_09_B_c.gif","","","","","14","complex_dissimilar","images/stimuli/spore_stims/complex_09_B_c.gif","right","","","","",""
"","2936.9450001977384","html-keyboard-response","276","694169","0.0-51.0","SS1613080424634","pref_question","","51","","","","","<video width ='960' height = '540' style='padding-top:8%' autoplay muted><source src='images/stimuli/wall_pref.mp4' type='video/mp4'></video>","3","right","66%","14","","","","","","","",""
"","683.5349998436868","sequential-stimulus-presentation","277","695665","0.0-52.0","SS1613080424634","pref_reveal","","40","800","1483.5349998436868","null","null","","","","","14","","","","background","","","",""
"","null","html-keyboard-response","278","696611","0.0-53.0-0.0","SS1613080424634","","","null","","","","","<p><img src= images/blank.png width =""200"" height = ""200"" style = ""float:right""></p><p><img src=images/blank.png width =""800"" height = ""200""></p>","","","","","","","","","","","",""
"","563.0749999545515","sequential-stimulus-presentation","279","697985","0.0-53.0-1.0","SS1613080424634","trial","","40","800","1363.0749999545515","images/stimuli/spore_stims/simple_18_A_a.gif","images/stimuli/spore_stims/simple_18_B_a.gif","","","","","15","simple_similar","images/stimuli/spore_stims/simple_18_B_a.gif","middle","","","","",""
"","null","html-keyboard-response","280","698812","0.0-53.0-0.1","SS1613080424634","","","null","","","","","<p><img src= images/blank.png width =""200"" height = ""200"" style = ""float:right""></p><p><img src=images/blank.png width =""800"" height = ""200""></p>","","","","","","","","","","","",""
"","495.3799997456372","sequential-stimulus-presentation","281","700120","0.0-53.0-1.1","SS1613080424634","trial","","40","800","1295.3799997456372","images/stimuli/spore_stims/simple_18_A_a.gif","images/stimuli/spore_stims/simple_18_B_a.gif","","","","","15","simple_similar","images/stimuli/spore_stims/simple_18_B_a.gif","middle","","","","",""
"","null","html-keyboard-response","282","701270","0.0-53.0-0.2","SS1613080424634","","","null","","","","","<p><img src= images/blank.png width =""200"" height = ""200"" style = ""float:right""></p><p><img src=images/blank.png width =""800"" height = ""200""></p>","","","","","","","","","","","",""
"","481.37499997392297","sequential-stimulus-presentation","283","702562","0.0-53.0-1.2","SS1613080424634","trial","","40","800","1281.374999973923","images/stimuli/spore_stims/simple_18_A_a.gif","images/stimuli/spore_stims/simple_18_B_a.gif","","","","","15","simple_similar","images/stimuli/spore_stims/simple_18_B_a.gif","middle","","","","",""
"","null","html-keyboard-response","284","703411","0.0-53.0-0.3","SS1613080424634","","","null","","","","","<p><img src= images/blank.png width =""200"" height = ""200"" style = ""float:right""></p><p><img src=images/blank.png width =""800"" height = ""200""></p>","","","","","","","","","","","",""
"","714.0899999067187","sequential-stimulus-presentation","285","704937","0.0-53.0-1.3","SS1613080424634","trial","","40","800","1514.0899999067187","images/stimuli/spore_stims/simple_18_A_a.gif","images/stimuli/spore_stims/simple_18_B_a.gif","","","","","15","simple_similar","images/stimuli/spore_stims/simple_18_B_a.gif","middle","","","","",""
"","null","html-keyboard-response","286","705764","0.0-53.0-0.4","SS1613080424634","","","null","","","","","<p><img src= images/blank.png width =""200"" height = ""200"" style = ""float:right""></p><p><img src=images/blank.png width =""800"" height = ""200""></p>","","","","","","","","","","","",""
"","396.2150001898408","sequential-stimulus-presentation","287","706982","0.0-53.0-1.4","SS1613080424634","trial","","40","800","1196.2150001898408","images/stimuli/spore_stims/simple_18_A_a.gif","images/stimuli/spore_stims/simple_18_B_a.gif","","","","","15","simple_similar","images/stimuli/spore_stims/simple_18_B_a.gif","middle","","","","",""
"","null","html-keyboard-response","288","708062","0.0-53.0-0.5","SS1613080424634","","","null","","","","","<p><img src= images/blank.png width =""200"" height = ""200"" style = ""float:right""></p><p><img src=images/blank.png width =""800"" height = ""200""></p>","","","","","","","","","","","",""
"","450.01000026240945","sequential-stimulus-presentation","289","709322","0.0-53.0-1.5","SS1613080424634","trial","","40","800","1250.0100002624094","images/stimuli/spore_stims/simple_18_A_a.gif","images/stimuli/spore_stims/simple_18_B_a.gif","","","","","15","simple_similar","images/stimuli/spore_stims/simple_18_B_a.gif","middle","","","","",""
"","null","html-keyboard-response","290","710151","0.0-53.0-0.6","SS1613080424634","","","null","","","","","<p><img src= images/blank.png width =""200"" height = ""200"" style = ""float:right""></p><p><img src=images/blank.png width =""800"" height = ""200""></p>","","","","","","","","","","","",""
"","1245.4499998129904","sequential-stimulus-presentation","291","712208","0.0-53.0-1.6","SS1613080424634","trial","","40","800","2045.4499998129904","images/stimuli/spore_stims/simple_18_A_a.gif","images/stimuli/spore_stims/simple_18_B_a.gif","","","","","15","simple_similar","images/stimuli/spore_stims/simple_18_B_a.gif","middle","","","","",""
"","null","html-keyboard-response","292","713309","0.0-53.0-0.7","SS1613080424634","","","null","","","","","<p><img src= images/blank.png width =""200"" height = ""200"" style = ""float:right""></p><p><img src=images/blank.png width =""800"" height = ""200""></p>","","","","","","","","","","","",""
"","674.1249999031425","sequential-stimulus-presentation","293","714796","0.0-53.0-1.7","SS1613080424634","trial","","40","800","1474.1249999031425","images/stimuli/spore_stims/simple_18_A_a.gif","images/stimuli/spore_stims/simple_18_B_a.gif","","","","","15","simple_similar","images/stimuli/spore_stims/simple_18_A_a.gif","left","","","","",""
"","4984.750000294298","html-keyboard-response","294","719795","0.0-54.0","SS1613080424634","pref_question","","51","","","","","<video width ='960' height = '540' style='padding-top:8%' autoplay muted><source src='images/stimuli/wall_pref.mp4' type='video/mp4'></video>","3","right","66%","15","","","","","","","",""
"","1146.3200002908707","sequential-stimulus-presentation","295","721756","0.0-55.0","SS1613080424634","pref_reveal","","40","800","1946.3200002908707","null","null","","","","","15","","","","novel","","","",""
"","null","html-keyboard-response","296","722907","0.0-56.0-0.0","SS1613080424634","","","null","","","","","<p><img src= images/blank.png width =""200"" height = ""200"" style = ""float:right""></p><p><img src=images/blank.png width =""800"" height = ""200""></p>","","","","","","","","","","","",""
"","789.5949999801815","sequential-stimulus-presentation","297","724508","0.0-56.0-1.0","SS1613080424634","trial","","40","800","1589.5949999801815","images/stimuli/spore_stims/simple_01_B_a.gif","images/stimuli/spore_stims/simple_04_A_d.gif","","","","","16","simple_dissimilar","images/stimuli/spore_stims/simple_04_A_d.gif","left","","","","",""
"","null","html-keyboard-response","298","725327","0.0-56.0-0.1","SS1613080424634","","","null","","","","","<p><img src= images/blank.png width =""200"" height = ""200"" style = ""float:right""></p><p><img src=images/blank.png width =""800"" height = ""200""></p>","","","","","","","","","","","",""
"","1628.1300000846386","sequential-stimulus-presentation","299","727768","0.0-56.0-1.1","SS1613080424634","trial","","40","800","2428.1300000846386","images/stimuli/spore_stims/simple_01_B_a.gif","images/stimuli/spore_stims/simple_04_A_d.gif","","","","","16","simple_dissimilar","images/stimuli/spore_stims/simple_04_A_d.gif","left","","","","",""
"","null","html-keyboard-response","300","729068","0.0-56.0-0.2","SS1613080424634","","","null","","","","","<p><img src= images/blank.png width =""200"" height = ""200"" style = ""float:right""></p><p><img src=images/blank.png width =""800"" height = ""200""></p>","","","","","","","","","","","",""
"","1791.6550002992153","sequential-stimulus-presentation","301","731671","0.0-56.0-1.2","SS1613080424634","trial","","40","800","2591.6550002992153","images/stimuli/spore_stims/simple_01_B_a.gif","images/stimuli/spore_stims/simple_04_A_d.gif","","","","","16","simple_dissimilar","images/stimuli/spore_stims/simple_04_A_d.gif","left","","","","",""
"","null","html-keyboard-response","302","732770","0.0-56.0-0.3","SS1613080424634","","","null","","","","","<p><img src= images/blank.png width =""200"" height = ""200"" style = ""float:right""></p><p><img src=images/blank.png width =""800"" height = ""200""></p>","","","","","","","","","","","",""
"","74327.41499971598","sequential-stimulus-presentation","303","807907","0.0-56.0-1.3","SS1613080424634","trial","","40","800","75127.41499971598","images/stimuli/spore_stims/simple_01_B_a.gif","images/stimuli/spore_stims/simple_04_A_d.gif","","","","","16","simple_dissimilar","images/stimuli/spore_stims/simple_04_A_d.gif","left","","","","",""
"","null","html-keyboard-response","304","808783","0.0-56.0-0.4","SS1613080424634","","","null","","","","","<p><img src= images/blank.png width =""200"" height = ""200"" style = ""float:right""></p><p><img src=images/blank.png width =""800"" height = ""200""></p>","","","","","","","","","","","",""
"","1851.5800000168383","sequential-stimulus-presentation","305","811445","0.0-56.0-1.4","SS1613080424634","trial","","40","800","2651.5800000168383","images/stimuli/spore_stims/simple_01_B_a.gif","images/stimuli/spore_stims/simple_04_A_d.gif","","","","","16","simple_dissimilar","images/stimuli/spore_stims/simple_04_A_d.gif","left","","","","",""
"","null","html-keyboard-response","306","812463","0.0-56.0-0.5","SS1613080424634","","","null","","","","","<p><img src= images/blank.png width =""200"" height = ""200"" style = ""float:right""></p><p><img src=images/blank.png width =""800"" height = ""200""></p>","","","","","","","","","","","",""
"","2003.9849998429418","sequential-stimulus-presentation","307","815280","0.0-56.0-1.5","SS1613080424634","trial","","40","800","2803.9849998429418","images/stimuli/spore_stims/simple_01_B_a.gif","images/stimuli/spore_stims/simple_04_A_d.gif","","","","","16","simple_dissimilar","images/stimuli/spore_stims/simple_04_A_d.gif","left","","","","",""
"","null","html-keyboard-response","308","816430","0.0-56.0-0.6","SS1613080424634","","","null","","","","","<p><img src= images/blank.png width =""200"" height = ""200"" style = ""float:right""></p><p><img src=images/blank.png width =""800"" height = ""200""></p>","","","","","","","","","","","",""
"","1841.964999679476","sequential-stimulus-presentation","309","819083","0.0-56.0-1.6","SS1613080424634","trial","","40","800","2641.964999679476","images/stimuli/spore_stims/simple_01_B_a.gif","images/stimuli/spore_stims/simple_04_A_d.gif","","","","","16","simple_dissimilar","images/stimuli/spore_stims/simple_01_B_a.gif","right","","","","",""
"","null","html-keyboard-response","310","820224","0.0-56.0-0.7","SS1613080424634","","","null","","","","","<p><img src= images/blank.png width =""200"" height = ""200"" style = ""float:right""></p><p><img src=images/blank.png width =""800"" height = ""200""></p>","","","","","","","","","","","",""
"","345.4550001770258","sequential-stimulus-presentation","311","821395","0.0-56.0-1.7","SS1613080424634","trial","","40","800","1145.4550001770258","images/stimuli/spore_stims/simple_01_B_a.gif","images/stimuli/spore_stims/simple_04_A_d.gif","","","","","16","simple_dissimilar","images/stimuli/spore_stims/simple_04_A_d.gif","left","","","","",""
