"view_history","rt","trial_type","trial_index","time_elapsed","internal_node_id","subject","stimulus_type","trial_stimulus","key_press","minimum_viewing_duration","trial_looking_time","block_deviant","block_background","stimulus","wall_pref","location","location_percent","block_number","block_type","stimulus_displayed","position_displayed","stim_type_selected","responses","question_order","stimulus_left","stimulus_right"
"[{""page_index"":0,""viewing_time"":3377}]","3379","instructions","0","3389","0.0-0.0","SS1613080103509","","","","","","","","","","","","","","","","","","","",""
"[{""page_index"":0,""viewing_time"":10899},{""page_index"":1,""viewing_time"":7917}]","18816","instructions","1","24215","0.0-1.0","SS1613080103509","instructions","","","","","","","","","","","","","","","","","","",""
"","7723","sequential-stimulus-presentation","2","32775","0.0-2.0","SS1613080103509","","","40","800","8523","null","null","","","","","","","","","","","","",""
"","3771","sequential-stimulus-presentation","3","37361","0.0-3.0","SS1613080103509","","","40","800","4571","null","null","","","","","","","","","","","","",""
"[{""page_index"":0,""viewing_time"":10669}]","10669","instructions","4","48036","0.0-4.0","SS1613080103509","instructions","","","","","","","","","","","","","","","","","","",""
"","5533","html-keyboard-response","5","53591","0.0-5.0","SS1613080103509","instructions","","49","","","","","<video width ='960' height = '540' autoplay muted><source src='images/stimuli/wall_pref.mp4' type='video/mp4'></video>","1","left","25%","","","","","","","","",""
"","3386","sequential-stimulus-presentation","6","57789","0.0-6.0","SS1613080103509","pref_reveal","","40","800","4186","null","null","","","","","","","","","","","","",""
"[{""page_index"":0,""viewing_time"":11074},{""page_index"":1,""viewing_time"":6387},{""page_index"":2,""viewing_time"":2104},{""page_index"":3,""viewing_time"":1740}]","21306","instructions","7","79098","0.0-7.0","SS1613080103509","instructions","","","","","","","","","","","","","","","","","","",""
"","null","html-keyboard-response","8","80175","0.0-8.0-0.0","SS1613080103509","","","null","","","","","<p><img src= images/blank.png width =""200"" height = ""200"" style = ""float:right""></p><p><img src=images/blank.png width =""800"" height = ""200""></p>","","","","","","","","","","","",""
"","2620","sequential-stimulus-presentation","9","83609","0.0-8.0-1.0","SS1613080103509","trial","","40","800","3420","images/stimuli/spore_stims/complex_15_B_c.gif","images/stimuli/spore_stims/complex_09_B_a.gif","","","","","0","complex_dissimilar","images/stimuli/spore_stims/complex_09_B_a.gif","middle","","","","",""
"","null","html-keyboard-response","10","84557","0.0-8.0-0.1","SS1613080103509","","","null","","","","","<p><img src= images/blank.png width =""200"" height = ""200"" style = ""float:right""></p><p><img src=images/blank.png width =""800"" height = ""200""></p>","","","","","","","","","","","",""
"","2704","sequential-stimulus-presentation","11","88067","0.0-8.0-1.1","SS1613080103509","trial","","40","800","3504","images/stimuli/spore_stims/complex_15_B_c.gif","images/stimuli/spore_stims/complex_09_B_a.gif","","","","","0","complex_dissimilar","images/stimuli/spore_stims/complex_09_B_a.gif","middle","","","","",""
"","null","html-keyboard-response","12","89238","0.0-8.0-0.2","SS1613080103509","","","null","","","","","<p><img src= images/blank.png width =""200"" height = ""200"" style = ""float:right""></p><p><img src=images/blank.png width =""800"" height = ""200""></p>","","","","","","","","","","","",""
"","1739","sequential-stimulus-presentation","13","91794","0.0-8.0-1.2","SS1613080103509","trial","","40","800","2539","images/stimuli/spore_stims/complex_15_B_c.gif","images/stimuli/spore_stims/complex_09_B_a.gif","","","","","0","complex_dissimilar","images/stimuli/spore_stims/complex_09_B_a.gif","middle","","","","",""
"","null","html-keyboard-response","14","93058","0.0-8.0-0.3","SS1613080103509","","","null","","","","","<p><img src= images/blank.png width =""200"" height = ""200"" style = ""float:right""></p><p><img src=images/blank.png width =""800"" height = ""200""></p>","","","","","","","","","","","",""
"","1462","sequential-stimulus-presentation","15","95349","0.0-8.0-1.3","SS1613080103509","trial","","40","800","2262","images/stimuli/spore_stims/complex_15_B_c.gif","images/stimuli/spore_stims/complex_09_B_a.gif","","","","","0","complex_dissimilar","images/stimuli/spore_stims/complex_09_B_a.gif","middle","","","","",""
"","null","html-keyboard-response","16","96593","0.0-8.0-0.4","SS1613080103509","","","null","","","","","<p><img src= images/blank.png width =""200"" height = ""200"" style = ""float:right""></p><p><img src=images/blank.png width =""800"" height = ""200""></p>","","","","","","","","","","","",""
"","1182","sequential-stimulus-presentation","17","98585","0.0-8.0-1.4","SS1613080103509","trial","","40","800","1982","images/stimuli/spore_stims/complex_15_B_c.gif","images/stimuli/spore_stims/complex_09_B_a.gif","","","","","0","complex_dissimilar","images/stimuli/spore_stims/complex_09_B_a.gif","middle","","","","",""
"","null","html-keyboard-response","18","99417","0.0-8.0-0.5","SS1613080103509","","","null","","","","","<p><img src= images/blank.png width =""200"" height = ""200"" style = ""float:right""></p><p><img src=images/blank.png width =""800"" height = ""200""></p>","","","","","","","","","","","",""
"","3248","sequential-stimulus-presentation","19","103473","0.0-8.0-1.5","SS1613080103509","trial","","40","800","4048","images/stimuli/spore_stims/complex_15_B_c.gif","images/stimuli/spore_stims/complex_09_B_a.gif","","","","","0","complex_dissimilar","images/stimuli/spore_stims/complex_09_B_a.gif","middle","","","","",""
"","null","html-keyboard-response","20","104280","0.0-8.0-0.6","SS1613080103509","","","null","","","","","<p><img src= images/blank.png width =""200"" height = ""200"" style = ""float:right""></p><p><img src=images/blank.png width =""800"" height = ""200""></p>","","","","","","","","","","","",""
"","4212","sequential-stimulus-presentation","21","109298","0.0-8.0-1.6","SS1613080103509","trial","","40","800","5012","images/stimuli/spore_stims/complex_15_B_c.gif","images/stimuli/spore_stims/complex_09_B_a.gif","","","","","0","complex_dissimilar","images/stimuli/spore_stims/complex_15_B_c.gif","right","","","","",""
"","null","html-keyboard-response","22","110169","0.0-8.0-0.7","SS1613080103509","","","null","","","","","<p><img src= images/blank.png width =""200"" height = ""200"" style = ""float:right""></p><p><img src=images/blank.png width =""800"" height = ""200""></p>","","","","","","","","","","","",""
"","1114","sequential-stimulus-presentation","23","112090","0.0-8.0-1.7","SS1613080103509","trial","","40","800","1914","images/stimuli/spore_stims/complex_15_B_c.gif","images/stimuli/spore_stims/complex_09_B_a.gif","","","","","0","complex_dissimilar","images/stimuli/spore_stims/complex_09_B_a.gif","middle","","","","",""
"","2246","html-keyboard-response","24","114348","0.0-9.0","SS1613080103509","pref_question","","51","","","","","<video width ='960' height = '540' style='padding-top:8%' autoplay muted><source src='images/stimuli/wall_pref.mp4' type='video/mp4'></video>","3","right","66%","0","","","","","","","",""
"","2499","sequential-stimulus-presentation","25","117656","0.0-10.0","SS1613080103509","pref_reveal","","40","800","3299","null","null","","","","","0","","","","deviant","","","",""
"","null","html-keyboard-response","26","118737","0.0-11.0-0.0","SS1613080103509","","","null","","","","","<p><img src= images/blank.png width =""200"" height = ""200"" style = ""float:right""></p><p><img src=images/blank.png width =""800"" height = ""200""></p>","","","","","","","","","","","",""
"","2461","sequential-stimulus-presentation","27","122004","0.0-11.0-1.0","SS1613080103509","trial","","40","800","3261","images/stimuli/spore_stims/complex_12_B_b.gif","images/stimuli/spore_stims/complex_12_A_b.gif","","","","","1","complex_similar","images/stimuli/spore_stims/complex_12_A_b.gif","left","","","","",""
"","null","html-keyboard-response","28","123119","0.0-11.0-0.1","SS1613080103509","","","null","","","","","<p><img src= images/blank.png width =""200"" height = ""200"" style = ""float:right""></p><p><img src=images/blank.png width =""800"" height = ""200""></p>","","","","","","","","","","","",""
"","1881","sequential-stimulus-presentation","29","125807","0.0-11.0-1.1","SS1613080103509","trial","","40","800","2681","images/stimuli/spore_stims/complex_12_B_b.gif","images/stimuli/spore_stims/complex_12_A_b.gif","","","","","1","complex_similar","images/stimuli/spore_stims/complex_12_A_b.gif","left","","","","",""
"","null","html-keyboard-response","30","127035","0.0-11.0-0.2","SS1613080103509","","","null","","","","","<p><img src= images/blank.png width =""200"" height = ""200"" style = ""float:right""></p><p><img src=images/blank.png width =""800"" height = ""200""></p>","","","","","","","","","","","",""
"","1259","sequential-stimulus-presentation","31","129100","0.0-11.0-1.2","SS1613080103509","trial","","40","800","2059","images/stimuli/spore_stims/complex_12_B_b.gif","images/stimuli/spore_stims/complex_12_A_b.gif","","","","","1","complex_similar","images/stimuli/spore_stims/complex_12_A_b.gif","left","","","","",""
"","null","html-keyboard-response","32","130103","0.0-11.0-0.3","SS1613080103509","","","null","","","","","<p><img src= images/blank.png width =""200"" height = ""200"" style = ""float:right""></p><p><img src=images/blank.png width =""800"" height = ""200""></p>","","","","","","","","","","","",""
"","1404","sequential-stimulus-presentation","33","132320","0.0-11.0-1.3","SS1613080103509","trial","","40","800","2204","images/stimuli/spore_stims/complex_12_B_b.gif","images/stimuli/spore_stims/complex_12_A_b.gif","","","","","1","complex_similar","images/stimuli/spore_stims/complex_12_A_b.gif","left","","","","",""
"","null","html-keyboard-response","34","133365","0.0-11.0-0.4","SS1613080103509","","","null","","","","","<p><img src= images/blank.png width =""200"" height = ""200"" style = ""float:right""></p><p><img src=images/blank.png width =""800"" height = ""200""></p>","","","","","","","","","","","",""
"","2109","sequential-stimulus-presentation","35","136278","0.0-11.0-1.4","SS1613080103509","trial","","40","800","2909","images/stimuli/spore_stims/complex_12_B_b.gif","images/stimuli/spore_stims/complex_12_A_b.gif","","","","","1","complex_similar","images/stimuli/spore_stims/complex_12_A_b.gif","left","","","","",""
"","null","html-keyboard-response","36","137468","0.0-11.0-0.5","SS1613080103509","","","null","","","","","<p><img src= images/blank.png width =""200"" height = ""200"" style = ""float:right""></p><p><img src=images/blank.png width =""800"" height = ""200""></p>","","","","","","","","","","","",""
"","2907","sequential-stimulus-presentation","37","141183","0.0-11.0-1.5","SS1613080103509","trial","","40","800","3707","images/stimuli/spore_stims/complex_12_B_b.gif","images/stimuli/spore_stims/complex_12_A_b.gif","","","","","1","complex_similar","images/stimuli/spore_stims/complex_12_B_b.gif","right","","","","",""
"","null","html-keyboard-response","38","142474","0.0-11.0-0.6","SS1613080103509","","","null","","","","","<p><img src= images/blank.png width =""200"" height = ""200"" style = ""float:right""></p><p><img src=images/blank.png width =""800"" height = ""200""></p>","","","","","","","","","","","",""
"","1706","sequential-stimulus-presentation","39","144988","0.0-11.0-1.6","SS1613080103509","trial","","40","800","2506","images/stimuli/spore_stims/complex_12_B_b.gif","images/stimuli/spore_stims/complex_12_A_b.gif","","","","","1","complex_similar","images/stimuli/spore_stims/complex_12_A_b.gif","left","","","","",""
"","null","html-keyboard-response","40","145980","0.0-11.0-0.7","SS1613080103509","","","null","","","","","<p><img src= images/blank.png width =""200"" height = ""200"" style = ""float:right""></p><p><img src=images/blank.png width =""800"" height = ""200""></p>","","","","","","","","","","","",""
"","1656","sequential-stimulus-presentation","41","148449","0.0-11.0-1.7","SS1613080103509","trial","","40","800","2456","images/stimuli/spore_stims/complex_12_B_b.gif","images/stimuli/spore_stims/complex_12_A_b.gif","","","","","1","complex_similar","images/stimuli/spore_stims/complex_12_A_b.gif","left","","","","",""
"","2481","html-keyboard-response","42","150937","0.0-12.0","SS1613080103509","pref_question","","51","","","","","<video width ='960' height = '540' style='padding-top:8%' autoplay muted><source src='images/stimuli/wall_pref.mp4' type='video/mp4'></video>","3","right","66%","1","","","","","","","",""
"","4161","sequential-stimulus-presentation","43","155907","0.0-13.0","SS1613080103509","pref_reveal","","40","800","4961","null","null","","","","","1","","","","deviant","","","",""
"","null","html-keyboard-response","44","156883","0.0-14.0-0.0","SS1613080103509","","","null","","","","","<p><img src= images/blank.png width =""200"" height = ""200"" style = ""float:right""></p><p><img src=images/blank.png width =""800"" height = ""200""></p>","","","","","","","","","","","",""
"","3409","sequential-stimulus-presentation","45","161099","0.0-14.0-1.0","SS1613080103509","trial","","40","800","4209","images/stimuli/spore_stims/complex_16_B_d.gif","images/stimuli/spore_stims/complex_10_A_c.gif","","","","","2","complex_dissimilar","images/stimuli/spore_stims/complex_10_A_c.gif","right","","","","",""
"","null","html-keyboard-response","46","162296","0.0-14.0-0.1","SS1613080103509","","","null","","","","","<p><img src= images/blank.png width =""200"" height = ""200"" style = ""float:right""></p><p><img src=images/blank.png width =""800"" height = ""200""></p>","","","","","","","","","","","",""
"","3099","sequential-stimulus-presentation","47","166203","0.0-14.0-1.1","SS1613080103509","trial","","40","800","3899","images/stimuli/spore_stims/complex_16_B_d.gif","images/stimuli/spore_stims/complex_10_A_c.gif","","","","","2","complex_dissimilar","images/stimuli/spore_stims/complex_10_A_c.gif","right","","","","",""
"","null","html-keyboard-response","48","167086","0.0-14.0-0.2","SS1613080103509","","","null","","","","","<p><img src= images/blank.png width =""200"" height = ""200"" style = ""float:right""></p><p><img src=images/blank.png width =""800"" height = ""200""></p>","","","","","","","","","","","",""
"","2066","sequential-stimulus-presentation","49","169956","0.0-14.0-1.2","SS1613080103509","trial","","40","800","2866","images/stimuli/spore_stims/complex_16_B_d.gif","images/stimuli/spore_stims/complex_10_A_c.gif","","","","","2","complex_dissimilar","images/stimuli/spore_stims/complex_10_A_c.gif","right","","","","",""
"","null","html-keyboard-response","50","171261","0.0-14.0-0.3","SS1613080103509","","","null","","","","","<p><img src= images/blank.png width =""200"" height = ""200"" style = ""float:right""></p><p><img src=images/blank.png width =""800"" height = ""200""></p>","","","","","","","","","","","",""
"","1833","sequential-stimulus-presentation","51","173899","0.0-14.0-1.3","SS1613080103509","trial","","40","800","2633","images/stimuli/spore_stims/complex_16_B_d.gif","images/stimuli/spore_stims/complex_10_A_c.gif","","","","","2","complex_dissimilar","images/stimuli/spore_stims/complex_10_A_c.gif","right","","","","",""
"","null","html-keyboard-response","52","174875","0.0-14.0-0.4","SS1613080103509","","","null","","","","","<p><img src= images/blank.png width =""200"" height = ""200"" style = ""float:right""></p><p><img src=images/blank.png width =""800"" height = ""200""></p>","","","","","","","","","","","",""
"","3069","sequential-stimulus-presentation","53","178750","0.0-14.0-1.4","SS1613080103509","trial","","40","800","3869","images/stimuli/spore_stims/complex_16_B_d.gif","images/stimuli/spore_stims/complex_10_A_c.gif","","","","","2","complex_dissimilar","images/stimuli/spore_stims/complex_16_B_d.gif","left","","","","",""
"","null","html-keyboard-response","54","179804","0.0-14.0-0.5","SS1613080103509","","","null","","","","","<p><img src= images/blank.png width =""200"" height = ""200"" style = ""float:right""></p><p><img src=images/blank.png width =""800"" height = ""200""></p>","","","","","","","","","","","",""
"","2289","sequential-stimulus-presentation","55","182902","0.0-14.0-1.5","SS1613080103509","trial","","40","800","3089","images/stimuli/spore_stims/complex_16_B_d.gif","images/stimuli/spore_stims/complex_10_A_c.gif","","","","","2","complex_dissimilar","images/stimuli/spore_stims/complex_10_A_c.gif","right","","","","",""
"","null","html-keyboard-response","56","183918","0.0-14.0-0.6","SS1613080103509","","","null","","","","","<p><img src= images/blank.png width =""200"" height = ""200"" style = ""float:right""></p><p><img src=images/blank.png width =""800"" height = ""200""></p>","","","","","","","","","","","",""
"","1576","sequential-stimulus-presentation","57","186302","0.0-14.0-1.6","SS1613080103509","trial","","40","800","2376","images/stimuli/spore_stims/complex_16_B_d.gif","images/stimuli/spore_stims/complex_10_A_c.gif","","","","","2","complex_dissimilar","images/stimuli/spore_stims/complex_10_A_c.gif","right","","","","",""
"","null","html-keyboard-response","58","187542","0.0-14.0-0.7","SS1613080103509","","","null","","","","","<p><img src= images/blank.png width =""200"" height = ""200"" style = ""float:right""></p><p><img src=images/blank.png width =""800"" height = ""200""></p>","","","","","","","","","","","",""
"","1279","sequential-stimulus-presentation","59","189631","0.0-14.0-1.7","SS1613080103509","trial","","40","800","2079","images/stimuli/spore_stims/complex_16_B_d.gif","images/stimuli/spore_stims/complex_10_A_c.gif","","","","","2","complex_dissimilar","images/stimuli/spore_stims/complex_10_A_c.gif","right","","","","",""
"","1813","html-keyboard-response","60","191457","0.0-15.0","SS1613080103509","pref_question","","49","","","","","<video width ='960' height = '540' style='padding-top:8%' autoplay muted><source src='images/stimuli/wall_pref.mp4' type='video/mp4'></video>","1","left","25%","2","","","","","","","",""
"","3543","sequential-stimulus-presentation","61","195810","0.0-16.0","SS1613080103509","pref_reveal","","40","800","4343","null","null","","","","","2","","","","deviant","","","",""
"","null","html-keyboard-response","62","197076","0.0-17.0-0.0","SS1613080103509","","","null","","","","","<p><img src= images/blank.png width =""200"" height = ""200"" style = ""float:right""></p><p><img src=images/blank.png width =""800"" height = ""200""></p>","","","","","","","","","","","",""
"","3890","sequential-stimulus-presentation","63","201776","0.0-17.0-1.0","SS1613080103509","trial","","40","800","4690","images/stimuli/spore_stims/simple_13_B_a.gif","images/stimuli/spore_stims/simple_13_A_a.gif","","","","","3","simple_similar","images/stimuli/spore_stims/simple_13_A_a.gif","right","","","","",""
"","null","html-keyboard-response","64","202894","0.0-17.0-0.1","SS1613080103509","","","null","","","","","<p><img src= images/blank.png width =""200"" height = ""200"" style = ""float:right""></p><p><img src=images/blank.png width =""800"" height = ""200""></p>","","","","","","","","","","","",""
"","2556","sequential-stimulus-presentation","65","206261","0.0-17.0-1.1","SS1613080103509","trial","","40","800","3356","images/stimuli/spore_stims/simple_13_B_a.gif","images/stimuli/spore_stims/simple_13_A_a.gif","","","","","3","simple_similar","images/stimuli/spore_stims/simple_13_A_a.gif","right","","","","",""
"","null","html-keyboard-response","66","207459","0.0-17.0-0.2","SS1613080103509","","","null","","","","","<p><img src= images/blank.png width =""200"" height = ""200"" style = ""float:right""></p><p><img src=images/blank.png width =""800"" height = ""200""></p>","","","","","","","","","","","",""
"","1204","sequential-stimulus-presentation","67","209468","0.0-17.0-1.2","SS1613080103509","trial","","40","800","2004","images/stimuli/spore_stims/simple_13_B_a.gif","images/stimuli/spore_stims/simple_13_A_a.gif","","","","","3","simple_similar","images/stimuli/spore_stims/simple_13_A_a.gif","right","","","","",""
"","null","html-keyboard-response","68","210582","0.0-17.0-0.3","SS1613080103509","","","null","","","","","<p><img src= images/blank.png width =""200"" height = ""200"" style = ""float:right""></p><p><img src=images/blank.png width =""800"" height = ""200""></p>","","","","","","","","","","","",""
"","989","sequential-stimulus-presentation","69","212376","0.0-17.0-1.3","SS1613080103509","trial","","40","800","1789","images/stimuli/spore_stims/simple_13_B_a.gif","images/stimuli/spore_stims/simple_13_A_a.gif","","","","","3","simple_similar","images/stimuli/spore_stims/simple_13_A_a.gif","right","","","","",""
"","null","html-keyboard-response","70","213588","0.0-17.0-0.4","SS1613080103509","","","null","","","","","<p><img src= images/blank.png width =""200"" height = ""200"" style = ""float:right""></p><p><img src=images/blank.png width =""800"" height = ""200""></p>","","","","","","","","","","","",""
"","2744","sequential-stimulus-presentation","71","217140","0.0-17.0-1.4","SS1613080103509","trial","","40","800","3544","images/stimuli/spore_stims/simple_13_B_a.gif","images/stimuli/spore_stims/simple_13_A_a.gif","","","","","3","simple_similar","images/stimuli/spore_stims/simple_13_B_a.gif","left","","","","",""
"","null","html-keyboard-response","72","218368","0.0-17.0-0.5","SS1613080103509","","","null","","","","","<p><img src= images/blank.png width =""200"" height = ""200"" style = ""float:right""></p><p><img src=images/blank.png width =""800"" height = ""200""></p>","","","","","","","","","","","",""
"","2629","sequential-stimulus-presentation","73","221805","0.0-17.0-1.5","SS1613080103509","trial","","40","800","3429","images/stimuli/spore_stims/simple_13_B_a.gif","images/stimuli/spore_stims/simple_13_A_a.gif","","","","","3","simple_similar","images/stimuli/spore_stims/simple_13_A_a.gif","right","","","","",""
"","null","html-keyboard-response","74","222984","0.0-17.0-0.6","SS1613080103509","","","null","","","","","<p><img src= images/blank.png width =""200"" height = ""200"" style = ""float:right""></p><p><img src=images/blank.png width =""800"" height = ""200""></p>","","","","","","","","","","","",""
"","2800","sequential-stimulus-presentation","75","226590","0.0-17.0-1.6","SS1613080103509","trial","","40","800","3600","images/stimuli/spore_stims/simple_13_B_a.gif","images/stimuli/spore_stims/simple_13_A_a.gif","","","","","3","simple_similar","images/stimuli/spore_stims/simple_13_A_a.gif","right","","","","",""
"","null","html-keyboard-response","76","227890","0.0-17.0-0.7","SS1613080103509","","","null","","","","","<p><img src= images/blank.png width =""200"" height = ""200"" style = ""float:right""></p><p><img src=images/blank.png width =""800"" height = ""200""></p>","","","","","","","","","","","",""
"","1697","sequential-stimulus-presentation","77","230405","0.0-17.0-1.7","SS1613080103509","trial","","40","800","2497","images/stimuli/spore_stims/simple_13_B_a.gif","images/stimuli/spore_stims/simple_13_A_a.gif","","","","","3","simple_similar","images/stimuli/spore_stims/simple_13_A_a.gif","right","","","","",""
"","1810","html-keyboard-response","78","232221","0.0-18.0","SS1613080103509","pref_question","","49","","","","","<video width ='960' height = '540' style='padding-top:8%' autoplay muted><source src='images/stimuli/wall_pref.mp4' type='video/mp4'></video>","1","left","25%","3","","","","","","","",""
"","4226","sequential-stimulus-presentation","79","237257","0.0-19.0","SS1613080103509","pref_reveal","","40","800","5026","null","null","","","","","3","","","","deviant","","","",""
"","null","html-keyboard-response","80","238385","0.0-20.0-0.0","SS1613080103509","","","null","","","","","<p><img src= images/blank.png width =""200"" height = ""200"" style = ""float:right""></p><p><img src=images/blank.png width =""800"" height = ""200""></p>","","","","","","","","","","","",""
"","2638","sequential-stimulus-presentation","81","241831","0.0-20.0-1.0","SS1613080103509","trial","","40","800","3438","images/stimuli/spore_stims/complex_13_B_a.gif","images/stimuli/spore_stims/complex_13_A_a.gif","","","","","4","complex_similar","images/stimuli/spore_stims/complex_13_A_a.gif","left","","","","",""
"","null","html-keyboard-response","82","242665","0.0-20.0-0.1","SS1613080103509","","","null","","","","","<p><img src= images/blank.png width =""200"" height = ""200"" style = ""float:right""></p><p><img src=images/blank.png width =""800"" height = ""200""></p>","","","","","","","","","","","",""
"","2097","sequential-stimulus-presentation","83","245571","0.0-20.0-1.1","SS1613080103509","trial","","40","800","2897","images/stimuli/spore_stims/complex_13_B_a.gif","images/stimuli/spore_stims/complex_13_A_a.gif","","","","","4","complex_similar","images/stimuli/spore_stims/complex_13_A_a.gif","left","","","","",""
"","null","html-keyboard-response","84","246744","0.0-20.0-0.2","SS1613080103509","","","null","","","","","<p><img src= images/blank.png width =""200"" height = ""200"" style = ""float:right""></p><p><img src=images/blank.png width =""800"" height = ""200""></p>","","","","","","","","","","","",""
"","2057","sequential-stimulus-presentation","85","249609","0.0-20.0-1.2","SS1613080103509","trial","","40","800","2857","images/stimuli/spore_stims/complex_13_B_a.gif","images/stimuli/spore_stims/complex_13_A_a.gif","","","","","4","complex_similar","images/stimuli/spore_stims/complex_13_A_a.gif","left","","","","",""
"","null","html-keyboard-response","86","250706","0.0-20.0-0.3","SS1613080103509","","","null","","","","","<p><img src= images/blank.png width =""200"" height = ""200"" style = ""float:right""></p><p><img src=images/blank.png width =""800"" height = ""200""></p>","","","","","","","","","","","",""
"","2530","sequential-stimulus-presentation","87","254063","0.0-20.0-1.3","SS1613080103509","trial","","40","800","3330","images/stimuli/spore_stims/complex_13_B_a.gif","images/stimuli/spore_stims/complex_13_A_a.gif","","","","","4","complex_similar","images/stimuli/spore_stims/complex_13_A_a.gif","left","","","","",""
"","null","html-keyboard-response","88","255056","0.0-20.0-0.4","SS1613080103509","","","null","","","","","<p><img src= images/blank.png width =""200"" height = ""200"" style = ""float:right""></p><p><img src=images/blank.png width =""800"" height = ""200""></p>","","","","","","","","","","","",""
"","2007","sequential-stimulus-presentation","89","257871","0.0-20.0-1.4","SS1613080103509","trial","","40","800","2807","images/stimuli/spore_stims/complex_13_B_a.gif","images/stimuli/spore_stims/complex_13_A_a.gif","","","","","4","complex_similar","images/stimuli/spore_stims/complex_13_A_a.gif","left","","","","",""
"","null","html-keyboard-response","90","258989","0.0-20.0-0.5","SS1613080103509","","","null","","","","","<p><img src= images/blank.png width =""200"" height = ""200"" style = ""float:right""></p><p><img src=images/blank.png width =""800"" height = ""200""></p>","","","","","","","","","","","",""
"","2410","sequential-stimulus-presentation","91","262208","0.0-20.0-1.5","SS1613080103509","trial","","40","800","3210","images/stimuli/spore_stims/complex_13_B_a.gif","images/stimuli/spore_stims/complex_13_A_a.gif","","","","","4","complex_similar","images/stimuli/spore_stims/complex_13_A_a.gif","left","","","","",""
"","null","html-keyboard-response","92","263136","0.0-20.0-0.6","SS1613080103509","","","null","","","","","<p><img src= images/blank.png width =""200"" height = ""200"" style = ""float:right""></p><p><img src=images/blank.png width =""800"" height = ""200""></p>","","","","","","","","","","","",""
"","2386","sequential-stimulus-presentation","93","266360","0.0-20.0-1.6","SS1613080103509","trial","","40","800","3186","images/stimuli/spore_stims/complex_13_B_a.gif","images/stimuli/spore_stims/complex_13_A_a.gif","","","","","4","complex_similar","images/stimuli/spore_stims/complex_13_B_a.gif","middle","","","","",""
"","null","html-keyboard-response","94","267340","0.0-20.0-0.7","SS1613080103509","","","null","","","","","<p><img src= images/blank.png width =""200"" height = ""200"" style = ""float:right""></p><p><img src=images/blank.png width =""800"" height = ""200""></p>","","","","","","","","","","","",""
"","2211","sequential-stimulus-presentation","95","270358","0.0-20.0-1.7","SS1613080103509","trial","","40","800","3011","images/stimuli/spore_stims/complex_13_B_a.gif","images/stimuli/spore_stims/complex_13_A_a.gif","","","","","4","complex_similar","images/stimuli/spore_stims/complex_13_A_a.gif","left","","","","",""
"","2492","html-keyboard-response","96","272855","0.0-21.0","SS1613080103509","pref_question","","51","","","","","<video width ='960' height = '540' style='padding-top:8%' autoplay muted><source src='images/stimuli/wall_pref.mp4' type='video/mp4'></video>","3","right","66%","4","","","","","","","",""
"","5464","sequential-stimulus-presentation","97","279126","0.0-22.0","SS1613080103509","pref_reveal","","40","800","6264","null","null","","","","","4","","","","novel","","","",""
"","null","html-keyboard-response","98","280163","0.0-23.0-0.0","SS1613080103509","","","null","","","","","<p><img src= images/blank.png width =""200"" height = ""200"" style = ""float:right""></p><p><img src=images/blank.png width =""800"" height = ""200""></p>","","","","","","","","","","","",""
"","1645","sequential-stimulus-presentation","99","282614","0.0-23.0-1.0","SS1613080103509","trial","","40","800","2445","images/stimuli/spore_stims/complex_02_A_b.gif","images/stimuli/spore_stims/complex_01_A_b.gif","","","","","5","complex_dissimilar","images/stimuli/spore_stims/complex_01_A_b.gif","left","","","","",""
"","null","html-keyboard-response","100","283460","0.0-23.0-0.1","SS1613080103509","","","null","","","","","<p><img src= images/blank.png width =""200"" height = ""200"" style = ""float:right""></p><p><img src=images/blank.png width =""800"" height = ""200""></p>","","","","","","","","","","","",""
"","3749","sequential-stimulus-presentation","101","288020","0.0-23.0-1.1","SS1613080103509","trial","","40","800","4549","images/stimuli/spore_stims/complex_02_A_b.gif","images/stimuli/spore_stims/complex_01_A_b.gif","","","","","5","complex_dissimilar","images/stimuli/spore_stims/complex_01_A_b.gif","left","","","","",""
"","null","html-keyboard-response","102","289317","0.0-23.0-0.2","SS1613080103509","","","null","","","","","<p><img src= images/blank.png width =""200"" height = ""200"" style = ""float:right""></p><p><img src=images/blank.png width =""800"" height = ""200""></p>","","","","","","","","","","","",""
"","1841","sequential-stimulus-presentation","103","291975","0.0-23.0-1.2","SS1613080103509","trial","","40","800","2641","images/stimuli/spore_stims/complex_02_A_b.gif","images/stimuli/spore_stims/complex_01_A_b.gif","","","","","5","complex_dissimilar","images/stimuli/spore_stims/complex_01_A_b.gif","left","","","","",""
"","null","html-keyboard-response","104","292836","0.0-23.0-0.3","SS1613080103509","","","null","","","","","<p><img src= images/blank.png width =""200"" height = ""200"" style = ""float:right""></p><p><img src=images/blank.png width =""800"" height = ""200""></p>","","","","","","","","","","","",""
"","2272","sequential-stimulus-presentation","105","295918","0.0-23.0-1.3","SS1613080103509","trial","","40","800","3072","images/stimuli/spore_stims/complex_02_A_b.gif","images/stimuli/spore_stims/complex_01_A_b.gif","","","","","5","complex_dissimilar","images/stimuli/spore_stims/complex_01_A_b.gif","left","","","","",""
"","null","html-keyboard-response","106","297190","0.0-23.0-0.4","SS1613080103509","","","null","","","","","<p><img src= images/blank.png width =""200"" height = ""200"" style = ""float:right""></p><p><img src=images/blank.png width =""800"" height = ""200""></p>","","","","","","","","","","","",""
"","2569","sequential-stimulus-presentation","107","300568","0.0-23.0-1.4","SS1613080103509","trial","","40","800","3369","images/stimuli/spore_stims/complex_02_A_b.gif","images/stimuli/spore_stims/complex_01_A_b.gif","","","","","5","complex_dissimilar","images/stimuli/spore_stims/complex_01_A_b.gif","left","","","","",""
"","null","html-keyboard-response","108","301565","0.0-23.0-0.5","SS1613080103509","","","null","","","","","<p><img src= images/blank.png width =""200"" height = ""200"" style = ""float:right""></p><p><img src=images/blank.png width =""800"" height = ""200""></p>","","","","","","","","","","","",""
"","2483","sequential-stimulus-presentation","109","304857","0.0-23.0-1.5","SS1613080103509","trial","","40","800","3283","images/stimuli/spore_stims/complex_02_A_b.gif","images/stimuli/spore_stims/complex_01_A_b.gif","","","","","5","complex_dissimilar","images/stimuli/spore_stims/complex_01_A_b.gif","left","","","","",""
"","null","html-keyboard-response","110","305993","0.0-23.0-0.6","SS1613080103509","","","null","","","","","<p><img src= images/blank.png width =""200"" height = ""200"" style = ""float:right""></p><p><img src=images/blank.png width =""800"" height = ""200""></p>","","","","","","","","","","","",""
"","2311","sequential-stimulus-presentation","111","309169","0.0-23.0-1.6","SS1613080103509","trial","","40","800","3111","images/stimuli/spore_stims/complex_02_A_b.gif","images/stimuli/spore_stims/complex_01_A_b.gif","","","","","5","complex_dissimilar","images/stimuli/spore_stims/complex_01_A_b.gif","left","","","","",""
"","null","html-keyboard-response","112","310084","0.0-23.0-0.7","SS1613080103509","","","null","","","","","<p><img src= images/blank.png width =""200"" height = ""200"" style = ""float:right""></p><p><img src=images/blank.png width =""800"" height = ""200""></p>","","","","","","","","","","","",""
"","4285","sequential-stimulus-presentation","113","315177","0.0-23.0-1.7","SS1613080103509","trial","","40","800","5085","images/stimuli/spore_stims/complex_02_A_b.gif","images/stimuli/spore_stims/complex_01_A_b.gif","","","","","5","complex_dissimilar","images/stimuli/spore_stims/complex_02_A_b.gif","right","","","","",""
"","1702","html-keyboard-response","114","316886","0.0-24.0","SS1613080103509","pref_question","","50","","","","","<video width ='960' height = '540' style='padding-top:8%' autoplay muted><source src='images/stimuli/wall_pref.mp4' type='video/mp4'></video>","2","middle","45%","5","","","","","","","",""
"","4353","sequential-stimulus-presentation","115","322089","0.0-25.0","SS1613080103509","pref_reveal","","40","800","5153","null","null","","","","","5","","","","novel","","","",""
"","null","html-keyboard-response","116","323304","0.0-26.0-0.0","SS1613080103509","","","null","","","","","<p><img src= images/blank.png width =""200"" height = ""200"" style = ""float:right""></p><p><img src=images/blank.png width =""800"" height = ""200""></p>","","","","","","","","","","","",""
"","1704","sequential-stimulus-presentation","117","325814","0.0-26.0-1.0","SS1613080103509","trial","","40","800","2504","images/stimuli/spore_stims/complex_07_B_b.gif","images/stimuli/spore_stims/complex_15_A_a.gif","","","","","6","complex_dissimilar","images/stimuli/spore_stims/complex_15_A_a.gif","middle","","","","",""
"","null","html-keyboard-response","118","327017","0.0-26.0-0.1","SS1613080103509","","","null","","","","","<p><img src= images/blank.png width =""200"" height = ""200"" style = ""float:right""></p><p><img src=images/blank.png width =""800"" height = ""200""></p>","","","","","","","","","","","",""
"","3247","sequential-stimulus-presentation","119","331097","0.0-26.0-1.1","SS1613080103509","trial","","40","800","4047","images/stimuli/spore_stims/complex_07_B_b.gif","images/stimuli/spore_stims/complex_15_A_a.gif","","","","","6","complex_dissimilar","images/stimuli/spore_stims/complex_15_A_a.gif","middle","","","","",""
"","null","html-keyboard-response","120","332076","0.0-26.0-0.2","SS1613080103509","","","null","","","","","<p><img src= images/blank.png width =""200"" height = ""200"" style = ""float:right""></p><p><img src=images/blank.png width =""800"" height = ""200""></p>","","","","","","","","","","","",""
"","1955","sequential-stimulus-presentation","121","334839","0.0-26.0-1.2","SS1613080103509","trial","","40","800","2755","images/stimuli/spore_stims/complex_07_B_b.gif","images/stimuli/spore_stims/complex_15_A_a.gif","","","","","6","complex_dissimilar","images/stimuli/spore_stims/complex_07_B_b.gif","left","","","","",""
"","null","html-keyboard-response","122","335760","0.0-26.0-0.3","SS1613080103509","","","null","","","","","<p><img src= images/blank.png width =""200"" height = ""200"" style = ""float:right""></p><p><img src=images/blank.png width =""800"" height = ""200""></p>","","","","","","","","","","","",""
"","1885","sequential-stimulus-presentation","123","338454","0.0-26.0-1.3","SS1613080103509","trial","","40","800","2685","images/stimuli/spore_stims/complex_07_B_b.gif","images/stimuli/spore_stims/complex_15_A_a.gif","","","","","6","complex_dissimilar","images/stimuli/spore_stims/complex_15_A_a.gif","middle","","","","",""
"","null","html-keyboard-response","124","339510","0.0-26.0-0.4","SS1613080103509","","","null","","","","","<p><img src= images/blank.png width =""200"" height = ""200"" style = ""float:right""></p><p><img src=images/blank.png width =""800"" height = ""200""></p>","","","","","","","","","","","",""
"","2100","sequential-stimulus-presentation","125","342420","0.0-26.0-1.4","SS1613080103509","trial","","40","800","2900","images/stimuli/spore_stims/complex_07_B_b.gif","images/stimuli/spore_stims/complex_15_A_a.gif","","","","","6","complex_dissimilar","images/stimuli/spore_stims/complex_15_A_a.gif","middle","","","","",""
"","null","html-keyboard-response","126","343658","0.0-26.0-0.5","SS1613080103509","","","null","","","","","<p><img src= images/blank.png width =""200"" height = ""200"" style = ""float:right""></p><p><img src=images/blank.png width =""800"" height = ""200""></p>","","","","","","","","","","","",""
"","2106","sequential-stimulus-presentation","127","346577","0.0-26.0-1.5","SS1613080103509","trial","","40","800","2906","images/stimuli/spore_stims/complex_07_B_b.gif","images/stimuli/spore_stims/complex_15_A_a.gif","","","","","6","complex_dissimilar","images/stimuli/spore_stims/complex_15_A_a.gif","middle","","","","",""
"","null","html-keyboard-response","128","347850","0.0-26.0-0.6","SS1613080103509","","","null","","","","","<p><img src= images/blank.png width =""200"" height = ""200"" style = ""float:right""></p><p><img src=images/blank.png width =""800"" height = ""200""></p>","","","","","","","","","","","",""
"","2501","sequential-stimulus-presentation","129","351209","0.0-26.0-1.6","SS1613080103509","trial","","40","800","3301","images/stimuli/spore_stims/complex_07_B_b.gif","images/stimuli/spore_stims/complex_15_A_a.gif","","","","","6","complex_dissimilar","images/stimuli/spore_stims/complex_15_A_a.gif","middle","","","","",""
"","null","html-keyboard-response","130","352083","0.0-26.0-0.7","SS1613080103509","","","null","","","","","<p><img src= images/blank.png width =""200"" height = ""200"" style = ""float:right""></p><p><img src=images/blank.png width =""800"" height = ""200""></p>","","","","","","","","","","","",""
"","2037","sequential-stimulus-presentation","131","354933","0.0-26.0-1.7","SS1613080103509","trial","","40","800","2837","images/stimuli/spore_stims/complex_07_B_b.gif","images/stimuli/spore_stims/complex_15_A_a.gif","","","","","6","complex_dissimilar","images/stimuli/spore_stims/complex_15_A_a.gif","middle","","","","",""
"","1820","html-keyboard-response","132","356767","0.0-27.0","SS1613080103509","pref_question","","50","","","","","<video width ='960' height = '540' style='padding-top:8%' autoplay muted><source src='images/stimuli/wall_pref.mp4' type='video/mp4'></video>","2","middle","45%","6","","","","","","","",""
"","3446","sequential-stimulus-presentation","133","361046","0.0-28.0","SS1613080103509","pref_reveal","","40","800","4246","null","null","","","","","6","","","","background","","","",""
"","null","html-keyboard-response","134","362130","0.0-29.0-0.0","SS1613080103509","","","null","","","","","<p><img src= images/blank.png width =""200"" height = ""200"" style = ""float:right""></p><p><img src=images/blank.png width =""800"" height = ""200""></p>","","","","","","","","","","","",""
"","3949","sequential-stimulus-presentation","135","366888","0.0-29.0-1.0","SS1613080103509","trial","","40","800","4749","images/stimuli/spore_stims/simple_07_A_c.gif","images/stimuli/spore_stims/simple_17_B_c.gif","","","","","7","simple_dissimilar","images/stimuli/spore_stims/simple_17_B_c.gif","right","","","","",""
"","null","html-keyboard-response","136","368072","0.0-29.0-0.1","SS1613080103509","","","null","","","","","<p><img src= images/blank.png width =""200"" height = ""200"" style = ""float:right""></p><p><img src=images/blank.png width =""800"" height = ""200""></p>","","","","","","","","","","","",""
"","2152","sequential-stimulus-presentation","137","371034","0.0-29.0-1.1","SS1613080103509","trial","","40","800","2952","images/stimuli/spore_stims/simple_07_A_c.gif","images/stimuli/spore_stims/simple_17_B_c.gif","","","","","7","simple_dissimilar","images/stimuli/spore_stims/simple_17_B_c.gif","right","","","","",""
"","null","html-keyboard-response","138","372267","0.0-29.0-0.2","SS1613080103509","","","null","","","","","<p><img src= images/blank.png width =""200"" height = ""200"" style = ""float:right""></p><p><img src=images/blank.png width =""800"" height = ""200""></p>","","","","","","","","","","","",""
"","2895","sequential-stimulus-presentation","139","375970","0.0-29.0-1.2","SS1613080103509","trial","","40","800","3695","images/stimuli/spore_stims/simple_07_A_c.gif","images/stimuli/spore_stims/simple_17_B_c.gif","","","","","7","simple_dissimilar","images/stimuli/spore_stims/simple_07_A_c.gif","left","","","","",""
"","null","html-keyboard-response","140","376997","0.0-29.0-0.3","SS1613080103509","","","null","","","","","<p><img src= images/blank.png width =""200"" height = ""200"" style = ""float:right""></p><p><img src=images/blank.png width =""800"" height = ""200""></p>","","","","","","","","","","","",""
"","1887","sequential-stimulus-presentation","141","379694","0.0-29.0-1.3","SS1613080103509","trial","","40","800","2687","images/stimuli/spore_stims/simple_07_A_c.gif","images/stimuli/spore_stims/simple_17_B_c.gif","","","","","7","simple_dissimilar","images/stimuli/spore_stims/simple_17_B_c.gif","right","","","","",""
"","null","html-keyboard-response","142","380654","0.0-29.0-0.4","SS1613080103509","","","null","","","","","<p><img src= images/blank.png width =""200"" height = ""200"" style = ""float:right""></p><p><img src=images/blank.png width =""800"" height = ""200""></p>","","","","","","","","","","","",""
"","2189","sequential-stimulus-presentation","143","383654","0.0-29.0-1.4","SS1613080103509","trial","","40","800","2989","images/stimuli/spore_stims/simple_07_A_c.gif","images/stimuli/spore_stims/simple_17_B_c.gif","","","","","7","simple_dissimilar","images/stimuli/spore_stims/simple_17_B_c.gif","right","","","","",""
"","null","html-keyboard-response","144","384754","0.0-29.0-0.5","SS1613080103509","","","null","","","","","<p><img src= images/blank.png width =""200"" height = ""200"" style = ""float:right""></p><p><img src=images/blank.png width =""800"" height = ""200""></p>","","","","","","","","","","","",""
"","1740","sequential-stimulus-presentation","145","387306","0.0-29.0-1.5","SS1613080103509","trial","","40","800","2540","images/stimuli/spore_stims/simple_07_A_c.gif","images/stimuli/spore_stims/simple_17_B_c.gif","","","","","7","simple_dissimilar","images/stimuli/spore_stims/simple_17_B_c.gif","right","","","","",""
"","null","html-keyboard-response","146","388464","0.0-29.0-0.6","SS1613080103509","","","null","","","","","<p><img src= images/blank.png width =""200"" height = ""200"" style = ""float:right""></p><p><img src=images/blank.png width =""800"" height = ""200""></p>","","","","","","","","","","","",""
"","1736","sequential-stimulus-presentation","147","391011","0.0-29.0-1.6","SS1613080103509","trial","","40","800","2536","images/stimuli/spore_stims/simple_07_A_c.gif","images/stimuli/spore_stims/simple_17_B_c.gif","","","","","7","simple_dissimilar","images/stimuli/spore_stims/simple_17_B_c.gif","right","","","","",""
"","null","html-keyboard-response","148","392306","0.0-29.0-0.7","SS1613080103509","","","null","","","","","<p><img src= images/blank.png width =""200"" height = ""200"" style = ""float:right""></p><p><img src=images/blank.png width =""800"" height = ""200""></p>","","","","","","","","","","","",""
"","2220","sequential-stimulus-presentation","149","395341","0.0-29.0-1.7","SS1613080103509","trial","","40","800","3020","images/stimuli/spore_stims/simple_07_A_c.gif","images/stimuli/spore_stims/simple_17_B_c.gif","","","","","7","simple_dissimilar","images/stimuli/spore_stims/simple_17_B_c.gif","right","","","","",""
"","2112","html-keyboard-response","150","397461","0.0-30.0","SS1613080103509","pref_question","","51","","","","","<video width ='960' height = '540' style='padding-top:8%' autoplay muted><source src='images/stimuli/wall_pref.mp4' type='video/mp4'></video>","3","right","66%","7","","","","","","","",""
"","2398","sequential-stimulus-presentation","151","400680","0.0-31.0","SS1613080103509","pref_reveal","","40","800","3198","null","null","","","","","7","","","","background","","","",""
"","null","html-keyboard-response","152","401584","0.0-32.0-0.0","SS1613080103509","","","null","","","","","<p><img src= images/blank.png width =""200"" height = ""200"" style = ""float:right""></p><p><img src=images/blank.png width =""800"" height = ""200""></p>","","","","","","","","","","","",""
"","2087","sequential-stimulus-presentation","153","404483","0.0-32.0-1.0","SS1613080103509","trial","","40","800","2887","images/stimuli/spore_stims/simple_03_B_d.gif","images/stimuli/spore_stims/simple_04_B_d.gif","","","","","8","simple_dissimilar","images/stimuli/spore_stims/simple_04_B_d.gif","right","","","","",""
"","null","html-keyboard-response","154","405520","0.0-32.0-0.1","SS1613080103509","","","null","","","","","<p><img src= images/blank.png width =""200"" height = ""200"" style = ""float:right""></p><p><img src=images/blank.png width =""800"" height = ""200""></p>","","","","","","","","","","","",""
"","2005","sequential-stimulus-presentation","155","408337","0.0-32.0-1.1","SS1613080103509","trial","","40","800","2805","images/stimuli/spore_stims/simple_03_B_d.gif","images/stimuli/spore_stims/simple_04_B_d.gif","","","","","8","simple_dissimilar","images/stimuli/spore_stims/simple_04_B_d.gif","right","","","","",""
"","null","html-keyboard-response","156","409320","0.0-32.0-0.2","SS1613080103509","","","null","","","","","<p><img src= images/blank.png width =""200"" height = ""200"" style = ""float:right""></p><p><img src=images/blank.png width =""800"" height = ""200""></p>","","","","","","","","","","","",""
"","3250","sequential-stimulus-presentation","157","413387","0.0-32.0-1.2","SS1613080103509","trial","","40","800","4050","images/stimuli/spore_stims/simple_03_B_d.gif","images/stimuli/spore_stims/simple_04_B_d.gif","","","","","8","simple_dissimilar","images/stimuli/spore_stims/simple_04_B_d.gif","right","","","","",""
"","null","html-keyboard-response","158","414210","0.0-32.0-0.3","SS1613080103509","","","null","","","","","<p><img src= images/blank.png width =""200"" height = ""200"" style = ""float:right""></p><p><img src=images/blank.png width =""800"" height = ""200""></p>","","","","","","","","","","","",""
"","1901","sequential-stimulus-presentation","159","416955","0.0-32.0-1.3","SS1613080103509","trial","","40","800","2701","images/stimuli/spore_stims/simple_03_B_d.gif","images/stimuli/spore_stims/simple_04_B_d.gif","","","","","8","simple_dissimilar","images/stimuli/spore_stims/simple_04_B_d.gif","right","","","","",""
"","null","html-keyboard-response","160","418254","0.0-32.0-0.4","SS1613080103509","","","null","","","","","<p><img src= images/blank.png width =""200"" height = ""200"" style = ""float:right""></p><p><img src=images/blank.png width =""800"" height = ""200""></p>","","","","","","","","","","","",""
"","2586","sequential-stimulus-presentation","161","421648","0.0-32.0-1.4","SS1613080103509","trial","","40","800","3386","images/stimuli/spore_stims/simple_03_B_d.gif","images/stimuli/spore_stims/simple_04_B_d.gif","","","","","8","simple_dissimilar","images/stimuli/spore_stims/simple_04_B_d.gif","right","","","","",""
"","null","html-keyboard-response","162","422541","0.0-32.0-0.5","SS1613080103509","","","null","","","","","<p><img src= images/blank.png width =""200"" height = ""200"" style = ""float:right""></p><p><img src=images/blank.png width =""800"" height = ""200""></p>","","","","","","","","","","","",""
"","3080","sequential-stimulus-presentation","163","426450","0.0-32.0-1.5","SS1613080103509","trial","","40","800","3880","images/stimuli/spore_stims/simple_03_B_d.gif","images/stimuli/spore_stims/simple_04_B_d.gif","","","","","8","simple_dissimilar","images/stimuli/spore_stims/simple_04_B_d.gif","right","","","","",""
"","null","html-keyboard-response","164","427652","0.0-32.0-0.6","SS1613080103509","","","null","","","","","<p><img src= images/blank.png width =""200"" height = ""200"" style = ""float:right""></p><p><img src=images/blank.png width =""800"" height = ""200""></p>","","","","","","","","","","","",""
"","2819","sequential-stimulus-presentation","165","431280","0.0-32.0-1.6","SS1613080103509","trial","","40","800","3619","images/stimuli/spore_stims/simple_03_B_d.gif","images/stimuli/spore_stims/simple_04_B_d.gif","","","","","8","simple_dissimilar","images/stimuli/spore_stims/simple_04_B_d.gif","right","","","","",""
"","null","html-keyboard-response","166","432240","0.0-32.0-0.7","SS1613080103509","","","null","","","","","<p><img src= images/blank.png width =""200"" height = ""200"" style = ""float:right""></p><p><img src=images/blank.png width =""800"" height = ""200""></p>","","","","","","","","","","","",""
"","4011","sequential-stimulus-presentation","167","437075","0.0-32.0-1.7","SS1613080103509","trial","","40","800","4811","images/stimuli/spore_stims/simple_03_B_d.gif","images/stimuli/spore_stims/simple_04_B_d.gif","","","","","8","simple_dissimilar","images/stimuli/spore_stims/simple_03_B_d.gif","left","","","","",""
"","2872","html-keyboard-response","168","439958","0.0-33.0","SS1613080103509","pref_question","","49","","","","","<video width ='960' height = '540' style='padding-top:8%' autoplay muted><source src='images/stimuli/wall_pref.mp4' type='video/mp4'></video>","1","left","25%","8","","","","","","","",""
"","4682","sequential-stimulus-presentation","169","445450","0.0-34.0","SS1613080103509","pref_reveal","","40","800","5482","null","null","","","","","8","","","","deviant","","","",""
"","null","html-keyboard-response","170","446641","0.0-35.0-0.0","SS1613080103509","","","null","","","","","<p><img src= images/blank.png width =""200"" height = ""200"" style = ""float:right""></p><p><img src=images/blank.png width =""800"" height = ""200""></p>","","","","","","","","","","","",""
"","2642","sequential-stimulus-presentation","171","450094","0.0-35.0-1.0","SS1613080103509","trial","","40","800","3442","images/stimuli/spore_stims/complex_18_B_a.gif","images/stimuli/spore_stims/complex_18_A_a.gif","","","","","9","complex_similar","images/stimuli/spore_stims/complex_18_A_a.gif","middle","","","","",""
"","null","html-keyboard-response","172","451304","0.0-35.0-0.1","SS1613080103509","","","null","","","","","<p><img src= images/blank.png width =""200"" height = ""200"" style = ""float:right""></p><p><img src=images/blank.png width =""800"" height = ""200""></p>","","","","","","","","","","","",""
"","2712","sequential-stimulus-presentation","173","454826","0.0-35.0-1.1","SS1613080103509","trial","","40","800","3512","images/stimuli/spore_stims/complex_18_B_a.gif","images/stimuli/spore_stims/complex_18_A_a.gif","","","","","9","complex_similar","images/stimuli/spore_stims/complex_18_A_a.gif","middle","","","","",""
"","null","html-keyboard-response","174","456028","0.0-35.0-0.2","SS1613080103509","","","null","","","","","<p><img src= images/blank.png width =""200"" height = ""200"" style = ""float:right""></p><p><img src=images/blank.png width =""800"" height = ""200""></p>","","","","","","","","","","","",""
"","1075","sequential-stimulus-presentation","175","457911","0.0-35.0-1.2","SS1613080103509","trial","","40","800","1875","images/stimuli/spore_stims/complex_18_B_a.gif","images/stimuli/spore_stims/complex_18_A_a.gif","","","","","9","complex_similar","images/stimuli/spore_stims/complex_18_A_a.gif","middle","","","","",""
"","null","html-keyboard-response","176","458756","0.0-35.0-0.3","SS1613080103509","","","null","","","","","<p><img src= images/blank.png width =""200"" height = ""200"" style = ""float:right""></p><p><img src=images/blank.png width =""800"" height = ""200""></p>","","","","","","","","","","","",""
"","937","sequential-stimulus-presentation","177","460507","0.0-35.0-1.3","SS1613080103509","trial","","40","800","1737","images/stimuli/spore_stims/complex_18_B_a.gif","images/stimuli/spore_stims/complex_18_A_a.gif","","","","","9","complex_similar","images/stimuli/spore_stims/complex_18_A_a.gif","middle","","","","",""
"","null","html-keyboard-response","178","461388","0.0-35.0-0.4","SS1613080103509","","","null","","","","","<p><img src= images/blank.png width =""200"" height = ""200"" style = ""float:right""></p><p><img src=images/blank.png width =""800"" height = ""200""></p>","","","","","","","","","","","",""
"","1847","sequential-stimulus-presentation","179","464071","0.0-35.0-1.4","SS1613080103509","trial","","40","800","2647","images/stimuli/spore_stims/complex_18_B_a.gif","images/stimuli/spore_stims/complex_18_A_a.gif","","","","","9","complex_similar","images/stimuli/spore_stims/complex_18_A_a.gif","middle","","","","",""
"","null","html-keyboard-response","180","464932","0.0-35.0-0.5","SS1613080103509","","","null","","","","","<p><img src= images/blank.png width =""200"" height = ""200"" style = ""float:right""></p><p><img src=images/blank.png width =""800"" height = ""200""></p>","","","","","","","","","","","",""
"","1897","sequential-stimulus-presentation","181","467678","0.0-35.0-1.5","SS1613080103509","trial","","40","800","2697","images/stimuli/spore_stims/complex_18_B_a.gif","images/stimuli/spore_stims/complex_18_A_a.gif","","","","","9","complex_similar","images/stimuli/spore_stims/complex_18_B_a.gif","right","","","","",""
"","null","html-keyboard-response","182","468739","0.0-35.0-0.6","SS1613080103509","","","null","","","","","<p><img src= images/blank.png width =""200"" height = ""200"" style = ""float:right""></p><p><img src=images/blank.png width =""800"" height = ""200""></p>","","","","","","","","","","","",""
"","831","sequential-stimulus-presentation","183","470386","0.0-35.0-1.6","SS1613080103509","trial","","40","800","1631","images/stimuli/spore_stims/complex_18_B_a.gif","images/stimuli/spore_stims/complex_18_A_a.gif","","","","","9","complex_similar","images/stimuli/spore_stims/complex_18_A_a.gif","middle","","","","",""
"","null","html-keyboard-response","184","471653","0.0-35.0-0.7","SS1613080103509","","","null","","","","","<p><img src= images/blank.png width =""200"" height = ""200"" style = ""float:right""></p><p><img src=images/blank.png width =""800"" height = ""200""></p>","","","","","","","","","","","",""
"","1142","sequential-stimulus-presentation","185","473607","0.0-35.0-1.7","SS1613080103509","trial","","40","800","1942","images/stimuli/spore_stims/complex_18_B_a.gif","images/stimuli/spore_stims/complex_18_A_a.gif","","","","","9","complex_similar","images/stimuli/spore_stims/complex_18_A_a.gif","middle","","","","",""
"","1862","html-keyboard-response","186","475484","0.0-36.0","SS1613080103509","pref_question","","49","","","","","<video width ='960' height = '540' style='padding-top:8%' autoplay muted><source src='images/stimuli/wall_pref.mp4' type='video/mp4'></video>","1","left","25%","9","","","","","","","",""
"","6508","sequential-stimulus-presentation","187","482816","0.0-37.0","SS1613080103509","pref_reveal","","40","800","7308","null","null","","","","","9","","","","novel","","","",""
"","null","html-keyboard-response","188","483949","0.0-38.0-0.0","SS1613080103509","","","null","","","","","<p><img src= images/blank.png width =""200"" height = ""200"" style = ""float:right""></p><p><img src=images/blank.png width =""800"" height = ""200""></p>","","","","","","","","","","","",""
"","2829","sequential-stimulus-presentation","189","487595","0.0-38.0-1.0","SS1613080103509","trial","","40","800","3629","images/stimuli/spore_stims/simple_05_A_c.gif","images/stimuli/spore_stims/simple_05_B_c.gif","","","","","10","simple_similar","images/stimuli/spore_stims/simple_05_B_c.gif","middle","","","","",""
"","null","html-keyboard-response","190","488489","0.0-38.0-0.1","SS1613080103509","","","null","","","","","<p><img src= images/blank.png width =""200"" height = ""200"" style = ""float:right""></p><p><img src=images/blank.png width =""800"" height = ""200""></p>","","","","","","","","","","","",""
"","1773","sequential-stimulus-presentation","191","491097","0.0-38.0-1.1","SS1613080103509","trial","","40","800","2573","images/stimuli/spore_stims/simple_05_A_c.gif","images/stimuli/spore_stims/simple_05_B_c.gif","","","","","10","simple_similar","images/stimuli/spore_stims/simple_05_B_c.gif","middle","","","","",""
"","null","html-keyboard-response","192","492101","0.0-38.0-0.2","SS1613080103509","","","null","","","","","<p><img src= images/blank.png width =""200"" height = ""200"" style = ""float:right""></p><p><img src=images/blank.png width =""800"" height = ""200""></p>","","","","","","","","","","","",""
"","2617","sequential-stimulus-presentation","193","495560","0.0-38.0-1.2","SS1613080103509","trial","","40","800","3417","images/stimuli/spore_stims/simple_05_A_c.gif","images/stimuli/spore_stims/simple_05_B_c.gif","","","","","10","simple_similar","images/stimuli/spore_stims/simple_05_B_c.gif","middle","","","","",""
"","null","html-keyboard-response","194","496570","0.0-38.0-0.3","SS1613080103509","","","null","","","","","<p><img src= images/blank.png width =""200"" height = ""200"" style = ""float:right""></p><p><img src=images/blank.png width =""800"" height = ""200""></p>","","","","","","","","","","","",""
"","2434","sequential-stimulus-presentation","195","499819","0.0-38.0-1.3","SS1613080103509","trial","","40","800","3234","images/stimuli/spore_stims/simple_05_A_c.gif","images/stimuli/spore_stims/simple_05_B_c.gif","","","","","10","simple_similar","images/stimuli/spore_stims/simple_05_B_c.gif","middle","","","","",""
"","null","html-keyboard-response","196","500822","0.0-38.0-0.4","SS1613080103509","","","null","","","","","<p><img src= images/blank.png width =""200"" height = ""200"" style = ""float:right""></p><p><img src=images/blank.png width =""800"" height = ""200""></p>","","","","","","","","","","","",""
"","1572","sequential-stimulus-presentation","197","503204","0.0-38.0-1.4","SS1613080103509","trial","","40","800","2372","images/stimuli/spore_stims/simple_05_A_c.gif","images/stimuli/spore_stims/simple_05_B_c.gif","","","","","10","simple_similar","images/stimuli/spore_stims/simple_05_B_c.gif","middle","","","","",""
"","null","html-keyboard-response","198","504098","0.0-38.0-0.5","SS1613080103509","","","null","","","","","<p><img src= images/blank.png width =""200"" height = ""200"" style = ""float:right""></p><p><img src=images/blank.png width =""800"" height = ""200""></p>","","","","","","","","","","","",""
"","2826","sequential-stimulus-presentation","199","507740","0.0-38.0-1.5","SS1613080103509","trial","","40","800","3626","images/stimuli/spore_stims/simple_05_A_c.gif","images/stimuli/spore_stims/simple_05_B_c.gif","","","","","10","simple_similar","images/stimuli/spore_stims/simple_05_A_c.gif","right","","","","",""
"","null","html-keyboard-response","200","508886","0.0-38.0-0.6","SS1613080103509","","","null","","","","","<p><img src= images/blank.png width =""200"" height = ""200"" style = ""float:right""></p><p><img src=images/blank.png width =""800"" height = ""200""></p>","","","","","","","","","","","",""
"","1341","sequential-stimulus-presentation","201","511040","0.0-38.0-1.6","SS1613080103509","trial","","40","800","2141","images/stimuli/spore_stims/simple_05_A_c.gif","images/stimuli/spore_stims/simple_05_B_c.gif","","","","","10","simple_similar","images/stimuli/spore_stims/simple_05_B_c.gif","middle","","","","",""
"","null","html-keyboard-response","202","512007","0.0-38.0-0.7","SS1613080103509","","","null","","","","","<p><img src= images/blank.png width =""200"" height = ""200"" style = ""float:right""></p><p><img src=images/blank.png width =""800"" height = ""200""></p>","","","","","","","","","","","",""
"","1144","sequential-stimulus-presentation","203","513988","0.0-38.0-1.7","SS1613080103509","trial","","40","800","1944","images/stimuli/spore_stims/simple_05_A_c.gif","images/stimuli/spore_stims/simple_05_B_c.gif","","","","","10","simple_similar","images/stimuli/spore_stims/simple_05_B_c.gif","middle","","","","",""
"","1818","html-keyboard-response","204","515865","0.0-39.0","SS1613080103509","pref_question","","51","","","","","<video width ='960' height = '540' style='padding-top:8%' autoplay muted><source src='images/stimuli/wall_pref.mp4' type='video/mp4'></video>","3","right","66%","10","","","","","","","",""
"","4126","sequential-stimulus-presentation","205","520811","0.0-40.0","SS1613080103509","pref_reveal","","40","800","4926","null","null","","","","","10","","","","deviant","","","",""
"","null","html-keyboard-response","206","522068","0.0-41.0-0.0","SS1613080103509","","","null","","","","","<p><img src= images/blank.png width =""200"" height = ""200"" style = ""float:right""></p><p><img src=images/blank.png width =""800"" height = ""200""></p>","","","","","","","","","","","",""
"","1706","sequential-stimulus-presentation","207","524586","0.0-41.0-1.0","SS1613080103509","trial","","40","800","2506","images/stimuli/spore_stims/simple_20_A_d.gif","images/stimuli/spore_stims/simple_04_A_b.gif","","","","","11","simple_dissimilar","images/stimuli/spore_stims/simple_04_A_b.gif","right","","","","",""
"","null","html-keyboard-response","208","525436","0.0-41.0-0.1","SS1613080103509","","","null","","","","","<p><img src= images/blank.png width =""200"" height = ""200"" style = ""float:right""></p><p><img src=images/blank.png width =""800"" height = ""200""></p>","","","","","","","","","","","",""
"","2200","sequential-stimulus-presentation","209","528465","0.0-41.0-1.1","SS1613080103509","trial","","40","800","3000","images/stimuli/spore_stims/simple_20_A_d.gif","images/stimuli/spore_stims/simple_04_A_b.gif","","","","","11","simple_dissimilar","images/stimuli/spore_stims/simple_04_A_b.gif","right","","","","",""
"","null","html-keyboard-response","210","529291","0.0-41.0-0.2","SS1613080103509","","","null","","","","","<p><img src= images/blank.png width =""200"" height = ""200"" style = ""float:right""></p><p><img src=images/blank.png width =""800"" height = ""200""></p>","","","","","","","","","","","",""
"","2549","sequential-stimulus-presentation","211","532674","0.0-41.0-1.2","SS1613080103509","trial","","40","800","3349","images/stimuli/spore_stims/simple_20_A_d.gif","images/stimuli/spore_stims/simple_04_A_b.gif","","","","","11","simple_dissimilar","images/stimuli/spore_stims/simple_20_A_d.gif","left","","","","",""
"","null","html-keyboard-response","212","533889","0.0-41.0-0.3","SS1613080103509","","","null","","","","","<p><img src= images/blank.png width =""200"" height = ""200"" style = ""float:right""></p><p><img src=images/blank.png width =""800"" height = ""200""></p>","","","","","","","","","","","",""
"","1519","sequential-stimulus-presentation","213","536218","0.0-41.0-1.3","SS1613080103509","trial","","40","800","2319","images/stimuli/spore_stims/simple_20_A_d.gif","images/stimuli/spore_stims/simple_04_A_b.gif","","","","","11","simple_dissimilar","images/stimuli/spore_stims/simple_04_A_b.gif","right","","","","",""
"","null","html-keyboard-response","214","537445","0.0-41.0-0.4","SS1613080103509","","","null","","","","","<p><img src= images/blank.png width =""200"" height = ""200"" style = ""float:right""></p><p><img src=images/blank.png width =""800"" height = ""200""></p>","","","","","","","","","","","",""
"","1355","sequential-stimulus-presentation","215","539612","0.0-41.0-1.4","SS1613080103509","trial","","40","800","2155","images/stimuli/spore_stims/simple_20_A_d.gif","images/stimuli/spore_stims/simple_04_A_b.gif","","","","","11","simple_dissimilar","images/stimuli/spore_stims/simple_04_A_b.gif","right","","","","",""
"","null","html-keyboard-response","216","540428","0.0-41.0-0.5","SS1613080103509","","","null","","","","","<p><img src= images/blank.png width =""200"" height = ""200"" style = ""float:right""></p><p><img src=images/blank.png width =""800"" height = ""200""></p>","","","","","","","","","","","",""
"","1310","sequential-stimulus-presentation","217","542552","0.0-41.0-1.5","SS1613080103509","trial","","40","800","2110","images/stimuli/spore_stims/simple_20_A_d.gif","images/stimuli/spore_stims/simple_04_A_b.gif","","","","","11","simple_dissimilar","images/stimuli/spore_stims/simple_04_A_b.gif","right","","","","",""
"","null","html-keyboard-response","218","543411","0.0-41.0-0.6","SS1613080103509","","","null","","","","","<p><img src= images/blank.png width =""200"" height = ""200"" style = ""float:right""></p><p><img src=images/blank.png width =""800"" height = ""200""></p>","","","","","","","","","","","",""
"","999","sequential-stimulus-presentation","219","545232","0.0-41.0-1.6","SS1613080103509","trial","","40","800","1799","images/stimuli/spore_stims/simple_20_A_d.gif","images/stimuli/spore_stims/simple_04_A_b.gif","","","","","11","simple_dissimilar","images/stimuli/spore_stims/simple_04_A_b.gif","right","","","","",""
"","null","html-keyboard-response","220","546140","0.0-41.0-0.7","SS1613080103509","","","null","","","","","<p><img src= images/blank.png width =""200"" height = ""200"" style = ""float:right""></p><p><img src=images/blank.png width =""800"" height = ""200""></p>","","","","","","","","","","","",""
"","1109","sequential-stimulus-presentation","221","548094","0.0-41.0-1.7","SS1613080103509","trial","","40","800","1909","images/stimuli/spore_stims/simple_20_A_d.gif","images/stimuli/spore_stims/simple_04_A_b.gif","","","","","11","simple_dissimilar","images/stimuli/spore_stims/simple_04_A_b.gif","right","","","","",""
"","1831","html-keyboard-response","222","549943","0.0-42.0","SS1613080103509","pref_question","","49","","","","","<video width ='960' height = '540' style='padding-top:8%' autoplay muted><source src='images/stimuli/wall_pref.mp4' type='video/mp4'></video>","1","left","25%","11","","","","","","","",""
"","4321","sequential-stimulus-presentation","223","555076","0.0-43.0","SS1613080103509","pref_reveal","","40","800","5121","null","null","","","","","11","","","","deviant","","","",""
"","null","html-keyboard-response","224","556171","0.0-44.0-0.0","SS1613080103509","","","null","","","","","<p><img src= images/blank.png width =""200"" height = ""200"" style = ""float:right""></p><p><img src=images/blank.png width =""800"" height = ""200""></p>","","","","","","","","","","","",""
"","3571","sequential-stimulus-presentation","225","560553","0.0-44.0-1.0","SS1613080103509","trial","","40","800","4371","images/stimuli/spore_stims/simple_11_B_d.gif","images/stimuli/spore_stims/simple_11_A_d.gif","","","","","12","simple_similar","images/stimuli/spore_stims/simple_11_A_d.gif","left","","","","",""
"","null","html-keyboard-response","226","561820","0.0-44.0-0.1","SS1613080103509","","","null","","","","","<p><img src= images/blank.png width =""200"" height = ""200"" style = ""float:right""></p><p><img src=images/blank.png width =""800"" height = ""200""></p>","","","","","","","","","","","",""
"","1096","sequential-stimulus-presentation","227","563727","0.0-44.0-1.1","SS1613080103509","trial","","40","800","1896","images/stimuli/spore_stims/simple_11_B_d.gif","images/stimuli/spore_stims/simple_11_A_d.gif","","","","","12","simple_similar","images/stimuli/spore_stims/simple_11_A_d.gif","left","","","","",""
"","null","html-keyboard-response","228","564919","0.0-44.0-0.2","SS1613080103509","","","null","","","","","<p><img src= images/blank.png width =""200"" height = ""200"" style = ""float:right""></p><p><img src=images/blank.png width =""800"" height = ""200""></p>","","","","","","","","","","","",""
"","687","sequential-stimulus-presentation","229","566417","0.0-44.0-1.2","SS1613080103509","trial","","40","800","1487","images/stimuli/spore_stims/simple_11_B_d.gif","images/stimuli/spore_stims/simple_11_A_d.gif","","","","","12","simple_similar","images/stimuli/spore_stims/simple_11_A_d.gif","left","","","","",""
"","null","html-keyboard-response","230","567289","0.0-44.0-0.3","SS1613080103509","","","null","","","","","<p><img src= images/blank.png width =""200"" height = ""200"" style = ""float:right""></p><p><img src=images/blank.png width =""800"" height = ""200""></p>","","","","","","","","","","","",""
"","1052","sequential-stimulus-presentation","231","569152","0.0-44.0-1.3","SS1613080103509","trial","","40","800","1852","images/stimuli/spore_stims/simple_11_B_d.gif","images/stimuli/spore_stims/simple_11_A_d.gif","","","","","12","simple_similar","images/stimuli/spore_stims/simple_11_A_d.gif","left","","","","",""
"","null","html-keyboard-response","232","569976","0.0-44.0-0.4","SS1613080103509","","","null","","","","","<p><img src= images/blank.png width =""200"" height = ""200"" style = ""float:right""></p><p><img src=images/blank.png width =""800"" height = ""200""></p>","","","","","","","","","","","",""
"","954","sequential-stimulus-presentation","233","571753","0.0-44.0-1.4","SS1613080103509","trial","","40","800","1754","images/stimuli/spore_stims/simple_11_B_d.gif","images/stimuli/spore_stims/simple_11_A_d.gif","","","","","12","simple_similar","images/stimuli/spore_stims/simple_11_A_d.gif","left","","","","",""
"","null","html-keyboard-response","234","572796","0.0-44.0-0.5","SS1613080103509","","","null","","","","","<p><img src= images/blank.png width =""200"" height = ""200"" style = ""float:right""></p><p><img src=images/blank.png width =""800"" height = ""200""></p>","","","","","","","","","","","",""
"","1492","sequential-stimulus-presentation","235","575098","0.0-44.0-1.5","SS1613080103509","trial","","40","800","2292","images/stimuli/spore_stims/simple_11_B_d.gif","images/stimuli/spore_stims/simple_11_A_d.gif","","","","","12","simple_similar","images/stimuli/spore_stims/simple_11_A_d.gif","left","","","","",""
"","null","html-keyboard-response","236","576138","0.0-44.0-0.6","SS1613080103509","","","null","","","","","<p><img src= images/blank.png width =""200"" height = ""200"" style = ""float:right""></p><p><img src=images/blank.png width =""800"" height = ""200""></p>","","","","","","","","","","","",""
"","2630","sequential-stimulus-presentation","237","579590","0.0-44.0-1.6","SS1613080103509","trial","","40","800","3430","images/stimuli/spore_stims/simple_11_B_d.gif","images/stimuli/spore_stims/simple_11_A_d.gif","","","","","12","simple_similar","images/stimuli/spore_stims/simple_11_B_d.gif","right","","","","",""
"","null","html-keyboard-response","238","580647","0.0-44.0-0.7","SS1613080103509","","","null","","","","","<p><img src= images/blank.png width =""200"" height = ""200"" style = ""float:right""></p><p><img src=images/blank.png width =""800"" height = ""200""></p>","","","","","","","","","","","",""
"","1665","sequential-stimulus-presentation","239","583134","0.0-44.0-1.7","SS1613080103509","trial","","40","800","2465","images/stimuli/spore_stims/simple_11_B_d.gif","images/stimuli/spore_stims/simple_11_A_d.gif","","","","","12","simple_similar","images/stimuli/spore_stims/simple_11_A_d.gif","left","","","","",""
"","1545","html-keyboard-response","240","584693","0.0-45.0","SS1613080103509","pref_question","","50","","","","","<video width ='960' height = '540' style='padding-top:8%' autoplay muted><source src='images/stimuli/wall_pref.mp4' type='video/mp4'></video>","2","middle","45%","12","","","","","","","",""
"","4061","sequential-stimulus-presentation","241","589564","0.0-46.0","SS1613080103509","pref_reveal","","40","800","4861","null","null","","","","","12","","","","novel","","","",""
"","null","html-keyboard-response","242","590724","0.0-47.0-0.0","SS1613080103509","","","null","","","","","<p><img src= images/blank.png width =""200"" height = ""200"" style = ""float:right""></p><p><img src=images/blank.png width =""800"" height = ""200""></p>","","","","","","","","","","","",""
"","1972","sequential-stimulus-presentation","243","593509","0.0-47.0-1.0","SS1613080103509","trial","","40","800","2772","images/stimuli/spore_stims/simple_15_A_d.gif","images/stimuli/spore_stims/simple_15_B_d.gif","","","","","13","simple_similar","images/stimuli/spore_stims/simple_15_B_d.gif","left","","","","",""
"","null","html-keyboard-response","244","594799","0.0-47.0-0.1","SS1613080103509","","","null","","","","","<p><img src= images/blank.png width =""200"" height = ""200"" style = ""float:right""></p><p><img src=images/blank.png width =""800"" height = ""200""></p>","","","","","","","","","","","",""
"","2393","sequential-stimulus-presentation","245","598004","0.0-47.0-1.1","SS1613080103509","trial","","40","800","3193","images/stimuli/spore_stims/simple_15_A_d.gif","images/stimuli/spore_stims/simple_15_B_d.gif","","","","","13","simple_similar","images/stimuli/spore_stims/simple_15_B_d.gif","left","","","","",""
"","null","html-keyboard-response","246","599016","0.0-47.0-0.2","SS1613080103509","","","null","","","","","<p><img src= images/blank.png width =""200"" height = ""200"" style = ""float:right""></p><p><img src=images/blank.png width =""800"" height = ""200""></p>","","","","","","","","","","","",""
"","987","sequential-stimulus-presentation","247","600816","0.0-47.0-1.2","SS1613080103509","trial","","40","800","1787","images/stimuli/spore_stims/simple_15_A_d.gif","images/stimuli/spore_stims/simple_15_B_d.gif","","","","","13","simple_similar","images/stimuli/spore_stims/simple_15_B_d.gif","left","","","","",""
"","null","html-keyboard-response","248","601856","0.0-47.0-0.3","SS1613080103509","","","null","","","","","<p><img src= images/blank.png width =""200"" height = ""200"" style = ""float:right""></p><p><img src=images/blank.png width =""800"" height = ""200""></p>","","","","","","","","","","","",""
"","1309","sequential-stimulus-presentation","249","603975","0.0-47.0-1.3","SS1613080103509","trial","","40","800","2109","images/stimuli/spore_stims/simple_15_A_d.gif","images/stimuli/spore_stims/simple_15_B_d.gif","","","","","13","simple_similar","images/stimuli/spore_stims/simple_15_B_d.gif","left","","","","",""
"","null","html-keyboard-response","250","604790","0.0-47.0-0.4","SS1613080103509","","","null","","","","","<p><img src= images/blank.png width =""200"" height = ""200"" style = ""float:right""></p><p><img src=images/blank.png width =""800"" height = ""200""></p>","","","","","","","","","","","",""
"","3413","sequential-stimulus-presentation","251","609011","0.0-47.0-1.4","SS1613080103509","trial","","40","800","4213","images/stimuli/spore_stims/simple_15_A_d.gif","images/stimuli/spore_stims/simple_15_B_d.gif","","","","","13","simple_similar","images/stimuli/spore_stims/simple_15_A_d.gif","right","","","","",""
"","null","html-keyboard-response","252","610205","0.0-47.0-0.5","SS1613080103509","","","null","","","","","<p><img src= images/blank.png width =""200"" height = ""200"" style = ""float:right""></p><p><img src=images/blank.png width =""800"" height = ""200""></p>","","","","","","","","","","","",""
"","1003","sequential-stimulus-presentation","253","612024","0.0-47.0-1.5","SS1613080103509","trial","","40","800","1803","images/stimuli/spore_stims/simple_15_A_d.gif","images/stimuli/spore_stims/simple_15_B_d.gif","","","","","13","simple_similar","images/stimuli/spore_stims/simple_15_B_d.gif","left","","","","",""
"","null","html-keyboard-response","254","613032","0.0-47.0-0.6","SS1613080103509","","","null","","","","","<p><img src= images/blank.png width =""200"" height = ""200"" style = ""float:right""></p><p><img src=images/blank.png width =""800"" height = ""200""></p>","","","","","","","","","","","",""
"","765","sequential-stimulus-presentation","255","614614","0.0-47.0-1.6","SS1613080103509","trial","","40","800","1565","images/stimuli/spore_stims/simple_15_A_d.gif","images/stimuli/spore_stims/simple_15_B_d.gif","","","","","13","simple_similar","images/stimuli/spore_stims/simple_15_B_d.gif","left","","","","",""
"","null","html-keyboard-response","256","615721","0.0-47.0-0.7","SS1613080103509","","","null","","","","","<p><img src= images/blank.png width =""200"" height = ""200"" style = ""float:right""></p><p><img src=images/blank.png width =""800"" height = ""200""></p>","","","","","","","","","","","",""
"","658","sequential-stimulus-presentation","257","617205","0.0-47.0-1.7","SS1613080103509","trial","","40","800","1458","images/stimuli/spore_stims/simple_15_A_d.gif","images/stimuli/spore_stims/simple_15_B_d.gif","","","","","13","simple_similar","images/stimuli/spore_stims/simple_15_B_d.gif","left","","","","",""
"","1693","html-keyboard-response","258","618916","0.0-48.0","SS1613080103509","pref_question","","50","","","","","<video width ='960' height = '540' style='padding-top:8%' autoplay muted><source src='images/stimuli/wall_pref.mp4' type='video/mp4'></video>","2","middle","45%","13","","","","","","","",""
"","4242","sequential-stimulus-presentation","259","624013","0.0-49.0","SS1613080103509","pref_reveal","","40","800","5042","null","null","","","","","13","","","","novel","","","",""
"","null","html-keyboard-response","260","625154","0.0-50.0-0.0","SS1613080103509","","","null","","","","","<p><img src= images/blank.png width =""200"" height = ""200"" style = ""float:right""></p><p><img src=images/blank.png width =""800"" height = ""200""></p>","","","","","","","","","","","",""
"","4163","sequential-stimulus-presentation","261","630138","0.0-50.0-1.0","SS1613080103509","trial","","40","800","4963","images/stimuli/spore_stims/simple_12_A_b.gif","images/stimuli/spore_stims/simple_16_B_b.gif","","","","","14","simple_dissimilar","images/stimuli/spore_stims/simple_16_B_b.gif","right","","","","",""
"","null","html-keyboard-response","262","630993","0.0-50.0-0.1","SS1613080103509","","","null","","","","","<p><img src= images/blank.png width =""200"" height = ""200"" style = ""float:right""></p><p><img src=images/blank.png width =""800"" height = ""200""></p>","","","","","","","","","","","",""
"","1412","sequential-stimulus-presentation","263","633223","0.0-50.0-1.1","SS1613080103509","trial","","40","800","2212","images/stimuli/spore_stims/simple_12_A_b.gif","images/stimuli/spore_stims/simple_16_B_b.gif","","","","","14","simple_dissimilar","images/stimuli/spore_stims/simple_16_B_b.gif","right","","","","",""
"","null","html-keyboard-response","264","634426","0.0-50.0-0.2","SS1613080103509","","","null","","","","","<p><img src= images/blank.png width =""200"" height = ""200"" style = ""float:right""></p><p><img src=images/blank.png width =""800"" height = ""200""></p>","","","","","","","","","","","",""
"","754","sequential-stimulus-presentation","265","635998","0.0-50.0-1.2","SS1613080103509","trial","","40","800","1554","images/stimuli/spore_stims/simple_12_A_b.gif","images/stimuli/spore_stims/simple_16_B_b.gif","","","","","14","simple_dissimilar","images/stimuli/spore_stims/simple_16_B_b.gif","right","","","","",""
"","null","html-keyboard-response","266","637213","0.0-50.0-0.3","SS1613080103509","","","null","","","","","<p><img src= images/blank.png width =""200"" height = ""200"" style = ""float:right""></p><p><img src=images/blank.png width =""800"" height = ""200""></p>","","","","","","","","","","","",""
"","2933","sequential-stimulus-presentation","267","640967","0.0-50.0-1.3","SS1613080103509","trial","","40","800","3733","images/stimuli/spore_stims/simple_12_A_b.gif","images/stimuli/spore_stims/simple_16_B_b.gif","","","","","14","simple_dissimilar","images/stimuli/spore_stims/simple_12_A_b.gif","left","","","","",""
"","null","html-keyboard-response","268","642157","0.0-50.0-0.4","SS1613080103509","","","null","","","","","<p><img src= images/blank.png width =""200"" height = ""200"" style = ""float:right""></p><p><img src=images/blank.png width =""800"" height = ""200""></p>","","","","","","","","","","","",""
"","1208","sequential-stimulus-presentation","269","644205","0.0-50.0-1.4","SS1613080103509","trial","","40","800","2008","images/stimuli/spore_stims/simple_12_A_b.gif","images/stimuli/spore_stims/simple_16_B_b.gif","","","","","14","simple_dissimilar","images/stimuli/spore_stims/simple_16_B_b.gif","right","","","","",""
"","null","html-keyboard-response","270","645112","0.0-50.0-0.5","SS1613080103509","","","null","","","","","<p><img src= images/blank.png width =""200"" height = ""200"" style = ""float:right""></p><p><img src=images/blank.png width =""800"" height = ""200""></p>","","","","","","","","","","","",""
"","1029","sequential-stimulus-presentation","271","646957","0.0-50.0-1.5","SS1613080103509","trial","","40","800","1829","images/stimuli/spore_stims/simple_12_A_b.gif","images/stimuli/spore_stims/simple_16_B_b.gif","","","","","14","simple_dissimilar","images/stimuli/spore_stims/simple_16_B_b.gif","right","","","","",""
"","null","html-keyboard-response","272","648021","0.0-50.0-0.6","SS1613080103509","","","null","","","","","<p><img src= images/blank.png width =""200"" height = ""200"" style = ""float:right""></p><p><img src=images/blank.png width =""800"" height = ""200""></p>","","","","","","","","","","","",""
"","890","sequential-stimulus-presentation","273","649727","0.0-50.0-1.6","SS1613080103509","trial","","40","800","1690","images/stimuli/spore_stims/simple_12_A_b.gif","images/stimuli/spore_stims/simple_16_B_b.gif","","","","","14","simple_dissimilar","images/stimuli/spore_stims/simple_16_B_b.gif","right","","","","",""
"","null","html-keyboard-response","274","650693","0.0-50.0-0.7","SS1613080103509","","","null","","","","","<p><img src= images/blank.png width =""200"" height = ""200"" style = ""float:right""></p><p><img src=images/blank.png width =""800"" height = ""200""></p>","","","","","","","","","","","",""
"","823","sequential-stimulus-presentation","275","652326","0.0-50.0-1.7","SS1613080103509","trial","","40","800","1623","images/stimuli/spore_stims/simple_12_A_b.gif","images/stimuli/spore_stims/simple_16_B_b.gif","","","","","14","simple_dissimilar","images/stimuli/spore_stims/simple_16_B_b.gif","right","","","","",""
"","2077","html-keyboard-response","276","654411","0.0-51.0","SS1613080103509","pref_question","","49","","","","","<video width ='960' height = '540' style='padding-top:8%' autoplay muted><source src='images/stimuli/wall_pref.mp4' type='video/mp4'></video>","1","left","25%","14","","","","","","","",""
"","3565","sequential-stimulus-presentation","277","658788","0.0-52.0","SS1613080103509","pref_reveal","","40","800","4365","null","null","","","","","14","","","","deviant","","","",""
"","null","html-keyboard-response","278","659652","0.0-53.0-0.0","SS1613080103509","","","null","","","","","<p><img src= images/blank.png width =""200"" height = ""200"" style = ""float:right""></p><p><img src=images/blank.png width =""800"" height = ""200""></p>","","","","","","","","","","","",""
"","5238","sequential-stimulus-presentation","279","665701","0.0-53.0-1.0","SS1613080103509","trial","","40","800","6038","images/stimuli/spore_stims/complex_03_A_a.gif","images/stimuli/spore_stims/complex_10_B_b.gif","","","","","15","complex_dissimilar","images/stimuli/spore_stims/complex_10_B_b.gif","right","","","","",""
"","null","html-keyboard-response","280","666829","0.0-53.0-0.1","SS1613080103509","","","null","","","","","<p><img src= images/blank.png width =""200"" height = ""200"" style = ""float:right""></p><p><img src=images/blank.png width =""800"" height = ""200""></p>","","","","","","","","","","","",""
"","1278","sequential-stimulus-presentation","281","668934","0.0-53.0-1.1","SS1613080103509","trial","","40","800","2078","images/stimuli/spore_stims/complex_03_A_a.gif","images/stimuli/spore_stims/complex_10_B_b.gif","","","","","15","complex_dissimilar","images/stimuli/spore_stims/complex_10_B_b.gif","right","","","","",""
"","null","html-keyboard-response","282","670062","0.0-53.0-0.2","SS1613080103509","","","null","","","","","<p><img src= images/blank.png width =""200"" height = ""200"" style = ""float:right""></p><p><img src=images/blank.png width =""800"" height = ""200""></p>","","","","","","","","","","","",""
"","1369","sequential-stimulus-presentation","283","672242","0.0-53.0-1.2","SS1613080103509","trial","","40","800","2169","images/stimuli/spore_stims/complex_03_A_a.gif","images/stimuli/spore_stims/complex_10_B_b.gif","","","","","15","complex_dissimilar","images/stimuli/spore_stims/complex_10_B_b.gif","right","","","","",""
"","null","html-keyboard-response","284","673178","0.0-53.0-0.3","SS1613080103509","","","null","","","","","<p><img src= images/blank.png width =""200"" height = ""200"" style = ""float:right""></p><p><img src=images/blank.png width =""800"" height = ""200""></p>","","","","","","","","","","","",""
"","1048","sequential-stimulus-presentation","285","675054","0.0-53.0-1.3","SS1613080103509","trial","","40","800","1848","images/stimuli/spore_stims/complex_03_A_a.gif","images/stimuli/spore_stims/complex_10_B_b.gif","","","","","15","complex_dissimilar","images/stimuli/spore_stims/complex_10_B_b.gif","right","","","","",""
"","null","html-keyboard-response","286","675900","0.0-53.0-0.4","SS1613080103509","","","null","","","","","<p><img src= images/blank.png width =""200"" height = ""200"" style = ""float:right""></p><p><img src=images/blank.png width =""800"" height = ""200""></p>","","","","","","","","","","","",""
"","1311","sequential-stimulus-presentation","287","678024","0.0-53.0-1.4","SS1613080103509","trial","","40","800","2111","images/stimuli/spore_stims/complex_03_A_a.gif","images/stimuli/spore_stims/complex_10_B_b.gif","","","","","15","complex_dissimilar","images/stimuli/spore_stims/complex_10_B_b.gif","right","","","","",""
"","null","html-keyboard-response","288","679251","0.0-53.0-0.5","SS1613080103509","","","null","","","","","<p><img src= images/blank.png width =""200"" height = ""200"" style = ""float:right""></p><p><img src=images/blank.png width =""800"" height = ""200""></p>","","","","","","","","","","","",""
"","3931","sequential-stimulus-presentation","289","684026","0.0-53.0-1.5","SS1613080103509","trial","","40","800","4731","images/stimuli/spore_stims/complex_03_A_a.gif","images/stimuli/spore_stims/complex_10_B_b.gif","","","","","15","complex_dissimilar","images/stimuli/spore_stims/complex_03_A_a.gif","middle","","","","",""
"","null","html-keyboard-response","290","685205","0.0-53.0-0.6","SS1613080103509","","","null","","","","","<p><img src= images/blank.png width =""200"" height = ""200"" style = ""float:right""></p><p><img src=images/blank.png width =""800"" height = ""200""></p>","","","","","","","","","","","",""
"","1531","sequential-stimulus-presentation","291","687566","0.0-53.0-1.6","SS1613080103509","trial","","40","800","2331","images/stimuli/spore_stims/complex_03_A_a.gif","images/stimuli/spore_stims/complex_10_B_b.gif","","","","","15","complex_dissimilar","images/stimuli/spore_stims/complex_10_B_b.gif","right","","","","",""
"","null","html-keyboard-response","292","688695","0.0-53.0-0.7","SS1613080103509","","","null","","","","","<p><img src= images/blank.png width =""200"" height = ""200"" style = ""float:right""></p><p><img src=images/blank.png width =""800"" height = ""200""></p>","","","","","","","","","","","",""
"","746","sequential-stimulus-presentation","293","690269","0.0-53.0-1.7","SS1613080103509","trial","","40","800","1546","images/stimuli/spore_stims/complex_03_A_a.gif","images/stimuli/spore_stims/complex_10_B_b.gif","","","","","15","complex_dissimilar","images/stimuli/spore_stims/complex_10_B_b.gif","right","","","","",""
"","1588","html-keyboard-response","294","691865","0.0-54.0","SS1613080103509","pref_question","","50","","","","","<video width ='960' height = '540' style='padding-top:8%' autoplay muted><source src='images/stimuli/wall_pref.mp4' type='video/mp4'></video>","2","middle","45%","15","","","","","","","",""
"","4634","sequential-stimulus-presentation","295","697310","0.0-55.0","SS1613080103509","pref_reveal","","40","800","5434","null","null","","","","","15","","","","deviant","","","",""
"","null","html-keyboard-response","296","698191","0.0-56.0-0.0","SS1613080103509","","","null","","","","","<p><img src= images/blank.png width =""200"" height = ""200"" style = ""float:right""></p><p><img src=images/blank.png width =""800"" height = ""200""></p>","","","","","","","","","","","",""
"","4019","sequential-stimulus-presentation","297","703024","0.0-56.0-1.0","SS1613080103509","trial","","40","800","4819","images/stimuli/spore_stims/complex_14_A_c.gif","images/stimuli/spore_stims/complex_14_B_c.gif","","","","","16","complex_similar","images/stimuli/spore_stims/complex_14_B_c.gif","middle","","","","",""
"","null","html-keyboard-response","298","704244","0.0-56.0-0.1","SS1613080103509","","","null","","","","","<p><img src= images/blank.png width =""200"" height = ""200"" style = ""float:right""></p><p><img src=images/blank.png width =""800"" height = ""200""></p>","","","","","","","","","","","",""
"","2217","sequential-stimulus-presentation","299","707282","0.0-56.0-1.1","SS1613080103509","trial","","40","800","3017","images/stimuli/spore_stims/complex_14_A_c.gif","images/stimuli/spore_stims/complex_14_B_c.gif","","","","","16","complex_similar","images/stimuli/spore_stims/complex_14_B_c.gif","middle","","","","",""
"","null","html-keyboard-response","300","708355","0.0-56.0-0.2","SS1613080103509","","","null","","","","","<p><img src= images/blank.png width =""200"" height = ""200"" style = ""float:right""></p><p><img src=images/blank.png width =""800"" height = ""200""></p>","","","","","","","","","","","",""
"","1237","sequential-stimulus-presentation","301","710408","0.0-56.0-1.2","SS1613080103509","trial","","40","800","2037","images/stimuli/spore_stims/complex_14_A_c.gif","images/stimuli/spore_stims/complex_14_B_c.gif","","","","","16","complex_similar","images/stimuli/spore_stims/complex_14_B_c.gif","middle","","","","",""
"","null","html-keyboard-response","302","711434","0.0-56.0-0.3","SS1613080103509","","","null","","","","","<p><img src= images/blank.png width =""200"" height = ""200"" style = ""float:right""></p><p><img src=images/blank.png width =""800"" height = ""200""></p>","","","","","","","","","","","",""
"","1012","sequential-stimulus-presentation","303","713255","0.0-56.0-1.3","SS1613080103509","trial","","40","800","1812","images/stimuli/spore_stims/complex_14_A_c.gif","images/stimuli/spore_stims/complex_14_B_c.gif","","","","","16","complex_similar","images/stimuli/spore_stims/complex_14_B_c.gif","middle","","","","",""
"","null","html-keyboard-response","304","714408","0.0-56.0-0.4","SS1613080103509","","","null","","","","","<p><img src= images/blank.png width =""200"" height = ""200"" style = ""float:right""></p><p><img src=images/blank.png width =""800"" height = ""200""></p>","","","","","","","","","","","",""
"","1164","sequential-stimulus-presentation","305","716390","0.0-56.0-1.4","SS1613080103509","trial","","40","800","1964","images/stimuli/spore_stims/complex_14_A_c.gif","images/stimuli/spore_stims/complex_14_B_c.gif","","","","","16","complex_similar","images/stimuli/spore_stims/complex_14_B_c.gif","middle","","","","",""
"","null","html-keyboard-response","306","717593","0.0-56.0-0.5","SS1613080103509","","","null","","","","","<p><img src= images/blank.png width =""200"" height = ""200"" style = ""float:right""></p><p><img src=images/blank.png width =""800"" height = ""200""></p>","","","","","","","","","","","",""
"","1401","sequential-stimulus-presentation","307","719802","0.0-56.0-1.5","SS1613080103509","trial","","40","800","2201","images/stimuli/spore_stims/complex_14_A_c.gif","images/stimuli/spore_stims/complex_14_B_c.gif","","","","","16","complex_similar","images/stimuli/spore_stims/complex_14_B_c.gif","middle","","","","",""
"","null","html-keyboard-response","308","720790","0.0-56.0-0.6","SS1613080103509","","","null","","","","","<p><img src= images/blank.png width =""200"" height = ""200"" style = ""float:right""></p><p><img src=images/blank.png width =""800"" height = ""200""></p>","","","","","","","","","","","",""
"","1686","sequential-stimulus-presentation","309","723290","0.0-56.0-1.6","SS1613080103509","trial","","40","800","2486","images/stimuli/spore_stims/complex_14_A_c.gif","images/stimuli/spore_stims/complex_14_B_c.gif","","","","","16","complex_similar","images/stimuli/spore_stims/complex_14_B_c.gif","middle","","","","",""
"","null","html-keyboard-response","310","724148","0.0-56.0-0.7","SS1613080103509","","","null","","","","","<p><img src= images/blank.png width =""200"" height = ""200"" style = ""float:right""></p><p><img src=images/blank.png width =""800"" height = ""200""></p>","","","","","","","","","","","",""
"","3187","sequential-stimulus-presentation","311","728148","0.0-56.0-1.7","SS1613080103509","trial","","40","800","3987","images/stimuli/spore_stims/complex_14_A_c.gif","images/stimuli/spore_stims/complex_14_B_c.gif","","","","","16","complex_similar","images/stimuli/spore_stims/complex_14_A_c.gif","left","","","","",""
"","2415","html-keyboard-response","312","730578","0.0-57.0","SS1613080103509","pref_question","","51","","","","","<video width ='960' height = '540' style='padding-top:8%' autoplay muted><source src='images/stimuli/wall_pref.mp4' type='video/mp4'></video>","3","right","66%","16","","","","","","","",""
"","4706","sequential-stimulus-presentation","313","736096","0.0-58.0","SS1613080103509","pref_reveal","","40","800","5506","null","null","","","","","16","","","","novel","","","",""
"","null","html-keyboard-response","314","736949","0.0-59.0-0.0","SS1613080103509","","","null","","","","","<p><img src= images/blank.png width =""200"" height = ""200"" style = ""float:right""></p><p><img src=images/blank.png width =""800"" height = ""200""></p>","","","","","","","","","","","",""
"","4416","sequential-stimulus-presentation","315","742177","0.0-59.0-1.0","SS1613080103509","trial","","40","800","5216","images/stimuli/spore_stims/complex_20_B_d.gif","images/stimuli/spore_stims/complex_20_A_d.gif","","","","","17","complex_similar","images/stimuli/spore_stims/complex_20_A_d.gif","middle","","","","",""
"","null","html-keyboard-response","316","743308","0.0-59.0-0.1","SS1613080103509","","","null","","","","","<p><img src= images/blank.png width =""200"" height = ""200"" style = ""float:right""></p><p><img src=images/blank.png width =""800"" height = ""200""></p>","","","","","","","","","","","",""
"","2157","sequential-stimulus-presentation","317","746279","0.0-59.0-1.1","SS1613080103509","trial","","40","800","2957","images/stimuli/spore_stims/complex_20_B_d.gif","images/stimuli/spore_stims/complex_20_A_d.gif","","","","","17","complex_similar","images/stimuli/spore_stims/complex_20_A_d.gif","middle","","","","",""
"","null","html-keyboard-response","318","747089","0.0-59.0-0.2","SS1613080103509","","","null","","","","","<p><img src= images/blank.png width =""200"" height = ""200"" style = ""float:right""></p><p><img src=images/blank.png width =""800"" height = ""200""></p>","","","","","","","","","","","",""
"","2236","sequential-stimulus-presentation","319","750145","0.0-59.0-1.2","SS1613080103509","trial","","40","800","3036","images/stimuli/spore_stims/complex_20_B_d.gif","images/stimuli/spore_stims/complex_20_A_d.gif","","","","","17","complex_similar","images/stimuli/spore_stims/complex_20_A_d.gif","middle","","","","",""
"","null","html-keyboard-response","320","750992","0.0-59.0-0.3","SS1613080103509","","","null","","","","","<p><img src= images/blank.png width =""200"" height = ""200"" style = ""float:right""></p><p><img src=images/blank.png width =""800"" height = ""200""></p>","","","","","","","","","","","",""
"","1729","sequential-stimulus-presentation","321","753531","0.0-59.0-1.3","SS1613080103509","trial","","40","800","2529","images/stimuli/spore_stims/complex_20_B_d.gif","images/stimuli/spore_stims/complex_20_A_d.gif","","","","","17","complex_similar","images/stimuli/spore_stims/complex_20_A_d.gif","middle","","","","",""
"","null","html-keyboard-response","322","754623","0.0-59.0-0.4","SS1613080103509","","","null","","","","","<p><img src= images/blank.png width =""200"" height = ""200"" style = ""float:right""></p><p><img src=images/blank.png width =""800"" height = ""200""></p>","","","","","","","","","","","",""
"","1291","sequential-stimulus-presentation","323","756731","0.0-59.0-1.4","SS1613080103509","trial","","40","800","2091","images/stimuli/spore_stims/complex_20_B_d.gif","images/stimuli/spore_stims/complex_20_A_d.gif","","","","","17","complex_similar","images/stimuli/spore_stims/complex_20_A_d.gif","middle","","","","",""
"","null","html-keyboard-response","324","757697","0.0-59.0-0.5","SS1613080103509","","","null","","","","","<p><img src= images/blank.png width =""200"" height = ""200"" style = ""float:right""></p><p><img src=images/blank.png width =""800"" height = ""200""></p>","","","","","","","","","","","",""
"","2794","sequential-stimulus-presentation","325","761307","0.0-59.0-1.5","SS1613080103509","trial","","40","800","3594","images/stimuli/spore_stims/complex_20_B_d.gif","images/stimuli/spore_stims/complex_20_A_d.gif","","","","","17","complex_similar","images/stimuli/spore_stims/complex_20_B_d.gif","right","","","","",""
"","null","html-keyboard-response","326","762266","0.0-59.0-0.6","SS1613080103509","","","null","","","","","<p><img src= images/blank.png width =""200"" height = ""200"" style = ""float:right""></p><p><img src=images/blank.png width =""800"" height = ""200""></p>","","","","","","","","","","","",""
"","1015","sequential-stimulus-presentation","327","764092","0.0-59.0-1.6","SS1613080103509","trial","","40","800","1815","images/stimuli/spore_stims/complex_20_B_d.gif","images/stimuli/spore_stims/complex_20_A_d.gif","","","","","17","complex_similar","images/stimuli/spore_stims/complex_20_A_d.gif","middle","","","","",""
