"view_history","rt","trial_type","trial_index","time_elapsed","internal_node_id","subject","stimulus_type","trial_stimulus","key_press","minimum_viewing_duration","trial_looking_time","block_deviant","block_background","stimulus","wall_pref","location","location_percent","block_number","block_type","stimulus_displayed","position_displayed","stim_type_selected","responses","question_order","stimulus_left","stimulus_right"
"[{""page_index"":0,""viewing_time"":9731.234999999288}]","9734.214999996766","instructions","0","9738","0.0-0.0","SS1613100522445","","","","","","","","","","","","","","","","","","","",""
"[{""page_index"":0,""viewing_time"":2038.5650000025635},{""page_index"":1,""viewing_time"":15159.489999998186}]","17198.55500000267","instructions","1","28941","0.0-1.0","SS1613100522445","instructions","","","","","","","","","","","","","","","","","","",""
"","15393.194999996922","sequential-stimulus-presentation","2","45146","0.0-2.0","SS1613100522445","","","40","800","16193.194999996922","null","null","","","","","","","","","","","","",""
"","6938.054999998712","sequential-stimulus-presentation","3","52899","0.0-3.0","SS1613100522445","","","40","800","7738.054999998712","null","null","","","","","","","","","","","","",""
"[{""page_index"":0,""viewing_time"":1360.370000002149}]","1361.0150000022259","instructions","4","54262","0.0-4.0","SS1613100522445","instructions","","","","","","","","","","","","","","","","","","",""
"","43675.985000001674","html-keyboard-response","5","97946","0.0-5.0","SS1613100522445","instructions","","99","","","","","<video width ='960' height = '540' autoplay muted><source src='images/stimuli/wall_pref.mp4' type='video/mp4'></video>","3","right","66%","","","","","","","","",""
"","8636.319999997795","sequential-stimulus-presentation","6","107393","0.0-6.0","SS1613100522445","pref_reveal","","40","800","9436.319999997795","null","null","","","","","","","","","","","","",""
"[{""page_index"":0,""viewing_time"":1968.8899999964633},{""page_index"":1,""viewing_time"":1896.07000000251},{""page_index"":2,""viewing_time"":1199.8249999960535},{""page_index"":3,""viewing_time"":928.0750000034459}]","5993.510000000242","instructions","7","113390","0.0-7.0","SS1613100522445","instructions","","","","","","","","","","","","","","","","","","",""
"","null","html-keyboard-response","8","114652","0.0-8.0-0.0","SS1613100522445","","","null","","","","","<p><img src= images/blank.png width =""200"" height = ""200"" style = ""float:right""></p><p><img src=images/blank.png width =""800"" height = ""200""></p>","","","","","","","","","","","",""
"","180918.77999999997","sequential-stimulus-presentation","9","296387","0.0-8.0-1.0","SS1613100522445","trial","","40","800","181718.77999999997","images/stimuli/spore_stims/simple_15_A_a.gif","images/stimuli/spore_stims/simple_15_B_a.gif","","","","","0","simple_similar","images/stimuli/spore_stims/simple_15_B_a.gif","left","","","","",""
"","null","html-keyboard-response","10","297632","0.0-8.0-0.1","SS1613100522445","","","null","","","","","<p><img src= images/blank.png width =""200"" height = ""200"" style = ""float:right""></p><p><img src=images/blank.png width =""800"" height = ""200""></p>","","","","","","","","","","","",""
"","3918.5599999982514","sequential-stimulus-presentation","11","302361","0.0-8.0-1.1","SS1613100522445","trial","","40","800","4718.559999998251","images/stimuli/spore_stims/simple_15_A_a.gif","images/stimuli/spore_stims/simple_15_B_a.gif","","","","","0","simple_similar","images/stimuli/spore_stims/simple_15_B_a.gif","left","","","","",""
"","null","html-keyboard-response","12","303232","0.0-8.0-0.2","SS1613100522445","","","null","","","","","<p><img src= images/blank.png width =""200"" height = ""200"" style = ""float:right""></p><p><img src=images/blank.png width =""800"" height = ""200""></p>","","","","","","","","","","","",""
"","607.2500000009313","sequential-stimulus-presentation","13","304650","0.0-8.0-1.2","SS1613100522445","trial","","40","800","1407.2500000009313","images/stimuli/spore_stims/simple_15_A_a.gif","images/stimuli/spore_stims/simple_15_B_a.gif","","","","","0","simple_similar","images/stimuli/spore_stims/simple_15_B_a.gif","left","","","","",""
"","null","html-keyboard-response","14","305763","0.0-8.0-0.3","SS1613100522445","","","null","","","","","<p><img src= images/blank.png width =""200"" height = ""200"" style = ""float:right""></p><p><img src=images/blank.png width =""800"" height = ""200""></p>","","","","","","","","","","","",""
"","812.9200000039418","sequential-stimulus-presentation","15","307387","0.0-8.0-1.3","SS1613100522445","trial","","40","800","1612.9200000039418","images/stimuli/spore_stims/simple_15_A_a.gif","images/stimuli/spore_stims/simple_15_B_a.gif","","","","","0","simple_similar","images/stimuli/spore_stims/simple_15_B_a.gif","left","","","","",""
"","null","html-keyboard-response","16","308339","0.0-8.0-0.4","SS1613100522445","","","null","","","","","<p><img src= images/blank.png width =""200"" height = ""200"" style = ""float:right""></p><p><img src=images/blank.png width =""800"" height = ""200""></p>","","","","","","","","","","","",""
"","2224.479999997129","sequential-stimulus-presentation","17","311377","0.0-8.0-1.4","SS1613100522445","trial","","40","800","3024.479999997129","images/stimuli/spore_stims/simple_15_A_a.gif","images/stimuli/spore_stims/simple_15_B_a.gif","","","","","0","simple_similar","images/stimuli/spore_stims/simple_15_B_a.gif","left","","","","",""
"","null","html-keyboard-response","18","312382","0.0-8.0-0.5","SS1613100522445","","","null","","","","","<p><img src= images/blank.png width =""200"" height = ""200"" style = ""float:right""></p><p><img src=images/blank.png width =""800"" height = ""200""></p>","","","","","","","","","","","",""
"","3310.910000000149","sequential-stimulus-presentation","19","316513","0.0-8.0-1.5","SS1613100522445","trial","","40","800","4110.910000000149","images/stimuli/spore_stims/simple_15_A_a.gif","images/stimuli/spore_stims/simple_15_B_a.gif","","","","","0","simple_similar","images/stimuli/spore_stims/simple_15_A_a.gif","middle","","","","",""
"","null","html-keyboard-response","20","317597","0.0-8.0-0.6","SS1613100522445","","","null","","","","","<p><img src= images/blank.png width =""200"" height = ""200"" style = ""float:right""></p><p><img src=images/blank.png width =""800"" height = ""200""></p>","","","","","","","","","","","",""
"","127.38499999977648","sequential-stimulus-presentation","21","318538","0.0-8.0-1.6","SS1613100522445","trial","","40","800","927.3849999997765","images/stimuli/spore_stims/simple_15_A_a.gif","images/stimuli/spore_stims/simple_15_B_a.gif","","","","","0","simple_similar","images/stimuli/spore_stims/simple_15_B_a.gif","left","","","","",""
"","null","html-keyboard-response","22","319567","0.0-8.0-0.7","SS1613100522445","","","null","","","","","<p><img src= images/blank.png width =""200"" height = ""200"" style = ""float:right""></p><p><img src=images/blank.png width =""800"" height = ""200""></p>","","","","","","","","","","","",""
"","1959.7949999952107","sequential-stimulus-presentation","23","322337","0.0-8.0-1.7","SS1613100522445","trial","","40","800","2759.7949999952107","images/stimuli/spore_stims/simple_15_A_a.gif","images/stimuli/spore_stims/simple_15_B_a.gif","","","","","0","simple_similar","images/stimuli/spore_stims/simple_15_B_a.gif","left","","","","",""
"","14621.429999999236","html-keyboard-response","24","337009","0.0-9.0","SS1613100522445","pref_question","","97","","","","","<video width ='960' height = '540' style='padding-top:8%' autoplay muted><source src='images/stimuli/wall_pref.mp4' type='video/mp4'></video>","1","left","25%","0","","","","","","","",""
"","1549.749999998312","sequential-stimulus-presentation","25","339368","0.0-10.0","SS1613100522445","pref_reveal","","40","800","2349.749999998312","null","null","","","","","0","","","","background","","","",""
"","null","html-keyboard-response","26","340656","0.0-11.0-0.0","SS1613100522445","","","null","","","","","<p><img src= images/blank.png width =""200"" height = ""200"" style = ""float:right""></p><p><img src=images/blank.png width =""800"" height = ""200""></p>","","","","","","","","","","","",""
"","3293.2999999975436","sequential-stimulus-presentation","27","344760","0.0-11.0-1.0","SS1613100522445","trial","","40","800","4093.2999999975436","images/stimuli/spore_stims/simple_09_A_a.gif","images/stimuli/spore_stims/simple_09_B_a.gif","","","","","1","simple_similar","images/stimuli/spore_stims/simple_09_B_a.gif","left","","","","",""
"","null","html-keyboard-response","28","345957","0.0-11.0-0.1","SS1613100522445","","","null","","","","","<p><img src= images/blank.png width =""200"" height = ""200"" style = ""float:right""></p><p><img src=images/blank.png width =""800"" height = ""200""></p>","","","","","","","","","","","",""
"","989.3450000017765","sequential-stimulus-presentation","29","347760","0.0-11.0-1.1","SS1613100522445","trial","","40","800","1789.3450000017765","images/stimuli/spore_stims/simple_09_A_a.gif","images/stimuli/spore_stims/simple_09_B_a.gif","","","","","1","simple_similar","images/stimuli/spore_stims/simple_09_B_a.gif","left","","","","",""
"","null","html-keyboard-response","30","348692","0.0-11.0-0.2","SS1613100522445","","","null","","","","","<p><img src= images/blank.png width =""200"" height = ""200"" style = ""float:right""></p><p><img src=images/blank.png width =""800"" height = ""200""></p>","","","","","","","","","","","",""
"","5999.890000006417","sequential-stimulus-presentation","31","355505","0.0-11.0-1.2","SS1613100522445","trial","","40","800","6799.890000006417","images/stimuli/spore_stims/simple_09_A_a.gif","images/stimuli/spore_stims/simple_09_B_a.gif","","","","","1","simple_similar","images/stimuli/spore_stims/simple_09_B_a.gif","left","","","","",""
"","null","html-keyboard-response","32","356675","0.0-11.0-0.3","SS1613100522445","","","null","","","","","<p><img src= images/blank.png width =""200"" height = ""200"" style = ""float:right""></p><p><img src=images/blank.png width =""800"" height = ""200""></p>","","","","","","","","","","","",""
"","26.88499999931082","sequential-stimulus-presentation","33","357514","0.0-11.0-1.3","SS1613100522445","trial","","40","800","826.8849999993108","images/stimuli/spore_stims/simple_09_A_a.gif","images/stimuli/spore_stims/simple_09_B_a.gif","","","","","1","simple_similar","images/stimuli/spore_stims/simple_09_B_a.gif","left","","","","",""
"","null","html-keyboard-response","34","358487","0.0-11.0-0.4","SS1613100522445","","","null","","","","","<p><img src= images/blank.png width =""200"" height = ""200"" style = ""float:right""></p><p><img src=images/blank.png width =""800"" height = ""200""></p>","","","","","","","","","","","",""
"","177.25999999674968","sequential-stimulus-presentation","35","359474","0.0-11.0-1.4","SS1613100522445","trial","","40","800","977.2599999967497","images/stimuli/spore_stims/simple_09_A_a.gif","images/stimuli/spore_stims/simple_09_B_a.gif","","","","","1","simple_similar","images/stimuli/spore_stims/simple_09_B_a.gif","left","","","","",""
"","null","html-keyboard-response","36","360773","0.0-11.0-0.5","SS1613100522445","","","null","","","","","<p><img src= images/blank.png width =""200"" height = ""200"" style = ""float:right""></p><p><img src=images/blank.png width =""800"" height = ""200""></p>","","","","","","","","","","","",""
"","9426.594999997178","sequential-stimulus-presentation","37","371009","0.0-11.0-1.5","SS1613100522445","trial","","40","800","10226.594999997178","images/stimuli/spore_stims/simple_09_A_a.gif","images/stimuli/spore_stims/simple_09_B_a.gif","","","","","1","simple_similar","images/stimuli/spore_stims/simple_09_B_a.gif","left","","","","",""
"","null","html-keyboard-response","38","372196","0.0-11.0-0.6","SS1613100522445","","","null","","","","","<p><img src= images/blank.png width =""200"" height = ""200"" style = ""float:right""></p><p><img src=images/blank.png width =""800"" height = ""200""></p>","","","","","","","","","","","",""
"","2840.169999995851","sequential-stimulus-presentation","39","375857","0.0-11.0-1.6","SS1613100522445","trial","","40","800","3640.169999995851","images/stimuli/spore_stims/simple_09_A_a.gif","images/stimuli/spore_stims/simple_09_B_a.gif","","","","","1","simple_similar","images/stimuli/spore_stims/simple_09_A_a.gif","right","","","","",""
"","null","html-keyboard-response","40","376949","0.0-11.0-0.7","SS1613100522445","","","null","","","","","<p><img src= images/blank.png width =""200"" height = ""200"" style = ""float:right""></p><p><img src=images/blank.png width =""800"" height = ""200""></p>","","","","","","","","","","","",""
"","776.3399999967078","sequential-stimulus-presentation","41","378537","0.0-11.0-1.7","SS1613100522445","trial","","40","800","1576.3399999967078","images/stimuli/spore_stims/simple_09_A_a.gif","images/stimuli/spore_stims/simple_09_B_a.gif","","","","","1","simple_similar","images/stimuli/spore_stims/simple_09_B_a.gif","left","","","","",""
"","1960.8949999965262","html-keyboard-response","42","380505","0.0-12.0","SS1613100522445","pref_question","","97","","","","","<video width ='960' height = '540' style='padding-top:8%' autoplay muted><source src='images/stimuli/wall_pref.mp4' type='video/mp4'></video>","1","left","25%","1","","","","","","","",""
"","8334.389999996347","sequential-stimulus-presentation","43","389650","0.0-13.0","SS1613100522445","pref_reveal","","40","800","9134.389999996347","null","null","","","","","1","","","","background","","","",""
"","null","html-keyboard-response","44","390715","0.0-14.0-0.0","SS1613100522445","","","null","","","","","<p><img src= images/blank.png width =""200"" height = ""200"" style = ""float:right""></p><p><img src=images/blank.png width =""800"" height = ""200""></p>","","","","","","","","","","","",""
"","4767.189999998664","sequential-stimulus-presentation","45","396296","0.0-14.0-1.0","SS1613100522445","trial","","40","800","5567.189999998664","images/stimuli/spore_stims/complex_19_B_c.gif","images/stimuli/spore_stims/complex_19_A_c.gif","","","","","2","complex_similar","images/stimuli/spore_stims/complex_19_A_c.gif","left","","","","",""
"","null","html-keyboard-response","46","397525","0.0-14.0-0.1","SS1613100522445","","","null","","","","","<p><img src= images/blank.png width =""200"" height = ""200"" style = ""float:right""></p><p><img src=images/blank.png width =""800"" height = ""200""></p>","","","","","","","","","","","",""
"","1366.8199999956414","sequential-stimulus-presentation","47","399713","0.0-14.0-1.1","SS1613100522445","trial","","40","800","2166.8199999956414","images/stimuli/spore_stims/complex_19_B_c.gif","images/stimuli/spore_stims/complex_19_A_c.gif","","","","","2","complex_similar","images/stimuli/spore_stims/complex_19_A_c.gif","left","","","","",""
"","null","html-keyboard-response","48","400761","0.0-14.0-0.2","SS1613100522445","","","null","","","","","<p><img src= images/blank.png width =""200"" height = ""200"" style = ""float:right""></p><p><img src=images/blank.png width =""800"" height = ""200""></p>","","","","","","","","","","","",""
"","5538.889999996172","sequential-stimulus-presentation","49","407120","0.0-14.0-1.2","SS1613100522445","trial","","40","800","6338.889999996172","images/stimuli/spore_stims/complex_19_B_c.gif","images/stimuli/spore_stims/complex_19_A_c.gif","","","","","2","complex_similar","images/stimuli/spore_stims/complex_19_A_c.gif","left","","","","",""
"","null","html-keyboard-response","50","408116","0.0-14.0-0.3","SS1613100522445","","","null","","","","","<p><img src= images/blank.png width =""200"" height = ""200"" style = ""float:right""></p><p><img src=images/blank.png width =""800"" height = ""200""></p>","","","","","","","","","","","",""
"","1024.3950000003679","sequential-stimulus-presentation","51","409952","0.0-14.0-1.3","SS1613100522445","trial","","40","800","1824.3950000003679","images/stimuli/spore_stims/complex_19_B_c.gif","images/stimuli/spore_stims/complex_19_A_c.gif","","","","","2","complex_similar","images/stimuli/spore_stims/complex_19_A_c.gif","left","","","","",""
"","null","html-keyboard-response","52","410806","0.0-14.0-0.4","SS1613100522445","","","null","","","","","<p><img src= images/blank.png width =""200"" height = ""200"" style = ""float:right""></p><p><img src=images/blank.png width =""800"" height = ""200""></p>","","","","","","","","","","","",""
"","6789.425000002666","sequential-stimulus-presentation","53","418409","0.0-14.0-1.4","SS1613100522445","trial","","40","800","7589.425000002666","images/stimuli/spore_stims/complex_19_B_c.gif","images/stimuli/spore_stims/complex_19_A_c.gif","","","","","2","complex_similar","images/stimuli/spore_stims/complex_19_A_c.gif","left","","","","",""
"","null","html-keyboard-response","54","419573","0.0-14.0-0.5","SS1613100522445","","","null","","","","","<p><img src= images/blank.png width =""200"" height = ""200"" style = ""float:right""></p><p><img src=images/blank.png width =""800"" height = ""200""></p>","","","","","","","","","","","",""
"","2047.4099999992177","sequential-stimulus-presentation","55","422434","0.0-14.0-1.5","SS1613100522445","trial","","40","800","2847.4099999992177","images/stimuli/spore_stims/complex_19_B_c.gif","images/stimuli/spore_stims/complex_19_A_c.gif","","","","","2","complex_similar","images/stimuli/spore_stims/complex_19_A_c.gif","left","","","","",""
"","null","html-keyboard-response","56","423408","0.0-14.0-0.6","SS1613100522445","","","null","","","","","<p><img src= images/blank.png width =""200"" height = ""200"" style = ""float:right""></p><p><img src=images/blank.png width =""800"" height = ""200""></p>","","","","","","","","","","","",""
"","3585.094999994908","sequential-stimulus-presentation","57","427817","0.0-14.0-1.6","SS1613100522445","trial","","40","800","4385.094999994908","images/stimuli/spore_stims/complex_19_B_c.gif","images/stimuli/spore_stims/complex_19_A_c.gif","","","","","2","complex_similar","images/stimuli/spore_stims/complex_19_A_c.gif","left","","","","",""
"","null","html-keyboard-response","58","428965","0.0-14.0-0.7","SS1613100522445","","","null","","","","","<p><img src= images/blank.png width =""200"" height = ""200"" style = ""float:right""></p><p><img src=images/blank.png width =""800"" height = ""200""></p>","","","","","","","","","","","",""
"","2255.1800000001094","sequential-stimulus-presentation","59","432033","0.0-14.0-1.7","SS1613100522445","trial","","40","800","3055.1800000001094","images/stimuli/spore_stims/complex_19_B_c.gif","images/stimuli/spore_stims/complex_19_A_c.gif","","","","","2","complex_similar","images/stimuli/spore_stims/complex_19_B_c.gif","right","","","","",""
"","1827.3100000005797","html-keyboard-response","60","433898","0.0-15.0","SS1613100522445","pref_question","","99","","","","","<video width ='960' height = '540' style='padding-top:8%' autoplay muted><source src='images/stimuli/wall_pref.mp4' type='video/mp4'></video>","3","right","66%","2","","","","","","","",""
"","2005.185000001802","sequential-stimulus-presentation","61","436715","0.0-16.0","SS1613100522445","pref_reveal","","40","800","2805.185000001802","null","null","","","","","2","","","","deviant","","","",""
"","null","html-keyboard-response","62","437731","0.0-17.0-0.0","SS1613100522445","","","null","","","","","<p><img src= images/blank.png width =""200"" height = ""200"" style = ""float:right""></p><p><img src=images/blank.png width =""800"" height = ""200""></p>","","","","","","","","","","","",""
"","121.53000000398606","sequential-stimulus-presentation","63","438670","0.0-17.0-1.0","SS1613100522445","trial","","40","800","921.5300000039861","images/stimuli/spore_stims/complex_05_A_d.gif","images/stimuli/spore_stims/complex_09_B_c.gif","","","","","3","complex_dissimilar","images/stimuli/spore_stims/complex_09_B_c.gif","left","","","","",""
"","null","html-keyboard-response","64","439782","0.0-17.0-0.1","SS1613100522445","","","null","","","","","<p><img src= images/blank.png width =""200"" height = ""200"" style = ""float:right""></p><p><img src=images/blank.png width =""800"" height = ""200""></p>","","","","","","","","","","","",""
"","168.51499999756925","sequential-stimulus-presentation","65","440761","0.0-17.0-1.1","SS1613100522445","trial","","40","800","968.5149999975692","images/stimuli/spore_stims/complex_05_A_d.gif","images/stimuli/spore_stims/complex_09_B_c.gif","","","","","3","complex_dissimilar","images/stimuli/spore_stims/complex_09_B_c.gif","left","","","","",""
"","null","html-keyboard-response","66","442041","0.0-17.0-0.2","SS1613100522445","","","null","","","","","<p><img src= images/blank.png width =""200"" height = ""200"" style = ""float:right""></p><p><img src=images/blank.png width =""800"" height = ""200""></p>","","","","","","","","","","","",""
"","29.08999999635853","sequential-stimulus-presentation","67","442883","0.0-17.0-1.2","SS1613100522445","trial","","40","800","829.0899999963585","images/stimuli/spore_stims/complex_05_A_d.gif","images/stimuli/spore_stims/complex_09_B_c.gif","","","","","3","complex_dissimilar","images/stimuli/spore_stims/complex_09_B_c.gif","left","","","","",""
"","null","html-keyboard-response","68","444042","0.0-17.0-0.3","SS1613100522445","","","null","","","","","<p><img src= images/blank.png width =""200"" height = ""200"" style = ""float:right""></p><p><img src=images/blank.png width =""800"" height = ""200""></p>","","","","","","","","","","","",""
"","17250.8450000023","sequential-stimulus-presentation","69","462105","0.0-17.0-1.3","SS1613100522445","trial","","40","800","18050.8450000023","images/stimuli/spore_stims/complex_05_A_d.gif","images/stimuli/spore_stims/complex_09_B_c.gif","","","","","3","complex_dissimilar","images/stimuli/spore_stims/complex_09_B_c.gif","left","","","","",""
"","null","html-keyboard-response","70","463326","0.0-17.0-0.4","SS1613100522445","","","null","","","","","<p><img src= images/blank.png width =""200"" height = ""200"" style = ""float:right""></p><p><img src=images/blank.png width =""800"" height = ""200""></p>","","","","","","","","","","","",""
"","684.7300000008545","sequential-stimulus-presentation","71","464825","0.0-17.0-1.4","SS1613100522445","trial","","40","800","1484.7300000008545","images/stimuli/spore_stims/complex_05_A_d.gif","images/stimuli/spore_stims/complex_09_B_c.gif","","","","","3","complex_dissimilar","images/stimuli/spore_stims/complex_09_B_c.gif","left","","","","",""
"","null","html-keyboard-response","72","466089","0.0-17.0-0.5","SS1613100522445","","","null","","","","","<p><img src= images/blank.png width =""200"" height = ""200"" style = ""float:right""></p><p><img src=images/blank.png width =""800"" height = ""200""></p>","","","","","","","","","","","",""
"","2975.480000000971","sequential-stimulus-presentation","73","469889","0.0-17.0-1.5","SS1613100522445","trial","","40","800","3775.480000000971","images/stimuli/spore_stims/complex_05_A_d.gif","images/stimuli/spore_stims/complex_09_B_c.gif","","","","","3","complex_dissimilar","images/stimuli/spore_stims/complex_09_B_c.gif","left","","","","",""
"","null","html-keyboard-response","74","470976","0.0-17.0-0.6","SS1613100522445","","","null","","","","","<p><img src= images/blank.png width =""200"" height = ""200"" style = ""float:right""></p><p><img src=images/blank.png width =""800"" height = ""200""></p>","","","","","","","","","","","",""
"","1141.700000000128","sequential-stimulus-presentation","75","472931","0.0-17.0-1.6","SS1613100522445","trial","","40","800","1941.700000000128","images/stimuli/spore_stims/complex_05_A_d.gif","images/stimuli/spore_stims/complex_09_B_c.gif","","","","","3","complex_dissimilar","images/stimuli/spore_stims/complex_05_A_d.gif","right","","","","",""
"","null","html-keyboard-response","76","474069","0.0-17.0-0.7","SS1613100522445","","","null","","","","","<p><img src= images/blank.png width =""200"" height = ""200"" style = ""float:right""></p><p><img src=images/blank.png width =""800"" height = ""200""></p>","","","","","","","","","","","",""
"","345.84999999788124","sequential-stimulus-presentation","77","475225","0.0-17.0-1.7","SS1613100522445","trial","","40","800","1145.8499999978812","images/stimuli/spore_stims/complex_05_A_d.gif","images/stimuli/spore_stims/complex_09_B_c.gif","","","","","3","complex_dissimilar","images/stimuli/spore_stims/complex_09_B_c.gif","left","","","","",""
"","2134.1800000009243","html-keyboard-response","78","477369","0.0-18.0","SS1613100522445","pref_question","","99","","","","","<video width ='960' height = '540' style='padding-top:8%' autoplay muted><source src='images/stimuli/wall_pref.mp4' type='video/mp4'></video>","3","right","66%","3","","","","","","","",""
"","9865.645000005316","sequential-stimulus-presentation","79","488049","0.0-19.0","SS1613100522445","pref_reveal","","40","800","10665.645000005316","null","null","","","","","3","","","","deviant","","","",""
"","null","html-keyboard-response","80","489230","0.0-20.0-0.0","SS1613100522445","","","null","","","","","<p><img src= images/blank.png width =""200"" height = ""200"" style = ""float:right""></p><p><img src=images/blank.png width =""800"" height = ""200""></p>","","","","","","","","","","","",""
"","22.194999997736886","sequential-stimulus-presentation","81","490065","0.0-20.0-1.0","SS1613100522445","trial","","40","800","822.1949999977369","images/stimuli/spore_stims/simple_03_A_b.gif","images/stimuli/spore_stims/simple_10_B_d.gif","","","","","4","simple_dissimilar","images/stimuli/spore_stims/simple_10_B_d.gif","middle","","","","",""
"","null","html-keyboard-response","82","491211","0.0-20.0-0.1","SS1613100522445","","","null","","","","","<p><img src= images/blank.png width =""200"" height = ""200"" style = ""float:right""></p><p><img src=images/blank.png width =""800"" height = ""200""></p>","","","","","","","","","","","",""
"","7113.899999996647","sequential-stimulus-presentation","83","499137","0.0-20.0-1.1","SS1613100522445","trial","","40","800","7913.899999996647","images/stimuli/spore_stims/simple_03_A_b.gif","images/stimuli/spore_stims/simple_10_B_d.gif","","","","","4","simple_dissimilar","images/stimuli/spore_stims/simple_10_B_d.gif","middle","","","","",""
"","null","html-keyboard-response","84","500229","0.0-20.0-0.2","SS1613100522445","","","null","","","","","<p><img src= images/blank.png width =""200"" height = ""200"" style = ""float:right""></p><p><img src=images/blank.png width =""800"" height = ""200""></p>","","","","","","","","","","","",""
"","5327.06500000495","sequential-stimulus-presentation","85","506369","0.0-20.0-1.2","SS1613100522445","trial","","40","800","6127.06500000495","images/stimuli/spore_stims/simple_03_A_b.gif","images/stimuli/spore_stims/simple_10_B_d.gif","","","","","4","simple_dissimilar","images/stimuli/spore_stims/simple_03_A_b.gif","left","","","","",""
"","null","html-keyboard-response","86","507206","0.0-20.0-0.3","SS1613100522445","","","null","","","","","<p><img src= images/blank.png width =""200"" height = ""200"" style = ""float:right""></p><p><img src=images/blank.png width =""800"" height = ""200""></p>","","","","","","","","","","","",""
"","2597.2250000049826","sequential-stimulus-presentation","87","510617","0.0-20.0-1.3","SS1613100522445","trial","","40","800","3397.2250000049826","images/stimuli/spore_stims/simple_03_A_b.gif","images/stimuli/spore_stims/simple_10_B_d.gif","","","","","4","simple_dissimilar","images/stimuli/spore_stims/simple_10_B_d.gif","middle","","","","",""
"","null","html-keyboard-response","88","511596","0.0-20.0-0.4","SS1613100522445","","","null","","","","","<p><img src= images/blank.png width =""200"" height = ""200"" style = ""float:right""></p><p><img src=images/blank.png width =""800"" height = ""200""></p>","","","","","","","","","","","",""
"","1344.5799999972223","sequential-stimulus-presentation","89","513754","0.0-20.0-1.4","SS1613100522445","trial","","40","800","2144.5799999972223","images/stimuli/spore_stims/simple_03_A_b.gif","images/stimuli/spore_stims/simple_10_B_d.gif","","","","","4","simple_dissimilar","images/stimuli/spore_stims/simple_10_B_d.gif","middle","","","","",""
"","null","html-keyboard-response","90","514890","0.0-20.0-0.5","SS1613100522445","","","null","","","","","<p><img src= images/blank.png width =""200"" height = ""200"" style = ""float:right""></p><p><img src=images/blank.png width =""800"" height = ""200""></p>","","","","","","","","","","","",""
"","1299.2649999941932","sequential-stimulus-presentation","91","517024","0.0-20.0-1.5","SS1613100522445","trial","","40","800","2099.264999994193","images/stimuli/spore_stims/simple_03_A_b.gif","images/stimuli/spore_stims/simple_10_B_d.gif","","","","","4","simple_dissimilar","images/stimuli/spore_stims/simple_10_B_d.gif","middle","","","","",""
"","null","html-keyboard-response","92","518009","0.0-20.0-0.6","SS1613100522445","","","null","","","","","<p><img src= images/blank.png width =""200"" height = ""200"" style = ""float:right""></p><p><img src=images/blank.png width =""800"" height = ""200""></p>","","","","","","","","","","","",""
"","852.4150000012014","sequential-stimulus-presentation","93","519674","0.0-20.0-1.6","SS1613100522445","trial","","40","800","1652.4150000012014","images/stimuli/spore_stims/simple_03_A_b.gif","images/stimuli/spore_stims/simple_10_B_d.gif","","","","","4","simple_dissimilar","images/stimuli/spore_stims/simple_10_B_d.gif","middle","","","","",""
"","null","html-keyboard-response","94","520942","0.0-20.0-0.7","SS1613100522445","","","null","","","","","<p><img src= images/blank.png width =""200"" height = ""200"" style = ""float:right""></p><p><img src=images/blank.png width =""800"" height = ""200""></p>","","","","","","","","","","","",""
"","534.2849999943282","sequential-stimulus-presentation","95","522289","0.0-20.0-1.7","SS1613100522445","trial","","40","800","1334.2849999943282","images/stimuli/spore_stims/simple_03_A_b.gif","images/stimuli/spore_stims/simple_10_B_d.gif","","","","","4","simple_dissimilar","images/stimuli/spore_stims/simple_10_B_d.gif","middle","","","","",""
"","4769.325000001118","html-keyboard-response","96","527121","0.0-21.0","SS1613100522445","pref_question","","99","","","","","<video width ='960' height = '540' style='padding-top:8%' autoplay muted><source src='images/stimuli/wall_pref.mp4' type='video/mp4'></video>","3","right","66%","4","","","","","","","",""
"","7060.695000000182","sequential-stimulus-presentation","97","534994","0.0-22.0","SS1613100522445","pref_reveal","","40","800","7860.695000000182","null","null","","","","","4","","","","novel","","","",""
"","null","html-keyboard-response","98","535988","0.0-23.0-0.0","SS1613100522445","","","null","","","","","<p><img src= images/blank.png width =""200"" height = ""200"" style = ""float:right""></p><p><img src=images/blank.png width =""800"" height = ""200""></p>","","","","","","","","","","","",""
"","5165.260000001523","sequential-stimulus-presentation","99","541977","0.0-23.0-1.0","SS1613100522445","trial","","40","800","5965.260000001523","images/stimuli/spore_stims/simple_16_B_a.gif","images/stimuli/spore_stims/simple_20_A_b.gif","","","","","5","simple_dissimilar","images/stimuli/spore_stims/simple_20_A_b.gif","left","","","","",""
"","null","html-keyboard-response","100","543053","0.0-23.0-0.1","SS1613100522445","","","null","","","","","<p><img src= images/blank.png width =""200"" height = ""200"" style = ""float:right""></p><p><img src=images/blank.png width =""800"" height = ""200""></p>","","","","","","","","","","","",""
"","915.500000002794","sequential-stimulus-presentation","101","544793","0.0-23.0-1.1","SS1613100522445","trial","","40","800","1715.500000002794","images/stimuli/spore_stims/simple_16_B_a.gif","images/stimuli/spore_stims/simple_20_A_b.gif","","","","","5","simple_dissimilar","images/stimuli/spore_stims/simple_20_A_b.gif","left","","","","",""
"","null","html-keyboard-response","102","545968","0.0-23.0-0.2","SS1613100522445","","","null","","","","","<p><img src= images/blank.png width =""200"" height = ""200"" style = ""float:right""></p><p><img src=images/blank.png width =""800"" height = ""200""></p>","","","","","","","","","","","",""
"","244.33999999752268","sequential-stimulus-presentation","103","547025","0.0-23.0-1.2","SS1613100522445","trial","","40","800","1044.3399999975227","images/stimuli/spore_stims/simple_16_B_a.gif","images/stimuli/spore_stims/simple_20_A_b.gif","","","","","5","simple_dissimilar","images/stimuli/spore_stims/simple_20_A_b.gif","left","","","","",""
"","null","html-keyboard-response","104","548024","0.0-23.0-0.3","SS1613100522445","","","null","","","","","<p><img src= images/blank.png width =""200"" height = ""200"" style = ""float:right""></p><p><img src=images/blank.png width =""800"" height = ""200""></p>","","","","","","","","","","","",""
"","5659.809999997378","sequential-stimulus-presentation","105","554497","0.0-23.0-1.3","SS1613100522445","trial","","40","800","6459.809999997378","images/stimuli/spore_stims/simple_16_B_a.gif","images/stimuli/spore_stims/simple_20_A_b.gif","","","","","5","simple_dissimilar","images/stimuli/spore_stims/simple_16_B_a.gif","right","","","","",""
"","null","html-keyboard-response","106","555693","0.0-23.0-0.4","SS1613100522445","","","null","","","","","<p><img src= images/blank.png width =""200"" height = ""200"" style = ""float:right""></p><p><img src=images/blank.png width =""800"" height = ""200""></p>","","","","","","","","","","","",""
"","1093.9900000012713","sequential-stimulus-presentation","107","557601","0.0-23.0-1.4","SS1613100522445","trial","","40","800","1893.9900000012713","images/stimuli/spore_stims/simple_16_B_a.gif","images/stimuli/spore_stims/simple_20_A_b.gif","","","","","5","simple_dissimilar","images/stimuli/spore_stims/simple_20_A_b.gif","left","","","","",""
"","null","html-keyboard-response","108","558836","0.0-23.0-0.5","SS1613100522445","","","null","","","","","<p><img src= images/blank.png width =""200"" height = ""200"" style = ""float:right""></p><p><img src=images/blank.png width =""800"" height = ""200""></p>","","","","","","","","","","","",""
"","949.9349999969127","sequential-stimulus-presentation","109","560601","0.0-23.0-1.5","SS1613100522445","trial","","40","800","1749.9349999969127","images/stimuli/spore_stims/simple_16_B_a.gif","images/stimuli/spore_stims/simple_20_A_b.gif","","","","","5","simple_dissimilar","images/stimuli/spore_stims/simple_20_A_b.gif","left","","","","",""
"","null","html-keyboard-response","110","561861","0.0-23.0-0.6","SS1613100522445","","","null","","","","","<p><img src= images/blank.png width =""200"" height = ""200"" style = ""float:right""></p><p><img src=images/blank.png width =""800"" height = ""200""></p>","","","","","","","","","","","",""
"","458.7949999985285","sequential-stimulus-presentation","111","563160","0.0-23.0-1.6","SS1613100522445","trial","","40","800","1258.7949999985285","images/stimuli/spore_stims/simple_16_B_a.gif","images/stimuli/spore_stims/simple_20_A_b.gif","","","","","5","simple_dissimilar","images/stimuli/spore_stims/simple_20_A_b.gif","left","","","","",""
"","null","html-keyboard-response","112","564229","0.0-23.0-0.7","SS1613100522445","","","null","","","","","<p><img src= images/blank.png width =""200"" height = ""200"" style = ""float:right""></p><p><img src=images/blank.png width =""800"" height = ""200""></p>","","","","","","","","","","","",""
"","486.81000000215136","sequential-stimulus-presentation","113","565536","0.0-23.0-1.7","SS1613100522445","trial","","40","800","1286.8100000021514","images/stimuli/spore_stims/simple_16_B_a.gif","images/stimuli/spore_stims/simple_20_A_b.gif","","","","","5","simple_dissimilar","images/stimuli/spore_stims/simple_20_A_b.gif","left","","","","",""
"","2253.284999998985","html-keyboard-response","114","567801","0.0-24.0","SS1613100522445","pref_question","","99","","","","","<video width ='960' height = '540' style='padding-top:8%' autoplay muted><source src='images/stimuli/wall_pref.mp4' type='video/mp4'></video>","3","right","66%","5","","","","","","","",""
"","5434.905000001891","sequential-stimulus-presentation","115","574048","0.0-25.0","SS1613100522445","pref_reveal","","40","800","6234.905000001891","null","null","","","","","5","","","","deviant","","","",""
"","null","html-keyboard-response","116","574947","0.0-26.0-0.0","SS1613100522445","","","null","","","","","<p><img src= images/blank.png width =""200"" height = ""200"" style = ""float:right""></p><p><img src=images/blank.png width =""800"" height = ""200""></p>","","","","","","","","","","","",""
"","8687.644999998156","sequential-stimulus-presentation","117","584449","0.0-26.0-1.0","SS1613100522445","trial","","40","800","9487.644999998156","images/stimuli/spore_stims/complex_13_B_a.gif","images/stimuli/spore_stims/complex_02_A_d.gif","","","","","6","complex_dissimilar","images/stimuli/spore_stims/complex_02_A_d.gif","left","","","","",""
"","null","html-keyboard-response","118","585581","0.0-26.0-0.1","SS1613100522445","","","null","","","","","<p><img src= images/blank.png width =""200"" height = ""200"" style = ""float:right""></p><p><img src=images/blank.png width =""800"" height = ""200""></p>","","","","","","","","","","","",""
"","7037.004999998258","sequential-stimulus-presentation","119","593434","0.0-26.0-1.1","SS1613100522445","trial","","40","800","7837.004999998258","images/stimuli/spore_stims/complex_13_B_a.gif","images/stimuli/spore_stims/complex_02_A_d.gif","","","","","6","complex_dissimilar","images/stimuli/spore_stims/complex_02_A_d.gif","left","","","","",""
"","null","html-keyboard-response","120","594307","0.0-26.0-0.2","SS1613100522445","","","null","","","","","<p><img src= images/blank.png width =""200"" height = ""200"" style = ""float:right""></p><p><img src=images/blank.png width =""800"" height = ""200""></p>","","","","","","","","","","","",""
"","1512.5449999977136","sequential-stimulus-presentation","121","596635","0.0-26.0-1.2","SS1613100522445","trial","","40","800","2312.5449999977136","images/stimuli/spore_stims/complex_13_B_a.gif","images/stimuli/spore_stims/complex_02_A_d.gif","","","","","6","complex_dissimilar","images/stimuli/spore_stims/complex_02_A_d.gif","left","","","","",""
"","null","html-keyboard-response","122","597566","0.0-26.0-0.3","SS1613100522445","","","null","","","","","<p><img src= images/blank.png width =""200"" height = ""200"" style = ""float:right""></p><p><img src=images/blank.png width =""800"" height = ""200""></p>","","","","","","","","","","","",""
"","1082.2899999985239","sequential-stimulus-presentation","123","599473","0.0-26.0-1.3","SS1613100522445","trial","","40","800","1882.2899999985239","images/stimuli/spore_stims/complex_13_B_a.gif","images/stimuli/spore_stims/complex_02_A_d.gif","","","","","6","complex_dissimilar","images/stimuli/spore_stims/complex_02_A_d.gif","left","","","","",""
"","null","html-keyboard-response","124","600480","0.0-26.0-0.4","SS1613100522445","","","null","","","","","<p><img src= images/blank.png width =""200"" height = ""200"" style = ""float:right""></p><p><img src=images/blank.png width =""800"" height = ""200""></p>","","","","","","","","","","","",""
"","1813.9000000009546","sequential-stimulus-presentation","125","603257","0.0-26.0-1.4","SS1613100522445","trial","","40","800","2613.9000000009546","images/stimuli/spore_stims/complex_13_B_a.gif","images/stimuli/spore_stims/complex_02_A_d.gif","","","","","6","complex_dissimilar","images/stimuli/spore_stims/complex_02_A_d.gif","left","","","","",""
"","null","html-keyboard-response","126","604434","0.0-26.0-0.5","SS1613100522445","","","null","","","","","<p><img src= images/blank.png width =""200"" height = ""200"" style = ""float:right""></p><p><img src=images/blank.png width =""800"" height = ""200""></p>","","","","","","","","","","","",""
"","2187.0799999961164","sequential-stimulus-presentation","127","607433","0.0-26.0-1.5","SS1613100522445","trial","","40","800","2987.0799999961164","images/stimuli/spore_stims/complex_13_B_a.gif","images/stimuli/spore_stims/complex_02_A_d.gif","","","","","6","complex_dissimilar","images/stimuli/spore_stims/complex_02_A_d.gif","left","","","","",""
"","null","html-keyboard-response","128","608249","0.0-26.0-0.6","SS1613100522445","","","null","","","","","<p><img src= images/blank.png width =""200"" height = ""200"" style = ""float:right""></p><p><img src=images/blank.png width =""800"" height = ""200""></p>","","","","","","","","","","","",""
"","854.3900000003632","sequential-stimulus-presentation","129","609929","0.0-26.0-1.6","SS1613100522445","trial","","40","800","1654.3900000003632","images/stimuli/spore_stims/complex_13_B_a.gif","images/stimuli/spore_stims/complex_02_A_d.gif","","","","","6","complex_dissimilar","images/stimuli/spore_stims/complex_02_A_d.gif","left","","","","",""
"","null","html-keyboard-response","130","611140","0.0-26.0-0.7","SS1613100522445","","","null","","","","","<p><img src= images/blank.png width =""200"" height = ""200"" style = ""float:right""></p><p><img src=images/blank.png width =""800"" height = ""200""></p>","","","","","","","","","","","",""
"","11122.374999999069","sequential-stimulus-presentation","131","623081","0.0-26.0-1.7","SS1613100522445","trial","","40","800","11922.374999999069","images/stimuli/spore_stims/complex_13_B_a.gif","images/stimuli/spore_stims/complex_02_A_d.gif","","","","","6","complex_dissimilar","images/stimuli/spore_stims/complex_13_B_a.gif","middle","","","","",""
"","2859.344999997178","html-keyboard-response","132","625952","0.0-27.0","SS1613100522445","pref_question","","98","","","","","<video width ='960' height = '540' style='padding-top:8%' autoplay muted><source src='images/stimuli/wall_pref.mp4' type='video/mp4'></video>","2","middle","45%","6","","","","","","","",""
"","4681.604999998002","sequential-stimulus-presentation","133","631448","0.0-28.0","SS1613100522445","pref_reveal","","40","800","5481.604999998002","null","null","","","","","6","","","","deviant","","","",""
"","null","html-keyboard-response","134","632543","0.0-29.0-0.0","SS1613100522445","","","null","","","","","<p><img src= images/blank.png width =""200"" height = ""200"" style = ""float:right""></p><p><img src=images/blank.png width =""800"" height = ""200""></p>","","","","","","","","","","","",""
"","9570.140000003506","sequential-stimulus-presentation","135","642928","0.0-29.0-1.0","SS1613100522445","trial","","40","800","10370.140000003506","images/stimuli/spore_stims/simple_07_A_c.gif","images/stimuli/spore_stims/simple_07_B_c.gif","","","","","7","simple_similar","images/stimuli/spore_stims/simple_07_B_c.gif","middle","","","","",""
"","null","html-keyboard-response","136","643926","0.0-29.0-0.1","SS1613100522445","","","null","","","","","<p><img src= images/blank.png width =""200"" height = ""200"" style = ""float:right""></p><p><img src=images/blank.png width =""800"" height = ""200""></p>","","","","","","","","","","","",""
"","876.9249999969034","sequential-stimulus-presentation","137","645633","0.0-29.0-1.1","SS1613100522445","trial","","40","800","1676.9249999969034","images/stimuli/spore_stims/simple_07_A_c.gif","images/stimuli/spore_stims/simple_07_B_c.gif","","","","","7","simple_similar","images/stimuli/spore_stims/simple_07_B_c.gif","middle","","","","",""
"","null","html-keyboard-response","138","646598","0.0-29.0-0.2","SS1613100522445","","","null","","","","","<p><img src= images/blank.png width =""200"" height = ""200"" style = ""float:right""></p><p><img src=images/blank.png width =""800"" height = ""200""></p>","","","","","","","","","","","",""
"","403.78000000061","sequential-stimulus-presentation","139","647817","0.0-29.0-1.2","SS1613100522445","trial","","40","800","1203.78000000061","images/stimuli/spore_stims/simple_07_A_c.gif","images/stimuli/spore_stims/simple_07_B_c.gif","","","","","7","simple_similar","images/stimuli/spore_stims/simple_07_B_c.gif","middle","","","","",""
"","null","html-keyboard-response","140","648716","0.0-29.0-0.3","SS1613100522445","","","null","","","","","<p><img src= images/blank.png width =""200"" height = ""200"" style = ""float:right""></p><p><img src=images/blank.png width =""800"" height = ""200""></p>","","","","","","","","","","","",""
"","671.3900000031572","sequential-stimulus-presentation","141","650201","0.0-29.0-1.3","SS1613100522445","trial","","40","800","1471.3900000031572","images/stimuli/spore_stims/simple_07_A_c.gif","images/stimuli/spore_stims/simple_07_B_c.gif","","","","","7","simple_similar","images/stimuli/spore_stims/simple_07_B_c.gif","middle","","","","",""
"","null","html-keyboard-response","142","651373","0.0-29.0-0.4","SS1613100522445","","","null","","","","","<p><img src= images/blank.png width =""200"" height = ""200"" style = ""float:right""></p><p><img src=images/blank.png width =""800"" height = ""200""></p>","","","","","","","","","","","",""
"","824.2150000005495","sequential-stimulus-presentation","143","653013","0.0-29.0-1.4","SS1613100522445","trial","","40","800","1624.2150000005495","images/stimuli/spore_stims/simple_07_A_c.gif","images/stimuli/spore_stims/simple_07_B_c.gif","","","","","7","simple_similar","images/stimuli/spore_stims/simple_07_B_c.gif","middle","","","","",""
"","null","html-keyboard-response","144","653876","0.0-29.0-0.5","SS1613100522445","","","null","","","","","<p><img src= images/blank.png width =""200"" height = ""200"" style = ""float:right""></p><p><img src=images/blank.png width =""800"" height = ""200""></p>","","","","","","","","","","","",""
"","734.519999998156","sequential-stimulus-presentation","145","655426","0.0-29.0-1.5","SS1613100522445","trial","","40","800","1534.519999998156","images/stimuli/spore_stims/simple_07_A_c.gif","images/stimuli/spore_stims/simple_07_B_c.gif","","","","","7","simple_similar","images/stimuli/spore_stims/simple_07_B_c.gif","middle","","","","",""
"","null","html-keyboard-response","146","656718","0.0-29.0-0.6","SS1613100522445","","","null","","","","","<p><img src= images/blank.png width =""200"" height = ""200"" style = ""float:right""></p><p><img src=images/blank.png width =""800"" height = ""200""></p>","","","","","","","","","","","",""
"","1859.7300000037067","sequential-stimulus-presentation","147","659394","0.0-29.0-1.6","SS1613100522445","trial","","40","800","2659.7300000037067","images/stimuli/spore_stims/simple_07_A_c.gif","images/stimuli/spore_stims/simple_07_B_c.gif","","","","","7","simple_similar","images/stimuli/spore_stims/simple_07_B_c.gif","middle","","","","",""
"","null","html-keyboard-response","148","660345","0.0-29.0-0.7","SS1613100522445","","","null","","","","","<p><img src= images/blank.png width =""200"" height = ""200"" style = ""float:right""></p><p><img src=images/blank.png width =""800"" height = ""200""></p>","","","","","","","","","","","",""
"","18320.554999998538","sequential-stimulus-presentation","149","679521","0.0-29.0-1.7","SS1613100522445","trial","","40","800","19120.554999998538","images/stimuli/spore_stims/simple_07_A_c.gif","images/stimuli/spore_stims/simple_07_B_c.gif","","","","","7","simple_similar","images/stimuli/spore_stims/simple_07_A_c.gif","left","","","","",""
"","1746.8350000053179","html-keyboard-response","150","681280","0.0-30.0","SS1613100522445","pref_question","","97","","","","","<video width ='960' height = '540' style='padding-top:8%' autoplay muted><source src='images/stimuli/wall_pref.mp4' type='video/mp4'></video>","1","left","25%","7","","","","","","","",""
"","1777.2100000001956","sequential-stimulus-presentation","151","683872","0.0-31.0","SS1613100522445","pref_reveal","","40","800","2577.2100000001956","null","null","","","","","7","","","","deviant","","","",""
"","null","html-keyboard-response","152","684779","0.0-32.0-0.0","SS1613100522445","","","null","","","","","<p><img src= images/blank.png width =""200"" height = ""200"" style = ""float:right""></p><p><img src=images/blank.png width =""800"" height = ""200""></p>","","","","","","","","","","","",""
"","2544.7249999998603","sequential-stimulus-presentation","153","688139","0.0-32.0-1.0","SS1613100522445","trial","","40","800","3344.7249999998603","images/stimuli/spore_stims/complex_08_A_a.gif","images/stimuli/spore_stims/complex_13_A_d.gif","","","","","8","complex_dissimilar","images/stimuli/spore_stims/complex_13_A_d.gif","middle","","","","",""
"","null","html-keyboard-response","154","689367","0.0-32.0-0.1","SS1613100522445","","","null","","","","","<p><img src= images/blank.png width =""200"" height = ""200"" style = ""float:right""></p><p><img src=images/blank.png width =""800"" height = ""200""></p>","","","","","","","","","","","",""
"","2817.780000004801","sequential-stimulus-presentation","155","693001","0.0-32.0-1.1","SS1613100522445","trial","","40","800","3617.780000004801","images/stimuli/spore_stims/complex_08_A_a.gif","images/stimuli/spore_stims/complex_13_A_d.gif","","","","","8","complex_dissimilar","images/stimuli/spore_stims/complex_13_A_d.gif","middle","","","","",""
"","null","html-keyboard-response","156","693921","0.0-32.0-0.2","SS1613100522445","","","null","","","","","<p><img src= images/blank.png width =""200"" height = ""200"" style = ""float:right""></p><p><img src=images/blank.png width =""800"" height = ""200""></p>","","","","","","","","","","","",""
"","2311.19000000041","sequential-stimulus-presentation","157","697048","0.0-32.0-1.2","SS1613100522445","trial","","40","800","3111.19000000041","images/stimuli/spore_stims/complex_08_A_a.gif","images/stimuli/spore_stims/complex_13_A_d.gif","","","","","8","complex_dissimilar","images/stimuli/spore_stims/complex_13_A_d.gif","middle","","","","",""
"","null","html-keyboard-response","158","697957","0.0-32.0-0.3","SS1613100522445","","","null","","","","","<p><img src= images/blank.png width =""200"" height = ""200"" style = ""float:right""></p><p><img src=images/blank.png width =""800"" height = ""200""></p>","","","","","","","","","","","",""
"","7737.8649999954505","sequential-stimulus-presentation","159","706512","0.0-32.0-1.3","SS1613100522445","trial","","40","800","8537.86499999545","images/stimuli/spore_stims/complex_08_A_a.gif","images/stimuli/spore_stims/complex_13_A_d.gif","","","","","8","complex_dissimilar","images/stimuli/spore_stims/complex_13_A_d.gif","middle","","","","",""
"","null","html-keyboard-response","160","707531","0.0-32.0-0.4","SS1613100522445","","","null","","","","","<p><img src= images/blank.png width =""200"" height = ""200"" style = ""float:right""></p><p><img src=images/blank.png width =""800"" height = ""200""></p>","","","","","","","","","","","",""
"","1174.220000000787","sequential-stimulus-presentation","161","709522","0.0-32.0-1.4","SS1613100522445","trial","","40","800","1974.220000000787","images/stimuli/spore_stims/complex_08_A_a.gif","images/stimuli/spore_stims/complex_13_A_d.gif","","","","","8","complex_dissimilar","images/stimuli/spore_stims/complex_13_A_d.gif","middle","","","","",""
"","null","html-keyboard-response","162","710447","0.0-32.0-0.5","SS1613100522445","","","null","","","","","<p><img src= images/blank.png width =""200"" height = ""200"" style = ""float:right""></p><p><img src=images/blank.png width =""800"" height = ""200""></p>","","","","","","","","","","","",""
"","9066.3099999947","sequential-stimulus-presentation","163","720330","0.0-32.0-1.5","SS1613100522445","trial","","40","800","9866.3099999947","images/stimuli/spore_stims/complex_08_A_a.gif","images/stimuli/spore_stims/complex_13_A_d.gif","","","","","8","complex_dissimilar","images/stimuli/spore_stims/complex_13_A_d.gif","middle","","","","",""
"","null","html-keyboard-response","164","721272","0.0-32.0-0.6","SS1613100522445","","","null","","","","","<p><img src= images/blank.png width =""200"" height = ""200"" style = ""float:right""></p><p><img src=images/blank.png width =""800"" height = ""200""></p>","","","","","","","","","","","",""
"","3232.864999998128","sequential-stimulus-presentation","165","725321","0.0-32.0-1.6","SS1613100522445","trial","","40","800","4032.864999998128","images/stimuli/spore_stims/complex_08_A_a.gif","images/stimuli/spore_stims/complex_13_A_d.gif","","","","","8","complex_dissimilar","images/stimuli/spore_stims/complex_08_A_a.gif","right","","","","",""
"","null","html-keyboard-response","166","726248","0.0-32.0-0.7","SS1613100522445","","","null","","","","","<p><img src= images/blank.png width =""200"" height = ""200"" style = ""float:right""></p><p><img src=images/blank.png width =""800"" height = ""200""></p>","","","","","","","","","","","",""
"","18280.079999996815","sequential-stimulus-presentation","167","745345","0.0-32.0-1.7","SS1613100522445","trial","","40","800","19080.079999996815","images/stimuli/spore_stims/complex_08_A_a.gif","images/stimuli/spore_stims/complex_13_A_d.gif","","","","","8","complex_dissimilar","images/stimuli/spore_stims/complex_13_A_d.gif","middle","","","","",""
"","11368.95999999973","html-keyboard-response","168","756729","0.0-33.0","SS1613100522445","pref_question","","98","","","","","<video width ='960' height = '540' style='padding-top:8%' autoplay muted><source src='images/stimuli/wall_pref.mp4' type='video/mp4'></video>","2","middle","45%","8","","","","","","","",""
"","1745.2649999976857","sequential-stimulus-presentation","169","759291","0.0-34.0","SS1613100522445","pref_reveal","","40","800","2545.2649999976857","null","null","","","","","8","","","","background","","","",""
"","null","html-keyboard-response","170","760254","0.0-35.0-0.0","SS1613100522445","","","null","","","","","<p><img src= images/blank.png width =""200"" height = ""200"" style = ""float:right""></p><p><img src=images/blank.png width =""800"" height = ""200""></p>","","","","","","","","","","","",""
"","10418.409999998286","sequential-stimulus-presentation","171","771490","0.0-35.0-1.0","SS1613100522445","trial","","40","800","11218.409999998286","images/stimuli/spore_stims/complex_07_A_b.gif","images/stimuli/spore_stims/complex_04_B_a.gif","","","","","9","complex_dissimilar","images/stimuli/spore_stims/complex_04_B_a.gif","left","","","","",""
"","null","html-keyboard-response","172","772539","0.0-35.0-0.1","SS1613100522445","","","null","","","","","<p><img src= images/blank.png width =""200"" height = ""200"" style = ""float:right""></p><p><img src=images/blank.png width =""800"" height = ""200""></p>","","","","","","","","","","","",""
"","1437.4600000010105","sequential-stimulus-presentation","173","774793","0.0-35.0-1.1","SS1613100522445","trial","","40","800","2237.4600000010105","images/stimuli/spore_stims/complex_07_A_b.gif","images/stimuli/spore_stims/complex_04_B_a.gif","","","","","9","complex_dissimilar","images/stimuli/spore_stims/complex_04_B_a.gif","left","","","","",""
"","null","html-keyboard-response","174","775900","0.0-35.0-0.2","SS1613100522445","","","null","","","","","<p><img src= images/blank.png width =""200"" height = ""200"" style = ""float:right""></p><p><img src=images/blank.png width =""800"" height = ""200""></p>","","","","","","","","","","","",""
"","3733.640000005951","sequential-stimulus-presentation","175","780449","0.0-35.0-1.2","SS1613100522445","trial","","40","800","4533.640000005951","images/stimuli/spore_stims/complex_07_A_b.gif","images/stimuli/spore_stims/complex_04_B_a.gif","","","","","9","complex_dissimilar","images/stimuli/spore_stims/complex_04_B_a.gif","left","","","","",""
"","null","html-keyboard-response","176","781548","0.0-35.0-0.3","SS1613100522445","","","null","","","","","<p><img src= images/blank.png width =""200"" height = ""200"" style = ""float:right""></p><p><img src=images/blank.png width =""800"" height = ""200""></p>","","","","","","","","","","","",""
"","661.4750000007916","sequential-stimulus-presentation","177","783025","0.0-35.0-1.3","SS1613100522445","trial","","40","800","1461.4750000007916","images/stimuli/spore_stims/complex_07_A_b.gif","images/stimuli/spore_stims/complex_04_B_a.gif","","","","","9","complex_dissimilar","images/stimuli/spore_stims/complex_04_B_a.gif","left","","","","",""
"","null","html-keyboard-response","178","784266","0.0-35.0-0.4","SS1613100522445","","","null","","","","","<p><img src= images/blank.png width =""200"" height = ""200"" style = ""float:right""></p><p><img src=images/blank.png width =""800"" height = ""200""></p>","","","","","","","","","","","",""
"","1472.1500000015367","sequential-stimulus-presentation","179","786553","0.0-35.0-1.4","SS1613100522445","trial","","40","800","2272.1500000015367","images/stimuli/spore_stims/complex_07_A_b.gif","images/stimuli/spore_stims/complex_04_B_a.gif","","","","","9","complex_dissimilar","images/stimuli/spore_stims/complex_04_B_a.gif","left","","","","",""
"","null","html-keyboard-response","180","787649","0.0-35.0-0.5","SS1613100522445","","","null","","","","","<p><img src= images/blank.png width =""200"" height = ""200"" style = ""float:right""></p><p><img src=images/blank.png width =""800"" height = ""200""></p>","","","","","","","","","","","",""
"","492.1249999969732","sequential-stimulus-presentation","181","788961","0.0-35.0-1.5","SS1613100522445","trial","","40","800","1292.1249999969732","images/stimuli/spore_stims/complex_07_A_b.gif","images/stimuli/spore_stims/complex_04_B_a.gif","","","","","9","complex_dissimilar","images/stimuli/spore_stims/complex_04_B_a.gif","left","","","","",""
"","null","html-keyboard-response","182","789913","0.0-35.0-0.6","SS1613100522445","","","null","","","","","<p><img src= images/blank.png width =""200"" height = ""200"" style = ""float:right""></p><p><img src=images/blank.png width =""800"" height = ""200""></p>","","","","","","","","","","","",""
"","304.55999999691267","sequential-stimulus-presentation","183","791033","0.0-35.0-1.6","SS1613100522445","trial","","40","800","1104.5599999969127","images/stimuli/spore_stims/complex_07_A_b.gif","images/stimuli/spore_stims/complex_04_B_a.gif","","","","","9","complex_dissimilar","images/stimuli/spore_stims/complex_04_B_a.gif","left","","","","",""
"","null","html-keyboard-response","184","792084","0.0-35.0-0.7","SS1613100522445","","","null","","","","","<p><img src= images/blank.png width =""200"" height = ""200"" style = ""float:right""></p><p><img src=images/blank.png width =""800"" height = ""200""></p>","","","","","","","","","","","",""
"","15525.44000000495","sequential-stimulus-presentation","185","808425","0.0-35.0-1.7","SS1613100522445","trial","","40","800","16325.44000000495","images/stimuli/spore_stims/complex_07_A_b.gif","images/stimuli/spore_stims/complex_04_B_a.gif","","","","","9","complex_dissimilar","images/stimuli/spore_stims/complex_07_A_b.gif","right","","","","",""
"","1600.9199999971315","html-keyboard-response","186","810040","0.0-36.0","SS1613100522445","pref_question","","99","","","","","<video width ='960' height = '540' style='padding-top:8%' autoplay muted><source src='images/stimuli/wall_pref.mp4' type='video/mp4'></video>","3","right","66%","9","","","","","","","",""
"","12960.05499999586","sequential-stimulus-presentation","187","823857","0.0-37.0","SS1613100522445","pref_reveal","","40","800","13760.05499999586","null","null","","","","","9","","","","deviant","","","",""
"","null","html-keyboard-response","188","824811","0.0-38.0-0.0","SS1613100522445","","","null","","","","","<p><img src= images/blank.png width =""200"" height = ""200"" style = ""float:right""></p><p><img src=images/blank.png width =""800"" height = ""200""></p>","","","","","","","","","","","",""
"","15891.70000000007","sequential-stimulus-presentation","189","841520","0.0-38.0-1.0","SS1613100522445","trial","","40","800","16691.70000000007","images/stimuli/spore_stims/complex_01_A_c.gif","images/stimuli/spore_stims/complex_01_B_c.gif","","","","","10","complex_similar","images/stimuli/spore_stims/complex_01_B_c.gif","right","","","","",""
"","null","html-keyboard-response","190","842410","0.0-38.0-0.1","SS1613100522445","","","null","","","","","<p><img src= images/blank.png width =""200"" height = ""200"" style = ""float:right""></p><p><img src=images/blank.png width =""800"" height = ""200""></p>","","","","","","","","","","","",""
"","1917.2700000053737","sequential-stimulus-presentation","191","845144","0.0-38.0-1.1","SS1613100522445","trial","","40","800","2717.2700000053737","images/stimuli/spore_stims/complex_01_A_c.gif","images/stimuli/spore_stims/complex_01_B_c.gif","","","","","10","complex_similar","images/stimuli/spore_stims/complex_01_B_c.gif","right","","","","",""
"","null","html-keyboard-response","192","846120","0.0-38.0-0.2","SS1613100522445","","","null","","","","","<p><img src= images/blank.png width =""200"" height = ""200"" style = ""float:right""></p><p><img src=images/blank.png width =""800"" height = ""200""></p>","","","","","","","","","","","",""
"","1879.5249999966472","sequential-stimulus-presentation","193","848816","0.0-38.0-1.2","SS1613100522445","trial","","40","800","2679.5249999966472","images/stimuli/spore_stims/complex_01_A_c.gif","images/stimuli/spore_stims/complex_01_B_c.gif","","","","","10","complex_similar","images/stimuli/spore_stims/complex_01_B_c.gif","right","","","","",""
"","null","html-keyboard-response","194","850036","0.0-38.0-0.3","SS1613100522445","","","null","","","","","<p><img src= images/blank.png width =""200"" height = ""200"" style = ""float:right""></p><p><img src=images/blank.png width =""800"" height = ""200""></p>","","","","","","","","","","","",""
"","1716.200000002631","sequential-stimulus-presentation","195","852569","0.0-38.0-1.3","SS1613100522445","trial","","40","800","2516.200000002631","images/stimuli/spore_stims/complex_01_A_c.gif","images/stimuli/spore_stims/complex_01_B_c.gif","","","","","10","complex_similar","images/stimuli/spore_stims/complex_01_B_c.gif","right","","","","",""
"","null","html-keyboard-response","196","853583","0.0-38.0-0.4","SS1613100522445","","","null","","","","","<p><img src= images/blank.png width =""200"" height = ""200"" style = ""float:right""></p><p><img src=images/blank.png width =""800"" height = ""200""></p>","","","","","","","","","","","",""
"","9343.244999996386","sequential-stimulus-presentation","197","863744","0.0-38.0-1.4","SS1613100522445","trial","","40","800","10143.244999996386","images/stimuli/spore_stims/complex_01_A_c.gif","images/stimuli/spore_stims/complex_01_B_c.gif","","","","","10","complex_similar","images/stimuli/spore_stims/complex_01_A_c.gif","left","","","","",""
"","null","html-keyboard-response","198","865011","0.0-38.0-0.5","SS1613100522445","","","null","","","","","<p><img src= images/blank.png width =""200"" height = ""200"" style = ""float:right""></p><p><img src=images/blank.png width =""800"" height = ""200""></p>","","","","","","","","","","","",""
"","2234.8199999979697","sequential-stimulus-presentation","199","868072","0.0-38.0-1.5","SS1613100522445","trial","","40","800","3034.8199999979697","images/stimuli/spore_stims/complex_01_A_c.gif","images/stimuli/spore_stims/complex_01_B_c.gif","","","","","10","complex_similar","images/stimuli/spore_stims/complex_01_B_c.gif","right","","","","",""
"","null","html-keyboard-response","200","869130","0.0-38.0-0.6","SS1613100522445","","","null","","","","","<p><img src= images/blank.png width =""200"" height = ""200"" style = ""float:right""></p><p><img src=images/blank.png width =""800"" height = ""200""></p>","","","","","","","","","","","",""
"","1905.0050000004703","sequential-stimulus-presentation","201","871855","0.0-38.0-1.6","SS1613100522445","trial","","40","800","2705.0050000004703","images/stimuli/spore_stims/complex_01_A_c.gif","images/stimuli/spore_stims/complex_01_B_c.gif","","","","","10","complex_similar","images/stimuli/spore_stims/complex_01_B_c.gif","right","","","","",""
"","null","html-keyboard-response","202","873132","0.0-38.0-0.7","SS1613100522445","","","null","","","","","<p><img src= images/blank.png width =""200"" height = ""200"" style = ""float:right""></p><p><img src=images/blank.png width =""800"" height = ""200""></p>","","","","","","","","","","","",""
"","1545.865000000107","sequential-stimulus-presentation","203","875496","0.0-38.0-1.7","SS1613100522445","trial","","40","800","2345.865000000107","images/stimuli/spore_stims/complex_01_A_c.gif","images/stimuli/spore_stims/complex_01_B_c.gif","","","","","10","complex_similar","images/stimuli/spore_stims/complex_01_B_c.gif","right","","","","",""
"","1657.3849999986123","html-keyboard-response","204","877168","0.0-39.0","SS1613100522445","pref_question","","97","","","","","<video width ='960' height = '540' style='padding-top:8%' autoplay muted><source src='images/stimuli/wall_pref.mp4' type='video/mp4'></video>","1","left","25%","10","","","","","","","",""
"","4838.779999998165","sequential-stimulus-presentation","205","882823","0.0-40.0","SS1613100522445","pref_reveal","","40","800","5638.779999998165","null","null","","","","","10","","","","deviant","","","",""
"","null","html-keyboard-response","206","883801","0.0-41.0-0.0","SS1613100522445","","","null","","","","","<p><img src= images/blank.png width =""200"" height = ""200"" style = ""float:right""></p><p><img src=images/blank.png width =""800"" height = ""200""></p>","","","","","","","","","","","",""
"","17050.185000000056","sequential-stimulus-presentation","207","901680","0.0-41.0-1.0","SS1613100522445","trial","","40","800","17850.185000000056","images/stimuli/spore_stims/complex_12_B_a.gif","images/stimuli/spore_stims/complex_12_A_a.gif","","","","","11","complex_similar","images/stimuli/spore_stims/complex_12_A_a.gif","left","","","","",""
"","null","html-keyboard-response","208","902762","0.0-41.0-0.1","SS1613100522445","","","null","","","","","<p><img src= images/blank.png width =""200"" height = ""200"" style = ""float:right""></p><p><img src=images/blank.png width =""800"" height = ""200""></p>","","","","","","","","","","","",""
"","545.2199999999721","sequential-stimulus-presentation","209","904128","0.0-41.0-1.1","SS1613100522445","trial","","40","800","1345.219999999972","images/stimuli/spore_stims/complex_12_B_a.gif","images/stimuli/spore_stims/complex_12_A_a.gif","","","","","11","complex_similar","images/stimuli/spore_stims/complex_12_A_a.gif","left","","","","",""
"","null","html-keyboard-response","210","905351","0.0-41.0-0.2","SS1613100522445","","","null","","","","","<p><img src= images/blank.png width =""200"" height = ""200"" style = ""float:right""></p><p><img src=images/blank.png width =""800"" height = ""200""></p>","","","","","","","","","","","",""
"","150.14000000525266","sequential-stimulus-presentation","211","906330","0.0-41.0-1.2","SS1613100522445","trial","","40","800","950.1400000052527","images/stimuli/spore_stims/complex_12_B_a.gif","images/stimuli/spore_stims/complex_12_A_a.gif","","","","","11","complex_similar","images/stimuli/spore_stims/complex_12_A_a.gif","left","","","","",""
"","null","html-keyboard-response","212","907507","0.0-41.0-0.3","SS1613100522445","","","null","","","","","<p><img src= images/blank.png width =""200"" height = ""200"" style = ""float:right""></p><p><img src=images/blank.png width =""800"" height = ""200""></p>","","","","","","","","","","","",""
"","550.9650000021793","sequential-stimulus-presentation","213","908928","0.0-41.0-1.3","SS1613100522445","trial","","40","800","1350.9650000021793","images/stimuli/spore_stims/complex_12_B_a.gif","images/stimuli/spore_stims/complex_12_A_a.gif","","","","","11","complex_similar","images/stimuli/spore_stims/complex_12_A_a.gif","left","","","","",""
"","null","html-keyboard-response","214","910231","0.0-41.0-0.4","SS1613100522445","","","null","","","","","<p><img src= images/blank.png width =""200"" height = ""200"" style = ""float:right""></p><p><img src=images/blank.png width =""800"" height = ""200""></p>","","","","","","","","","","","",""
"","12698.589999999967","sequential-stimulus-presentation","215","923761","0.0-41.0-1.4","SS1613100522445","trial","","40","800","13498.589999999967","images/stimuli/spore_stims/complex_12_B_a.gif","images/stimuli/spore_stims/complex_12_A_a.gif","","","","","11","complex_similar","images/stimuli/spore_stims/complex_12_B_a.gif","right","","","","",""
"","null","html-keyboard-response","216","924828","0.0-41.0-0.5","SS1613100522445","","","null","","","","","<p><img src= images/blank.png width =""200"" height = ""200"" style = ""float:right""></p><p><img src=images/blank.png width =""800"" height = ""200""></p>","","","","","","","","","","","",""
"","1057.2600000014063","sequential-stimulus-presentation","217","926703","0.0-41.0-1.5","SS1613100522445","trial","","40","800","1857.2600000014063","images/stimuli/spore_stims/complex_12_B_a.gif","images/stimuli/spore_stims/complex_12_A_a.gif","","","","","11","complex_similar","images/stimuli/spore_stims/complex_12_A_a.gif","left","","","","",""
"","null","html-keyboard-response","218","927698","0.0-41.0-0.6","SS1613100522445","","","null","","","","","<p><img src= images/blank.png width =""200"" height = ""200"" style = ""float:right""></p><p><img src=images/blank.png width =""800"" height = ""200""></p>","","","","","","","","","","","",""
"","700.4499999966938","sequential-stimulus-presentation","219","929215","0.0-41.0-1.6","SS1613100522445","trial","","40","800","1500.4499999966938","images/stimuli/spore_stims/complex_12_B_a.gif","images/stimuli/spore_stims/complex_12_A_a.gif","","","","","11","complex_similar","images/stimuli/spore_stims/complex_12_A_a.gif","left","","","","",""
"","null","html-keyboard-response","220","930246","0.0-41.0-0.7","SS1613100522445","","","null","","","","","<p><img src= images/blank.png width =""200"" height = ""200"" style = ""float:right""></p><p><img src=images/blank.png width =""800"" height = ""200""></p>","","","","","","","","","","","",""
"","839.334999996936","sequential-stimulus-presentation","221","931903","0.0-41.0-1.7","SS1613100522445","trial","","40","800","1639.334999996936","images/stimuli/spore_stims/complex_12_B_a.gif","images/stimuli/spore_stims/complex_12_A_a.gif","","","","","11","complex_similar","images/stimuli/spore_stims/complex_12_A_a.gif","left","","","","",""
"","1919.6700000029523","html-keyboard-response","222","933840","0.0-42.0","SS1613100522445","pref_question","","99","","","","","<video width ='960' height = '540' style='padding-top:8%' autoplay muted><source src='images/stimuli/wall_pref.mp4' type='video/mp4'></video>","3","right","66%","11","","","","","","","",""
"","7581.384999997681","sequential-stimulus-presentation","223","942239","0.0-43.0","SS1613100522445","pref_reveal","","40","800","8381.384999997681","null","null","","","","","11","","","","deviant","","","",""
"","null","html-keyboard-response","224","943076","0.0-44.0-0.0","SS1613100522445","","","null","","","","","<p><img src= images/blank.png width =""200"" height = ""200"" style = ""float:right""></p><p><img src=images/blank.png width =""800"" height = ""200""></p>","","","","","","","","","","","",""
"","17678.44000000332","sequential-stimulus-presentation","225","961577","0.0-44.0-1.0","SS1613100522445","trial","","40","800","18478.44000000332","images/stimuli/spore_stims/complex_18_B_a.gif","images/stimuli/spore_stims/complex_18_A_a.gif","","","","","12","complex_similar","images/stimuli/spore_stims/complex_18_A_a.gif","left","","","","",""
"","null","html-keyboard-response","226","962589","0.0-44.0-0.1","SS1613100522445","","","null","","","","","<p><img src= images/blank.png width =""200"" height = ""200"" style = ""float:right""></p><p><img src=images/blank.png width =""800"" height = ""200""></p>","","","","","","","","","","","",""
"","840.8600000038277","sequential-stimulus-presentation","227","964248","0.0-44.0-1.1","SS1613100522445","trial","","40","800","1640.8600000038277","images/stimuli/spore_stims/complex_18_B_a.gif","images/stimuli/spore_stims/complex_18_A_a.gif","","","","","12","complex_similar","images/stimuli/spore_stims/complex_18_A_a.gif","left","","","","",""
"","null","html-keyboard-response","228","965278","0.0-44.0-0.2","SS1613100522445","","","null","","","","","<p><img src= images/blank.png width =""200"" height = ""200"" style = ""float:right""></p><p><img src=images/blank.png width =""800"" height = ""200""></p>","","","","","","","","","","","",""
"","606.4499999992549","sequential-stimulus-presentation","229","966704","0.0-44.0-1.2","SS1613100522445","trial","","40","800","1406.449999999255","images/stimuli/spore_stims/complex_18_B_a.gif","images/stimuli/spore_stims/complex_18_A_a.gif","","","","","12","complex_similar","images/stimuli/spore_stims/complex_18_A_a.gif","left","","","","",""
"","null","html-keyboard-response","230","967652","0.0-44.0-0.3","SS1613100522445","","","null","","","","","<p><img src= images/blank.png width =""200"" height = ""200"" style = ""float:right""></p><p><img src=images/blank.png width =""800"" height = ""200""></p>","","","","","","","","","","","",""
"","538.0200000000186","sequential-stimulus-presentation","231","969008","0.0-44.0-1.3","SS1613100522445","trial","","40","800","1338.0200000000186","images/stimuli/spore_stims/complex_18_B_a.gif","images/stimuli/spore_stims/complex_18_A_a.gif","","","","","12","complex_similar","images/stimuli/spore_stims/complex_18_A_a.gif","left","","","","",""
"","null","html-keyboard-response","232","969874","0.0-44.0-0.4","SS1613100522445","","","null","","","","","<p><img src= images/blank.png width =""200"" height = ""200"" style = ""float:right""></p><p><img src=images/blank.png width =""800"" height = ""200""></p>","","","","","","","","","","","",""
"","501.3199999957578","sequential-stimulus-presentation","233","971192","0.0-44.0-1.4","SS1613100522445","trial","","40","800","1301.3199999957578","images/stimuli/spore_stims/complex_18_B_a.gif","images/stimuli/spore_stims/complex_18_A_a.gif","","","","","12","complex_similar","images/stimuli/spore_stims/complex_18_A_a.gif","left","","","","",""
"","null","html-keyboard-response","234","972151","0.0-44.0-0.5","SS1613100522445","","","null","","","","","<p><img src= images/blank.png width =""200"" height = ""200"" style = ""float:right""></p><p><img src=images/blank.png width =""800"" height = ""200""></p>","","","","","","","","","","","",""
"","6263.760000001639","sequential-stimulus-presentation","235","979243","0.0-44.0-1.5","SS1613100522445","trial","","40","800","7063.760000001639","images/stimuli/spore_stims/complex_18_B_a.gif","images/stimuli/spore_stims/complex_18_A_a.gif","","","","","12","complex_similar","images/stimuli/spore_stims/complex_18_B_a.gif","middle","","","","",""
"","null","html-keyboard-response","236","980530","0.0-44.0-0.6","SS1613100522445","","","null","","","","","<p><img src= images/blank.png width =""200"" height = ""200"" style = ""float:right""></p><p><img src=images/blank.png width =""800"" height = ""200""></p>","","","","","","","","","","","",""
"","5354.475000000093","sequential-stimulus-presentation","237","986704","0.0-44.0-1.6","SS1613100522445","trial","","40","800","6154.475000000093","images/stimuli/spore_stims/complex_18_B_a.gif","images/stimuli/spore_stims/complex_18_A_a.gif","","","","","12","complex_similar","images/stimuli/spore_stims/complex_18_A_a.gif","left","","","","",""
"","null","html-keyboard-response","238","987822","0.0-44.0-0.7","SS1613100522445","","","null","","","","","<p><img src= images/blank.png width =""200"" height = ""200"" style = ""float:right""></p><p><img src=images/blank.png width =""800"" height = ""200""></p>","","","","","","","","","","","",""
"","9955.605000002775","sequential-stimulus-presentation","239","998600","0.0-44.0-1.7","SS1613100522445","trial","","40","800","10755.605000002775","images/stimuli/spore_stims/complex_18_B_a.gif","images/stimuli/spore_stims/complex_18_A_a.gif","","","","","12","complex_similar","images/stimuli/spore_stims/complex_18_A_a.gif","left","","","","",""
"","2342.375000000233","html-keyboard-response","240","1000959","0.0-45.0","SS1613100522445","pref_question","","97","","","","","<video width ='960' height = '540' style='padding-top:8%' autoplay muted><source src='images/stimuli/wall_pref.mp4' type='video/mp4'></video>","1","left","25%","12","","","","","","","",""
"","1004.3899999946589","sequential-stimulus-presentation","241","1002783","0.0-46.0","SS1613100522445","pref_reveal","","40","800","1804.3899999946589","null","null","","","","","12","","","","background","","","",""
"","null","html-keyboard-response","242","1003873","0.0-47.0-0.0","SS1613100522445","","","null","","","","","<p><img src= images/blank.png width =""200"" height = ""200"" style = ""float:right""></p><p><img src=images/blank.png width =""800"" height = ""200""></p>","","","","","","","","","","","",""
"","11508.12500000035","sequential-stimulus-presentation","243","1016201","0.0-47.0-1.0","SS1613100522445","trial","","40","800","12308.12500000035","images/stimuli/spore_stims/complex_03_B_a.gif","images/stimuli/spore_stims/complex_08_B_a.gif","","","","","13","complex_dissimilar","images/stimuli/spore_stims/complex_08_B_a.gif","right","","","","",""
"","null","html-keyboard-response","244","1017150","0.0-47.0-0.1","SS1613100522445","","","null","","","","","<p><img src= images/blank.png width =""200"" height = ""200"" style = ""float:right""></p><p><img src=images/blank.png width =""800"" height = ""200""></p>","","","","","","","","","","","",""
"","2484.2099999950733","sequential-stimulus-presentation","245","1020464","0.0-47.0-1.1","SS1613100522445","trial","","40","800","3284.2099999950733","images/stimuli/spore_stims/complex_03_B_a.gif","images/stimuli/spore_stims/complex_08_B_a.gif","","","","","13","complex_dissimilar","images/stimuli/spore_stims/complex_08_B_a.gif","right","","","","",""
"","null","html-keyboard-response","246","1021479","0.0-47.0-0.2","SS1613100522445","","","null","","","","","<p><img src= images/blank.png width =""200"" height = ""200"" style = ""float:right""></p><p><img src=images/blank.png width =""800"" height = ""200""></p>","","","","","","","","","","","",""
"","20686.74999999348","sequential-stimulus-presentation","247","1042985","0.0-47.0-1.2","SS1613100522445","trial","","40","800","21486.74999999348","images/stimuli/spore_stims/complex_03_B_a.gif","images/stimuli/spore_stims/complex_08_B_a.gif","","","","","13","complex_dissimilar","images/stimuli/spore_stims/complex_03_B_a.gif","left","","","","",""
"","null","html-keyboard-response","248","1044166","0.0-47.0-0.3","SS1613100522445","","","null","","","","","<p><img src= images/blank.png width =""200"" height = ""200"" style = ""float:right""></p><p><img src=images/blank.png width =""800"" height = ""200""></p>","","","","","","","","","","","",""
"","1966.1449999983888","sequential-stimulus-presentation","249","1046952","0.0-47.0-1.3","SS1613100522445","trial","","40","800","2766.144999998389","images/stimuli/spore_stims/complex_03_B_a.gif","images/stimuli/spore_stims/complex_08_B_a.gif","","","","","13","complex_dissimilar","images/stimuli/spore_stims/complex_08_B_a.gif","right","","","","",""
"","null","html-keyboard-response","250","1048164","0.0-47.0-0.4","SS1613100522445","","","null","","","","","<p><img src= images/blank.png width =""200"" height = ""200"" style = ""float:right""></p><p><img src=images/blank.png width =""800"" height = ""200""></p>","","","","","","","","","","","",""
"","481.1049999988172","sequential-stimulus-presentation","251","1049464","0.0-47.0-1.4","SS1613100522445","trial","","40","800","1281.1049999988172","images/stimuli/spore_stims/complex_03_B_a.gif","images/stimuli/spore_stims/complex_08_B_a.gif","","","","","13","complex_dissimilar","images/stimuli/spore_stims/complex_08_B_a.gif","right","","","","",""
"","null","html-keyboard-response","252","1050444","0.0-47.0-0.5","SS1613100522445","","","null","","","","","<p><img src= images/blank.png width =""200"" height = ""200"" style = ""float:right""></p><p><img src=images/blank.png width =""800"" height = ""200""></p>","","","","","","","","","","","",""
"","2058.3200000035577","sequential-stimulus-presentation","253","1053320","0.0-47.0-1.5","SS1613100522445","trial","","40","800","2858.3200000035577","images/stimuli/spore_stims/complex_03_B_a.gif","images/stimuli/spore_stims/complex_08_B_a.gif","","","","","13","complex_dissimilar","images/stimuli/spore_stims/complex_08_B_a.gif","right","","","","",""
"","null","html-keyboard-response","254","1054561","0.0-47.0-0.6","SS1613100522445","","","null","","","","","<p><img src= images/blank.png width =""200"" height = ""200"" style = ""float:right""></p><p><img src=images/blank.png width =""800"" height = ""200""></p>","","","","","","","","","","","",""
"","1087.155000001192","sequential-stimulus-presentation","255","1056471","0.0-47.0-1.6","SS1613100522445","trial","","40","800","1887.155000001192","images/stimuli/spore_stims/complex_03_B_a.gif","images/stimuli/spore_stims/complex_08_B_a.gif","","","","","13","complex_dissimilar","images/stimuli/spore_stims/complex_08_B_a.gif","right","","","","",""
"","null","html-keyboard-response","256","1057570","0.0-47.0-0.7","SS1613100522445","","","null","","","","","<p><img src= images/blank.png width =""200"" height = ""200"" style = ""float:right""></p><p><img src=images/blank.png width =""800"" height = ""200""></p>","","","","","","","","","","","",""
"","505.78500000108033","sequential-stimulus-presentation","257","1058895","0.0-47.0-1.7","SS1613100522445","trial","","40","800","1305.7850000010803","images/stimuli/spore_stims/complex_03_B_a.gif","images/stimuli/spore_stims/complex_08_B_a.gif","","","","","13","complex_dissimilar","images/stimuli/spore_stims/complex_08_B_a.gif","right","","","","",""
"","3551.585000001127","html-keyboard-response","258","1062463","0.0-48.0","SS1613100522445","pref_question","","97","","","","","<video width ='960' height = '540' style='padding-top:8%' autoplay muted><source src='images/stimuli/wall_pref.mp4' type='video/mp4'></video>","1","left","25%","13","","","","","","","",""
"","32997.39500000584","sequential-stimulus-presentation","259","1096276","0.0-49.0","SS1613100522445","pref_reveal","","40","800","33797.39500000584","null","null","","","","","13","","","","deviant","","","",""
"","null","html-keyboard-response","260","1097393","0.0-50.0-0.0","SS1613100522445","","","null","","","","","<p><img src= images/blank.png width =""200"" height = ""200"" style = ""float:right""></p><p><img src=images/blank.png width =""800"" height = ""200""></p>","","","","","","","","","","","",""
"","9023.219999995548","sequential-stimulus-presentation","261","1107236","0.0-50.0-1.0","SS1613100522445","trial","","40","800","9823.219999995548","images/stimuli/spore_stims/simple_12_A_c.gif","images/stimuli/spore_stims/simple_12_B_c.gif","","","","","14","simple_similar","images/stimuli/spore_stims/simple_12_B_c.gif","right","","","","",""
"","null","html-keyboard-response","262","1108333","0.0-50.0-0.1","SS1613100522445","","","null","","","","","<p><img src= images/blank.png width =""200"" height = ""200"" style = ""float:right""></p><p><img src=images/blank.png width =""800"" height = ""200""></p>","","","","","","","","","","","",""
"","2106.145000005141","sequential-stimulus-presentation","263","1111259","0.0-50.0-1.1","SS1613100522445","trial","","40","800","2906.145000005141","images/stimuli/spore_stims/simple_12_A_c.gif","images/stimuli/spore_stims/simple_12_B_c.gif","","","","","14","simple_similar","images/stimuli/spore_stims/simple_12_B_c.gif","right","","","","",""
"","null","html-keyboard-response","264","1112176","0.0-50.0-0.2","SS1613100522445","","","null","","","","","<p><img src= images/blank.png width =""200"" height = ""200"" style = ""float:right""></p><p><img src=images/blank.png width =""800"" height = ""200""></p>","","","","","","","","","","","",""
"","8924.500000000931","sequential-stimulus-presentation","265","1121923","0.0-50.0-1.2","SS1613100522445","trial","","40","800","9724.500000000931","images/stimuli/spore_stims/simple_12_A_c.gif","images/stimuli/spore_stims/simple_12_B_c.gif","","","","","14","simple_similar","images/stimuli/spore_stims/simple_12_A_c.gif","left","","","","",""
"","null","html-keyboard-response","266","1123192","0.0-50.0-0.3","SS1613100522445","","","null","","","","","<p><img src= images/blank.png width =""200"" height = ""200"" style = ""float:right""></p><p><img src=images/blank.png width =""800"" height = ""200""></p>","","","","","","","","","","","",""
"","8387.135000004666","sequential-stimulus-presentation","267","1132403","0.0-50.0-1.3","SS1613100522445","trial","","40","800","9187.135000004666","images/stimuli/spore_stims/simple_12_A_c.gif","images/stimuli/spore_stims/simple_12_B_c.gif","","","","","14","simple_similar","images/stimuli/spore_stims/simple_12_B_c.gif","right","","","","",""
"","null","html-keyboard-response","268","1133240","0.0-50.0-0.4","SS1613100522445","","","null","","","","","<p><img src= images/blank.png width =""200"" height = ""200"" style = ""float:right""></p><p><img src=images/blank.png width =""800"" height = ""200""></p>","","","","","","","","","","","",""
"","1045.9849999970756","sequential-stimulus-presentation","269","1135106","0.0-50.0-1.4","SS1613100522445","trial","","40","800","1845.9849999970756","images/stimuli/spore_stims/simple_12_A_c.gif","images/stimuli/spore_stims/simple_12_B_c.gif","","","","","14","simple_similar","images/stimuli/spore_stims/simple_12_B_c.gif","right","","","","",""
"","null","html-keyboard-response","270","1135946","0.0-50.0-0.5","SS1613100522445","","","null","","","","","<p><img src= images/blank.png width =""200"" height = ""200"" style = ""float:right""></p><p><img src=images/blank.png width =""800"" height = ""200""></p>","","","","","","","","","","","",""
"","817.1750000037719","sequential-stimulus-presentation","271","1137586","0.0-50.0-1.5","SS1613100522445","trial","","40","800","1617.1750000037719","images/stimuli/spore_stims/simple_12_A_c.gif","images/stimuli/spore_stims/simple_12_B_c.gif","","","","","14","simple_similar","images/stimuli/spore_stims/simple_12_B_c.gif","right","","","","",""
"","null","html-keyboard-response","272","1138741","0.0-50.0-0.6","SS1613100522445","","","null","","","","","<p><img src= images/blank.png width =""200"" height = ""200"" style = ""float:right""></p><p><img src=images/blank.png width =""800"" height = ""200""></p>","","","","","","","","","","","",""
"","1383.9799999985844","sequential-stimulus-presentation","273","1140954","0.0-50.0-1.6","SS1613100522445","trial","","40","800","2183.9799999985844","images/stimuli/spore_stims/simple_12_A_c.gif","images/stimuli/spore_stims/simple_12_B_c.gif","","","","","14","simple_similar","images/stimuli/spore_stims/simple_12_B_c.gif","right","","","","",""
"","null","html-keyboard-response","274","1142063","0.0-50.0-0.7","SS1613100522445","","","null","","","","","<p><img src= images/blank.png width =""200"" height = ""200"" style = ""float:right""></p><p><img src=images/blank.png width =""800"" height = ""200""></p>","","","","","","","","","","","",""
"","3087.9400000048336","sequential-stimulus-presentation","275","1145971","0.0-50.0-1.7","SS1613100522445","trial","","40","800","3887.9400000048336","images/stimuli/spore_stims/simple_12_A_c.gif","images/stimuli/spore_stims/simple_12_B_c.gif","","","","","14","simple_similar","images/stimuli/spore_stims/simple_12_B_c.gif","right","","","","",""
"","3573.689999997383","html-keyboard-response","276","1149562","0.0-51.0","SS1613100522445","pref_question","","99","","","","","<video width ='960' height = '540' style='padding-top:8%' autoplay muted><source src='images/stimuli/wall_pref.mp4' type='video/mp4'></video>","3","right","66%","14","","","","","","","",""
"","1498.0250000008382","sequential-stimulus-presentation","277","1151889","0.0-52.0","SS1613100522445","pref_reveal","","40","800","2298.025000000838","null","null","","","","","14","","","","background","","","",""
"","null","html-keyboard-response","278","1153159","0.0-53.0-0.0","SS1613100522445","","","null","","","","","<p><img src= images/blank.png width =""200"" height = ""200"" style = ""float:right""></p><p><img src=images/blank.png width =""800"" height = ""200""></p>","","","","","","","","","","","",""
"","32206.01000000164","sequential-stimulus-presentation","279","1186186","0.0-53.0-1.0","SS1613100522445","trial","","40","800","33006.01000000164","images/stimuli/spore_stims/simple_19_A_c.gif","images/stimuli/spore_stims/simple_11_A_a.gif","","","","","15","simple_dissimilar","images/stimuli/spore_stims/simple_11_A_a.gif","right","","","","",""
"","null","html-keyboard-response","280","1187485","0.0-53.0-0.1","SS1613100522445","","","null","","","","","<p><img src= images/blank.png width =""200"" height = ""200"" style = ""float:right""></p><p><img src=images/blank.png width =""800"" height = ""200""></p>","","","","","","","","","","","",""
"","398.0750000043772","sequential-stimulus-presentation","281","1188704","0.0-53.0-1.1","SS1613100522445","trial","","40","800","1198.0750000043772","images/stimuli/spore_stims/simple_19_A_c.gif","images/stimuli/spore_stims/simple_11_A_a.gif","","","","","15","simple_dissimilar","images/stimuli/spore_stims/simple_11_A_a.gif","right","","","","",""
"","null","html-keyboard-response","282","1189596","0.0-53.0-0.2","SS1613100522445","","","null","","","","","<p><img src= images/blank.png width =""200"" height = ""200"" style = ""float:right""></p><p><img src=images/blank.png width =""800"" height = ""200""></p>","","","","","","","","","","","",""
"","696.2449999991804","sequential-stimulus-presentation","283","1191112","0.0-53.0-1.2","SS1613100522445","trial","","40","800","1496.2449999991804","images/stimuli/spore_stims/simple_19_A_c.gif","images/stimuli/spore_stims/simple_11_A_a.gif","","","","","15","simple_dissimilar","images/stimuli/spore_stims/simple_11_A_a.gif","right","","","","",""
"","null","html-keyboard-response","284","1192056","0.0-53.0-0.3","SS1613100522445","","","null","","","","","<p><img src= images/blank.png width =""200"" height = ""200"" style = ""float:right""></p><p><img src=images/blank.png width =""800"" height = ""200""></p>","","","","","","","","","","","",""
"","492.57999999821186","sequential-stimulus-presentation","285","1193369","0.0-53.0-1.3","SS1613100522445","trial","","40","800","1292.5799999982119","images/stimuli/spore_stims/simple_19_A_c.gif","images/stimuli/spore_stims/simple_11_A_a.gif","","","","","15","simple_dissimilar","images/stimuli/spore_stims/simple_11_A_a.gif","right","","","","",""
"","null","html-keyboard-response","286","1194274","0.0-53.0-0.4","SS1613100522445","","","null","","","","","<p><img src= images/blank.png width =""200"" height = ""200"" style = ""float:right""></p><p><img src=images/blank.png width =""800"" height = ""200""></p>","","","","","","","","","","","",""
"","497.3549999995157","sequential-stimulus-presentation","287","1195592","0.0-53.0-1.4","SS1613100522445","trial","","40","800","1297.3549999995157","images/stimuli/spore_stims/simple_19_A_c.gif","images/stimuli/spore_stims/simple_11_A_a.gif","","","","","15","simple_dissimilar","images/stimuli/spore_stims/simple_11_A_a.gif","right","","","","",""
"","null","html-keyboard-response","288","1196808","0.0-53.0-0.5","SS1613100522445","","","null","","","","","<p><img src= images/blank.png width =""200"" height = ""200"" style = ""float:right""></p><p><img src=images/blank.png width =""800"" height = ""200""></p>","","","","","","","","","","","",""
"","622.3150000004098","sequential-stimulus-presentation","289","1198320","0.0-53.0-1.5","SS1613100522445","trial","","40","800","1422.3150000004098","images/stimuli/spore_stims/simple_19_A_c.gif","images/stimuli/spore_stims/simple_11_A_a.gif","","","","","15","simple_dissimilar","images/stimuli/spore_stims/simple_11_A_a.gif","right","","","","",""
"","null","html-keyboard-response","290","1199443","0.0-53.0-0.6","SS1613100522445","","","null","","","","","<p><img src= images/blank.png width =""200"" height = ""200"" style = ""float:right""></p><p><img src=images/blank.png width =""800"" height = ""200""></p>","","","","","","","","","","","",""
"","2106.0599999981932","sequential-stimulus-presentation","291","1202368","0.0-53.0-1.6","SS1613100522445","trial","","40","800","2906.0599999981932","images/stimuli/spore_stims/simple_19_A_c.gif","images/stimuli/spore_stims/simple_11_A_a.gif","","","","","15","simple_dissimilar","images/stimuli/spore_stims/simple_19_A_c.gif","left","","","","",""
"","null","html-keyboard-response","292","1203464","0.0-53.0-0.7","SS1613100522445","","","null","","","","","<p><img src= images/blank.png width =""200"" height = ""200"" style = ""float:right""></p><p><img src=images/blank.png width =""800"" height = ""200""></p>","","","","","","","","","","","",""
"","951.1700000001583","sequential-stimulus-presentation","293","1205240","0.0-53.0-1.7","SS1613100522445","trial","","40","800","1751.1700000001583","images/stimuli/spore_stims/simple_19_A_c.gif","images/stimuli/spore_stims/simple_11_A_a.gif","","","","","15","simple_dissimilar","images/stimuli/spore_stims/simple_11_A_a.gif","right","","","","",""
"","1925.1500000027008","html-keyboard-response","294","1207184","0.0-54.0","SS1613100522445","pref_question","","99","","","","","<video width ='960' height = '540' style='padding-top:8%' autoplay muted><source src='images/stimuli/wall_pref.mp4' type='video/mp4'></video>","3","right","66%","15","","","","","","","",""
"","1462.0199999990873","sequential-stimulus-presentation","295","1209480","0.0-55.0","SS1613100522445","pref_reveal","","40","800","2262.0199999990873","null","null","","","","","15","","","","background","","","",""
"","null","html-keyboard-response","296","1210485","0.0-56.0-0.0","SS1613100522445","","","null","","","","","<p><img src= images/blank.png width =""200"" height = ""200"" style = ""float:right""></p><p><img src=images/blank.png width =""800"" height = ""200""></p>","","","","","","","","","","","",""
"","2772.8500000012573","sequential-stimulus-presentation","297","1214089","0.0-56.0-1.0","SS1613100522445","trial","","40","800","3572.8500000012573","images/stimuli/spore_stims/complex_10_A_d.gif","images/stimuli/spore_stims/complex_10_B_d.gif","","","","","16","complex_similar","images/stimuli/spore_stims/complex_10_B_d.gif","left","","","","",""
"","null","html-keyboard-response","298","1215089","0.0-56.0-0.1","SS1613100522445","","","null","","","","","<p><img src= images/blank.png width =""200"" height = ""200"" style = ""float:right""></p><p><img src=images/blank.png width =""800"" height = ""200""></p>","","","","","","","","","","","",""
"","4836.185000000289","sequential-stimulus-presentation","299","1220745","0.0-56.0-1.1","SS1613100522445","trial","","40","800","5636.185000000289","images/stimuli/spore_stims/complex_10_A_d.gif","images/stimuli/spore_stims/complex_10_B_d.gif","","","","","16","complex_similar","images/stimuli/spore_stims/complex_10_B_d.gif","left","","","","",""
"","null","html-keyboard-response","300","1221959","0.0-56.0-0.2","SS1613100522445","","","null","","","","","<p><img src= images/blank.png width =""200"" height = ""200"" style = ""float:right""></p><p><img src=images/blank.png width =""800"" height = ""200""></p>","","","","","","","","","","","",""
"","3958.5599999991246","sequential-stimulus-presentation","301","1226745","0.0-56.0-1.2","SS1613100522445","trial","","40","800","4758.559999999125","images/stimuli/spore_stims/complex_10_A_d.gif","images/stimuli/spore_stims/complex_10_B_d.gif","","","","","16","complex_similar","images/stimuli/spore_stims/complex_10_B_d.gif","left","","","","",""
"","null","html-keyboard-response","302","1227945","0.0-56.0-0.3","SS1613100522445","","","null","","","","","<p><img src= images/blank.png width =""200"" height = ""200"" style = ""float:right""></p><p><img src=images/blank.png width =""800"" height = ""200""></p>","","","","","","","","","","","",""
"","2474.740000005113","sequential-stimulus-presentation","303","1231241","0.0-56.0-1.3","SS1613100522445","trial","","40","800","3274.740000005113","images/stimuli/spore_stims/complex_10_A_d.gif","images/stimuli/spore_stims/complex_10_B_d.gif","","","","","16","complex_similar","images/stimuli/spore_stims/complex_10_B_d.gif","left","","","","",""
"","null","html-keyboard-response","304","1232414","0.0-56.0-0.4","SS1613100522445","","","null","","","","","<p><img src= images/blank.png width =""200"" height = ""200"" style = ""float:right""></p><p><img src=images/blank.png width =""800"" height = ""200""></p>","","","","","","","","","","","",""
"","1515.2149999993853","sequential-stimulus-presentation","305","1234754","0.0-56.0-1.4","SS1613100522445","trial","","40","800","2315.2149999993853","images/stimuli/spore_stims/complex_10_A_d.gif","images/stimuli/spore_stims/complex_10_B_d.gif","","","","","16","complex_similar","images/stimuli/spore_stims/complex_10_B_d.gif","left","","","","",""
"","null","html-keyboard-response","306","1235891","0.0-56.0-0.5","SS1613100522445","","","null","","","","","<p><img src= images/blank.png width =""200"" height = ""200"" style = ""float:right""></p><p><img src=images/blank.png width =""800"" height = ""200""></p>","","","","","","","","","","","",""
"","12153.350000000326","sequential-stimulus-presentation","307","1248865","0.0-56.0-1.5","SS1613100522445","trial","","40","800","12953.350000000326","images/stimuli/spore_stims/complex_10_A_d.gif","images/stimuli/spore_stims/complex_10_B_d.gif","","","","","16","complex_similar","images/stimuli/spore_stims/complex_10_A_d.gif","middle","","","","",""
"","null","html-keyboard-response","308","1249726","0.0-56.0-0.6","SS1613100522445","","","null","","","","","<p><img src= images/blank.png width =""200"" height = ""200"" style = ""float:right""></p><p><img src=images/blank.png width =""800"" height = ""200""></p>","","","","","","","","","","","",""
"","864.8200000023935","sequential-stimulus-presentation","309","1251417","0.0-56.0-1.6","SS1613100522445","trial","","40","800","1664.8200000023935","images/stimuli/spore_stims/complex_10_A_d.gif","images/stimuli/spore_stims/complex_10_B_d.gif","","","","","16","complex_similar","images/stimuli/spore_stims/complex_10_B_d.gif","left","","","","",""
"","null","html-keyboard-response","310","1252717","0.0-56.0-0.7","SS1613100522445","","","null","","","","","<p><img src= images/blank.png width =""200"" height = ""200"" style = ""float:right""></p><p><img src=images/blank.png width =""800"" height = ""200""></p>","","","","","","","","","","","",""
"","424.1650000039954","sequential-stimulus-presentation","311","1253960","0.0-56.0-1.7","SS1613100522445","trial","","40","800","1224.1650000039954","images/stimuli/spore_stims/complex_10_A_d.gif","images/stimuli/spore_stims/complex_10_B_d.gif","","","","","16","complex_similar","images/stimuli/spore_stims/complex_10_B_d.gif","left","","","","",""
