"view_history","rt","trial_type","trial_index","time_elapsed","internal_node_id","subject","stimulus_type","trial_stimulus","key_press","minimum_viewing_duration","trial_looking_time","block_deviant","block_background","stimulus","wall_pref","location","location_percent","block_number","block_type","stimulus_displayed","position_displayed","stim_type_selected","responses","question_order","stimulus_left","stimulus_right"
"[{""page_index"":0,""viewing_time"":9828.000000212342}]","9828.000000212342","instructions","0","9837","0.0-0.0","SS1613080102647","","","","","","","","","","","","","","","","","","","",""
"[{""page_index"":0,""viewing_time"":4970.999999903142},{""page_index"":1,""viewing_time"":2955.000000074506}]","7925.999999977648","instructions","1","19766","0.0-1.0","SS1613080102647","instructions","","","","","","","","","","","","","","","","","","",""
"","12114.000000059605","sequential-stimulus-presentation","2","32711","0.0-2.0","SS1613080102647","","","40","800","12914.000000059605","null","null","","","","","","","","","","","","",""
"","2834.0000002644956","sequential-stimulus-presentation","3","36354","0.0-3.0","SS1613080102647","","","40","800","3634.0000002644956","null","null","","","","","","","","","","","","",""
"[{""page_index"":0,""viewing_time"":2822.0000001601875}]","2822.0000001601875","instructions","4","39178","0.0-4.0","SS1613080102647","instructions","","","","","","","","","","","","","","","","","","",""
"","4535.999999847263","html-keyboard-response","5","43726","0.0-5.0","SS1613080102647","instructions","","50","","","","","<video width ='960' height = '540' autoplay muted><source src='images/stimuli/wall_pref.mp4' type='video/mp4'></video>","2","middle","45%","","","","","","","","",""
"","2554.0000000037253","sequential-stimulus-presentation","6","47100","0.0-6.0","SS1613080102647","pref_reveal","","40","800","3354.0000000037253","null","null","","","","","","","","","","","","",""
"[{""page_index"":0,""viewing_time"":2026.999999769032},{""page_index"":1,""viewing_time"":962.0000002905726},{""page_index"":2,""viewing_time"":7790.000000037253},{""page_index"":3,""viewing_time"":12006.000000052154}]","22785.00000014901","instructions","7","69889","0.0-7.0","SS1613080102647","instructions","","","","","","","","","","","","","","","","","","",""
"","null","html-keyboard-response","8","71118","0.0-8.0-0.0","SS1613080102647","","","null","","","","","<p><img src= images/blank.png width =""200"" height = ""200"" style = ""float:right""></p><p><img src=images/blank.png width =""800"" height = ""200""></p>","","","","","","","","","","","",""
"","1226.9999999552965","sequential-stimulus-presentation","9","73154","0.0-8.0-1.0","SS1613080102647","trial","","40","800","2026.9999999552965","images/stimuli/spore_stims/complex_04_A_d.gif","images/stimuli/spore_stims/complex_04_B_d.gif","","","","","0","complex_similar","images/stimuli/spore_stims/complex_04_B_d.gif","left","","","","",""
"","null","html-keyboard-response","10","74131","0.0-8.0-0.1","SS1613080102647","","","null","","","","","<p><img src= images/blank.png width =""200"" height = ""200"" style = ""float:right""></p><p><img src=images/blank.png width =""800"" height = ""200""></p>","","","","","","","","","","","",""
"","1283.0000002868474","sequential-stimulus-presentation","11","76221","0.0-8.0-1.1","SS1613080102647","trial","","40","800","2083.0000002868474","images/stimuli/spore_stims/complex_04_A_d.gif","images/stimuli/spore_stims/complex_04_B_d.gif","","","","","0","complex_similar","images/stimuli/spore_stims/complex_04_B_d.gif","left","","","","",""
"","null","html-keyboard-response","12","77171","0.0-8.0-0.2","SS1613080102647","","","null","","","","","<p><img src= images/blank.png width =""200"" height = ""200"" style = ""float:right""></p><p><img src=images/blank.png width =""800"" height = ""200""></p>","","","","","","","","","","","",""
"","1112.9999998956919","sequential-stimulus-presentation","13","79111","0.0-8.0-1.2","SS1613080102647","trial","","40","800","1912.9999998956919","images/stimuli/spore_stims/complex_04_A_d.gif","images/stimuli/spore_stims/complex_04_B_d.gif","","","","","0","complex_similar","images/stimuli/spore_stims/complex_04_A_d.gif","right","","","","",""
"","null","html-keyboard-response","14","80225","0.0-8.0-0.3","SS1613080102647","","","null","","","","","<p><img src= images/blank.png width =""200"" height = ""200"" style = ""float:right""></p><p><img src=images/blank.png width =""800"" height = ""200""></p>","","","","","","","","","","","",""
"","54.00000000372529","sequential-stimulus-presentation","15","81092","0.0-8.0-1.3","SS1613080102647","trial","","40","800","854.0000000037253","images/stimuli/spore_stims/complex_04_A_d.gif","images/stimuli/spore_stims/complex_04_B_d.gif","","","","","0","complex_similar","images/stimuli/spore_stims/complex_04_B_d.gif","left","","","","",""
"","null","html-keyboard-response","16","82303","0.0-8.0-0.4","SS1613080102647","","","null","","","","","<p><img src= images/blank.png width =""200"" height = ""200"" style = ""float:right""></p><p><img src=images/blank.png width =""800"" height = ""200""></p>","","","","","","","","","","","",""
"","46.00000008940697","sequential-stimulus-presentation","17","83177","0.0-8.0-1.4","SS1613080102647","trial","","40","800","846.000000089407","images/stimuli/spore_stims/complex_04_A_d.gif","images/stimuli/spore_stims/complex_04_B_d.gif","","","","","0","complex_similar","images/stimuli/spore_stims/complex_04_B_d.gif","left","","","","",""
"","null","html-keyboard-response","18","84233","0.0-8.0-0.5","SS1613080102647","","","null","","","","","<p><img src= images/blank.png width =""200"" height = ""200"" style = ""float:right""></p><p><img src=images/blank.png width =""800"" height = ""200""></p>","","","","","","","","","","","",""
"","273.0000000447035","sequential-stimulus-presentation","19","85344","0.0-8.0-1.5","SS1613080102647","trial","","40","800","1073.0000000447035","images/stimuli/spore_stims/complex_04_A_d.gif","images/stimuli/spore_stims/complex_04_B_d.gif","","","","","0","complex_similar","images/stimuli/spore_stims/complex_04_B_d.gif","left","","","","",""
"","null","html-keyboard-response","20","86476","0.0-8.0-0.6","SS1613080102647","","","null","","","","","<p><img src= images/blank.png width =""200"" height = ""200"" style = ""float:right""></p><p><img src=images/blank.png width =""800"" height = ""200""></p>","","","","","","","","","","","",""
"","120.9999998100102","sequential-stimulus-presentation","21","87401","0.0-8.0-1.6","SS1613080102647","trial","","40","800","920.9999998100102","images/stimuli/spore_stims/complex_04_A_d.gif","images/stimuli/spore_stims/complex_04_B_d.gif","","","","","0","complex_similar","images/stimuli/spore_stims/complex_04_B_d.gif","left","","","","",""
"","null","html-keyboard-response","22","88379","0.0-8.0-0.7","SS1613080102647","","","null","","","","","<p><img src= images/blank.png width =""200"" height = ""200"" style = ""float:right""></p><p><img src=images/blank.png width =""800"" height = ""200""></p>","","","","","","","","","","","",""
"","527.9999999329448","sequential-stimulus-presentation","23","89712","0.0-8.0-1.7","SS1613080102647","trial","","40","800","1327.9999999329448","images/stimuli/spore_stims/complex_04_A_d.gif","images/stimuli/spore_stims/complex_04_B_d.gif","","","","","0","complex_similar","images/stimuli/spore_stims/complex_04_B_d.gif","left","","","","",""
"","191.00000010803342","html-keyboard-response","24","89908","0.0-9.0","SS1613080102647","pref_question","","50","","","","","<video width ='960' height = '540' style='padding-top:8%' autoplay muted><source src='images/stimuli/wall_pref.mp4' type='video/mp4'></video>","2","middle","45%","0","","","","","","","",""
"","466.00000001490116","sequential-stimulus-presentation","25","91191","0.0-10.0","SS1613080102647","pref_reveal","","40","800","1266.0000000149012","null","null","","","","","0","","","","novel","","","",""
"","null","html-keyboard-response","26","92260","0.0-11.0-0.0","SS1613080102647","","","null","","","","","<p><img src= images/blank.png width =""200"" height = ""200"" style = ""float:right""></p><p><img src=images/blank.png width =""800"" height = ""200""></p>","","","","","","","","","","","",""
"","61.00000021979213","sequential-stimulus-presentation","27","93136","0.0-11.0-1.0","SS1613080102647","trial","","40","800","861.0000002197921","images/stimuli/spore_stims/complex_16_A_c.gif","images/stimuli/spore_stims/complex_16_B_c.gif","","","","","1","complex_similar","images/stimuli/spore_stims/complex_16_B_c.gif","middle","","","","",""
"","null","html-keyboard-response","28","94025","0.0-11.0-0.1","SS1613080102647","","","null","","","","","<p><img src= images/blank.png width =""200"" height = ""200"" style = ""float:right""></p><p><img src=images/blank.png width =""800"" height = ""200""></p>","","","","","","","","","","","",""
"","443.99999966844916","sequential-stimulus-presentation","29","95274","0.0-11.0-1.1","SS1613080102647","trial","","40","800","1243.9999996684492","images/stimuli/spore_stims/complex_16_A_c.gif","images/stimuli/spore_stims/complex_16_B_c.gif","","","","","1","complex_similar","images/stimuli/spore_stims/complex_16_B_c.gif","middle","","","","",""
"","null","html-keyboard-response","30","96166","0.0-11.0-0.2","SS1613080102647","","","null","","","","","<p><img src= images/blank.png width =""200"" height = ""200"" style = ""float:right""></p><p><img src=images/blank.png width =""800"" height = ""200""></p>","","","","","","","","","","","",""
"","688.0000000819564","sequential-stimulus-presentation","31","97663","0.0-11.0-1.2","SS1613080102647","trial","","40","800","1488.0000000819564","images/stimuli/spore_stims/complex_16_A_c.gif","images/stimuli/spore_stims/complex_16_B_c.gif","","","","","1","complex_similar","images/stimuli/spore_stims/complex_16_B_c.gif","middle","","","","",""
"","null","html-keyboard-response","32","98702","0.0-11.0-0.3","SS1613080102647","","","null","","","","","<p><img src= images/blank.png width =""200"" height = ""200"" style = ""float:right""></p><p><img src=images/blank.png width =""800"" height = ""200""></p>","","","","","","","","","","","",""
"","320.9999999962747","sequential-stimulus-presentation","33","99834","0.0-11.0-1.3","SS1613080102647","trial","","40","800","1120.9999999962747","images/stimuli/spore_stims/complex_16_A_c.gif","images/stimuli/spore_stims/complex_16_B_c.gif","","","","","1","complex_similar","images/stimuli/spore_stims/complex_16_B_c.gif","middle","","","","",""
"","null","html-keyboard-response","34","101037","0.0-11.0-0.4","SS1613080102647","","","null","","","","","<p><img src= images/blank.png width =""200"" height = ""200"" style = ""float:right""></p><p><img src=images/blank.png width =""800"" height = ""200""></p>","","","","","","","","","","","",""
"","369.9999996460974","sequential-stimulus-presentation","35","102223","0.0-11.0-1.4","SS1613080102647","trial","","40","800","1169.9999996460974","images/stimuli/spore_stims/complex_16_A_c.gif","images/stimuli/spore_stims/complex_16_B_c.gif","","","","","1","complex_similar","images/stimuli/spore_stims/complex_16_B_c.gif","middle","","","","",""
"","null","html-keyboard-response","36","103296","0.0-11.0-0.5","SS1613080102647","","","null","","","","","<p><img src= images/blank.png width =""200"" height = ""200"" style = ""float:right""></p><p><img src=images/blank.png width =""800"" height = ""200""></p>","","","","","","","","","","","",""
"","464.0000001527369","sequential-stimulus-presentation","37","104567","0.0-11.0-1.5","SS1613080102647","trial","","40","800","1264.000000152737","images/stimuli/spore_stims/complex_16_A_c.gif","images/stimuli/spore_stims/complex_16_B_c.gif","","","","","1","complex_similar","images/stimuli/spore_stims/complex_16_B_c.gif","middle","","","","",""
"","null","html-keyboard-response","38","105576","0.0-11.0-0.6","SS1613080102647","","","null","","","","","<p><img src= images/blank.png width =""200"" height = ""200"" style = ""float:right""></p><p><img src=images/blank.png width =""800"" height = ""200""></p>","","","","","","","","","","","",""
"","92.99999987706542","sequential-stimulus-presentation","39","106474","0.0-11.0-1.6","SS1613080102647","trial","","40","800","892.9999998770654","images/stimuli/spore_stims/complex_16_A_c.gif","images/stimuli/spore_stims/complex_16_B_c.gif","","","","","1","complex_similar","images/stimuli/spore_stims/complex_16_A_c.gif","left","","","","",""
"","null","html-keyboard-response","40","107309","0.0-11.0-0.7","SS1613080102647","","","null","","","","","<p><img src= images/blank.png width =""200"" height = ""200"" style = ""float:right""></p><p><img src=images/blank.png width =""800"" height = ""200""></p>","","","","","","","","","","","",""
"","163.00000017508864","sequential-stimulus-presentation","41","108288","0.0-11.0-1.7","SS1613080102647","trial","","40","800","963.0000001750886","images/stimuli/spore_stims/complex_16_A_c.gif","images/stimuli/spore_stims/complex_16_B_c.gif","","","","","1","complex_similar","images/stimuli/spore_stims/complex_16_B_c.gif","middle","","","","",""
"","445.9999999962747","html-keyboard-response","42","108741","0.0-12.0","SS1613080102647","pref_question","","50","","","","","<video width ='960' height = '540' style='padding-top:8%' autoplay muted><source src='images/stimuli/wall_pref.mp4' type='video/mp4'></video>","2","middle","45%","1","","","","","","","",""
"","111.00000003352761","sequential-stimulus-presentation","43","109661","0.0-13.0","SS1613080102647","pref_reveal","","40","800","911.0000000335276","null","null","","","","","1","","","","background","","","",""
"","null","html-keyboard-response","44","110912","0.0-14.0-0.0","SS1613080102647","","","null","","","","","<p><img src= images/blank.png width =""200"" height = ""200"" style = ""float:right""></p><p><img src=images/blank.png width =""800"" height = ""200""></p>","","","","","","","","","","","",""
"","385.99999994039536","sequential-stimulus-presentation","45","112105","0.0-14.0-1.0","SS1613080102647","trial","","40","800","1185.9999999403954","images/stimuli/spore_stims/simple_13_A_a.gif","images/stimuli/spore_stims/simple_13_B_a.gif","","","","","2","simple_similar","images/stimuli/spore_stims/simple_13_B_a.gif","middle","","","","",""
"","null","html-keyboard-response","46","113203","0.0-14.0-0.1","SS1613080102647","","","null","","","","","<p><img src= images/blank.png width =""200"" height = ""200"" style = ""float:right""></p><p><img src=images/blank.png width =""800"" height = ""200""></p>","","","","","","","","","","","",""
"","94.0000000409782","sequential-stimulus-presentation","47","114106","0.0-14.0-1.1","SS1613080102647","trial","","40","800","894.0000000409782","images/stimuli/spore_stims/simple_13_A_a.gif","images/stimuli/spore_stims/simple_13_B_a.gif","","","","","2","simple_similar","images/stimuli/spore_stims/simple_13_B_a.gif","middle","","","","",""
"","null","html-keyboard-response","48","115394","0.0-14.0-0.2","SS1613080102647","","","null","","","","","<p><img src= images/blank.png width =""200"" height = ""200"" style = ""float:right""></p><p><img src=images/blank.png width =""800"" height = ""200""></p>","","","","","","","","","","","",""
"","211.00000012665987","sequential-stimulus-presentation","49","116415","0.0-14.0-1.2","SS1613080102647","trial","","40","800","1011.0000001266599","images/stimuli/spore_stims/simple_13_A_a.gif","images/stimuli/spore_stims/simple_13_B_a.gif","","","","","2","simple_similar","images/stimuli/spore_stims/simple_13_B_a.gif","middle","","","","",""
"","null","html-keyboard-response","50","117295","0.0-14.0-0.3","SS1613080102647","","","null","","","","","<p><img src= images/blank.png width =""200"" height = ""200"" style = ""float:right""></p><p><img src=images/blank.png width =""800"" height = ""200""></p>","","","","","","","","","","","",""
"","15.999999828636646","sequential-stimulus-presentation","51","118205","0.0-14.0-1.3","SS1613080102647","trial","","40","800","815.9999998286366","images/stimuli/spore_stims/simple_13_A_a.gif","images/stimuli/spore_stims/simple_13_B_a.gif","","","","","2","simple_similar","images/stimuli/spore_stims/simple_13_B_a.gif","middle","","","","",""
"","null","html-keyboard-response","52","119248","0.0-14.0-0.4","SS1613080102647","","","null","","","","","<p><img src= images/blank.png width =""200"" height = ""200"" style = ""float:right""></p><p><img src=images/blank.png width =""800"" height = ""200""></p>","","","","","","","","","","","",""
"","123.00000013783574","sequential-stimulus-presentation","53","120178","0.0-14.0-1.4","SS1613080102647","trial","","40","800","923.0000001378357","images/stimuli/spore_stims/simple_13_A_a.gif","images/stimuli/spore_stims/simple_13_B_a.gif","","","","","2","simple_similar","images/stimuli/spore_stims/simple_13_B_a.gif","middle","","","","",""
"","null","html-keyboard-response","54","121147","0.0-14.0-0.5","SS1613080102647","","","null","","","","","<p><img src= images/blank.png width =""200"" height = ""200"" style = ""float:right""></p><p><img src=images/blank.png width =""800"" height = ""200""></p>","","","","","","","","","","","",""
"","246.99999997392297","sequential-stimulus-presentation","55","122198","0.0-14.0-1.5","SS1613080102647","trial","","40","800","1046.999999973923","images/stimuli/spore_stims/simple_13_A_a.gif","images/stimuli/spore_stims/simple_13_B_a.gif","","","","","2","simple_similar","images/stimuli/spore_stims/simple_13_A_a.gif","right","","","","",""
"","null","html-keyboard-response","56","123093","0.0-14.0-0.6","SS1613080102647","","","null","","","","","<p><img src= images/blank.png width =""200"" height = ""200"" style = ""float:right""></p><p><img src=images/blank.png width =""800"" height = ""200""></p>","","","","","","","","","","","",""
"","251.99999986216426","sequential-stimulus-presentation","57","124159","0.0-14.0-1.6","SS1613080102647","trial","","40","800","1051.9999998621643","images/stimuli/spore_stims/simple_13_A_a.gif","images/stimuli/spore_stims/simple_13_B_a.gif","","","","","2","simple_similar","images/stimuli/spore_stims/simple_13_B_a.gif","middle","","","","",""
"","null","html-keyboard-response","58","124974","0.0-14.0-0.7","SS1613080102647","","","null","","","","","<p><img src= images/blank.png width =""200"" height = ""200"" style = ""float:right""></p><p><img src=images/blank.png width =""800"" height = ""200""></p>","","","","","","","","","","","",""
"","228.0000001192093","sequential-stimulus-presentation","59","126011","0.0-14.0-1.7","SS1613080102647","trial","","40","800","1028.0000001192093","images/stimuli/spore_stims/simple_13_A_a.gif","images/stimuli/spore_stims/simple_13_B_a.gif","","","","","2","simple_similar","images/stimuli/spore_stims/simple_13_B_a.gif","middle","","","","",""
"","44.999999925494194","html-keyboard-response","60","126061","0.0-15.0","SS1613080102647","pref_question","","51","","","","","<video width ='960' height = '540' style='padding-top:8%' autoplay muted><source src='images/stimuli/wall_pref.mp4' type='video/mp4'></video>","3","right","66%","2","","","","","","","",""
"","27.00000023469329","sequential-stimulus-presentation","61","126891","0.0-16.0","SS1613080102647","pref_reveal","","40","800","827.0000002346933","null","null","","","","","2","","","","deviant","","","",""
"","null","html-keyboard-response","62","127973","0.0-17.0-0.0","SS1613080102647","","","null","","","","","<p><img src= images/blank.png width =""200"" height = ""200"" style = ""float:right""></p><p><img src=images/blank.png width =""800"" height = ""200""></p>","","","","","","","","","","","",""
"","155.00000026077032","sequential-stimulus-presentation","63","128935","0.0-17.0-1.0","SS1613080102647","trial","","40","800","955.0000002607703","images/stimuli/spore_stims/simple_17_B_d.gif","images/stimuli/spore_stims/simple_17_A_d.gif","","","","","3","simple_similar","images/stimuli/spore_stims/simple_17_A_d.gif","right","","","","",""
"","null","html-keyboard-response","64","129829","0.0-17.0-0.1","SS1613080102647","","","null","","","","","<p><img src= images/blank.png width =""200"" height = ""200"" style = ""float:right""></p><p><img src=images/blank.png width =""800"" height = ""200""></p>","","","","","","","","","","","",""
"","24.999999906867743","sequential-stimulus-presentation","65","130663","0.0-17.0-1.1","SS1613080102647","trial","","40","800","824.9999999068677","images/stimuli/spore_stims/simple_17_B_d.gif","images/stimuli/spore_stims/simple_17_A_d.gif","","","","","3","simple_similar","images/stimuli/spore_stims/simple_17_A_d.gif","right","","","","",""
"","null","html-keyboard-response","66","131670","0.0-17.0-0.2","SS1613080102647","","","null","","","","","<p><img src= images/blank.png width =""200"" height = ""200"" style = ""float:right""></p><p><img src=images/blank.png width =""800"" height = ""200""></p>","","","","","","","","","","","",""
"","393.0000001564622","sequential-stimulus-presentation","67","132900","0.0-17.0-1.2","SS1613080102647","trial","","40","800","1193.0000001564622","images/stimuli/spore_stims/simple_17_B_d.gif","images/stimuli/spore_stims/simple_17_A_d.gif","","","","","3","simple_similar","images/stimuli/spore_stims/simple_17_A_d.gif","right","","","","",""
"","null","html-keyboard-response","68","134041","0.0-17.0-0.3","SS1613080102647","","","null","","","","","<p><img src= images/blank.png width =""200"" height = ""200"" style = ""float:right""></p><p><img src=images/blank.png width =""800"" height = ""200""></p>","","","","","","","","","","","",""
"","368.99999994784594","sequential-stimulus-presentation","69","135229","0.0-17.0-1.3","SS1613080102647","trial","","40","800","1168.999999947846","images/stimuli/spore_stims/simple_17_B_d.gif","images/stimuli/spore_stims/simple_17_A_d.gif","","","","","3","simple_similar","images/stimuli/spore_stims/simple_17_B_d.gif","left","","","","",""
"","null","html-keyboard-response","70","136510","0.0-17.0-0.4","SS1613080102647","","","null","","","","","<p><img src= images/blank.png width =""200"" height = ""200"" style = ""float:right""></p><p><img src=images/blank.png width =""800"" height = ""200""></p>","","","","","","","","","","","",""
"","162.00000001117587","sequential-stimulus-presentation","71","137486","0.0-17.0-1.4","SS1613080102647","trial","","40","800","962.0000000111759","images/stimuli/spore_stims/simple_17_B_d.gif","images/stimuli/spore_stims/simple_17_A_d.gif","","","","","3","simple_similar","images/stimuli/spore_stims/simple_17_A_d.gif","right","","","","",""
"","null","html-keyboard-response","72","138585","0.0-17.0-0.5","SS1613080102647","","","null","","","","","<p><img src= images/blank.png width =""200"" height = ""200"" style = ""float:right""></p><p><img src=images/blank.png width =""800"" height = ""200""></p>","","","","","","","","","","","",""
"","507.9999999143183","sequential-stimulus-presentation","73","139905","0.0-17.0-1.5","SS1613080102647","trial","","40","800","1307.9999999143183","images/stimuli/spore_stims/simple_17_B_d.gif","images/stimuli/spore_stims/simple_17_A_d.gif","","","","","3","simple_similar","images/stimuli/spore_stims/simple_17_A_d.gif","right","","","","",""
"","null","html-keyboard-response","74","141137","0.0-17.0-0.6","SS1613080102647","","","null","","","","","<p><img src= images/blank.png width =""200"" height = ""200"" style = ""float:right""></p><p><img src=images/blank.png width =""800"" height = ""200""></p>","","","","","","","","","","","",""
"","33.00000028684735","sequential-stimulus-presentation","75","141980","0.0-17.0-1.6","SS1613080102647","trial","","40","800","833.0000002868474","images/stimuli/spore_stims/simple_17_B_d.gif","images/stimuli/spore_stims/simple_17_A_d.gif","","","","","3","simple_similar","images/stimuli/spore_stims/simple_17_A_d.gif","right","","","","",""
"","null","html-keyboard-response","76","142860","0.0-17.0-0.7","SS1613080102647","","","null","","","","","<p><img src= images/blank.png width =""200"" height = ""200"" style = ""float:right""></p><p><img src=images/blank.png width =""800"" height = ""200""></p>","","","","","","","","","","","",""
"","689.0000002458692","sequential-stimulus-presentation","77","144379","0.0-17.0-1.7","SS1613080102647","trial","","40","800","1489.0000002458692","images/stimuli/spore_stims/simple_17_B_d.gif","images/stimuli/spore_stims/simple_17_A_d.gif","","","","","3","simple_similar","images/stimuli/spore_stims/simple_17_A_d.gif","right","","","","",""
"","18.000000156462193","html-keyboard-response","78","144402","0.0-18.0","SS1613080102647","pref_question","","50","","","","","<video width ='960' height = '540' style='padding-top:8%' autoplay muted><source src='images/stimuli/wall_pref.mp4' type='video/mp4'></video>","2","middle","45%","3","","","","","","","",""
"","598.9999999292195","sequential-stimulus-presentation","79","145809","0.0-19.0","SS1613080102647","pref_reveal","","40","800","1398.9999999292195","null","null","","","","","3","","","","novel","","","",""
"","null","html-keyboard-response","80","147019","0.0-20.0-0.0","SS1613080102647","","","null","","","","","<p><img src= images/blank.png width =""200"" height = ""200"" style = ""float:right""></p><p><img src=images/blank.png width =""800"" height = ""200""></p>","","","","","","","","","","","",""
"","293.00000006332994","sequential-stimulus-presentation","81","148129","0.0-20.0-1.0","SS1613080102647","trial","","40","800","1093.00000006333","images/stimuli/spore_stims/simple_15_B_a.gif","images/stimuli/spore_stims/simple_15_A_a.gif","","","","","4","simple_similar","images/stimuli/spore_stims/simple_15_A_a.gif","left","","","","",""
"","null","html-keyboard-response","82","149046","0.0-20.0-0.1","SS1613080102647","","","null","","","","","<p><img src= images/blank.png width =""200"" height = ""200"" style = ""float:right""></p><p><img src=images/blank.png width =""800"" height = ""200""></p>","","","","","","","","","","","",""
"","564.9999999441206","sequential-stimulus-presentation","83","150433","0.0-20.0-1.1","SS1613080102647","trial","","40","800","1364.9999999441206","images/stimuli/spore_stims/simple_15_B_a.gif","images/stimuli/spore_stims/simple_15_A_a.gif","","","","","4","simple_similar","images/stimuli/spore_stims/simple_15_A_a.gif","left","","","","",""
"","null","html-keyboard-response","84","151439","0.0-20.0-0.2","SS1613080102647","","","null","","","","","<p><img src= images/blank.png width =""200"" height = ""200"" style = ""float:right""></p><p><img src=images/blank.png width =""800"" height = ""200""></p>","","","","","","","","","","","",""
"","393.9999998547137","sequential-stimulus-presentation","85","152641","0.0-20.0-1.2","SS1613080102647","trial","","40","800","1193.9999998547137","images/stimuli/spore_stims/simple_15_B_a.gif","images/stimuli/spore_stims/simple_15_A_a.gif","","","","","4","simple_similar","images/stimuli/spore_stims/simple_15_A_a.gif","left","","","","",""
"","null","html-keyboard-response","86","153465","0.0-20.0-0.3","SS1613080102647","","","null","","","","","<p><img src= images/blank.png width =""200"" height = ""200"" style = ""float:right""></p><p><img src=images/blank.png width =""800"" height = ""200""></p>","","","","","","","","","","","",""
"","283.99999998509884","sequential-stimulus-presentation","87","154568","0.0-20.0-1.3","SS1613080102647","trial","","40","800","1083.9999999850988","images/stimuli/spore_stims/simple_15_B_a.gif","images/stimuli/spore_stims/simple_15_A_a.gif","","","","","4","simple_similar","images/stimuli/spore_stims/simple_15_A_a.gif","left","","","","",""
"","null","html-keyboard-response","88","155412","0.0-20.0-0.4","SS1613080102647","","","null","","","","","<p><img src= images/blank.png width =""200"" height = ""200"" style = ""float:right""></p><p><img src=images/blank.png width =""800"" height = ""200""></p>","","","","","","","","","","","",""
"","402.9999999329448","sequential-stimulus-presentation","89","156631","0.0-20.0-1.4","SS1613080102647","trial","","40","800","1202.9999999329448","images/stimuli/spore_stims/simple_15_B_a.gif","images/stimuli/spore_stims/simple_15_A_a.gif","","","","","4","simple_similar","images/stimuli/spore_stims/simple_15_A_a.gif","left","","","","",""
"","null","html-keyboard-response","90","157741","0.0-20.0-0.5","SS1613080102647","","","null","","","","","<p><img src= images/blank.png width =""200"" height = ""200"" style = ""float:right""></p><p><img src=images/blank.png width =""800"" height = ""200""></p>","","","","","","","","","","","",""
"","534.9999996833503","sequential-stimulus-presentation","91","159084","0.0-20.0-1.5","SS1613080102647","trial","","40","800","1334.9999996833503","images/stimuli/spore_stims/simple_15_B_a.gif","images/stimuli/spore_stims/simple_15_A_a.gif","","","","","4","simple_similar","images/stimuli/spore_stims/simple_15_B_a.gif","right","","","","",""
"","null","html-keyboard-response","92","160155","0.0-20.0-0.6","SS1613080102647","","","null","","","","","<p><img src= images/blank.png width =""200"" height = ""200"" style = ""float:right""></p><p><img src=images/blank.png width =""800"" height = ""200""></p>","","","","","","","","","","","",""
"","137.9999998025596","sequential-stimulus-presentation","93","161107","0.0-20.0-1.6","SS1613080102647","trial","","40","800","937.9999998025596","images/stimuli/spore_stims/simple_15_B_a.gif","images/stimuli/spore_stims/simple_15_A_a.gif","","","","","4","simple_similar","images/stimuli/spore_stims/simple_15_A_a.gif","left","","","","",""
"","null","html-keyboard-response","94","162155","0.0-20.0-0.7","SS1613080102647","","","null","","","","","<p><img src= images/blank.png width =""200"" height = ""200"" style = ""float:right""></p><p><img src=images/blank.png width =""800"" height = ""200""></p>","","","","","","","","","","","",""
"","212.99999998882413","sequential-stimulus-presentation","95","163181","0.0-20.0-1.7","SS1613080102647","trial","","40","800","1012.9999999888241","images/stimuli/spore_stims/simple_15_B_a.gif","images/stimuli/spore_stims/simple_15_A_a.gif","","","","","4","simple_similar","images/stimuli/spore_stims/simple_15_A_a.gif","left","","","","",""
"","222.00000006705523","html-keyboard-response","96","163410","0.0-21.0","SS1613080102647","pref_question","","51","","","","","<video width ='960' height = '540' style='padding-top:8%' autoplay muted><source src='images/stimuli/wall_pref.mp4' type='video/mp4'></video>","3","right","66%","4","","","","","","","",""
"","588.9999996870756","sequential-stimulus-presentation","97","164856","0.0-22.0","SS1613080102647","pref_reveal","","40","800","1388.9999996870756","null","null","","","","","4","","","","deviant","","","",""
"","null","html-keyboard-response","98","166112","0.0-23.0-0.0","SS1613080102647","","","null","","","","","<p><img src= images/blank.png width =""200"" height = ""200"" style = ""float:right""></p><p><img src=images/blank.png width =""800"" height = ""200""></p>","","","","","","","","","","","",""
"","30.999999959021807","sequential-stimulus-presentation","99","166960","0.0-23.0-1.0","SS1613080102647","trial","","40","800","830.9999999590218","images/stimuli/spore_stims/complex_05_B_b.gif","images/stimuli/spore_stims/complex_10_A_c.gif","","","","","5","complex_dissimilar","images/stimuli/spore_stims/complex_10_A_c.gif","right","","","","",""
"","null","html-keyboard-response","100","167960","0.0-23.0-0.1","SS1613080102647","","","null","","","","","<p><img src= images/blank.png width =""200"" height = ""200"" style = ""float:right""></p><p><img src=images/blank.png width =""800"" height = ""200""></p>","","","","","","","","","","","",""
"","6337.000000290573","sequential-stimulus-presentation","101","175108","0.0-23.0-1.1","SS1613080102647","trial","","40","800","7137.000000290573","images/stimuli/spore_stims/complex_05_B_b.gif","images/stimuli/spore_stims/complex_10_A_c.gif","","","","","5","complex_dissimilar","images/stimuli/spore_stims/complex_10_A_c.gif","right","","","","",""
"","null","html-keyboard-response","102","176165","0.0-23.0-0.2","SS1613080102647","","","null","","","","","<p><img src= images/blank.png width =""200"" height = ""200"" style = ""float:right""></p><p><img src=images/blank.png width =""800"" height = ""200""></p>","","","","","","","","","","","",""
"","3.000000026077032","sequential-stimulus-presentation","103","176980","0.0-23.0-1.2","SS1613080102647","trial","","40","800","803.000000026077","images/stimuli/spore_stims/complex_05_B_b.gif","images/stimuli/spore_stims/complex_10_A_c.gif","","","","","5","complex_dissimilar","images/stimuli/spore_stims/complex_10_A_c.gif","right","","","","",""
"","null","html-keyboard-response","104","177870","0.0-23.0-0.3","SS1613080102647","","","null","","","","","<p><img src= images/blank.png width =""200"" height = ""200"" style = ""float:right""></p><p><img src=images/blank.png width =""800"" height = ""200""></p>","","","","","","","","","","","",""
"","3549.000000115484","sequential-stimulus-presentation","105","182226","0.0-23.0-1.3","SS1613080102647","trial","","40","800","4349.000000115484","images/stimuli/spore_stims/complex_05_B_b.gif","images/stimuli/spore_stims/complex_10_A_c.gif","","","","","5","complex_dissimilar","images/stimuli/spore_stims/complex_10_A_c.gif","right","","","","",""
"","null","html-keyboard-response","106","183178","0.0-23.0-0.4","SS1613080102647","","","null","","","","","<p><img src= images/blank.png width =""200"" height = ""200"" style = ""float:right""></p><p><img src=images/blank.png width =""800"" height = ""200""></p>","","","","","","","","","","","",""
"","333.9999997988343","sequential-stimulus-presentation","107","184332","0.0-23.0-1.4","SS1613080102647","trial","","40","800","1133.9999997988343","images/stimuli/spore_stims/complex_05_B_b.gif","images/stimuli/spore_stims/complex_10_A_c.gif","","","","","5","complex_dissimilar","images/stimuli/spore_stims/complex_10_A_c.gif","right","","","","",""
"","null","html-keyboard-response","108","185631","0.0-23.0-0.5","SS1613080102647","","","null","","","","","<p><img src= images/blank.png width =""200"" height = ""200"" style = ""float:right""></p><p><img src=images/blank.png width =""800"" height = ""200""></p>","","","","","","","","","","","",""
"","172.99999995157123","sequential-stimulus-presentation","109","186617","0.0-23.0-1.5","SS1613080102647","trial","","40","800","972.9999999515712","images/stimuli/spore_stims/complex_05_B_b.gif","images/stimuli/spore_stims/complex_10_A_c.gif","","","","","5","complex_dissimilar","images/stimuli/spore_stims/complex_05_B_b.gif","middle","","","","",""
"","null","html-keyboard-response","110","187961","0.0-23.0-0.6","SS1613080102647","","","null","","","","","<p><img src= images/blank.png width =""200"" height = ""200"" style = ""float:right""></p><p><img src=images/blank.png width =""800"" height = ""200""></p>","","","","","","","","","","","",""
"","15.00000013038516","sequential-stimulus-presentation","111","188842","0.0-23.0-1.6","SS1613080102647","trial","","40","800","815.0000001303852","images/stimuli/spore_stims/complex_05_B_b.gif","images/stimuli/spore_stims/complex_10_A_c.gif","","","","","5","complex_dissimilar","images/stimuli/spore_stims/complex_10_A_c.gif","right","","","","",""
"","null","html-keyboard-response","112","189883","0.0-23.0-0.7","SS1613080102647","","","null","","","","","<p><img src= images/blank.png width =""200"" height = ""200"" style = ""float:right""></p><p><img src=images/blank.png width =""800"" height = ""200""></p>","","","","","","","","","","","",""
"","223.99999992921948","sequential-stimulus-presentation","113","190920","0.0-23.0-1.7","SS1613080102647","trial","","40","800","1023.9999999292195","images/stimuli/spore_stims/complex_05_B_b.gif","images/stimuli/spore_stims/complex_10_A_c.gif","","","","","5","complex_dissimilar","images/stimuli/spore_stims/complex_10_A_c.gif","right","","","","",""
"","265.99999982863665","html-keyboard-response","114","191192","0.0-24.0","SS1613080102647","pref_question","","49","","","","","<video width ='960' height = '540' style='padding-top:8%' autoplay muted><source src='images/stimuli/wall_pref.mp4' type='video/mp4'></video>","1","left","25%","5","","","","","","","",""
"","154.00000009685755","sequential-stimulus-presentation","115","192155","0.0-25.0","SS1613080102647","pref_reveal","","40","800","954.0000000968575","null","null","","","","","5","","","","novel","","","",""
"","null","html-keyboard-response","116","193383","0.0-26.0-0.0","SS1613080102647","","","null","","","","","<p><img src= images/blank.png width =""200"" height = ""200"" style = ""float:right""></p><p><img src=images/blank.png width =""800"" height = ""200""></p>","","","","","","","","","","","",""
"","152.99999993294477","sequential-stimulus-presentation","117","194377","0.0-26.0-1.0","SS1613080102647","trial","","40","800","952.9999999329448","images/stimuli/spore_stims/complex_18_B_c.gif","images/stimuli/spore_stims/complex_09_A_b.gif","","","","","6","complex_dissimilar","images/stimuli/spore_stims/complex_09_A_b.gif","middle","","","","",""
"","null","html-keyboard-response","118","195250","0.0-26.0-0.1","SS1613080102647","","","null","","","","","<p><img src= images/blank.png width =""200"" height = ""200"" style = ""float:right""></p><p><img src=images/blank.png width =""800"" height = ""200""></p>","","","","","","","","","","","",""
"","23.000000044703484","sequential-stimulus-presentation","119","196086","0.0-26.0-1.1","SS1613080102647","trial","","40","800","823.0000000447035","images/stimuli/spore_stims/complex_18_B_c.gif","images/stimuli/spore_stims/complex_09_A_b.gif","","","","","6","complex_dissimilar","images/stimuli/spore_stims/complex_09_A_b.gif","middle","","","","",""
"","null","html-keyboard-response","120","197007","0.0-26.0-0.2","SS1613080102647","","","null","","","","","<p><img src= images/blank.png width =""200"" height = ""200"" style = ""float:right""></p><p><img src=images/blank.png width =""800"" height = ""200""></p>","","","","","","","","","","","",""
"","79.99999960884452","sequential-stimulus-presentation","121","197902","0.0-26.0-1.2","SS1613080102647","trial","","40","800","879.9999996088445","images/stimuli/spore_stims/complex_18_B_c.gif","images/stimuli/spore_stims/complex_09_A_b.gif","","","","","6","complex_dissimilar","images/stimuli/spore_stims/complex_18_B_c.gif","left","","","","",""
"","null","html-keyboard-response","122","198837","0.0-26.0-0.3","SS1613080102647","","","null","","","","","<p><img src= images/blank.png width =""200"" height = ""200"" style = ""float:right""></p><p><img src=images/blank.png width =""800"" height = ""200""></p>","","","","","","","","","","","",""
"","155.9999999590218","sequential-stimulus-presentation","123","199808","0.0-26.0-1.3","SS1613080102647","trial","","40","800","955.9999999590218","images/stimuli/spore_stims/complex_18_B_c.gif","images/stimuli/spore_stims/complex_09_A_b.gif","","","","","6","complex_dissimilar","images/stimuli/spore_stims/complex_09_A_b.gif","middle","","","","",""
"","null","html-keyboard-response","124","200809","0.0-26.0-0.4","SS1613080102647","","","null","","","","","<p><img src= images/blank.png width =""200"" height = ""200"" style = ""float:right""></p><p><img src=images/blank.png width =""800"" height = ""200""></p>","","","","","","","","","","","",""
"","156.0000004246831","sequential-stimulus-presentation","125","201807","0.0-26.0-1.4","SS1613080102647","trial","","40","800","956.0000004246831","images/stimuli/spore_stims/complex_18_B_c.gif","images/stimuli/spore_stims/complex_09_A_b.gif","","","","","6","complex_dissimilar","images/stimuli/spore_stims/complex_09_A_b.gif","middle","","","","",""
"","null","html-keyboard-response","126","202739","0.0-26.0-0.5","SS1613080102647","","","null","","","","","<p><img src= images/blank.png width =""200"" height = ""200"" style = ""float:right""></p><p><img src=images/blank.png width =""800"" height = ""200""></p>","","","","","","","","","","","",""
"","237.0000001974404","sequential-stimulus-presentation","127","203790","0.0-26.0-1.5","SS1613080102647","trial","","40","800","1037.0000001974404","images/stimuli/spore_stims/complex_18_B_c.gif","images/stimuli/spore_stims/complex_09_A_b.gif","","","","","6","complex_dissimilar","images/stimuli/spore_stims/complex_09_A_b.gif","middle","","","","",""
"","null","html-keyboard-response","128","204692","0.0-26.0-0.6","SS1613080102647","","","null","","","","","<p><img src= images/blank.png width =""200"" height = ""200"" style = ""float:right""></p><p><img src=images/blank.png width =""800"" height = ""200""></p>","","","","","","","","","","","",""
"","108.00000000745058","sequential-stimulus-presentation","129","205631","0.0-26.0-1.6","SS1613080102647","trial","","40","800","908.0000000074506","images/stimuli/spore_stims/complex_18_B_c.gif","images/stimuli/spore_stims/complex_09_A_b.gif","","","","","6","complex_dissimilar","images/stimuli/spore_stims/complex_09_A_b.gif","middle","","","","",""
"","null","html-keyboard-response","130","206507","0.0-26.0-0.7","SS1613080102647","","","null","","","","","<p><img src= images/blank.png width =""200"" height = ""200"" style = ""float:right""></p><p><img src=images/blank.png width =""800"" height = ""200""></p>","","","","","","","","","","","",""
"","377.99999956041574","sequential-stimulus-presentation","131","207702","0.0-26.0-1.7","SS1613080102647","trial","","40","800","1177.9999995604157","images/stimuli/spore_stims/complex_18_B_c.gif","images/stimuli/spore_stims/complex_09_A_b.gif","","","","","6","complex_dissimilar","images/stimuli/spore_stims/complex_09_A_b.gif","middle","","","","",""
"","96.00000036880374","html-keyboard-response","132","207807","0.0-27.0","SS1613080102647","pref_question","","51","","","","","<video width ='960' height = '540' style='padding-top:8%' autoplay muted><source src='images/stimuli/wall_pref.mp4' type='video/mp4'></video>","3","right","66%","6","","","","","","","",""
"","13.999999966472387","sequential-stimulus-presentation","133","208631","0.0-28.0","SS1613080102647","pref_reveal","","40","800","813.9999999664724","null","null","","","","","6","","","","novel","","","",""
"","null","html-keyboard-response","134","209942","0.0-29.0-0.0","SS1613080102647","","","null","","","","","<p><img src= images/blank.png width =""200"" height = ""200"" style = ""float:right""></p><p><img src=images/blank.png width =""800"" height = ""200""></p>","","","","","","","","","","","",""
"","201.0000003501773","sequential-stimulus-presentation","135","210949","0.0-29.0-1.0","SS1613080102647","trial","","40","800","1001.0000003501773","images/stimuli/spore_stims/complex_08_A_c.gif","images/stimuli/spore_stims/complex_08_B_c.gif","","","","","7","complex_similar","images/stimuli/spore_stims/complex_08_B_c.gif","left","","","","",""
"","null","html-keyboard-response","136","211906","0.0-29.0-0.1","SS1613080102647","","","null","","","","","<p><img src= images/blank.png width =""200"" height = ""200"" style = ""float:right""></p><p><img src=images/blank.png width =""800"" height = ""200""></p>","","","","","","","","","","","",""
"","44.00000022724271","sequential-stimulus-presentation","137","212766","0.0-29.0-1.1","SS1613080102647","trial","","40","800","844.0000002272427","images/stimuli/spore_stims/complex_08_A_c.gif","images/stimuli/spore_stims/complex_08_B_c.gif","","","","","7","complex_similar","images/stimuli/spore_stims/complex_08_B_c.gif","left","","","","",""
"","null","html-keyboard-response","138","213859","0.0-29.0-0.2","SS1613080102647","","","null","","","","","<p><img src= images/blank.png width =""200"" height = ""200"" style = ""float:right""></p><p><img src=images/blank.png width =""800"" height = ""200""></p>","","","","","","","","","","","",""
"","279.00000009685755","sequential-stimulus-presentation","139","214939","0.0-29.0-1.2","SS1613080102647","trial","","40","800","1079.0000000968575","images/stimuli/spore_stims/complex_08_A_c.gif","images/stimuli/spore_stims/complex_08_B_c.gif","","","","","7","complex_similar","images/stimuli/spore_stims/complex_08_B_c.gif","left","","","","",""
"","null","html-keyboard-response","140","216019","0.0-29.0-0.3","SS1613080102647","","","null","","","","","<p><img src= images/blank.png width =""200"" height = ""200"" style = ""float:right""></p><p><img src=images/blank.png width =""800"" height = ""200""></p>","","","","","","","","","","","",""
"","208.00000010058284","sequential-stimulus-presentation","141","217040","0.0-29.0-1.3","SS1613080102647","trial","","40","800","1008.0000001005828","images/stimuli/spore_stims/complex_08_A_c.gif","images/stimuli/spore_stims/complex_08_B_c.gif","","","","","7","complex_similar","images/stimuli/spore_stims/complex_08_B_c.gif","left","","","","",""
"","null","html-keyboard-response","142","217938","0.0-29.0-0.4","SS1613080102647","","","null","","","","","<p><img src= images/blank.png width =""200"" height = ""200"" style = ""float:right""></p><p><img src=images/blank.png width =""800"" height = ""200""></p>","","","","","","","","","","","",""
"","179.99999970197678","sequential-stimulus-presentation","143","218938","0.0-29.0-1.4","SS1613080102647","trial","","40","800","979.9999997019768","images/stimuli/spore_stims/complex_08_A_c.gif","images/stimuli/spore_stims/complex_08_B_c.gif","","","","","7","complex_similar","images/stimuli/spore_stims/complex_08_B_c.gif","left","","","","",""
"","null","html-keyboard-response","144","220127","0.0-29.0-0.5","SS1613080102647","","","null","","","","","<p><img src= images/blank.png width =""200"" height = ""200"" style = ""float:right""></p><p><img src=images/blank.png width =""800"" height = ""200""></p>","","","","","","","","","","","",""
"","78.00000021234155","sequential-stimulus-presentation","145","221019","0.0-29.0-1.5","SS1613080102647","trial","","40","800","878.0000002123415","images/stimuli/spore_stims/complex_08_A_c.gif","images/stimuli/spore_stims/complex_08_B_c.gif","","","","","7","complex_similar","images/stimuli/spore_stims/complex_08_B_c.gif","left","","","","",""
"","null","html-keyboard-response","146","222164","0.0-29.0-0.6","SS1613080102647","","","null","","","","","<p><img src= images/blank.png width =""200"" height = ""200"" style = ""float:right""></p><p><img src=images/blank.png width =""800"" height = ""200""></p>","","","","","","","","","","","",""
"","38.99999987334013","sequential-stimulus-presentation","147","223043","0.0-29.0-1.6","SS1613080102647","trial","","40","800","838.9999998733401","images/stimuli/spore_stims/complex_08_A_c.gif","images/stimuli/spore_stims/complex_08_B_c.gif","","","","","7","complex_similar","images/stimuli/spore_stims/complex_08_B_c.gif","left","","","","",""
"","null","html-keyboard-response","148","223982","0.0-29.0-0.7","SS1613080102647","","","null","","","","","<p><img src= images/blank.png width =""200"" height = ""200"" style = ""float:right""></p><p><img src=images/blank.png width =""800"" height = ""200""></p>","","","","","","","","","","","",""
"","55.00000016763806","sequential-stimulus-presentation","149","224852","0.0-29.0-1.7","SS1613080102647","trial","","40","800","855.0000001676381","images/stimuli/spore_stims/complex_08_A_c.gif","images/stimuli/spore_stims/complex_08_B_c.gif","","","","","7","complex_similar","images/stimuli/spore_stims/complex_08_A_c.gif","right","","","","",""
"","59.99999959021807","html-keyboard-response","150","224935","0.0-30.0","SS1613080102647","pref_question","","50","","","","","<video width ='960' height = '540' style='padding-top:8%' autoplay muted><source src='images/stimuli/wall_pref.mp4' type='video/mp4'></video>","2","middle","45%","7","","","","","","","",""
"","158.99999998509884","sequential-stimulus-presentation","151","225931","0.0-31.0","SS1613080102647","pref_reveal","","40","800","958.9999999850988","null","null","","","","","7","","","","novel","","","",""
"","null","html-keyboard-response","152","227216","0.0-32.0-0.0","SS1613080102647","","","null","","","","","<p><img src= images/blank.png width =""200"" height = ""200"" style = ""float:right""></p><p><img src=images/blank.png width =""800"" height = ""200""></p>","","","","","","","","","","","",""
"","131.00000005215406","sequential-stimulus-presentation","153","228159","0.0-32.0-1.0","SS1613080102647","trial","","40","800","931.0000000521541","images/stimuli/spore_stims/complex_17_B_d.gif","images/stimuli/spore_stims/complex_17_A_d.gif","","","","","8","complex_similar","images/stimuli/spore_stims/complex_17_A_d.gif","right","","","","",""
"","null","html-keyboard-response","154","229243","0.0-32.0-0.1","SS1613080102647","","","null","","","","","<p><img src= images/blank.png width =""200"" height = ""200"" style = ""float:right""></p><p><img src=images/blank.png width =""800"" height = ""200""></p>","","","","","","","","","","","",""
"","38.000000175088644","sequential-stimulus-presentation","155","230094","0.0-32.0-1.1","SS1613080102647","trial","","40","800","838.0000001750886","images/stimuli/spore_stims/complex_17_B_d.gif","images/stimuli/spore_stims/complex_17_A_d.gif","","","","","8","complex_similar","images/stimuli/spore_stims/complex_17_A_d.gif","right","","","","",""
"","null","html-keyboard-response","156","231032","0.0-32.0-0.2","SS1613080102647","","","null","","","","","<p><img src= images/blank.png width =""200"" height = ""200"" style = ""float:right""></p><p><img src=images/blank.png width =""800"" height = ""200""></p>","","","","","","","","","","","",""
"","124.00000030174851","sequential-stimulus-presentation","157","232003","0.0-32.0-1.2","SS1613080102647","trial","","40","800","924.0000003017485","images/stimuli/spore_stims/complex_17_B_d.gif","images/stimuli/spore_stims/complex_17_A_d.gif","","","","","8","complex_similar","images/stimuli/spore_stims/complex_17_A_d.gif","right","","","","",""
"","null","html-keyboard-response","158","232869","0.0-32.0-0.3","SS1613080102647","","","null","","","","","<p><img src= images/blank.png width =""200"" height = ""200"" style = ""float:right""></p><p><img src=images/blank.png width =""800"" height = ""200""></p>","","","","","","","","","","","",""
"","172.99999995157123","sequential-stimulus-presentation","159","233878","0.0-32.0-1.3","SS1613080102647","trial","","40","800","972.9999999515712","images/stimuli/spore_stims/complex_17_B_d.gif","images/stimuli/spore_stims/complex_17_A_d.gif","","","","","8","complex_similar","images/stimuli/spore_stims/complex_17_A_d.gif","right","","","","",""
"","null","html-keyboard-response","160","235174","0.0-32.0-0.4","SS1613080102647","","","null","","","","","<p><img src= images/blank.png width =""200"" height = ""200"" style = ""float:right""></p><p><img src=images/blank.png width =""800"" height = ""200""></p>","","","","","","","","","","","",""
"","30.999999959021807","sequential-stimulus-presentation","161","236022","0.0-32.0-1.4","SS1613080102647","trial","","40","800","830.9999999590218","images/stimuli/spore_stims/complex_17_B_d.gif","images/stimuli/spore_stims/complex_17_A_d.gif","","","","","8","complex_similar","images/stimuli/spore_stims/complex_17_A_d.gif","right","","","","",""
"","null","html-keyboard-response","162","237307","0.0-32.0-0.5","SS1613080102647","","","null","","","","","<p><img src= images/blank.png width =""200"" height = ""200"" style = ""float:right""></p><p><img src=images/blank.png width =""800"" height = ""200""></p>","","","","","","","","","","","",""
"","153.00000039860606","sequential-stimulus-presentation","163","238268","0.0-32.0-1.5","SS1613080102647","trial","","40","800","953.0000003986061","images/stimuli/spore_stims/complex_17_B_d.gif","images/stimuli/spore_stims/complex_17_A_d.gif","","","","","8","complex_similar","images/stimuli/spore_stims/complex_17_A_d.gif","right","","","","",""
"","null","html-keyboard-response","164","239153","0.0-32.0-0.6","SS1613080102647","","","null","","","","","<p><img src= images/blank.png width =""200"" height = ""200"" style = ""float:right""></p><p><img src=images/blank.png width =""800"" height = ""200""></p>","","","","","","","","","","","",""
"","102.999999653548","sequential-stimulus-presentation","165","240073","0.0-32.0-1.6","SS1613080102647","trial","","40","800","902.999999653548","images/stimuli/spore_stims/complex_17_B_d.gif","images/stimuli/spore_stims/complex_17_A_d.gif","","","","","8","complex_similar","images/stimuli/spore_stims/complex_17_A_d.gif","right","","","","",""
"","null","html-keyboard-response","166","241346","0.0-32.0-0.7","SS1613080102647","","","null","","","","","<p><img src= images/blank.png width =""200"" height = ""200"" style = ""float:right""></p><p><img src=images/blank.png width =""800"" height = ""200""></p>","","","","","","","","","","","",""
"","158.99999998509884","sequential-stimulus-presentation","167","242320","0.0-32.0-1.7","SS1613080102647","trial","","40","800","958.9999999850988","images/stimuli/spore_stims/complex_17_B_d.gif","images/stimuli/spore_stims/complex_17_A_d.gif","","","","","8","complex_similar","images/stimuli/spore_stims/complex_17_B_d.gif","middle","","","","",""
"","29.000000096857548","html-keyboard-response","168","242357","0.0-33.0","SS1613080102647","pref_question","","49","","","","","<video width ='960' height = '540' style='padding-top:8%' autoplay muted><source src='images/stimuli/wall_pref.mp4' type='video/mp4'></video>","1","left","25%","8","","","","","","","",""
"","134.99999977648258","sequential-stimulus-presentation","169","243299","0.0-34.0","SS1613080102647","pref_reveal","","40","800","934.9999997764826","null","null","","","","","8","","","","novel","","","",""
"","null","html-keyboard-response","170","244282","0.0-35.0-0.0","SS1613080102647","","","null","","","","","<p><img src= images/blank.png width =""200"" height = ""200"" style = ""float:right""></p><p><img src=images/blank.png width =""800"" height = ""200""></p>","","","","","","","","","","","",""
"","293.00000006332994","sequential-stimulus-presentation","171","245389","0.0-35.0-1.0","SS1613080102647","trial","","40","800","1093.00000006333","images/stimuli/spore_stims/simple_12_A_d.gif","images/stimuli/spore_stims/simple_06_A_d.gif","","","","","9","simple_dissimilar","images/stimuli/spore_stims/simple_06_A_d.gif","middle","","","","",""
"","null","html-keyboard-response","172","246301","0.0-35.0-0.1","SS1613080102647","","","null","","","","","<p><img src= images/blank.png width =""200"" height = ""200"" style = ""float:right""></p><p><img src=images/blank.png width =""800"" height = ""200""></p>","","","","","","","","","","","",""
"","394.00000032037497","sequential-stimulus-presentation","173","247521","0.0-35.0-1.1","SS1613080102647","trial","","40","800","1194.000000320375","images/stimuli/spore_stims/simple_12_A_d.gif","images/stimuli/spore_stims/simple_06_A_d.gif","","","","","9","simple_dissimilar","images/stimuli/spore_stims/simple_06_A_d.gif","middle","","","","",""
"","null","html-keyboard-response","174","248674","0.0-35.0-0.2","SS1613080102647","","","null","","","","","<p><img src= images/blank.png width =""200"" height = ""200"" style = ""float:right""></p><p><img src=images/blank.png width =""800"" height = ""200""></p>","","","","","","","","","","","",""
"","306.00000033155084","sequential-stimulus-presentation","175","249815","0.0-35.0-1.2","SS1613080102647","trial","","40","800","1106.0000003315508","images/stimuli/spore_stims/simple_12_A_d.gif","images/stimuli/spore_stims/simple_06_A_d.gif","","","","","9","simple_dissimilar","images/stimuli/spore_stims/simple_06_A_d.gif","middle","","","","",""
"","null","html-keyboard-response","176","251116","0.0-35.0-0.3","SS1613080102647","","","null","","","","","<p><img src= images/blank.png width =""200"" height = ""200"" style = ""float:right""></p><p><img src=images/blank.png width =""800"" height = ""200""></p>","","","","","","","","","","","",""
"","147.9999995790422","sequential-stimulus-presentation","177","252077","0.0-35.0-1.3","SS1613080102647","trial","","40","800","947.9999995790422","images/stimuli/spore_stims/simple_12_A_d.gif","images/stimuli/spore_stims/simple_06_A_d.gif","","","","","9","simple_dissimilar","images/stimuli/spore_stims/simple_06_A_d.gif","middle","","","","",""
"","null","html-keyboard-response","178","252904","0.0-35.0-0.4","SS1613080102647","","","null","","","","","<p><img src= images/blank.png width =""200"" height = ""200"" style = ""float:right""></p><p><img src=images/blank.png width =""800"" height = ""200""></p>","","","","","","","","","","","",""
"","12854.999999981374","sequential-stimulus-presentation","179","266588","0.0-35.0-1.4","SS1613080102647","trial","","40","800","13654.999999981374","images/stimuli/spore_stims/simple_12_A_d.gif","images/stimuli/spore_stims/simple_06_A_d.gif","","","","","9","simple_dissimilar","images/stimuli/spore_stims/simple_06_A_d.gif","middle","","","","",""
"","null","html-keyboard-response","180","267788","0.0-35.0-0.5","SS1613080102647","","","null","","","","","<p><img src= images/blank.png width =""200"" height = ""200"" style = ""float:right""></p><p><img src=images/blank.png width =""800"" height = ""200""></p>","","","","","","","","","","","",""
"","83.99999979883432","sequential-stimulus-presentation","181","268695","0.0-35.0-1.5","SS1613080102647","trial","","40","800","883.9999997988343","images/stimuli/spore_stims/simple_12_A_d.gif","images/stimuli/spore_stims/simple_06_A_d.gif","","","","","9","simple_dissimilar","images/stimuli/spore_stims/simple_12_A_d.gif","left","","","","",""
"","null","html-keyboard-response","182","269590","0.0-35.0-0.6","SS1613080102647","","","null","","","","","<p><img src= images/blank.png width =""200"" height = ""200"" style = ""float:right""></p><p><img src=images/blank.png width =""800"" height = ""200""></p>","","","","","","","","","","","",""
"","193.00000043585896","sequential-stimulus-presentation","183","270590","0.0-35.0-1.6","SS1613080102647","trial","","40","800","993.000000435859","images/stimuli/spore_stims/simple_12_A_d.gif","images/stimuli/spore_stims/simple_06_A_d.gif","","","","","9","simple_dissimilar","images/stimuli/spore_stims/simple_06_A_d.gif","middle","","","","",""
"","null","html-keyboard-response","184","271694","0.0-35.0-0.7","SS1613080102647","","","null","","","","","<p><img src= images/blank.png width =""200"" height = ""200"" style = ""float:right""></p><p><img src=images/blank.png width =""800"" height = ""200""></p>","","","","","","","","","","","",""
"","228.0000001192093","sequential-stimulus-presentation","185","272733","0.0-35.0-1.7","SS1613080102647","trial","","40","800","1028.0000001192093","images/stimuli/spore_stims/simple_12_A_d.gif","images/stimuli/spore_stims/simple_06_A_d.gif","","","","","9","simple_dissimilar","images/stimuli/spore_stims/simple_06_A_d.gif","middle","","","","",""
"","126.99999986216426","html-keyboard-response","186","272870","0.0-36.0","SS1613080102647","pref_question","","51","","","","","<video width ='960' height = '540' style='padding-top:8%' autoplay muted><source src='images/stimuli/wall_pref.mp4' type='video/mp4'></video>","3","right","66%","9","","","","","","","",""
"","337.00000029057264","sequential-stimulus-presentation","187","274051","0.0-37.0","SS1613080102647","pref_reveal","","40","800","1137.0000002905726","null","null","","","","","9","","","","novel","","","",""
"","null","html-keyboard-response","188","275377","0.0-38.0-0.0","SS1613080102647","","","null","","","","","<p><img src= images/blank.png width =""200"" height = ""200"" style = ""float:right""></p><p><img src=images/blank.png width =""800"" height = ""200""></p>","","","","","","","","","","","",""
"","199.00000002235174","sequential-stimulus-presentation","189","276450","0.0-38.0-1.0","SS1613080102647","trial","","40","800","999.0000000223517","images/stimuli/spore_stims/complex_02_B_c.gif","images/stimuli/spore_stims/complex_13_B_b.gif","","","","","10","complex_dissimilar","images/stimuli/spore_stims/complex_13_B_b.gif","right","","","","",""
"","null","html-keyboard-response","190","277291","0.0-38.0-0.1","SS1613080102647","","","null","","","","","<p><img src= images/blank.png width =""200"" height = ""200"" style = ""float:right""></p><p><img src=images/blank.png width =""800"" height = ""200""></p>","","","","","","","","","","","",""
"","279.99999979510903","sequential-stimulus-presentation","191","278385","0.0-38.0-1.1","SS1613080102647","trial","","40","800","1079.999999795109","images/stimuli/spore_stims/complex_02_B_c.gif","images/stimuli/spore_stims/complex_13_B_b.gif","","","","","10","complex_dissimilar","images/stimuli/spore_stims/complex_13_B_b.gif","right","","","","",""
"","null","html-keyboard-response","192","279233","0.0-38.0-0.2","SS1613080102647","","","null","","","","","<p><img src= images/blank.png width =""200"" height = ""200"" style = ""float:right""></p><p><img src=images/blank.png width =""800"" height = ""200""></p>","","","","","","","","","","","",""
"","6.000000052154064","sequential-stimulus-presentation","193","280062","0.0-38.0-1.2","SS1613080102647","trial","","40","800","806.0000000521541","images/stimuli/spore_stims/complex_02_B_c.gif","images/stimuli/spore_stims/complex_13_B_b.gif","","","","","10","complex_dissimilar","images/stimuli/spore_stims/complex_02_B_c.gif","left","","","","",""
"","null","html-keyboard-response","194","281123","0.0-38.0-0.3","SS1613080102647","","","null","","","","","<p><img src= images/blank.png width =""200"" height = ""200"" style = ""float:right""></p><p><img src=images/blank.png width =""800"" height = ""200""></p>","","","","","","","","","","","",""
"","290.0000000372529","sequential-stimulus-presentation","195","282225","0.0-38.0-1.3","SS1613080102647","trial","","40","800","1090.000000037253","images/stimuli/spore_stims/complex_02_B_c.gif","images/stimuli/spore_stims/complex_13_B_b.gif","","","","","10","complex_dissimilar","images/stimuli/spore_stims/complex_13_B_b.gif","right","","","","",""
"","null","html-keyboard-response","196","283366","0.0-38.0-0.4","SS1613080102647","","","null","","","","","<p><img src= images/blank.png width =""200"" height = ""200"" style = ""float:right""></p><p><img src=images/blank.png width =""800"" height = ""200""></p>","","","","","","","","","","","",""
"","308.9999998919666","sequential-stimulus-presentation","197","284491","0.0-38.0-1.4","SS1613080102647","trial","","40","800","1108.9999998919666","images/stimuli/spore_stims/complex_02_B_c.gif","images/stimuli/spore_stims/complex_13_B_b.gif","","","","","10","complex_dissimilar","images/stimuli/spore_stims/complex_13_B_b.gif","right","","","","",""
"","null","html-keyboard-response","198","285776","0.0-38.0-0.5","SS1613080102647","","","null","","","","","<p><img src= images/blank.png width =""200"" height = ""200"" style = ""float:right""></p><p><img src=images/blank.png width =""800"" height = ""200""></p>","","","","","","","","","","","",""
"","200.00000018626451","sequential-stimulus-presentation","199","286804","0.0-38.0-1.5","SS1613080102647","trial","","40","800","1000.0000001862645","images/stimuli/spore_stims/complex_02_B_c.gif","images/stimuli/spore_stims/complex_13_B_b.gif","","","","","10","complex_dissimilar","images/stimuli/spore_stims/complex_13_B_b.gif","right","","","","",""
"","null","html-keyboard-response","200","287614","0.0-38.0-0.6","SS1613080102647","","","null","","","","","<p><img src= images/blank.png width =""200"" height = ""200"" style = ""float:right""></p><p><img src=images/blank.png width =""800"" height = ""200""></p>","","","","","","","","","","","",""
"","103.00000011920929","sequential-stimulus-presentation","201","288540","0.0-38.0-1.6","SS1613080102647","trial","","40","800","903.0000001192093","images/stimuli/spore_stims/complex_02_B_c.gif","images/stimuli/spore_stims/complex_13_B_b.gif","","","","","10","complex_dissimilar","images/stimuli/spore_stims/complex_13_B_b.gif","right","","","","",""
"","null","html-keyboard-response","202","289798","0.0-38.0-0.7","SS1613080102647","","","null","","","","","<p><img src= images/blank.png width =""200"" height = ""200"" style = ""float:right""></p><p><img src=images/blank.png width =""800"" height = ""200""></p>","","","","","","","","","","","",""
"","407.99999982118607","sequential-stimulus-presentation","203","291020","0.0-38.0-1.7","SS1613080102647","trial","","40","800","1207.999999821186","images/stimuli/spore_stims/complex_02_B_c.gif","images/stimuli/spore_stims/complex_13_B_b.gif","","","","","10","complex_dissimilar","images/stimuli/spore_stims/complex_13_B_b.gif","right","","","","",""
"","283.00000028684735","html-keyboard-response","204","291312","0.0-39.0","SS1613080102647","pref_question","","50","","","","","<video width ='960' height = '540' style='padding-top:8%' autoplay muted><source src='images/stimuli/wall_pref.mp4' type='video/mp4'></video>","2","middle","45%","10","","","","","","","",""
"","371.0000002756715","sequential-stimulus-presentation","205","292498","0.0-40.0","SS1613080102647","pref_reveal","","40","800","1171.0000002756715","null","null","","","","","10","","","","novel","","","",""
"","null","html-keyboard-response","206","293504","0.0-41.0-0.0","SS1613080102647","","","null","","","","","<p><img src= images/blank.png width =""200"" height = ""200"" style = ""float:right""></p><p><img src=images/blank.png width =""800"" height = ""200""></p>","","","","","","","","","","","",""
"","265.99999982863665","sequential-stimulus-presentation","207","294626","0.0-41.0-1.0","SS1613080102647","trial","","40","800","1065.9999998286366","images/stimuli/spore_stims/complex_20_A_a.gif","images/stimuli/spore_stims/complex_20_B_a.gif","","","","","11","complex_similar","images/stimuli/spore_stims/complex_20_B_a.gif","right","","","","",""
"","null","html-keyboard-response","208","295515","0.0-41.0-0.1","SS1613080102647","","","null","","","","","<p><img src= images/blank.png width =""200"" height = ""200"" style = ""float:right""></p><p><img src=images/blank.png width =""800"" height = ""200""></p>","","","","","","","","","","","",""
"","50.99999997764826","sequential-stimulus-presentation","209","296380","0.0-41.0-1.1","SS1613080102647","trial","","40","800","850.9999999776483","images/stimuli/spore_stims/complex_20_A_a.gif","images/stimuli/spore_stims/complex_20_B_a.gif","","","","","11","complex_similar","images/stimuli/spore_stims/complex_20_B_a.gif","right","","","","",""
"","null","html-keyboard-response","210","297483","0.0-41.0-0.2","SS1613080102647","","","null","","","","","<p><img src= images/blank.png width =""200"" height = ""200"" style = ""float:right""></p><p><img src=images/blank.png width =""800"" height = ""200""></p>","","","","","","","","","","","",""
"","245.0000001117587","sequential-stimulus-presentation","211","298541","0.0-41.0-1.2","SS1613080102647","trial","","40","800","1045.0000001117587","images/stimuli/spore_stims/complex_20_A_a.gif","images/stimuli/spore_stims/complex_20_B_a.gif","","","","","11","complex_similar","images/stimuli/spore_stims/complex_20_B_a.gif","right","","","","",""
"","null","html-keyboard-response","212","299351","0.0-41.0-0.3","SS1613080102647","","","null","","","","","<p><img src= images/blank.png width =""200"" height = ""200"" style = ""float:right""></p><p><img src=images/blank.png width =""800"" height = ""200""></p>","","","","","","","","","","","",""
"","50.00000027939677","sequential-stimulus-presentation","213","300206","0.0-41.0-1.3","SS1613080102647","trial","","40","800","850.0000002793968","images/stimuli/spore_stims/complex_20_A_a.gif","images/stimuli/spore_stims/complex_20_B_a.gif","","","","","11","complex_similar","images/stimuli/spore_stims/complex_20_B_a.gif","right","","","","",""
"","null","html-keyboard-response","214","301048","0.0-41.0-0.4","SS1613080102647","","","null","","","","","<p><img src= images/blank.png width =""200"" height = ""200"" style = ""float:right""></p><p><img src=images/blank.png width =""800"" height = ""200""></p>","","","","","","","","","","","",""
"","580.0000000745058","sequential-stimulus-presentation","215","302439","0.0-41.0-1.4","SS1613080102647","trial","","40","800","1380.0000000745058","images/stimuli/spore_stims/complex_20_A_a.gif","images/stimuli/spore_stims/complex_20_B_a.gif","","","","","11","complex_similar","images/stimuli/spore_stims/complex_20_A_a.gif","left","","","","",""
"","null","html-keyboard-response","216","303461","0.0-41.0-0.5","SS1613080102647","","","null","","","","","<p><img src= images/blank.png width =""200"" height = ""200"" style = ""float:right""></p><p><img src=images/blank.png width =""800"" height = ""200""></p>","","","","","","","","","","","",""
"","154.00000009685755","sequential-stimulus-presentation","217","304433","0.0-41.0-1.5","SS1613080102647","trial","","40","800","954.0000000968575","images/stimuli/spore_stims/complex_20_A_a.gif","images/stimuli/spore_stims/complex_20_B_a.gif","","","","","11","complex_similar","images/stimuli/spore_stims/complex_20_B_a.gif","right","","","","",""
"","null","html-keyboard-response","218","305312","0.0-41.0-0.6","SS1613080102647","","","null","","","","","<p><img src= images/blank.png width =""200"" height = ""200"" style = ""float:right""></p><p><img src=images/blank.png width =""800"" height = ""200""></p>","","","","","","","","","","","",""
"","47.999999951571226","sequential-stimulus-presentation","219","306191","0.0-41.0-1.6","SS1613080102647","trial","","40","800","847.9999999515712","images/stimuli/spore_stims/complex_20_A_a.gif","images/stimuli/spore_stims/complex_20_B_a.gif","","","","","11","complex_similar","images/stimuli/spore_stims/complex_20_B_a.gif","right","","","","",""
"","null","html-keyboard-response","220","307050","0.0-41.0-0.7","SS1613080102647","","","null","","","","","<p><img src= images/blank.png width =""200"" height = ""200"" style = ""float:right""></p><p><img src=images/blank.png width =""800"" height = ""200""></p>","","","","","","","","","","","",""
"","4.000000189989805","sequential-stimulus-presentation","221","307886","0.0-41.0-1.7","SS1613080102647","trial","","40","800","804.0000001899898","images/stimuli/spore_stims/complex_20_A_a.gif","images/stimuli/spore_stims/complex_20_B_a.gif","","","","","11","complex_similar","images/stimuli/spore_stims/complex_20_B_a.gif","right","","","","",""
"","4401.999999769032","html-keyboard-response","222","312298","0.0-42.0","SS1613080102647","pref_question","","51","","","","","<video width ='960' height = '540' style='padding-top:8%' autoplay muted><source src='images/stimuli/wall_pref.mp4' type='video/mp4'></video>","3","right","66%","11","","","","","","","",""
"","356.9999998435378","sequential-stimulus-presentation","223","313463","0.0-43.0","SS1613080102647","pref_reveal","","40","800","1156.9999998435378","null","null","","","","","11","","","","background","","","",""
"","null","html-keyboard-response","224","314710","0.0-44.0-0.0","SS1613080102647","","","null","","","","","<p><img src= images/blank.png width =""200"" height = ""200"" style = ""float:right""></p><p><img src=images/blank.png width =""800"" height = ""200""></p>","","","","","","","","","","","",""
"","248.99999983608723","sequential-stimulus-presentation","225","315779","0.0-44.0-1.0","SS1613080102647","trial","","40","800","1048.9999998360872","images/stimuli/spore_stims/simple_10_B_c.gif","images/stimuli/spore_stims/simple_04_B_d.gif","","","","","12","simple_dissimilar","images/stimuli/spore_stims/simple_04_B_d.gif","middle","","","","",""
"","null","html-keyboard-response","226","316740","0.0-44.0-0.1","SS1613080102647","","","null","","","","","<p><img src= images/blank.png width =""200"" height = ""200"" style = ""float:right""></p><p><img src=images/blank.png width =""800"" height = ""200""></p>","","","","","","","","","","","",""
"","43.99999976158142","sequential-stimulus-presentation","227","317626","0.0-44.0-1.1","SS1613080102647","trial","","40","800","843.9999997615814","images/stimuli/spore_stims/simple_10_B_c.gif","images/stimuli/spore_stims/simple_04_B_d.gif","","","","","12","simple_dissimilar","images/stimuli/spore_stims/simple_04_B_d.gif","middle","","","","",""
"","null","html-keyboard-response","228","318672","0.0-44.0-0.2","SS1613080102647","","","null","","","","","<p><img src= images/blank.png width =""200"" height = ""200"" style = ""float:right""></p><p><img src=images/blank.png width =""800"" height = ""200""></p>","","","","","","","","","","","",""
"","171.99999978765845","sequential-stimulus-presentation","229","319655","0.0-44.0-1.2","SS1613080102647","trial","","40","800","971.9999997876585","images/stimuli/spore_stims/simple_10_B_c.gif","images/stimuli/spore_stims/simple_04_B_d.gif","","","","","12","simple_dissimilar","images/stimuli/spore_stims/simple_04_B_d.gif","middle","","","","",""
"","null","html-keyboard-response","230","320668","0.0-44.0-0.3","SS1613080102647","","","null","","","","","<p><img src= images/blank.png width =""200"" height = ""200"" style = ""float:right""></p><p><img src=images/blank.png width =""800"" height = ""200""></p>","","","","","","","","","","","",""
"","180.00000016763806","sequential-stimulus-presentation","231","321894","0.0-44.0-1.3","SS1613080102647","trial","","40","800","980.0000001676381","images/stimuli/spore_stims/simple_10_B_c.gif","images/stimuli/spore_stims/simple_04_B_d.gif","","","","","12","simple_dissimilar","images/stimuli/spore_stims/simple_04_B_d.gif","middle","","","","",""
"","null","html-keyboard-response","232","323078","0.0-44.0-0.4","SS1613080102647","","","null","","","","","<p><img src= images/blank.png width =""200"" height = ""200"" style = ""float:right""></p><p><img src=images/blank.png width =""800"" height = ""200""></p>","","","","","","","","","","","",""
"","135.00000024214387","sequential-stimulus-presentation","233","324034","0.0-44.0-1.4","SS1613080102647","trial","","40","800","935.0000002421439","images/stimuli/spore_stims/simple_10_B_c.gif","images/stimuli/spore_stims/simple_04_B_d.gif","","","","","12","simple_dissimilar","images/stimuli/spore_stims/simple_04_B_d.gif","middle","","","","",""
"","null","html-keyboard-response","234","325084","0.0-44.0-0.5","SS1613080102647","","","null","","","","","<p><img src= images/blank.png width =""200"" height = ""200"" style = ""float:right""></p><p><img src=images/blank.png width =""800"" height = ""200""></p>","","","","","","","","","","","",""
"","242.99999978393316","sequential-stimulus-presentation","235","326192","0.0-44.0-1.5","SS1613080102647","trial","","40","800","1042.9999997839332","images/stimuli/spore_stims/simple_10_B_c.gif","images/stimuli/spore_stims/simple_04_B_d.gif","","","","","12","simple_dissimilar","images/stimuli/spore_stims/simple_04_B_d.gif","middle","","","","",""
"","null","html-keyboard-response","236","327169","0.0-44.0-0.6","SS1613080102647","","","null","","","","","<p><img src= images/blank.png width =""200"" height = ""200"" style = ""float:right""></p><p><img src=images/blank.png width =""800"" height = ""200""></p>","","","","","","","","","","","",""
"","114.00000005960464","sequential-stimulus-presentation","237","328106","0.0-44.0-1.6","SS1613080102647","trial","","40","800","914.0000000596046","images/stimuli/spore_stims/simple_10_B_c.gif","images/stimuli/spore_stims/simple_04_B_d.gif","","","","","12","simple_dissimilar","images/stimuli/spore_stims/simple_10_B_c.gif","left","","","","",""
"","null","html-keyboard-response","238","328947","0.0-44.0-0.7","SS1613080102647","","","null","","","","","<p><img src= images/blank.png width =""200"" height = ""200"" style = ""float:right""></p><p><img src=images/blank.png width =""800"" height = ""200""></p>","","","","","","","","","","","",""
"","147.000000346452","sequential-stimulus-presentation","239","329910","0.0-44.0-1.7","SS1613080102647","trial","","40","800","947.000000346452","images/stimuli/spore_stims/simple_10_B_c.gif","images/stimuli/spore_stims/simple_04_B_d.gif","","","","","12","simple_dissimilar","images/stimuli/spore_stims/simple_04_B_d.gif","middle","","","","",""
"","43.99999976158142","html-keyboard-response","240","329961","0.0-45.0","SS1613080102647","pref_question","","51","","","","","<video width ='960' height = '540' style='padding-top:8%' autoplay muted><source src='images/stimuli/wall_pref.mp4' type='video/mp4'></video>","3","right","66%","12","","","","","","","",""
"","215.00000031664968","sequential-stimulus-presentation","241","330987","0.0-46.0","SS1613080102647","pref_reveal","","40","800","1015.0000003166497","null","null","","","","","12","","","","novel","","","",""
"","null","html-keyboard-response","242","332039","0.0-47.0-0.0","SS1613080102647","","","null","","","","","<p><img src= images/blank.png width =""200"" height = ""200"" style = ""float:right""></p><p><img src=images/blank.png width =""800"" height = ""200""></p>","","","","","","","","","","","",""
"","89.99999985098839","sequential-stimulus-presentation","243","332962","0.0-47.0-1.0","SS1613080102647","trial","","40","800","889.9999998509884","images/stimuli/spore_stims/complex_14_B_a.gif","images/stimuli/spore_stims/complex_16_A_c.gif","","","","","13","complex_dissimilar","images/stimuli/spore_stims/complex_16_A_c.gif","middle","","","","",""
"","null","html-keyboard-response","244","334094","0.0-47.0-0.1","SS1613080102647","","","null","","","","","<p><img src= images/blank.png width =""200"" height = ""200"" style = ""float:right""></p><p><img src=images/blank.png width =""800"" height = ""200""></p>","","","","","","","","","","","",""
"","37.00000001117587","sequential-stimulus-presentation","245","334947","0.0-47.0-1.1","SS1613080102647","trial","","40","800","837.0000000111759","images/stimuli/spore_stims/complex_14_B_a.gif","images/stimuli/spore_stims/complex_16_A_c.gif","","","","","13","complex_dissimilar","images/stimuli/spore_stims/complex_16_A_c.gif","middle","","","","",""
"","null","html-keyboard-response","246","336267","0.0-47.0-0.2","SS1613080102647","","","null","","","","","<p><img src= images/blank.png width =""200"" height = ""200"" style = ""float:right""></p><p><img src=images/blank.png width =""800"" height = ""200""></p>","","","","","","","","","","","",""
"","120.9999998100102","sequential-stimulus-presentation","247","337211","0.0-47.0-1.2","SS1613080102647","trial","","40","800","920.9999998100102","images/stimuli/spore_stims/complex_14_B_a.gif","images/stimuli/spore_stims/complex_16_A_c.gif","","","","","13","complex_dissimilar","images/stimuli/spore_stims/complex_16_A_c.gif","middle","","","","",""
"","null","html-keyboard-response","248","338313","0.0-47.0-0.3","SS1613080102647","","","null","","","","","<p><img src= images/blank.png width =""200"" height = ""200"" style = ""float:right""></p><p><img src=images/blank.png width =""800"" height = ""200""></p>","","","","","","","","","","","",""
"","222.9999997653067","sequential-stimulus-presentation","249","339353","0.0-47.0-1.3","SS1613080102647","trial","","40","800","1022.9999997653067","images/stimuli/spore_stims/complex_14_B_a.gif","images/stimuli/spore_stims/complex_16_A_c.gif","","","","","13","complex_dissimilar","images/stimuli/spore_stims/complex_16_A_c.gif","middle","","","","",""
"","null","html-keyboard-response","250","340720","0.0-47.0-0.4","SS1613080102647","","","null","","","","","<p><img src= images/blank.png width =""200"" height = ""200"" style = ""float:right""></p><p><img src=images/blank.png width =""800"" height = ""200""></p>","","","","","","","","","","","",""
"","162.00000001117587","sequential-stimulus-presentation","251","341695","0.0-47.0-1.4","SS1613080102647","trial","","40","800","962.0000000111759","images/stimuli/spore_stims/complex_14_B_a.gif","images/stimuli/spore_stims/complex_16_A_c.gif","","","","","13","complex_dissimilar","images/stimuli/spore_stims/complex_16_A_c.gif","middle","","","","",""
"","null","html-keyboard-response","252","343001","0.0-47.0-0.5","SS1613080102647","","","null","","","","","<p><img src= images/blank.png width =""200"" height = ""200"" style = ""float:right""></p><p><img src=images/blank.png width =""800"" height = ""200""></p>","","","","","","","","","","","",""
"","154.99999979510903","sequential-stimulus-presentation","253","343993","0.0-47.0-1.5","SS1613080102647","trial","","40","800","954.999999795109","images/stimuli/spore_stims/complex_14_B_a.gif","images/stimuli/spore_stims/complex_16_A_c.gif","","","","","13","complex_dissimilar","images/stimuli/spore_stims/complex_16_A_c.gif","middle","","","","",""
"","null","html-keyboard-response","254","344975","0.0-47.0-0.6","SS1613080102647","","","null","","","","","<p><img src= images/blank.png width =""200"" height = ""200"" style = ""float:right""></p><p><img src=images/blank.png width =""800"" height = ""200""></p>","","","","","","","","","","","",""
"","260.99999994039536","sequential-stimulus-presentation","255","346057","0.0-47.0-1.6","SS1613080102647","trial","","40","800","1060.9999999403954","images/stimuli/spore_stims/complex_14_B_a.gif","images/stimuli/spore_stims/complex_16_A_c.gif","","","","","13","complex_dissimilar","images/stimuli/spore_stims/complex_14_B_a.gif","left","","","","",""
"","null","html-keyboard-response","256","347093","0.0-47.0-0.7","SS1613080102647","","","null","","","","","<p><img src= images/blank.png width =""200"" height = ""200"" style = ""float:right""></p><p><img src=images/blank.png width =""800"" height = ""200""></p>","","","","","","","","","","","",""
"","145.00000001862645","sequential-stimulus-presentation","257","348055","0.0-47.0-1.7","SS1613080102647","trial","","40","800","945.0000000186265","images/stimuli/spore_stims/complex_14_B_a.gif","images/stimuli/spore_stims/complex_16_A_c.gif","","","","","13","complex_dissimilar","images/stimuli/spore_stims/complex_16_A_c.gif","middle","","","","",""
"","222.00000006705523","html-keyboard-response","258","348290","0.0-48.0","SS1613080102647","pref_question","","49","","","","","<video width ='960' height = '540' style='padding-top:8%' autoplay muted><source src='images/stimuli/wall_pref.mp4' type='video/mp4'></video>","1","left","25%","13","","","","","","","",""
"","50.00000027939677","sequential-stimulus-presentation","259","349174","0.0-49.0","SS1613080102647","pref_reveal","","40","800","850.0000002793968","null","null","","","","","13","","","","deviant","","","",""
"","null","html-keyboard-response","260","350437","0.0-50.0-0.0","SS1613080102647","","","null","","","","","<p><img src= images/blank.png width =""200"" height = ""200"" style = ""float:right""></p><p><img src=images/blank.png width =""800"" height = ""200""></p>","","","","","","","","","","","",""
"","61.99999991804361","sequential-stimulus-presentation","261","351308","0.0-50.0-1.0","SS1613080102647","trial","","40","800","861.9999999180436","images/stimuli/spore_stims/simple_02_A_d.gif","images/stimuli/spore_stims/simple_09_B_c.gif","","","","","14","simple_dissimilar","images/stimuli/spore_stims/simple_09_B_c.gif","left","","","","",""
"","null","html-keyboard-response","262","352126","0.0-50.0-0.1","SS1613080102647","","","null","","","","","<p><img src= images/blank.png width =""200"" height = ""200"" style = ""float:right""></p><p><img src=images/blank.png width =""800"" height = ""200""></p>","","","","","","","","","","","",""
"","64.99999994412065","sequential-stimulus-presentation","263","353022","0.0-50.0-1.1","SS1613080102647","trial","","40","800","864.9999999441206","images/stimuli/spore_stims/simple_02_A_d.gif","images/stimuli/spore_stims/simple_09_B_c.gif","","","","","14","simple_dissimilar","images/stimuli/spore_stims/simple_09_B_c.gif","left","","","","",""
"","null","html-keyboard-response","264","354290","0.0-50.0-0.2","SS1613080102647","","","null","","","","","<p><img src= images/blank.png width =""200"" height = ""200"" style = ""float:right""></p><p><img src=images/blank.png width =""800"" height = ""200""></p>","","","","","","","","","","","",""
"","177.99999983981252","sequential-stimulus-presentation","265","355281","0.0-50.0-1.2","SS1613080102647","trial","","40","800","977.9999998398125","images/stimuli/spore_stims/simple_02_A_d.gif","images/stimuli/spore_stims/simple_09_B_c.gif","","","","","14","simple_dissimilar","images/stimuli/spore_stims/simple_02_A_d.gif","middle","","","","",""
"","null","html-keyboard-response","266","356537","0.0-50.0-0.3","SS1613080102647","","","null","","","","","<p><img src= images/blank.png width =""200"" height = ""200"" style = ""float:right""></p><p><img src=images/blank.png width =""800"" height = ""200""></p>","","","","","","","","","","","",""
"","280.0000002607703","sequential-stimulus-presentation","267","357662","0.0-50.0-1.3","SS1613080102647","trial","","40","800","1080.0000002607703","images/stimuli/spore_stims/simple_02_A_d.gif","images/stimuli/spore_stims/simple_09_B_c.gif","","","","","14","simple_dissimilar","images/stimuli/spore_stims/simple_09_B_c.gif","left","","","","",""
"","null","html-keyboard-response","268","358570","0.0-50.0-0.4","SS1613080102647","","","null","","","","","<p><img src= images/blank.png width =""200"" height = ""200"" style = ""float:right""></p><p><img src=images/blank.png width =""800"" height = ""200""></p>","","","","","","","","","","","",""
"","162.00000001117587","sequential-stimulus-presentation","269","359543","0.0-50.0-1.4","SS1613080102647","trial","","40","800","962.0000000111759","images/stimuli/spore_stims/simple_02_A_d.gif","images/stimuli/spore_stims/simple_09_B_c.gif","","","","","14","simple_dissimilar","images/stimuli/spore_stims/simple_09_B_c.gif","left","","","","",""
"","null","html-keyboard-response","270","360557","0.0-50.0-0.5","SS1613080102647","","","null","","","","","<p><img src= images/blank.png width =""200"" height = ""200"" style = ""float:right""></p><p><img src=images/blank.png width =""800"" height = ""200""></p>","","","","","","","","","","","",""
"","47.00000025331974","sequential-stimulus-presentation","271","361409","0.0-50.0-1.5","SS1613080102647","trial","","40","800","847.0000002533197","images/stimuli/spore_stims/simple_02_A_d.gif","images/stimuli/spore_stims/simple_09_B_c.gif","","","","","14","simple_dissimilar","images/stimuli/spore_stims/simple_09_B_c.gif","left","","","","",""
"","null","html-keyboard-response","272","362399","0.0-50.0-0.6","SS1613080102647","","","null","","","","","<p><img src= images/blank.png width =""200"" height = ""200"" style = ""float:right""></p><p><img src=images/blank.png width =""800"" height = ""200""></p>","","","","","","","","","","","",""
"","1.999999862164259","sequential-stimulus-presentation","273","363215","0.0-50.0-1.6","SS1613080102647","trial","","40","800","801.9999998621643","images/stimuli/spore_stims/simple_02_A_d.gif","images/stimuli/spore_stims/simple_09_B_c.gif","","","","","14","simple_dissimilar","images/stimuli/spore_stims/simple_09_B_c.gif","left","","","","",""
"","null","html-keyboard-response","274","364489","0.0-50.0-0.7","SS1613080102647","","","null","","","","","<p><img src= images/blank.png width =""200"" height = ""200"" style = ""float:right""></p><p><img src=images/blank.png width =""800"" height = ""200""></p>","","","","","","","","","","","",""
"","108.00000000745058","sequential-stimulus-presentation","275","365421","0.0-50.0-1.7","SS1613080102647","trial","","40","800","908.0000000074506","images/stimuli/spore_stims/simple_02_A_d.gif","images/stimuli/spore_stims/simple_09_B_c.gif","","","","","14","simple_dissimilar","images/stimuli/spore_stims/simple_09_B_c.gif","left","","","","",""
"","38.000000175088644","html-keyboard-response","276","365468","0.0-51.0","SS1613080102647","pref_question","","51","","","","","<video width ='960' height = '540' style='padding-top:8%' autoplay muted><source src='images/stimuli/wall_pref.mp4' type='video/mp4'></video>","3","right","66%","14","","","","","","","",""
"","209.9999999627471","sequential-stimulus-presentation","277","366497","0.0-52.0","SS1613080102647","pref_reveal","","40","800","1009.9999999627471","null","null","","","","","14","","","","novel","","","",""
"","null","html-keyboard-response","278","367538","0.0-53.0-0.0","SS1613080102647","","","null","","","","","<p><img src= images/blank.png width =""200"" height = ""200"" style = ""float:right""></p><p><img src=images/blank.png width =""800"" height = ""200""></p>","","","","","","","","","","","",""
"","20.00000001862645","sequential-stimulus-presentation","279","368368","0.0-53.0-1.0","SS1613080102647","trial","","40","800","820.0000000186265","images/stimuli/spore_stims/simple_01_A_c.gif","images/stimuli/spore_stims/simple_19_A_a.gif","","","","","15","simple_dissimilar","images/stimuli/spore_stims/simple_19_A_a.gif","middle","","","","",""
"","null","html-keyboard-response","280","369680","0.0-53.0-0.1","SS1613080102647","","","null","","","","","<p><img src= images/blank.png width =""200"" height = ""200"" style = ""float:right""></p><p><img src=images/blank.png width =""800"" height = ""200""></p>","","","","","","","","","","","",""
"","211.99999982491136","sequential-stimulus-presentation","281","370729","0.0-53.0-1.1","SS1613080102647","trial","","40","800","1011.9999998249114","images/stimuli/spore_stims/simple_01_A_c.gif","images/stimuli/spore_stims/simple_19_A_a.gif","","","","","15","simple_dissimilar","images/stimuli/spore_stims/simple_19_A_a.gif","middle","","","","",""
"","null","html-keyboard-response","282","371654","0.0-53.0-0.2","SS1613080102647","","","null","","","","","<p><img src= images/blank.png width =""200"" height = ""200"" style = ""float:right""></p><p><img src=images/blank.png width =""800"" height = ""200""></p>","","","","","","","","","","","",""
"","189.00000024586916","sequential-stimulus-presentation","283","372655","0.0-53.0-1.2","SS1613080102647","trial","","40","800","989.0000002458692","images/stimuli/spore_stims/simple_01_A_c.gif","images/stimuli/spore_stims/simple_19_A_a.gif","","","","","15","simple_dissimilar","images/stimuli/spore_stims/simple_01_A_c.gif","right","","","","",""
"","null","html-keyboard-response","284","373683","0.0-53.0-0.3","SS1613080102647","","","null","","","","","<p><img src= images/blank.png width =""200"" height = ""200"" style = ""float:right""></p><p><img src=images/blank.png width =""800"" height = ""200""></p>","","","","","","","","","","","",""
"","131.99999975040555","sequential-stimulus-presentation","285","374631","0.0-53.0-1.3","SS1613080102647","trial","","40","800","931.9999997504056","images/stimuli/spore_stims/simple_01_A_c.gif","images/stimuli/spore_stims/simple_19_A_a.gif","","","","","15","simple_dissimilar","images/stimuli/spore_stims/simple_19_A_a.gif","middle","","","","",""
"","null","html-keyboard-response","286","375767","0.0-53.0-0.4","SS1613080102647","","","null","","","","","<p><img src= images/blank.png width =""200"" height = ""200"" style = ""float:right""></p><p><img src=images/blank.png width =""800"" height = ""200""></p>","","","","","","","","","","","",""
"","18.99999985471368","sequential-stimulus-presentation","287","376613","0.0-53.0-1.4","SS1613080102647","trial","","40","800","818.9999998547137","images/stimuli/spore_stims/simple_01_A_c.gif","images/stimuli/spore_stims/simple_19_A_a.gif","","","","","15","simple_dissimilar","images/stimuli/spore_stims/simple_19_A_a.gif","middle","","","","",""
"","null","html-keyboard-response","288","377748","0.0-53.0-0.5","SS1613080102647","","","null","","","","","<p><img src= images/blank.png width =""200"" height = ""200"" style = ""float:right""></p><p><img src=images/blank.png width =""800"" height = ""200""></p>","","","","","","","","","","","",""
"","43.000000063329935","sequential-stimulus-presentation","289","378602","0.0-53.0-1.5","SS1613080102647","trial","","40","800","843.0000000633299","images/stimuli/spore_stims/simple_01_A_c.gif","images/stimuli/spore_stims/simple_19_A_a.gif","","","","","15","simple_dissimilar","images/stimuli/spore_stims/simple_19_A_a.gif","middle","","","","",""
"","null","html-keyboard-response","290","379554","0.0-53.0-0.6","SS1613080102647","","","null","","","","","<p><img src= images/blank.png width =""200"" height = ""200"" style = ""float:right""></p><p><img src=images/blank.png width =""800"" height = ""200""></p>","","","","","","","","","","","",""
"","7.000000216066837","sequential-stimulus-presentation","291","380380","0.0-53.0-1.6","SS1613080102647","trial","","40","800","807.0000002160668","images/stimuli/spore_stims/simple_01_A_c.gif","images/stimuli/spore_stims/simple_19_A_a.gif","","","","","15","simple_dissimilar","images/stimuli/spore_stims/simple_19_A_a.gif","middle","","","","",""
"","null","html-keyboard-response","292","381473","0.0-53.0-0.7","SS1613080102647","","","null","","","","","<p><img src= images/blank.png width =""200"" height = ""200"" style = ""float:right""></p><p><img src=images/blank.png width =""800"" height = ""200""></p>","","","","","","","","","","","",""
"","250","sequential-stimulus-presentation","293","382565","0.0-53.0-1.7","SS1613080102647","trial","","40","800","1050","images/stimuli/spore_stims/simple_01_A_c.gif","images/stimuli/spore_stims/simple_19_A_a.gif","","","","","15","simple_dissimilar","images/stimuli/spore_stims/simple_19_A_a.gif","middle","","","","",""
"","63.00000008195639","html-keyboard-response","294","382662","0.0-54.0","SS1613080102647","pref_question","","49","","","","","<video width ='960' height = '540' style='padding-top:8%' autoplay muted><source src='images/stimuli/wall_pref.mp4' type='video/mp4'></video>","1","left","25%","15","","","","","","","",""
"","4.999999888241291","sequential-stimulus-presentation","295","383492","0.0-55.0","SS1613080102647","pref_reveal","","40","800","804.9999998882413","null","null","","","","","15","","","","novel","","","",""
"","null","html-keyboard-response","296","384538","0.0-56.0-0.0","SS1613080102647","","","null","","","","","<p><img src= images/blank.png width =""200"" height = ""200"" style = ""float:right""></p><p><img src=images/blank.png width =""800"" height = ""200""></p>","","","","","","","","","","","",""
"","10.999999940395355","sequential-stimulus-presentation","297","385362","0.0-56.0-1.0","SS1613080102647","trial","","40","800","810.9999999403954","images/stimuli/spore_stims/simple_03_B_c.gif","images/stimuli/spore_stims/simple_03_A_c.gif","","","","","16","simple_similar","images/stimuli/spore_stims/simple_03_A_c.gif","right","","","","",""
"","null","html-keyboard-response","298","386264","0.0-56.0-0.1","SS1613080102647","","","null","","","","","<p><img src= images/blank.png width =""200"" height = ""200"" style = ""float:right""></p><p><img src=images/blank.png width =""800"" height = ""200""></p>","","","","","","","","","","","",""
"","97.99999976530671","sequential-stimulus-presentation","299","387196","0.0-56.0-1.1","SS1613080102647","trial","","40","800","897.9999997653067","images/stimuli/spore_stims/simple_03_B_c.gif","images/stimuli/spore_stims/simple_03_A_c.gif","","","","","16","simple_similar","images/stimuli/spore_stims/simple_03_A_c.gif","right","","","","",""
"","null","html-keyboard-response","300","388393","0.0-56.0-0.2","SS1613080102647","","","null","","","","","<p><img src= images/blank.png width =""200"" height = ""200"" style = ""float:right""></p><p><img src=images/blank.png width =""800"" height = ""200""></p>","","","","","","","","","","","",""
"","140.00000013038516","sequential-stimulus-presentation","301","389334","0.0-56.0-1.2","SS1613080102647","trial","","40","800","940.0000001303852","images/stimuli/spore_stims/simple_03_B_c.gif","images/stimuli/spore_stims/simple_03_A_c.gif","","","","","16","simple_similar","images/stimuli/spore_stims/simple_03_A_c.gif","right","","","","",""
"","null","html-keyboard-response","302","390548","0.0-56.0-0.3","SS1613080102647","","","null","","","","","<p><img src= images/blank.png width =""200"" height = ""200"" style = ""float:right""></p><p><img src=images/blank.png width =""800"" height = ""200""></p>","","","","","","","","","","","",""
"","202.99999974668026","sequential-stimulus-presentation","303","391560","0.0-56.0-1.3","SS1613080102647","trial","","40","800","1002.9999997466803","images/stimuli/spore_stims/simple_03_B_c.gif","images/stimuli/spore_stims/simple_03_A_c.gif","","","","","16","simple_similar","images/stimuli/spore_stims/simple_03_A_c.gif","right","","","","",""
"","null","html-keyboard-response","304","392504","0.0-56.0-0.4","SS1613080102647","","","null","","","","","<p><img src= images/blank.png width =""200"" height = ""200"" style = ""float:right""></p><p><img src=images/blank.png width =""800"" height = ""200""></p>","","","","","","","","","","","",""
"","27.999999932944775","sequential-stimulus-presentation","305","393356","0.0-56.0-1.4","SS1613080102647","trial","","40","800","827.9999999329448","images/stimuli/spore_stims/simple_03_B_c.gif","images/stimuli/spore_stims/simple_03_A_c.gif","","","","","16","simple_similar","images/stimuli/spore_stims/simple_03_A_c.gif","right","","","","",""
"","null","html-keyboard-response","306","394361","0.0-56.0-0.5","SS1613080102647","","","null","","","","","<p><img src= images/blank.png width =""200"" height = ""200"" style = ""float:right""></p><p><img src=images/blank.png width =""800"" height = ""200""></p>","","","","","","","","","","","",""
"","160.0000001490116","sequential-stimulus-presentation","307","395341","0.0-56.0-1.5","SS1613080102647","trial","","40","800","960.0000001490116","images/stimuli/spore_stims/simple_03_B_c.gif","images/stimuli/spore_stims/simple_03_A_c.gif","","","","","16","simple_similar","images/stimuli/spore_stims/simple_03_A_c.gif","right","","","","",""
"","null","html-keyboard-response","308","396406","0.0-56.0-0.6","SS1613080102647","","","null","","","","","<p><img src= images/blank.png width =""200"" height = ""200"" style = ""float:right""></p><p><img src=images/blank.png width =""800"" height = ""200""></p>","","","","","","","","","","","",""
"","297.9999999515712","sequential-stimulus-presentation","309","397519","0.0-56.0-1.6","SS1613080102647","trial","","40","800","1097.9999999515712","images/stimuli/spore_stims/simple_03_B_c.gif","images/stimuli/spore_stims/simple_03_A_c.gif","","","","","16","simple_similar","images/stimuli/spore_stims/simple_03_B_c.gif","middle","","","","",""
"","null","html-keyboard-response","310","398591","0.0-56.0-0.7","SS1613080102647","","","null","","","","","<p><img src= images/blank.png width =""200"" height = ""200"" style = ""float:right""></p><p><img src=images/blank.png width =""800"" height = ""200""></p>","","","","","","","","","","","",""
"","18.000000156462193","sequential-stimulus-presentation","311","399469","0.0-56.0-1.7","SS1613080102647","trial","","40","800","818.0000001564622","images/stimuli/spore_stims/simple_03_B_c.gif","images/stimuli/spore_stims/simple_03_A_c.gif","","","","","16","simple_similar","images/stimuli/spore_stims/simple_03_A_c.gif","right","","","","",""
"","503.00000002607703","html-keyboard-response","312","400010","0.0-57.0","SS1613080102647","pref_question","","49","","","","","<video width ='960' height = '540' style='padding-top:8%' autoplay muted><source src='images/stimuli/wall_pref.mp4' type='video/mp4'></video>","1","left","25%","16","","","","","","","",""
