"view_history","rt","trial_type","trial_index","time_elapsed","internal_node_id","subject","stimulus_type","trial_stimulus","key_press","minimum_viewing_duration","trial_looking_time","block_deviant","block_background","stimulus","wall_pref","location","location_percent","block_number","block_type","stimulus_displayed","position_displayed","stim_type_selected","responses","question_order","stimulus_left","stimulus_right"
"[{""page_index"":0,""viewing_time"":1991.0000000381842}]","1992.0000000856817","instructions","0","1994","0.0-0.0","SS1613100526989","","","","","","","","","","","","","","","","","","","",""
"[{""page_index"":0,""viewing_time"":1908.0000000540167},{""page_index"":1,""viewing_time"":2645.9999999497086}]","4555.000000051223","instructions","1","8550","0.0-1.0","SS1613100526989","instructions","","","","","","","","","","","","","","","","","","",""
"","3817.0000000391155","sequential-stimulus-presentation","2","13182","0.0-2.0","SS1613100526989","","","40","800","4617.000000039116","null","null","","","","","","","","","","","","",""
"","138.00000003539026","sequential-stimulus-presentation","3","14127","0.0-3.0","SS1613100526989","","","40","800","938.0000000353903","null","null","","","","","","","","","","","","",""
"[{""page_index"":0,""viewing_time"":2184.000000008382}]","2184.000000008382","instructions","4","16314","0.0-4.0","SS1613100526989","instructions","","","","","","","","","","","","","","","","","","",""
"","7212.000000057742","html-keyboard-response","5","23544","0.0-5.0","SS1613100526989","instructions","","49","","","","","<video width ='960' height = '540' autoplay muted><source src='images/stimuli/wall_pref.mp4' type='video/mp4'></video>","1","left","25%","","","","","","","","",""
"","1172.9999999515712","sequential-stimulus-presentation","6","25523","0.0-6.0","SS1613100526989","pref_reveal","","40","800","1972.9999999515712","null","null","","","","","","","","","","","","",""
"[{""page_index"":0,""viewing_time"":2004.0000000735745},{""page_index"":1,""viewing_time"":716.0000000149012},{""page_index"":2,""viewing_time"":1178.99999988731},{""page_index"":3,""viewing_time"":1060.0000000558794}]","4960.000000079162","instructions","7","30484","0.0-7.0","SS1613100526989","instructions","","","","","","","","","","","","","","","","","","",""
"","null","html-keyboard-response","8","31365","0.0-8.0-0.0","SS1613100526989","","","null","","","","","<p><img src= images/blank.png width =""200"" height = ""200"" style = ""float:right""></p><p><img src=images/blank.png width =""800"" height = ""200""></p>","","","","","","","","","","","",""
"","101.00000002421439","sequential-stimulus-presentation","9","32273","0.0-8.0-1.0","SS1613100526989","trial","","40","800","901.0000000242144","images/stimuli/spore_stims/complex_02_B_a.gif","images/stimuli/spore_stims/complex_11_B_c.gif","","","","","0","complex_dissimilar","images/stimuli/spore_stims/complex_11_B_c.gif","right","","","","",""
"","null","html-keyboard-response","10","33349","0.0-8.0-0.1","SS1613100526989","","","null","","","","","<p><img src= images/blank.png width =""200"" height = ""200"" style = ""float:right""></p><p><img src=images/blank.png width =""800"" height = ""200""></p>","","","","","","","","","","","",""
"","72.00000004377216","sequential-stimulus-presentation","11","34227","0.0-8.0-1.1","SS1613100526989","trial","","40","800","872.0000000437722","images/stimuli/spore_stims/complex_02_B_a.gif","images/stimuli/spore_stims/complex_11_B_c.gif","","","","","0","complex_dissimilar","images/stimuli/spore_stims/complex_11_B_c.gif","right","","","","",""
"","null","html-keyboard-response","12","35131","0.0-8.0-0.2","SS1613100526989","","","null","","","","","<p><img src= images/blank.png width =""200"" height = ""200"" style = ""float:right""></p><p><img src=images/blank.png width =""800"" height = ""200""></p>","","","","","","","","","","","",""
"","200.0000000698492","sequential-stimulus-presentation","13","36142","0.0-8.0-1.2","SS1613100526989","trial","","40","800","1000.0000000698492","images/stimuli/spore_stims/complex_02_B_a.gif","images/stimuli/spore_stims/complex_11_B_c.gif","","","","","0","complex_dissimilar","images/stimuli/spore_stims/complex_11_B_c.gif","right","","","","",""
"","null","html-keyboard-response","14","36957","0.0-8.0-0.3","SS1613100526989","","","null","","","","","<p><img src= images/blank.png width =""200"" height = ""200"" style = ""float:right""></p><p><img src=images/blank.png width =""800"" height = ""200""></p>","","","","","","","","","","","",""
"","155.00000002793968","sequential-stimulus-presentation","15","37923","0.0-8.0-1.3","SS1613100526989","trial","","40","800","955.0000000279397","images/stimuli/spore_stims/complex_02_B_a.gif","images/stimuli/spore_stims/complex_11_B_c.gif","","","","","0","complex_dissimilar","images/stimuli/spore_stims/complex_11_B_c.gif","right","","","","",""
"","null","html-keyboard-response","16","38922","0.0-8.0-0.4","SS1613100526989","","","null","","","","","<p><img src= images/blank.png width =""200"" height = ""200"" style = ""float:right""></p><p><img src=images/blank.png width =""800"" height = ""200""></p>","","","","","","","","","","","",""
"","46.00000008940697","sequential-stimulus-presentation","17","39774","0.0-8.0-1.4","SS1613100526989","trial","","40","800","846.000000089407","images/stimuli/spore_stims/complex_02_B_a.gif","images/stimuli/spore_stims/complex_11_B_c.gif","","","","","0","complex_dissimilar","images/stimuli/spore_stims/complex_11_B_c.gif","right","","","","",""
"","null","html-keyboard-response","18","40835","0.0-8.0-0.5","SS1613100526989","","","null","","","","","<p><img src= images/blank.png width =""200"" height = ""200"" style = ""float:right""></p><p><img src=images/blank.png width =""800"" height = ""200""></p>","","","","","","","","","","","",""
"","148.9999999757856","sequential-stimulus-presentation","19","41793","0.0-8.0-1.5","SS1613100526989","trial","","40","800","948.9999999757856","images/stimuli/spore_stims/complex_02_B_a.gif","images/stimuli/spore_stims/complex_11_B_c.gif","","","","","0","complex_dissimilar","images/stimuli/spore_stims/complex_11_B_c.gif","right","","","","",""
"","null","html-keyboard-response","20","42798","0.0-8.0-0.6","SS1613100526989","","","null","","","","","<p><img src= images/blank.png width =""200"" height = ""200"" style = ""float:right""></p><p><img src=images/blank.png width =""800"" height = ""200""></p>","","","","","","","","","","","",""
"","76.00000000093132","sequential-stimulus-presentation","21","43712","0.0-8.0-1.6","SS1613100526989","trial","","40","800","876.0000000009313","images/stimuli/spore_stims/complex_02_B_a.gif","images/stimuli/spore_stims/complex_11_B_c.gif","","","","","0","complex_dissimilar","images/stimuli/spore_stims/complex_02_B_a.gif","left","","","","",""
"","null","html-keyboard-response","22","44699","0.0-8.0-0.7","SS1613100526989","","","null","","","","","<p><img src= images/blank.png width =""200"" height = ""200"" style = ""float:right""></p><p><img src=images/blank.png width =""800"" height = ""200""></p>","","","","","","","","","","","",""
"","212.000000057742","sequential-stimulus-presentation","23","45717","0.0-8.0-1.7","SS1613100526989","trial","","40","800","1012.000000057742","images/stimuli/spore_stims/complex_02_B_a.gif","images/stimuli/spore_stims/complex_11_B_c.gif","","","","","0","complex_dissimilar","images/stimuli/spore_stims/complex_11_B_c.gif","right","","","","",""
"","59.0000000083819","html-keyboard-response","24","45779","0.0-9.0","SS1613100526989","pref_question","","51","","","","","<video width ='960' height = '540' style='padding-top:8%' autoplay muted><source src='images/stimuli/wall_pref.mp4' type='video/mp4'></video>","3","right","66%","0","","","","","","","",""
"","217.99999999348074","sequential-stimulus-presentation","25","46801","0.0-10.0","SS1613100526989","pref_reveal","","40","800","1017.9999999934807","null","null","","","","","0","","","","background","","","",""
"","null","html-keyboard-response","26","47877","0.0-11.0-0.0","SS1613100526989","","","null","","","","","<p><img src= images/blank.png width =""200"" height = ""200"" style = ""float:right""></p><p><img src=images/blank.png width =""800"" height = ""200""></p>","","","","","","","","","","","",""
"","30.999999959021807","sequential-stimulus-presentation","27","48726","0.0-11.0-1.0","SS1613100526989","trial","","40","800","830.9999999590218","images/stimuli/spore_stims/complex_10_B_c.gif","images/stimuli/spore_stims/complex_10_A_c.gif","","","","","1","complex_similar","images/stimuli/spore_stims/complex_10_A_c.gif","middle","","","","",""
"","null","html-keyboard-response","28","49599","0.0-11.0-0.1","SS1613100526989","","","null","","","","","<p><img src= images/blank.png width =""200"" height = ""200"" style = ""float:right""></p><p><img src=images/blank.png width =""800"" height = ""200""></p>","","","","","","","","","","","",""
"","167.9999999469146","sequential-stimulus-presentation","29","50573","0.0-11.0-1.1","SS1613100526989","trial","","40","800","967.9999999469146","images/stimuli/spore_stims/complex_10_B_c.gif","images/stimuli/spore_stims/complex_10_A_c.gif","","","","","1","complex_similar","images/stimuli/spore_stims/complex_10_A_c.gif","middle","","","","",""
"","null","html-keyboard-response","30","51459","0.0-11.0-0.2","SS1613100526989","","","null","","","","","<p><img src= images/blank.png width =""200"" height = ""200"" style = ""float:right""></p><p><img src=images/blank.png width =""800"" height = ""200""></p>","","","","","","","","","","","",""
"","57.99999996088445","sequential-stimulus-presentation","31","52331","0.0-11.0-1.2","SS1613100526989","trial","","40","800","857.9999999608845","images/stimuli/spore_stims/complex_10_B_c.gif","images/stimuli/spore_stims/complex_10_A_c.gif","","","","","1","complex_similar","images/stimuli/spore_stims/complex_10_A_c.gif","middle","","","","",""
"","null","html-keyboard-response","32","53300","0.0-11.0-0.3","SS1613100526989","","","null","","","","","<p><img src= images/blank.png width =""200"" height = ""200"" style = ""float:right""></p><p><img src=images/blank.png width =""800"" height = ""200""></p>","","","","","","","","","","","",""
"","37.00000001117587","sequential-stimulus-presentation","33","54143","0.0-11.0-1.3","SS1613100526989","trial","","40","800","837.0000000111759","images/stimuli/spore_stims/complex_10_B_c.gif","images/stimuli/spore_stims/complex_10_A_c.gif","","","","","1","complex_similar","images/stimuli/spore_stims/complex_10_A_c.gif","middle","","","","",""
"","null","html-keyboard-response","34","55275","0.0-11.0-0.4","SS1613100526989","","","null","","","","","<p><img src= images/blank.png width =""200"" height = ""200"" style = ""float:right""></p><p><img src=images/blank.png width =""800"" height = ""200""></p>","","","","","","","","","","","",""
"","140.00000001396984","sequential-stimulus-presentation","35","56227","0.0-11.0-1.4","SS1613100526989","trial","","40","800","940.0000000139698","images/stimuli/spore_stims/complex_10_B_c.gif","images/stimuli/spore_stims/complex_10_A_c.gif","","","","","1","complex_similar","images/stimuli/spore_stims/complex_10_B_c.gif","left","","","","",""
"","null","html-keyboard-response","36","57320","0.0-11.0-0.5","SS1613100526989","","","null","","","","","<p><img src= images/blank.png width =""200"" height = ""200"" style = ""float:right""></p><p><img src=images/blank.png width =""800"" height = ""200""></p>","","","","","","","","","","","",""
"","400.9999999543652","sequential-stimulus-presentation","37","58530","0.0-11.0-1.5","SS1613100526989","trial","","40","800","1200.9999999543652","images/stimuli/spore_stims/complex_10_B_c.gif","images/stimuli/spore_stims/complex_10_A_c.gif","","","","","1","complex_similar","images/stimuli/spore_stims/complex_10_A_c.gif","middle","","","","",""
"","null","html-keyboard-response","38","59605","0.0-11.0-0.6","SS1613100526989","","","null","","","","","<p><img src= images/blank.png width =""200"" height = ""200"" style = ""float:right""></p><p><img src=images/blank.png width =""800"" height = ""200""></p>","","","","","","","","","","","",""
"","180.00000005122274","sequential-stimulus-presentation","39","60593","0.0-11.0-1.6","SS1613100526989","trial","","40","800","980.0000000512227","images/stimuli/spore_stims/complex_10_B_c.gif","images/stimuli/spore_stims/complex_10_A_c.gif","","","","","1","complex_similar","images/stimuli/spore_stims/complex_10_A_c.gif","middle","","","","",""
"","null","html-keyboard-response","40","61593","0.0-11.0-0.7","SS1613100526989","","","null","","","","","<p><img src= images/blank.png width =""200"" height = ""200"" style = ""float:right""></p><p><img src=images/blank.png width =""800"" height = ""200""></p>","","","","","","","","","","","",""
"","183.00000007729977","sequential-stimulus-presentation","41","62584","0.0-11.0-1.7","SS1613100526989","trial","","40","800","983.0000000772998","images/stimuli/spore_stims/complex_10_B_c.gif","images/stimuli/spore_stims/complex_10_A_c.gif","","","","","1","complex_similar","images/stimuli/spore_stims/complex_10_A_c.gif","middle","","","","",""
"","46.999999904073775","html-keyboard-response","42","62634","0.0-12.0","SS1613100526989","pref_question","","50","","","","","<video width ='960' height = '540' style='padding-top:8%' autoplay muted><source src='images/stimuli/wall_pref.mp4' type='video/mp4'></video>","2","middle","45%","1","","","","","","","",""
"","110.99999991711229","sequential-stimulus-presentation","43","63549","0.0-13.0","SS1613100526989","pref_reveal","","40","800","910.9999999171123","null","null","","","","","1","","","","background","","","",""
"","null","html-keyboard-response","44","64657","0.0-14.0-0.0","SS1613100526989","","","null","","","","","<p><img src= images/blank.png width =""200"" height = ""200"" style = ""float:right""></p><p><img src=images/blank.png width =""800"" height = ""200""></p>","","","","","","","","","","","",""
"","231.000000028871","sequential-stimulus-presentation","45","65697","0.0-14.0-1.0","SS1613100526989","trial","","40","800","1031.000000028871","images/stimuli/spore_stims/simple_19_B_a.gif","images/stimuli/spore_stims/simple_19_A_a.gif","","","","","2","simple_similar","images/stimuli/spore_stims/simple_19_A_a.gif","middle","","","","",""
"","null","html-keyboard-response","46","66795","0.0-14.0-0.1","SS1613100526989","","","null","","","","","<p><img src= images/blank.png width =""200"" height = ""200"" style = ""float:right""></p><p><img src=images/blank.png width =""800"" height = ""200""></p>","","","","","","","","","","","",""
"","69.00000001769513","sequential-stimulus-presentation","47","67673","0.0-14.0-1.1","SS1613100526989","trial","","40","800","869.0000000176951","images/stimuli/spore_stims/simple_19_B_a.gif","images/stimuli/spore_stims/simple_19_A_a.gif","","","","","2","simple_similar","images/stimuli/spore_stims/simple_19_A_a.gif","middle","","","","",""
"","null","html-keyboard-response","48","68736","0.0-14.0-0.2","SS1613100526989","","","null","","","","","<p><img src= images/blank.png width =""200"" height = ""200"" style = ""float:right""></p><p><img src=images/blank.png width =""800"" height = ""200""></p>","","","","","","","","","","","",""
"","21.000000066123903","sequential-stimulus-presentation","49","69572","0.0-14.0-1.2","SS1613100526989","trial","","40","800","821.0000000661239","images/stimuli/spore_stims/simple_19_B_a.gif","images/stimuli/spore_stims/simple_19_A_a.gif","","","","","2","simple_similar","images/stimuli/spore_stims/simple_19_A_a.gif","middle","","","","",""
"","null","html-keyboard-response","50","70756","0.0-14.0-0.3","SS1613100526989","","","null","","","","","<p><img src= images/blank.png width =""200"" height = ""200"" style = ""float:right""></p><p><img src=images/blank.png width =""800"" height = ""200""></p>","","","","","","","","","","","",""
"","217.99999999348074","sequential-stimulus-presentation","51","71782","0.0-14.0-1.3","SS1613100526989","trial","","40","800","1017.9999999934807","images/stimuli/spore_stims/simple_19_B_a.gif","images/stimuli/spore_stims/simple_19_A_a.gif","","","","","2","simple_similar","images/stimuli/spore_stims/simple_19_A_a.gif","middle","","","","",""
"","null","html-keyboard-response","52","73047","0.0-14.0-0.4","SS1613100526989","","","null","","","","","<p><img src= images/blank.png width =""200"" height = ""200"" style = ""float:right""></p><p><img src=images/blank.png width =""800"" height = ""200""></p>","","","","","","","","","","","",""
"","221.9999999506399","sequential-stimulus-presentation","53","74082","0.0-14.0-1.4","SS1613100526989","trial","","40","800","1021.9999999506399","images/stimuli/spore_stims/simple_19_B_a.gif","images/stimuli/spore_stims/simple_19_A_a.gif","","","","","2","simple_similar","images/stimuli/spore_stims/simple_19_A_a.gif","middle","","","","",""
"","null","html-keyboard-response","54","75048","0.0-14.0-0.5","SS1613100526989","","","null","","","","","<p><img src= images/blank.png width =""200"" height = ""200"" style = ""float:right""></p><p><img src=images/blank.png width =""800"" height = ""200""></p>","","","","","","","","","","","",""
"","111.00000003352761","sequential-stimulus-presentation","55","75972","0.0-14.0-1.5","SS1613100526989","trial","","40","800","911.0000000335276","images/stimuli/spore_stims/simple_19_B_a.gif","images/stimuli/spore_stims/simple_19_A_a.gif","","","","","2","simple_similar","images/stimuli/spore_stims/simple_19_B_a.gif","right","","","","",""
"","null","html-keyboard-response","56","76900","0.0-14.0-0.6","SS1613100526989","","","null","","","","","<p><img src= images/blank.png width =""200"" height = ""200"" style = ""float:right""></p><p><img src=images/blank.png width =""800"" height = ""200""></p>","","","","","","","","","","","",""
"","79.00000002700835","sequential-stimulus-presentation","57","77783","0.0-14.0-1.6","SS1613100526989","trial","","40","800","879.0000000270084","images/stimuli/spore_stims/simple_19_B_a.gif","images/stimuli/spore_stims/simple_19_A_a.gif","","","","","2","simple_similar","images/stimuli/spore_stims/simple_19_A_a.gif","middle","","","","",""
"","null","html-keyboard-response","58","78668","0.0-14.0-0.7","SS1613100526989","","","null","","","","","<p><img src= images/blank.png width =""200"" height = ""200"" style = ""float:right""></p><p><img src=images/blank.png width =""800"" height = ""200""></p>","","","","","","","","","","","",""
"","165.0000000372529","sequential-stimulus-presentation","59","79643","0.0-14.0-1.7","SS1613100526989","trial","","40","800","965.0000000372529","images/stimuli/spore_stims/simple_19_B_a.gif","images/stimuli/spore_stims/simple_19_A_a.gif","","","","","2","simple_similar","images/stimuli/spore_stims/simple_19_A_a.gif","middle","","","","",""
"","72.99999997485429","html-keyboard-response","60","79732","0.0-15.0","SS1613100526989","pref_question","","50","","","","","<video width ='960' height = '540' style='padding-top:8%' autoplay muted><source src='images/stimuli/wall_pref.mp4' type='video/mp4'></video>","2","middle","45%","2","","","","","","","",""
"","214.00000003632158","sequential-stimulus-presentation","61","80751","0.0-16.0","SS1613100526989","pref_reveal","","40","800","1014.0000000363216","null","null","","","","","2","","","","background","","","",""
"","null","html-keyboard-response","62","82068","0.0-17.0-0.0","SS1613100526989","","","null","","","","","<p><img src= images/blank.png width =""200"" height = ""200"" style = ""float:right""></p><p><img src=images/blank.png width =""800"" height = ""200""></p>","","","","","","","","","","","",""
"","177.99999995622784","sequential-stimulus-presentation","63","83057","0.0-17.0-1.0","SS1613100526989","trial","","40","800","977.9999999562278","images/stimuli/spore_stims/complex_18_A_d.gif","images/stimuli/spore_stims/complex_16_B_d.gif","","","","","3","complex_dissimilar","images/stimuli/spore_stims/complex_16_B_d.gif","right","","","","",""
"","null","html-keyboard-response","64","84335","0.0-17.0-0.1","SS1613100526989","","","null","","","","","<p><img src= images/blank.png width =""200"" height = ""200"" style = ""float:right""></p><p><img src=images/blank.png width =""800"" height = ""200""></p>","","","","","","","","","","","",""
"","81.00000000558794","sequential-stimulus-presentation","65","85221","0.0-17.0-1.1","SS1613100526989","trial","","40","800","881.0000000055879","images/stimuli/spore_stims/complex_18_A_d.gif","images/stimuli/spore_stims/complex_16_B_d.gif","","","","","3","complex_dissimilar","images/stimuli/spore_stims/complex_16_B_d.gif","right","","","","",""
"","null","html-keyboard-response","66","86359","0.0-17.0-0.2","SS1613100526989","","","null","","","","","<p><img src= images/blank.png width =""200"" height = ""200"" style = ""float:right""></p><p><img src=images/blank.png width =""800"" height = ""200""></p>","","","","","","","","","","","",""
"","110.99999991711229","sequential-stimulus-presentation","67","87286","0.0-17.0-1.2","SS1613100526989","trial","","40","800","910.9999999171123","images/stimuli/spore_stims/complex_18_A_d.gif","images/stimuli/spore_stims/complex_16_B_d.gif","","","","","3","complex_dissimilar","images/stimuli/spore_stims/complex_16_B_d.gif","right","","","","",""
"","null","html-keyboard-response","68","88343","0.0-17.0-0.3","SS1613100526989","","","null","","","","","<p><img src= images/blank.png width =""200"" height = ""200"" style = ""float:right""></p><p><img src=images/blank.png width =""800"" height = ""200""></p>","","","","","","","","","","","",""
"","224.99999997671694","sequential-stimulus-presentation","69","89373","0.0-17.0-1.3","SS1613100526989","trial","","40","800","1024.999999976717","images/stimuli/spore_stims/complex_18_A_d.gif","images/stimuli/spore_stims/complex_16_B_d.gif","","","","","3","complex_dissimilar","images/stimuli/spore_stims/complex_16_B_d.gif","right","","","","",""
"","null","html-keyboard-response","70","90230","0.0-17.0-0.4","SS1613100526989","","","null","","","","","<p><img src= images/blank.png width =""200"" height = ""200"" style = ""float:right""></p><p><img src=images/blank.png width =""800"" height = ""200""></p>","","","","","","","","","","","",""
"","209.00000003166497","sequential-stimulus-presentation","71","91243","0.0-17.0-1.4","SS1613100526989","trial","","40","800","1009.000000031665","images/stimuli/spore_stims/complex_18_A_d.gif","images/stimuli/spore_stims/complex_16_B_d.gif","","","","","3","complex_dissimilar","images/stimuli/spore_stims/complex_16_B_d.gif","right","","","","",""
"","null","html-keyboard-response","72","92417","0.0-17.0-0.5","SS1613100526989","","","null","","","","","<p><img src= images/blank.png width =""200"" height = ""200"" style = ""float:right""></p><p><img src=images/blank.png width =""800"" height = ""200""></p>","","","","","","","","","","","",""
"","140.00000001396984","sequential-stimulus-presentation","73","93362","0.0-17.0-1.5","SS1613100526989","trial","","40","800","940.0000000139698","images/stimuli/spore_stims/complex_18_A_d.gif","images/stimuli/spore_stims/complex_16_B_d.gif","","","","","3","complex_dissimilar","images/stimuli/spore_stims/complex_16_B_d.gif","right","","","","",""
"","null","html-keyboard-response","74","94593","0.0-17.0-0.6","SS1613100526989","","","null","","","","","<p><img src= images/blank.png width =""200"" height = ""200"" style = ""float:right""></p><p><img src=images/blank.png width =""800"" height = ""200""></p>","","","","","","","","","","","",""
"","532.9999999376014","sequential-stimulus-presentation","75","95931","0.0-17.0-1.6","SS1613100526989","trial","","40","800","1332.9999999376014","images/stimuli/spore_stims/complex_18_A_d.gif","images/stimuli/spore_stims/complex_16_B_d.gif","","","","","3","complex_dissimilar","images/stimuli/spore_stims/complex_18_A_d.gif","middle","","","","",""
"","null","html-keyboard-response","76","96737","0.0-17.0-0.7","SS1613100526989","","","null","","","","","<p><img src= images/blank.png width =""200"" height = ""200"" style = ""float:right""></p><p><img src=images/blank.png width =""800"" height = ""200""></p>","","","","","","","","","","","",""
"","146.0000000661239","sequential-stimulus-presentation","77","97692","0.0-17.0-1.7","SS1613100526989","trial","","40","800","946.0000000661239","images/stimuli/spore_stims/complex_18_A_d.gif","images/stimuli/spore_stims/complex_16_B_d.gif","","","","","3","complex_dissimilar","images/stimuli/spore_stims/complex_16_B_d.gif","right","","","","",""
"","293.00000006332994","html-keyboard-response","78","98007","0.0-18.0","SS1613100526989","pref_question","","51","","","","","<video width ='960' height = '540' style='padding-top:8%' autoplay muted><source src='images/stimuli/wall_pref.mp4' type='video/mp4'></video>","3","right","66%","3","","","","","","","",""
"","175.99999997764826","sequential-stimulus-presentation","79","98987","0.0-19.0","SS1613100526989","pref_reveal","","40","800","975.9999999776483","null","null","","","","","3","","","","background","","","",""
"","null","html-keyboard-response","80","100098","0.0-20.0-0.0","SS1613100526989","","","null","","","","","<p><img src= images/blank.png width =""200"" height = ""200"" style = ""float:right""></p><p><img src=images/blank.png width =""800"" height = ""200""></p>","","","","","","","","","","","",""
"","835.0000000791624","sequential-stimulus-presentation","81","101740","0.0-20.0-1.0","SS1613100526989","trial","","40","800","1635.0000000791624","images/stimuli/spore_stims/simple_11_B_d.gif","images/stimuli/spore_stims/simple_11_A_d.gif","","","","","4","simple_similar","images/stimuli/spore_stims/simple_11_A_d.gif","middle","","","","",""
"","null","html-keyboard-response","82","103012","0.0-20.0-0.1","SS1613100526989","","","null","","","","","<p><img src= images/blank.png width =""200"" height = ""200"" style = ""float:right""></p><p><img src=images/blank.png width =""800"" height = ""200""></p>","","","","","","","","","","","",""
"","284.99999991618097","sequential-stimulus-presentation","83","104103","0.0-20.0-1.1","SS1613100526989","trial","","40","800","1084.999999916181","images/stimuli/spore_stims/simple_11_B_d.gif","images/stimuli/spore_stims/simple_11_A_d.gif","","","","","4","simple_similar","images/stimuli/spore_stims/simple_11_A_d.gif","middle","","","","",""
"","null","html-keyboard-response","84","105264","0.0-20.0-0.2","SS1613100526989","","","null","","","","","<p><img src= images/blank.png width =""200"" height = ""200"" style = ""float:right""></p><p><img src=images/blank.png width =""800"" height = ""200""></p>","","","","","","","","","","","",""
"","190.9999999916181","sequential-stimulus-presentation","85","106262","0.0-20.0-1.2","SS1613100526989","trial","","40","800","990.9999999916181","images/stimuli/spore_stims/simple_11_B_d.gif","images/stimuli/spore_stims/simple_11_A_d.gif","","","","","4","simple_similar","images/stimuli/spore_stims/simple_11_B_d.gif","right","","","","",""
"","null","html-keyboard-response","86","107370","0.0-20.0-0.3","SS1613100526989","","","null","","","","","<p><img src= images/blank.png width =""200"" height = ""200"" style = ""float:right""></p><p><img src=images/blank.png width =""800"" height = ""200""></p>","","","","","","","","","","","",""
"","471.9999999506399","sequential-stimulus-presentation","87","108653","0.0-20.0-1.3","SS1613100526989","trial","","40","800","1271.99999995064","images/stimuli/spore_stims/simple_11_B_d.gif","images/stimuli/spore_stims/simple_11_A_d.gif","","","","","4","simple_similar","images/stimuli/spore_stims/simple_11_A_d.gif","middle","","","","",""
"","null","html-keyboard-response","88","109502","0.0-20.0-0.4","SS1613100526989","","","null","","","","","<p><img src= images/blank.png width =""200"" height = ""200"" style = ""float:right""></p><p><img src=images/blank.png width =""800"" height = ""200""></p>","","","","","","","","","","","",""
"","138.9999999664724","sequential-stimulus-presentation","89","110453","0.0-20.0-1.4","SS1613100526989","trial","","40","800","938.9999999664724","images/stimuli/spore_stims/simple_11_B_d.gif","images/stimuli/spore_stims/simple_11_A_d.gif","","","","","4","simple_similar","images/stimuli/spore_stims/simple_11_A_d.gif","middle","","","","",""
"","null","html-keyboard-response","90","111482","0.0-20.0-0.5","SS1613100526989","","","null","","","","","<p><img src= images/blank.png width =""200"" height = ""200"" style = ""float:right""></p><p><img src=images/blank.png width =""800"" height = ""200""></p>","","","","","","","","","","","",""
"","163.99999998975545","sequential-stimulus-presentation","91","112462","0.0-20.0-1.5","SS1613100526989","trial","","40","800","963.9999999897555","images/stimuli/spore_stims/simple_11_B_d.gif","images/stimuli/spore_stims/simple_11_A_d.gif","","","","","4","simple_similar","images/stimuli/spore_stims/simple_11_A_d.gif","middle","","","","",""
"","null","html-keyboard-response","92","113736","0.0-20.0-0.6","SS1613100526989","","","null","","","","","<p><img src= images/blank.png width =""200"" height = ""200"" style = ""float:right""></p><p><img src=images/blank.png width =""800"" height = ""200""></p>","","","","","","","","","","","",""
"","108.99999993853271","sequential-stimulus-presentation","93","114661","0.0-20.0-1.6","SS1613100526989","trial","","40","800","908.9999999385327","images/stimuli/spore_stims/simple_11_B_d.gif","images/stimuli/spore_stims/simple_11_A_d.gif","","","","","4","simple_similar","images/stimuli/spore_stims/simple_11_A_d.gif","middle","","","","",""
"","null","html-keyboard-response","94","115748","0.0-20.0-0.7","SS1613100526989","","","null","","","","","<p><img src= images/blank.png width =""200"" height = ""200"" style = ""float:right""></p><p><img src=images/blank.png width =""800"" height = ""200""></p>","","","","","","","","","","","",""
"","65.9999999916181","sequential-stimulus-presentation","95","116622","0.0-20.0-1.7","SS1613100526989","trial","","40","800","865.9999999916181","images/stimuli/spore_stims/simple_11_B_d.gif","images/stimuli/spore_stims/simple_11_A_d.gif","","","","","4","simple_similar","images/stimuli/spore_stims/simple_11_A_d.gif","middle","","","","",""
"","59.0000000083819","html-keyboard-response","96","116684","0.0-21.0","SS1613100526989","pref_question","","50","","","","","<video width ='960' height = '540' style='padding-top:8%' autoplay muted><source src='images/stimuli/wall_pref.mp4' type='video/mp4'></video>","2","middle","45%","4","","","","","","","",""
"","160.0000000325963","sequential-stimulus-presentation","97","117652","0.0-22.0","SS1613100526989","pref_reveal","","40","800","960.0000000325963","null","null","","","","","4","","","","background","","","",""
"","null","html-keyboard-response","98","118725","0.0-23.0-0.0","SS1613100526989","","","null","","","","","<p><img src= images/blank.png width =""200"" height = ""200"" style = ""float:right""></p><p><img src=images/blank.png width =""800"" height = ""200""></p>","","","","","","","","","","","",""
"","155.9999999590218","sequential-stimulus-presentation","99","119687","0.0-23.0-1.0","SS1613100526989","trial","","40","800","955.9999999590218","images/stimuli/spore_stims/simple_05_A_c.gif","images/stimuli/spore_stims/simple_05_B_c.gif","","","","","5","simple_similar","images/stimuli/spore_stims/simple_05_B_c.gif","middle","","","","",""
"","null","html-keyboard-response","100","120512","0.0-23.0-0.1","SS1613100526989","","","null","","","","","<p><img src= images/blank.png width =""200"" height = ""200"" style = ""float:right""></p><p><img src=images/blank.png width =""800"" height = ""200""></p>","","","","","","","","","","","",""
"","37.00000001117587","sequential-stimulus-presentation","101","121373","0.0-23.0-1.1","SS1613100526989","trial","","40","800","837.0000000111759","images/stimuli/spore_stims/simple_05_A_c.gif","images/stimuli/spore_stims/simple_05_B_c.gif","","","","","5","simple_similar","images/stimuli/spore_stims/simple_05_B_c.gif","middle","","","","",""
"","null","html-keyboard-response","102","122588","0.0-23.0-0.2","SS1613100526989","","","null","","","","","<p><img src= images/blank.png width =""200"" height = ""200"" style = ""float:right""></p><p><img src=images/blank.png width =""800"" height = ""200""></p>","","","","","","","","","","","",""
"","110.00000010244548","sequential-stimulus-presentation","103","123515","0.0-23.0-1.2","SS1613100526989","trial","","40","800","910.0000001024455","images/stimuli/spore_stims/simple_05_A_c.gif","images/stimuli/spore_stims/simple_05_B_c.gif","","","","","5","simple_similar","images/stimuli/spore_stims/simple_05_B_c.gif","middle","","","","",""
"","null","html-keyboard-response","104","124612","0.0-23.0-0.3","SS1613100526989","","","null","","","","","<p><img src= images/blank.png width =""200"" height = ""200"" style = ""float:right""></p><p><img src=images/blank.png width =""800"" height = ""200""></p>","","","","","","","","","","","",""
"","366.0000000381842","sequential-stimulus-presentation","105","125783","0.0-23.0-1.3","SS1613100526989","trial","","40","800","1166.0000000381842","images/stimuli/spore_stims/simple_05_A_c.gif","images/stimuli/spore_stims/simple_05_B_c.gif","","","","","5","simple_similar","images/stimuli/spore_stims/simple_05_B_c.gif","middle","","","","",""
"","null","html-keyboard-response","106","126815","0.0-23.0-0.4","SS1613100526989","","","null","","","","","<p><img src= images/blank.png width =""200"" height = ""200"" style = ""float:right""></p><p><img src=images/blank.png width =""800"" height = ""200""></p>","","","","","","","","","","","",""
"","398.0000000447035","sequential-stimulus-presentation","107","128023","0.0-23.0-1.4","SS1613100526989","trial","","40","800","1198.0000000447035","images/stimuli/spore_stims/simple_05_A_c.gif","images/stimuli/spore_stims/simple_05_B_c.gif","","","","","5","simple_similar","images/stimuli/spore_stims/simple_05_B_c.gif","middle","","","","",""
"","null","html-keyboard-response","108","129188","0.0-23.0-0.5","SS1613100526989","","","null","","","","","<p><img src= images/blank.png width =""200"" height = ""200"" style = ""float:right""></p><p><img src=images/blank.png width =""800"" height = ""200""></p>","","","","","","","","","","","",""
"","929.0000000037253","sequential-stimulus-presentation","109","130922","0.0-23.0-1.5","SS1613100526989","trial","","40","800","1729.0000000037253","images/stimuli/spore_stims/simple_05_A_c.gif","images/stimuli/spore_stims/simple_05_B_c.gif","","","","","5","simple_similar","images/stimuli/spore_stims/simple_05_A_c.gif","left","","","","",""
"","null","html-keyboard-response","110","131807","0.0-23.0-0.6","SS1613100526989","","","null","","","","","<p><img src= images/blank.png width =""200"" height = ""200"" style = ""float:right""></p><p><img src=images/blank.png width =""800"" height = ""200""></p>","","","","","","","","","","","",""
"","376.9999999785796","sequential-stimulus-presentation","111","132993","0.0-23.0-1.6","SS1613100526989","trial","","40","800","1176.9999999785796","images/stimuli/spore_stims/simple_05_A_c.gif","images/stimuli/spore_stims/simple_05_B_c.gif","","","","","5","simple_similar","images/stimuli/spore_stims/simple_05_B_c.gif","middle","","","","",""
"","null","html-keyboard-response","112","133990","0.0-23.0-0.7","SS1613100526989","","","null","","","","","<p><img src= images/blank.png width =""200"" height = ""200"" style = ""float:right""></p><p><img src=images/blank.png width =""800"" height = ""200""></p>","","","","","","","","","","","",""
"","302.0000000251457","sequential-stimulus-presentation","113","135099","0.0-23.0-1.7","SS1613100526989","trial","","40","800","1102.0000000251457","images/stimuli/spore_stims/simple_05_A_c.gif","images/stimuli/spore_stims/simple_05_B_c.gif","","","","","5","simple_similar","images/stimuli/spore_stims/simple_05_B_c.gif","middle","","","","",""
"","247.9999999050051","html-keyboard-response","114","135353","0.0-24.0","SS1613100526989","pref_question","","50","","","","","<video width ='960' height = '540' style='padding-top:8%' autoplay muted><source src='images/stimuli/wall_pref.mp4' type='video/mp4'></video>","2","middle","45%","5","","","","","","","",""
"","239.99999999068677","sequential-stimulus-presentation","115","136403","0.0-25.0","SS1613100526989","pref_reveal","","40","800","1039.9999999906868","null","null","","","","","5","","","","background","","","",""
"","null","html-keyboard-response","116","137475","0.0-26.0-0.0","SS1613100526989","","","null","","","","","<p><img src= images/blank.png width =""200"" height = ""200"" style = ""float:right""></p><p><img src=images/blank.png width =""800"" height = ""200""></p>","","","","","","","","","","","",""
"","336.00000001024455","sequential-stimulus-presentation","117","138627","0.0-26.0-1.0","SS1613100526989","trial","","40","800","1136.0000000102445","images/stimuli/spore_stims/simple_05_A_b.gif","images/stimuli/spore_stims/simple_14_A_a.gif","","","","","6","simple_dissimilar","images/stimuli/spore_stims/simple_14_A_a.gif","right","","","","",""
"","null","html-keyboard-response","118","139532","0.0-26.0-0.1","SS1613100526989","","","null","","","","","<p><img src= images/blank.png width =""200"" height = ""200"" style = ""float:right""></p><p><img src=images/blank.png width =""800"" height = ""200""></p>","","","","","","","","","","","",""
"","173.00000006798655","sequential-stimulus-presentation","119","140512","0.0-26.0-1.1","SS1613100526989","trial","","40","800","973.0000000679865","images/stimuli/spore_stims/simple_05_A_b.gif","images/stimuli/spore_stims/simple_14_A_a.gif","","","","","6","simple_dissimilar","images/stimuli/spore_stims/simple_14_A_a.gif","right","","","","",""
"","null","html-keyboard-response","120","141794","0.0-26.0-0.2","SS1613100526989","","","null","","","","","<p><img src= images/blank.png width =""200"" height = ""200"" style = ""float:right""></p><p><img src=images/blank.png width =""800"" height = ""200""></p>","","","","","","","","","","","",""
"","82.99999998416752","sequential-stimulus-presentation","121","142682","0.0-26.0-1.2","SS1613100526989","trial","","40","800","882.9999999841675","images/stimuli/spore_stims/simple_05_A_b.gif","images/stimuli/spore_stims/simple_14_A_a.gif","","","","","6","simple_dissimilar","images/stimuli/spore_stims/simple_14_A_a.gif","right","","","","",""
"","null","html-keyboard-response","122","143586","0.0-26.0-0.3","SS1613100526989","","","null","","","","","<p><img src= images/blank.png width =""200"" height = ""200"" style = ""float:right""></p><p><img src=images/blank.png width =""800"" height = ""200""></p>","","","","","","","","","","","",""
"","136.9999999878928","sequential-stimulus-presentation","123","144528","0.0-26.0-1.3","SS1613100526989","trial","","40","800","936.9999999878928","images/stimuli/spore_stims/simple_05_A_b.gif","images/stimuli/spore_stims/simple_14_A_a.gif","","","","","6","simple_dissimilar","images/stimuli/spore_stims/simple_14_A_a.gif","right","","","","",""
"","null","html-keyboard-response","124","145464","0.0-26.0-0.4","SS1613100526989","","","null","","","","","<p><img src= images/blank.png width =""200"" height = ""200"" style = ""float:right""></p><p><img src=images/blank.png width =""800"" height = ""200""></p>","","","","","","","","","","","",""
"","410.0000000325963","sequential-stimulus-presentation","125","146680","0.0-26.0-1.4","SS1613100526989","trial","","40","800","1210.0000000325963","images/stimuli/spore_stims/simple_05_A_b.gif","images/stimuli/spore_stims/simple_14_A_a.gif","","","","","6","simple_dissimilar","images/stimuli/spore_stims/simple_05_A_b.gif","middle","","","","",""
"","null","html-keyboard-response","126","147821","0.0-26.0-0.5","SS1613100526989","","","null","","","","","<p><img src= images/blank.png width =""200"" height = ""200"" style = ""float:right""></p><p><img src=images/blank.png width =""800"" height = ""200""></p>","","","","","","","","","","","",""
"","429.9999999348074","sequential-stimulus-presentation","127","149062","0.0-26.0-1.5","SS1613100526989","trial","","40","800","1229.9999999348074","images/stimuli/spore_stims/simple_05_A_b.gif","images/stimuli/spore_stims/simple_14_A_a.gif","","","","","6","simple_dissimilar","images/stimuli/spore_stims/simple_14_A_a.gif","right","","","","",""
"","null","html-keyboard-response","128","150250","0.0-26.0-0.6","SS1613100526989","","","null","","","","","<p><img src= images/blank.png width =""200"" height = ""200"" style = ""float:right""></p><p><img src=images/blank.png width =""800"" height = ""200""></p>","","","","","","","","","","","",""
"","420.99999997299165","sequential-stimulus-presentation","129","151484","0.0-26.0-1.6","SS1613100526989","trial","","40","800","1220.9999999729916","images/stimuli/spore_stims/simple_05_A_b.gif","images/stimuli/spore_stims/simple_14_A_a.gif","","","","","6","simple_dissimilar","images/stimuli/spore_stims/simple_14_A_a.gif","right","","","","",""
"","null","html-keyboard-response","130","152344","0.0-26.0-0.7","SS1613100526989","","","null","","","","","<p><img src= images/blank.png width =""200"" height = ""200"" style = ""float:right""></p><p><img src=images/blank.png width =""800"" height = ""200""></p>","","","","","","","","","","","",""
"","209.9999999627471","sequential-stimulus-presentation","131","153362","0.0-26.0-1.7","SS1613100526989","trial","","40","800","1009.9999999627471","images/stimuli/spore_stims/simple_05_A_b.gif","images/stimuli/spore_stims/simple_14_A_a.gif","","","","","6","simple_dissimilar","images/stimuli/spore_stims/simple_14_A_a.gif","right","","","","",""
"","2163.9999999897555","html-keyboard-response","132","155543","0.0-27.0","SS1613100526989","pref_question","","51","","","","","<video width ='960' height = '540' style='padding-top:8%' autoplay muted><source src='images/stimuli/wall_pref.mp4' type='video/mp4'></video>","3","right","66%","6","","","","","","","",""
"","228.00000000279397","sequential-stimulus-presentation","133","156580","0.0-28.0","SS1613100526989","pref_reveal","","40","800","1028.000000002794","null","null","","","","","6","","","","background","","","",""
"","null","html-keyboard-response","134","157502","0.0-29.0-0.0","SS1613100526989","","","null","","","","","<p><img src= images/blank.png width =""200"" height = ""200"" style = ""float:right""></p><p><img src=images/blank.png width =""800"" height = ""200""></p>","","","","","","","","","","","",""
"","89.99999996740371","sequential-stimulus-presentation","135","158411","0.0-29.0-1.0","SS1613100526989","trial","","40","800","889.9999999674037","images/stimuli/spore_stims/simple_01_B_b.gif","images/stimuli/spore_stims/simple_10_B_a.gif","","","","","7","simple_dissimilar","images/stimuli/spore_stims/simple_10_B_a.gif","right","","","","",""
"","null","html-keyboard-response","136","159234","0.0-29.0-0.1","SS1613100526989","","","null","","","","","<p><img src= images/blank.png width =""200"" height = ""200"" style = ""float:right""></p><p><img src=images/blank.png width =""800"" height = ""200""></p>","","","","","","","","","","","",""
"","121.00000004284084","sequential-stimulus-presentation","137","160162","0.0-29.0-1.1","SS1613100526989","trial","","40","800","921.0000000428408","images/stimuli/spore_stims/simple_01_B_b.gif","images/stimuli/spore_stims/simple_10_B_a.gif","","","","","7","simple_dissimilar","images/stimuli/spore_stims/simple_10_B_a.gif","right","","","","",""
"","null","html-keyboard-response","138","161243","0.0-29.0-0.2","SS1613100526989","","","null","","","","","<p><img src= images/blank.png width =""200"" height = ""200"" style = ""float:right""></p><p><img src=images/blank.png width =""800"" height = ""200""></p>","","","","","","","","","","","",""
"","210.00000007916242","sequential-stimulus-presentation","139","162280","0.0-29.0-1.2","SS1613100526989","trial","","40","800","1010.0000000791624","images/stimuli/spore_stims/simple_01_B_b.gif","images/stimuli/spore_stims/simple_10_B_a.gif","","","","","7","simple_dissimilar","images/stimuli/spore_stims/simple_10_B_a.gif","right","","","","",""
"","null","html-keyboard-response","140","163242","0.0-29.0-0.3","SS1613100526989","","","null","","","","","<p><img src= images/blank.png width =""200"" height = ""200"" style = ""float:right""></p><p><img src=images/blank.png width =""800"" height = ""200""></p>","","","","","","","","","","","",""
"","79.00000002700835","sequential-stimulus-presentation","141","164131","0.0-29.0-1.3","SS1613100526989","trial","","40","800","879.0000000270084","images/stimuli/spore_stims/simple_01_B_b.gif","images/stimuli/spore_stims/simple_10_B_a.gif","","","","","7","simple_dissimilar","images/stimuli/spore_stims/simple_10_B_a.gif","right","","","","",""
"","null","html-keyboard-response","142","165217","0.0-29.0-0.4","SS1613100526989","","","null","","","","","<p><img src= images/blank.png width =""200"" height = ""200"" style = ""float:right""></p><p><img src=images/blank.png width =""800"" height = ""200""></p>","","","","","","","","","","","",""
"","273.0000000447035","sequential-stimulus-presentation","143","166301","0.0-29.0-1.4","SS1613100526989","trial","","40","800","1073.0000000447035","images/stimuli/spore_stims/simple_01_B_b.gif","images/stimuli/spore_stims/simple_10_B_a.gif","","","","","7","simple_dissimilar","images/stimuli/spore_stims/simple_01_B_b.gif","left","","","","",""
"","null","html-keyboard-response","144","167253","0.0-29.0-0.5","SS1613100526989","","","null","","","","","<p><img src= images/blank.png width =""200"" height = ""200"" style = ""float:right""></p><p><img src=images/blank.png width =""800"" height = ""200""></p>","","","","","","","","","","","",""
"","241.99999996926636","sequential-stimulus-presentation","145","168306","0.0-29.0-1.5","SS1613100526989","trial","","40","800","1041.9999999692664","images/stimuli/spore_stims/simple_01_B_b.gif","images/stimuli/spore_stims/simple_10_B_a.gif","","","","","7","simple_dissimilar","images/stimuli/spore_stims/simple_10_B_a.gif","right","","","","",""
"","null","html-keyboard-response","146","169218","0.0-29.0-0.6","SS1613100526989","","","null","","","","","<p><img src= images/blank.png width =""200"" height = ""200"" style = ""float:right""></p><p><img src=images/blank.png width =""800"" height = ""200""></p>","","","","","","","","","","","",""
"","207.99999998416752","sequential-stimulus-presentation","147","170235","0.0-29.0-1.6","SS1613100526989","trial","","40","800","1007.9999999841675","images/stimuli/spore_stims/simple_01_B_b.gif","images/stimuli/spore_stims/simple_10_B_a.gif","","","","","7","simple_dissimilar","images/stimuli/spore_stims/simple_10_B_a.gif","right","","","","",""
"","null","html-keyboard-response","148","171455","0.0-29.0-0.7","SS1613100526989","","","null","","","","","<p><img src= images/blank.png width =""200"" height = ""200"" style = ""float:right""></p><p><img src=images/blank.png width =""800"" height = ""200""></p>","","","","","","","","","","","",""
"","415.99999996833503","sequential-stimulus-presentation","149","172692","0.0-29.0-1.7","SS1613100526989","trial","","40","800","1215.999999968335","images/stimuli/spore_stims/simple_01_B_b.gif","images/stimuli/spore_stims/simple_10_B_a.gif","","","","","7","simple_dissimilar","images/stimuli/spore_stims/simple_10_B_a.gif","right","","","","",""
"","253.00000002607703","html-keyboard-response","150","172952","0.0-30.0","SS1613100526989","pref_question","","51","","","","","<video width ='960' height = '540' style='padding-top:8%' autoplay muted><source src='images/stimuli/wall_pref.mp4' type='video/mp4'></video>","3","right","66%","7","","","","","","","",""
"","357.00000007636845","sequential-stimulus-presentation","151","174115","0.0-31.0","SS1613100526989","pref_reveal","","40","800","1157.0000000763685","null","null","","","","","7","","","","background","","","",""
"","null","html-keyboard-response","152","175017","0.0-32.0-0.0","SS1613100526989","","","null","","","","","<p><img src= images/blank.png width =""200"" height = ""200"" style = ""float:right""></p><p><img src=images/blank.png width =""800"" height = ""200""></p>","","","","","","","","","","","",""
"","368.0000000167638","sequential-stimulus-presentation","153","176198","0.0-32.0-1.0","SS1613100526989","trial","","40","800","1168.0000000167638","images/stimuli/spore_stims/complex_16_A_d.gif","images/stimuli/spore_stims/complex_18_B_c.gif","","","","","8","complex_dissimilar","images/stimuli/spore_stims/complex_18_B_c.gif","left","","","","",""
"","null","html-keyboard-response","154","177226","0.0-32.0-0.1","SS1613100526989","","","null","","","","","<p><img src= images/blank.png width =""200"" height = ""200"" style = ""float:right""></p><p><img src=images/blank.png width =""800"" height = ""200""></p>","","","","","","","","","","","",""
"","164.99999992083758","sequential-stimulus-presentation","155","178203","0.0-32.0-1.1","SS1613100526989","trial","","40","800","964.9999999208376","images/stimuli/spore_stims/complex_16_A_d.gif","images/stimuli/spore_stims/complex_18_B_c.gif","","","","","8","complex_dissimilar","images/stimuli/spore_stims/complex_18_B_c.gif","left","","","","",""
"","null","html-keyboard-response","156","179509","0.0-32.0-0.2","SS1613100526989","","","null","","","","","<p><img src= images/blank.png width =""200"" height = ""200"" style = ""float:right""></p><p><img src=images/blank.png width =""800"" height = ""200""></p>","","","","","","","","","","","",""
"","522.0000001136214","sequential-stimulus-presentation","157","180842","0.0-32.0-1.2","SS1613100526989","trial","","40","800","1322.0000001136214","images/stimuli/spore_stims/complex_16_A_d.gif","images/stimuli/spore_stims/complex_18_B_c.gif","","","","","8","complex_dissimilar","images/stimuli/spore_stims/complex_16_A_d.gif","right","","","","",""
"","null","html-keyboard-response","158","181657","0.0-32.0-0.3","SS1613100526989","","","null","","","","","<p><img src= images/blank.png width =""200"" height = ""200"" style = ""float:right""></p><p><img src=images/blank.png width =""800"" height = ""200""></p>","","","","","","","","","","","",""
"","293.99999999441206","sequential-stimulus-presentation","159","182765","0.0-32.0-1.3","SS1613100526989","trial","","40","800","1093.999999994412","images/stimuli/spore_stims/complex_16_A_d.gif","images/stimuli/spore_stims/complex_18_B_c.gif","","","","","8","complex_dissimilar","images/stimuli/spore_stims/complex_18_B_c.gif","left","","","","",""
"","null","html-keyboard-response","160","183746","0.0-32.0-0.4","SS1613100526989","","","null","","","","","<p><img src= images/blank.png width =""200"" height = ""200"" style = ""float:right""></p><p><img src=images/blank.png width =""800"" height = ""200""></p>","","","","","","","","","","","",""
"","255.0000000046566","sequential-stimulus-presentation","161","184842","0.0-32.0-1.4","SS1613100526989","trial","","40","800","1055.0000000046566","images/stimuli/spore_stims/complex_16_A_d.gif","images/stimuli/spore_stims/complex_18_B_c.gif","","","","","8","complex_dissimilar","images/stimuli/spore_stims/complex_18_B_c.gif","left","","","","",""
"","null","html-keyboard-response","162","186141","0.0-32.0-0.5","SS1613100526989","","","null","","","","","<p><img src= images/blank.png width =""200"" height = ""200"" style = ""float:right""></p><p><img src=images/blank.png width =""800"" height = ""200""></p>","","","","","","","","","","","",""
"","77.9999999795109","sequential-stimulus-presentation","163","187032","0.0-32.0-1.5","SS1613100526989","trial","","40","800","877.9999999795109","images/stimuli/spore_stims/complex_16_A_d.gif","images/stimuli/spore_stims/complex_18_B_c.gif","","","","","8","complex_dissimilar","images/stimuli/spore_stims/complex_18_B_c.gif","left","","","","",""
"","null","html-keyboard-response","164","188137","0.0-32.0-0.6","SS1613100526989","","","null","","","","","<p><img src= images/blank.png width =""200"" height = ""200"" style = ""float:right""></p><p><img src=images/blank.png width =""800"" height = ""200""></p>","","","","","","","","","","","",""
"","797.0000000204891","sequential-stimulus-presentation","165","189743","0.0-32.0-1.6","SS1613100526989","trial","","40","800","1597.000000020489","images/stimuli/spore_stims/complex_16_A_d.gif","images/stimuli/spore_stims/complex_18_B_c.gif","","","","","8","complex_dissimilar","images/stimuli/spore_stims/complex_18_B_c.gif","left","","","","",""
"","null","html-keyboard-response","166","190839","0.0-32.0-0.7","SS1613100526989","","","null","","","","","<p><img src= images/blank.png width =""200"" height = ""200"" style = ""float:right""></p><p><img src=images/blank.png width =""800"" height = ""200""></p>","","","","","","","","","","","",""
"","485.9999999171123","sequential-stimulus-presentation","167","192139","0.0-32.0-1.7","SS1613100526989","trial","","40","800","1285.9999999171123","images/stimuli/spore_stims/complex_16_A_d.gif","images/stimuli/spore_stims/complex_18_B_c.gif","","","","","8","complex_dissimilar","images/stimuli/spore_stims/complex_18_B_c.gif","left","","","","",""
"","1643.999999971129","html-keyboard-response","168","193803","0.0-33.0","SS1613100526989","pref_question","","49","","","","","<video width ='960' height = '540' style='padding-top:8%' autoplay muted><source src='images/stimuli/wall_pref.mp4' type='video/mp4'></video>","1","left","25%","8","","","","","","","",""
"","1310.9999999869615","sequential-stimulus-presentation","169","195927","0.0-34.0","SS1613100526989","pref_reveal","","40","800","2110.9999999869615","null","null","","","","","8","","","","background","","","",""
"","null","html-keyboard-response","170","197000","0.0-35.0-0.0","SS1613100526989","","","null","","","","","<p><img src= images/blank.png width =""200"" height = ""200"" style = ""float:right""></p><p><img src=images/blank.png width =""800"" height = ""200""></p>","","","","","","","","","","","",""
"","316.9999999227002","sequential-stimulus-presentation","171","198129","0.0-35.0-1.0","SS1613100526989","trial","","40","800","1116.9999999227002","images/stimuli/spore_stims/complex_13_A_d.gif","images/stimuli/spore_stims/complex_13_B_d.gif","","","","","9","complex_similar","images/stimuli/spore_stims/complex_13_B_d.gif","right","","","","",""
"","null","html-keyboard-response","172","198960","0.0-35.0-0.1","SS1613100526989","","","null","","","","","<p><img src= images/blank.png width =""200"" height = ""200"" style = ""float:right""></p><p><img src=images/blank.png width =""800"" height = ""200""></p>","","","","","","","","","","","",""
"","301.9999999087304","sequential-stimulus-presentation","173","200102","0.0-35.0-1.1","SS1613100526989","trial","","40","800","1101.9999999087304","images/stimuli/spore_stims/complex_13_A_d.gif","images/stimuli/spore_stims/complex_13_B_d.gif","","","","","9","complex_similar","images/stimuli/spore_stims/complex_13_B_d.gif","right","","","","",""
"","null","html-keyboard-response","174","201204","0.0-35.0-0.2","SS1613100526989","","","null","","","","","<p><img src= images/blank.png width =""200"" height = ""200"" style = ""float:right""></p><p><img src=images/blank.png width =""800"" height = ""200""></p>","","","","","","","","","","","",""
"","140.00000001396984","sequential-stimulus-presentation","175","202161","0.0-35.0-1.2","SS1613100526989","trial","","40","800","940.0000000139698","images/stimuli/spore_stims/complex_13_A_d.gif","images/stimuli/spore_stims/complex_13_B_d.gif","","","","","9","complex_similar","images/stimuli/spore_stims/complex_13_B_d.gif","right","","","","",""
"","null","html-keyboard-response","176","203480","0.0-35.0-0.3","SS1613100526989","","","null","","","","","<p><img src= images/blank.png width =""200"" height = ""200"" style = ""float:right""></p><p><img src=images/blank.png width =""800"" height = ""200""></p>","","","","","","","","","","","",""
"","1116.9999999692664","sequential-stimulus-presentation","177","205407","0.0-35.0-1.3","SS1613100526989","trial","","40","800","1916.9999999692664","images/stimuli/spore_stims/complex_13_A_d.gif","images/stimuli/spore_stims/complex_13_B_d.gif","","","","","9","complex_similar","images/stimuli/spore_stims/complex_13_A_d.gif","left","","","","",""
"","null","html-keyboard-response","178","206677","0.0-35.0-0.4","SS1613100526989","","","null","","","","","<p><img src= images/blank.png width =""200"" height = ""200"" style = ""float:right""></p><p><img src=images/blank.png width =""800"" height = ""200""></p>","","","","","","","","","","","",""
"","101.00000002421439","sequential-stimulus-presentation","179","207592","0.0-35.0-1.4","SS1613100526989","trial","","40","800","901.0000000242144","images/stimuli/spore_stims/complex_13_A_d.gif","images/stimuli/spore_stims/complex_13_B_d.gif","","","","","9","complex_similar","images/stimuli/spore_stims/complex_13_B_d.gif","right","","","","",""
"","null","html-keyboard-response","180","208894","0.0-35.0-0.5","SS1613100526989","","","null","","","","","<p><img src= images/blank.png width =""200"" height = ""200"" style = ""float:right""></p><p><img src=images/blank.png width =""800"" height = ""200""></p>","","","","","","","","","","","",""
"","576.0000000009313","sequential-stimulus-presentation","181","210278","0.0-35.0-1.5","SS1613100526989","trial","","40","800","1376.0000000009313","images/stimuli/spore_stims/complex_13_A_d.gif","images/stimuli/spore_stims/complex_13_B_d.gif","","","","","9","complex_similar","images/stimuli/spore_stims/complex_13_B_d.gif","right","","","","",""
"","null","html-keyboard-response","182","211493","0.0-35.0-0.6","SS1613100526989","","","null","","","","","<p><img src= images/blank.png width =""200"" height = ""200"" style = ""float:right""></p><p><img src=images/blank.png width =""800"" height = ""200""></p>","","","","","","","","","","","",""
"","187.99999996554106","sequential-stimulus-presentation","183","212494","0.0-35.0-1.6","SS1613100526989","trial","","40","800","987.9999999655411","images/stimuli/spore_stims/complex_13_A_d.gif","images/stimuli/spore_stims/complex_13_B_d.gif","","","","","9","complex_similar","images/stimuli/spore_stims/complex_13_B_d.gif","right","","","","",""
"","null","html-keyboard-response","184","213698","0.0-35.0-0.7","SS1613100526989","","","null","","","","","<p><img src= images/blank.png width =""200"" height = ""200"" style = ""float:right""></p><p><img src=images/blank.png width =""800"" height = ""200""></p>","","","","","","","","","","","",""
"","60.999999986961484","sequential-stimulus-presentation","185","214581","0.0-35.0-1.7","SS1613100526989","trial","","40","800","860.9999999869615","images/stimuli/spore_stims/complex_13_A_d.gif","images/stimuli/spore_stims/complex_13_B_d.gif","","","","","9","complex_similar","images/stimuli/spore_stims/complex_13_B_d.gif","right","","","","",""
"","1055.9999999823049","html-keyboard-response","186","215642","0.0-36.0","SS1613100526989","pref_question","","51","","","","","<video width ='960' height = '540' style='padding-top:8%' autoplay muted><source src='images/stimuli/wall_pref.mp4' type='video/mp4'></video>","3","right","66%","9","","","","","","","",""
"","933.0000000772998","sequential-stimulus-presentation","187","217382","0.0-37.0","SS1613100526989","pref_reveal","","40","800","1733.0000000772998","null","null","","","","","9","","","","background","","","",""
"","null","html-keyboard-response","188","218611","0.0-38.0-0.0","SS1613100526989","","","null","","","","","<p><img src= images/blank.png width =""200"" height = ""200"" style = ""float:right""></p><p><img src=images/blank.png width =""800"" height = ""200""></p>","","","","","","","","","","","",""
"","161.99999989476055","sequential-stimulus-presentation","189","219581","0.0-38.0-1.0","SS1613100526989","trial","","40","800","961.9999998947605","images/stimuli/spore_stims/complex_01_A_c.gif","images/stimuli/spore_stims/complex_04_A_d.gif","","","","","10","complex_dissimilar","images/stimuli/spore_stims/complex_04_A_d.gif","right","","","","",""
"","null","html-keyboard-response","190","220511","0.0-38.0-0.1","SS1613100526989","","","null","","","","","<p><img src= images/blank.png width =""200"" height = ""200"" style = ""float:right""></p><p><img src=images/blank.png width =""800"" height = ""200""></p>","","","","","","","","","","","",""
"","154.99999991152436","sequential-stimulus-presentation","191","221472","0.0-38.0-1.1","SS1613100526989","trial","","40","800","954.9999999115244","images/stimuli/spore_stims/complex_01_A_c.gif","images/stimuli/spore_stims/complex_04_A_d.gif","","","","","10","complex_dissimilar","images/stimuli/spore_stims/complex_04_A_d.gif","right","","","","",""
"","null","html-keyboard-response","192","222557","0.0-38.0-0.2","SS1613100526989","","","null","","","","","<p><img src= images/blank.png width =""200"" height = ""200"" style = ""float:right""></p><p><img src=images/blank.png width =""800"" height = ""200""></p>","","","","","","","","","","","",""
"","84.9999999627471","sequential-stimulus-presentation","193","223455","0.0-38.0-1.2","SS1613100526989","trial","","40","800","884.9999999627471","images/stimuli/spore_stims/complex_01_A_c.gif","images/stimuli/spore_stims/complex_04_A_d.gif","","","","","10","complex_dissimilar","images/stimuli/spore_stims/complex_04_A_d.gif","right","","","","",""
"","null","html-keyboard-response","194","224449","0.0-38.0-0.3","SS1613100526989","","","null","","","","","<p><img src= images/blank.png width =""200"" height = ""200"" style = ""float:right""></p><p><img src=images/blank.png width =""800"" height = ""200""></p>","","","","","","","","","","","",""
"","813.0000000819564","sequential-stimulus-presentation","195","226072","0.0-38.0-1.3","SS1613100526989","trial","","40","800","1613.0000000819564","images/stimuli/spore_stims/complex_01_A_c.gif","images/stimuli/spore_stims/complex_04_A_d.gif","","","","","10","complex_dissimilar","images/stimuli/spore_stims/complex_01_A_c.gif","left","","","","",""
"","null","html-keyboard-response","196","226926","0.0-38.0-0.4","SS1613100526989","","","null","","","","","<p><img src= images/blank.png width =""200"" height = ""200"" style = ""float:right""></p><p><img src=images/blank.png width =""800"" height = ""200""></p>","","","","","","","","","","","",""
"","478.9999999338761","sequential-stimulus-presentation","197","228214","0.0-38.0-1.4","SS1613100526989","trial","","40","800","1278.999999933876","images/stimuli/spore_stims/complex_01_A_c.gif","images/stimuli/spore_stims/complex_04_A_d.gif","","","","","10","complex_dissimilar","images/stimuli/spore_stims/complex_04_A_d.gif","right","","","","",""
"","null","html-keyboard-response","198","229124","0.0-38.0-0.5","SS1613100526989","","","null","","","","","<p><img src= images/blank.png width =""200"" height = ""200"" style = ""float:right""></p><p><img src=images/blank.png width =""800"" height = ""200""></p>","","","","","","","","","","","",""
"","248.99999995250255","sequential-stimulus-presentation","199","230182","0.0-38.0-1.5","SS1613100526989","trial","","40","800","1048.9999999525025","images/stimuli/spore_stims/complex_01_A_c.gif","images/stimuli/spore_stims/complex_04_A_d.gif","","","","","10","complex_dissimilar","images/stimuli/spore_stims/complex_04_A_d.gif","right","","","","",""
"","null","html-keyboard-response","200","231193","0.0-38.0-0.6","SS1613100526989","","","null","","","","","<p><img src= images/blank.png width =""200"" height = ""200"" style = ""float:right""></p><p><img src=images/blank.png width =""800"" height = ""200""></p>","","","","","","","","","","","",""
"","192.00000003911555","sequential-stimulus-presentation","201","232193","0.0-38.0-1.6","SS1613100526989","trial","","40","800","992.0000000391155","images/stimuli/spore_stims/complex_01_A_c.gif","images/stimuli/spore_stims/complex_04_A_d.gif","","","","","10","complex_dissimilar","images/stimuli/spore_stims/complex_04_A_d.gif","right","","","","",""
"","null","html-keyboard-response","202","233134","0.0-38.0-0.7","SS1613100526989","","","null","","","","","<p><img src= images/blank.png width =""200"" height = ""200"" style = ""float:right""></p><p><img src=images/blank.png width =""800"" height = ""200""></p>","","","","","","","","","","","",""
"","168.99999999441206","sequential-stimulus-presentation","203","234118","0.0-38.0-1.7","SS1613100526989","trial","","40","800","968.9999999944121","images/stimuli/spore_stims/complex_01_A_c.gif","images/stimuli/spore_stims/complex_04_A_d.gif","","","","","10","complex_dissimilar","images/stimuli/spore_stims/complex_04_A_d.gif","right","","","","",""
"","93.99999992456287","html-keyboard-response","204","234220","0.0-39.0","SS1613100526989","pref_question","","51","","","","","<video width ='960' height = '540' style='padding-top:8%' autoplay muted><source src='images/stimuli/wall_pref.mp4' type='video/mp4'></video>","3","right","66%","10","","","","","","","",""
"","185.99999998696148","sequential-stimulus-presentation","205","235213","0.0-40.0","SS1613100526989","pref_reveal","","40","800","985.9999999869615","null","null","","","","","10","","","","background","","","",""
"","null","html-keyboard-response","206","236236","0.0-41.0-0.0","SS1613100526989","","","null","","","","","<p><img src= images/blank.png width =""200"" height = ""200"" style = ""float:right""></p><p><img src=images/blank.png width =""800"" height = ""200""></p>","","","","","","","","","","","",""
"","133.99999996181577","sequential-stimulus-presentation","207","237184","0.0-41.0-1.0","SS1613100526989","trial","","40","800","933.9999999618158","images/stimuli/spore_stims/simple_07_B_c.gif","images/stimuli/spore_stims/simple_07_A_c.gif","","","","","11","simple_similar","images/stimuli/spore_stims/simple_07_A_c.gif","right","","","","",""
"","null","html-keyboard-response","208","238480","0.0-41.0-0.1","SS1613100526989","","","null","","","","","<p><img src= images/blank.png width =""200"" height = ""200"" style = ""float:right""></p><p><img src=images/blank.png width =""800"" height = ""200""></p>","","","","","","","","","","","",""
"","89.00000003632158","sequential-stimulus-presentation","209","239382","0.0-41.0-1.1","SS1613100526989","trial","","40","800","889.0000000363216","images/stimuli/spore_stims/simple_07_B_c.gif","images/stimuli/spore_stims/simple_07_A_c.gif","","","","","11","simple_similar","images/stimuli/spore_stims/simple_07_A_c.gif","right","","","","",""
"","null","html-keyboard-response","210","240609","0.0-41.0-0.2","SS1613100526989","","","null","","","","","<p><img src= images/blank.png width =""200"" height = ""200"" style = ""float:right""></p><p><img src=images/blank.png width =""800"" height = ""200""></p>","","","","","","","","","","","",""
"","229.99999998137355","sequential-stimulus-presentation","211","241653","0.0-41.0-1.2","SS1613100526989","trial","","40","800","1029.9999999813735","images/stimuli/spore_stims/simple_07_B_c.gif","images/stimuli/spore_stims/simple_07_A_c.gif","","","","","11","simple_similar","images/stimuli/spore_stims/simple_07_A_c.gif","right","","","","",""
"","null","html-keyboard-response","212","242820","0.0-41.0-0.3","SS1613100526989","","","null","","","","","<p><img src= images/blank.png width =""200"" height = ""200"" style = ""float:right""></p><p><img src=images/blank.png width =""800"" height = ""200""></p>","","","","","","","","","","","",""
"","32.00000000651926","sequential-stimulus-presentation","213","243663","0.0-41.0-1.3","SS1613100526989","trial","","40","800","832.0000000065193","images/stimuli/spore_stims/simple_07_B_c.gif","images/stimuli/spore_stims/simple_07_A_c.gif","","","","","11","simple_similar","images/stimuli/spore_stims/simple_07_B_c.gif","left","","","","",""
"","null","html-keyboard-response","214","244669","0.0-41.0-0.4","SS1613100526989","","","null","","","","","<p><img src= images/blank.png width =""200"" height = ""200"" style = ""float:right""></p><p><img src=images/blank.png width =""800"" height = ""200""></p>","","","","","","","","","","","",""
"","51.99999990873039","sequential-stimulus-presentation","215","245542","0.0-41.0-1.4","SS1613100526989","trial","","40","800","851.9999999087304","images/stimuli/spore_stims/simple_07_B_c.gif","images/stimuli/spore_stims/simple_07_A_c.gif","","","","","11","simple_similar","images/stimuli/spore_stims/simple_07_A_c.gif","right","","","","",""
"","null","html-keyboard-response","216","246474","0.0-41.0-0.5","SS1613100526989","","","null","","","","","<p><img src= images/blank.png width =""200"" height = ""200"" style = ""float:right""></p><p><img src=images/blank.png width =""800"" height = ""200""></p>","","","","","","","","","","","",""
"","133.99999996181577","sequential-stimulus-presentation","217","247423","0.0-41.0-1.5","SS1613100526989","trial","","40","800","933.9999999618158","images/stimuli/spore_stims/simple_07_B_c.gif","images/stimuli/spore_stims/simple_07_A_c.gif","","","","","11","simple_similar","images/stimuli/spore_stims/simple_07_A_c.gif","right","","","","",""
"","null","html-keyboard-response","218","248670","0.0-41.0-0.6","SS1613100526989","","","null","","","","","<p><img src= images/blank.png width =""200"" height = ""200"" style = ""float:right""></p><p><img src=images/blank.png width =""800"" height = ""200""></p>","","","","","","","","","","","",""
"","269.0000000875443","sequential-stimulus-presentation","219","249757","0.0-41.0-1.6","SS1613100526989","trial","","40","800","1069.0000000875443","images/stimuli/spore_stims/simple_07_B_c.gif","images/stimuli/spore_stims/simple_07_A_c.gif","","","","","11","simple_similar","images/stimuli/spore_stims/simple_07_A_c.gif","right","","","","",""
"","null","html-keyboard-response","220","250619","0.0-41.0-0.7","SS1613100526989","","","null","","","","","<p><img src= images/blank.png width =""200"" height = ""200"" style = ""float:right""></p><p><img src=images/blank.png width =""800"" height = ""200""></p>","","","","","","","","","","","",""
"","335.0000000791624","sequential-stimulus-presentation","221","251762","0.0-41.0-1.7","SS1613100526989","trial","","40","800","1135.0000000791624","images/stimuli/spore_stims/simple_07_B_c.gif","images/stimuli/spore_stims/simple_07_A_c.gif","","","","","11","simple_similar","images/stimuli/spore_stims/simple_07_A_c.gif","right","","","","",""
"","168.99999999441206","html-keyboard-response","222","251935","0.0-42.0","SS1613100526989","pref_question","","51","","","","","<video width ='960' height = '540' style='padding-top:8%' autoplay muted><source src='images/stimuli/wall_pref.mp4' type='video/mp4'></video>","3","right","66%","11","","","","","","","",""
"","94.99999997206032","sequential-stimulus-presentation","223","252838","0.0-43.0","SS1613100526989","pref_reveal","","40","800","894.9999999720603","null","null","","","","","11","","","","background","","","",""
"","null","html-keyboard-response","224","253751","0.0-44.0-0.0","SS1613100526989","","","null","","","","","<p><img src= images/blank.png width =""200"" height = ""200"" style = ""float:right""></p><p><img src=images/blank.png width =""800"" height = ""200""></p>","","","","","","","","","","","",""
"","509.0000000782311","sequential-stimulus-presentation","225","255073","0.0-44.0-1.0","SS1613100526989","trial","","40","800","1309.000000078231","images/stimuli/spore_stims/complex_17_A_d.gif","images/stimuli/spore_stims/complex_17_B_d.gif","","","","","12","complex_similar","images/stimuli/spore_stims/complex_17_B_d.gif","left","","","","",""
"","null","html-keyboard-response","226","256259","0.0-44.0-0.1","SS1613100526989","","","null","","","","","<p><img src= images/blank.png width =""200"" height = ""200"" style = ""float:right""></p><p><img src=images/blank.png width =""800"" height = ""200""></p>","","","","","","","","","","","",""
"","298.00000006798655","sequential-stimulus-presentation","227","257374","0.0-44.0-1.1","SS1613100526989","trial","","40","800","1098.0000000679865","images/stimuli/spore_stims/complex_17_A_d.gif","images/stimuli/spore_stims/complex_17_B_d.gif","","","","","12","complex_similar","images/stimuli/spore_stims/complex_17_B_d.gif","left","","","","",""
"","null","html-keyboard-response","228","258552","0.0-44.0-0.2","SS1613100526989","","","null","","","","","<p><img src= images/blank.png width =""200"" height = ""200"" style = ""float:right""></p><p><img src=images/blank.png width =""800"" height = ""200""></p>","","","","","","","","","","","",""
"","246.99999997392297","sequential-stimulus-presentation","229","259608","0.0-44.0-1.2","SS1613100526989","trial","","40","800","1046.999999973923","images/stimuli/spore_stims/complex_17_A_d.gif","images/stimuli/spore_stims/complex_17_B_d.gif","","","","","12","complex_similar","images/stimuli/spore_stims/complex_17_B_d.gif","left","","","","",""
"","null","html-keyboard-response","230","260490","0.0-44.0-0.3","SS1613100526989","","","null","","","","","<p><img src= images/blank.png width =""200"" height = ""200"" style = ""float:right""></p><p><img src=images/blank.png width =""800"" height = ""200""></p>","","","","","","","","","","","",""
"","229.00000005029142","sequential-stimulus-presentation","231","261533","0.0-44.0-1.3","SS1613100526989","trial","","40","800","1029.0000000502914","images/stimuli/spore_stims/complex_17_A_d.gif","images/stimuli/spore_stims/complex_17_B_d.gif","","","","","12","complex_similar","images/stimuli/spore_stims/complex_17_B_d.gif","left","","","","",""
"","null","html-keyboard-response","232","262582","0.0-44.0-0.4","SS1613100526989","","","null","","","","","<p><img src= images/blank.png width =""200"" height = ""200"" style = ""float:right""></p><p><img src=images/blank.png width =""800"" height = ""200""></p>","","","","","","","","","","","",""
"","16.00000006146729","sequential-stimulus-presentation","233","263413","0.0-44.0-1.4","SS1613100526989","trial","","40","800","816.0000000614673","images/stimuli/spore_stims/complex_17_A_d.gif","images/stimuli/spore_stims/complex_17_B_d.gif","","","","","12","complex_similar","images/stimuli/spore_stims/complex_17_B_d.gif","left","","","","",""
"","null","html-keyboard-response","234","264345","0.0-44.0-0.5","SS1613100526989","","","null","","","","","<p><img src= images/blank.png width =""200"" height = ""200"" style = ""float:right""></p><p><img src=images/blank.png width =""800"" height = ""200""></p>","","","","","","","","","","","",""
"","5.999999935738742","sequential-stimulus-presentation","235","265165","0.0-44.0-1.5","SS1613100526989","trial","","40","800","805.9999999357387","images/stimuli/spore_stims/complex_17_A_d.gif","images/stimuli/spore_stims/complex_17_B_d.gif","","","","","12","complex_similar","images/stimuli/spore_stims/complex_17_B_d.gif","left","","","","",""
"","null","html-keyboard-response","236","266369","0.0-44.0-0.6","SS1613100526989","","","null","","","","","<p><img src= images/blank.png width =""200"" height = ""200"" style = ""float:right""></p><p><img src=images/blank.png width =""800"" height = ""200""></p>","","","","","","","","","","","",""
"","361.99999996460974","sequential-stimulus-presentation","237","267542","0.0-44.0-1.6","SS1613100526989","trial","","40","800","1161.9999999646097","images/stimuli/spore_stims/complex_17_A_d.gif","images/stimuli/spore_stims/complex_17_B_d.gif","","","","","12","complex_similar","images/stimuli/spore_stims/complex_17_A_d.gif","right","","","","",""
"","null","html-keyboard-response","238","268496","0.0-44.0-0.7","SS1613100526989","","","null","","","","","<p><img src= images/blank.png width =""200"" height = ""200"" style = ""float:right""></p><p><img src=images/blank.png width =""800"" height = ""200""></p>","","","","","","","","","","","",""
"","415.99999996833503","sequential-stimulus-presentation","239","269722","0.0-44.0-1.7","SS1613100526989","trial","","40","800","1215.999999968335","images/stimuli/spore_stims/complex_17_A_d.gif","images/stimuli/spore_stims/complex_17_B_d.gif","","","","","12","complex_similar","images/stimuli/spore_stims/complex_17_B_d.gif","left","","","","",""
"","268.999999971129","html-keyboard-response","240","269998","0.0-45.0","SS1613100526989","pref_question","","51","","","","","<video width ='960' height = '540' style='padding-top:8%' autoplay muted><source src='images/stimuli/wall_pref.mp4' type='video/mp4'></video>","3","right","66%","12","","","","","","","",""
"","278.9999999804422","sequential-stimulus-presentation","241","271082","0.0-46.0","SS1613100526989","pref_reveal","","40","800","1078.9999999804422","null","null","","","","","12","","","","deviant","","","",""
"","null","html-keyboard-response","242","272248","0.0-47.0-0.0","SS1613100526989","","","null","","","","","<p><img src= images/blank.png width =""200"" height = ""200"" style = ""float:right""></p><p><img src=images/blank.png width =""800"" height = ""200""></p>","","","","","","","","","","","",""
"","273.9999999757856","sequential-stimulus-presentation","243","273371","0.0-47.0-1.0","SS1613100526989","trial","","40","800","1073.9999999757856","images/stimuli/spore_stims/simple_15_B_a.gif","images/stimuli/spore_stims/simple_02_A_b.gif","","","","","13","simple_dissimilar","images/stimuli/spore_stims/simple_02_A_b.gif","middle","","","","",""
"","null","html-keyboard-response","244","274653","0.0-47.0-0.1","SS1613100526989","","","null","","","","","<p><img src= images/blank.png width =""200"" height = ""200"" style = ""float:right""></p><p><img src=images/blank.png width =""800"" height = ""200""></p>","","","","","","","","","","","",""
"","97.99999999813735","sequential-stimulus-presentation","245","275562","0.0-47.0-1.1","SS1613100526989","trial","","40","800","897.9999999981374","images/stimuli/spore_stims/simple_15_B_a.gif","images/stimuli/spore_stims/simple_02_A_b.gif","","","","","13","simple_dissimilar","images/stimuli/spore_stims/simple_02_A_b.gif","middle","","","","",""
"","null","html-keyboard-response","246","276498","0.0-47.0-0.2","SS1613100526989","","","null","","","","","<p><img src= images/blank.png width =""200"" height = ""200"" style = ""float:right""></p><p><img src=images/blank.png width =""800"" height = ""200""></p>","","","","","","","","","","","",""
"","28.000000049360096","sequential-stimulus-presentation","247","277332","0.0-47.0-1.2","SS1613100526989","trial","","40","800","828.0000000493601","images/stimuli/spore_stims/simple_15_B_a.gif","images/stimuli/spore_stims/simple_02_A_b.gif","","","","","13","simple_dissimilar","images/stimuli/spore_stims/simple_15_B_a.gif","right","","","","",""
"","null","html-keyboard-response","248","278330","0.0-47.0-0.3","SS1613100526989","","","null","","","","","<p><img src= images/blank.png width =""200"" height = ""200"" style = ""float:right""></p><p><img src=images/blank.png width =""800"" height = ""200""></p>","","","","","","","","","","","",""
"","437.00000003445894","sequential-stimulus-presentation","249","279582","0.0-47.0-1.3","SS1613100526989","trial","","40","800","1237.000000034459","images/stimuli/spore_stims/simple_15_B_a.gif","images/stimuli/spore_stims/simple_02_A_b.gif","","","","","13","simple_dissimilar","images/stimuli/spore_stims/simple_02_A_b.gif","middle","","","","",""
"","null","html-keyboard-response","250","280474","0.0-47.0-0.4","SS1613100526989","","","null","","","","","<p><img src= images/blank.png width =""200"" height = ""200"" style = ""float:right""></p><p><img src=images/blank.png width =""800"" height = ""200""></p>","","","","","","","","","","","",""
"","74.99999995343387","sequential-stimulus-presentation","251","281376","0.0-47.0-1.4","SS1613100526989","trial","","40","800","874.9999999534339","images/stimuli/spore_stims/simple_15_B_a.gif","images/stimuli/spore_stims/simple_02_A_b.gif","","","","","13","simple_dissimilar","images/stimuli/spore_stims/simple_02_A_b.gif","middle","","","","",""
"","null","html-keyboard-response","252","282593","0.0-47.0-0.5","SS1613100526989","","","null","","","","","<p><img src= images/blank.png width =""200"" height = ""200"" style = ""float:right""></p><p><img src=images/blank.png width =""800"" height = ""200""></p>","","","","","","","","","","","",""
"","128.99999995715916","sequential-stimulus-presentation","253","283532","0.0-47.0-1.5","SS1613100526989","trial","","40","800","928.9999999571592","images/stimuli/spore_stims/simple_15_B_a.gif","images/stimuli/spore_stims/simple_02_A_b.gif","","","","","13","simple_dissimilar","images/stimuli/spore_stims/simple_02_A_b.gif","middle","","","","",""
"","null","html-keyboard-response","254","284761","0.0-47.0-0.6","SS1613100526989","","","null","","","","","<p><img src= images/blank.png width =""200"" height = ""200"" style = ""float:right""></p><p><img src=images/blank.png width =""800"" height = ""200""></p>","","","","","","","","","","","",""
"","229.99999998137355","sequential-stimulus-presentation","255","285802","0.0-47.0-1.6","SS1613100526989","trial","","40","800","1029.9999999813735","images/stimuli/spore_stims/simple_15_B_a.gif","images/stimuli/spore_stims/simple_02_A_b.gif","","","","","13","simple_dissimilar","images/stimuli/spore_stims/simple_02_A_b.gif","middle","","","","",""
"","null","html-keyboard-response","256","286917","0.0-47.0-0.7","SS1613100526989","","","null","","","","","<p><img src= images/blank.png width =""200"" height = ""200"" style = ""float:right""></p><p><img src=images/blank.png width =""800"" height = ""200""></p>","","","","","","","","","","","",""
"","140.00000001396984","sequential-stimulus-presentation","257","287871","0.0-47.0-1.7","SS1613100526989","trial","","40","800","940.0000000139698","images/stimuli/spore_stims/simple_15_B_a.gif","images/stimuli/spore_stims/simple_02_A_b.gif","","","","","13","simple_dissimilar","images/stimuli/spore_stims/simple_02_A_b.gif","middle","","","","",""
"","134.9999998928979","html-keyboard-response","258","288027","0.0-48.0","SS1613100526989","pref_question","","50","","","","","<video width ='960' height = '540' style='padding-top:8%' autoplay muted><source src='images/stimuli/wall_pref.mp4' type='video/mp4'></video>","2","middle","45%","13","","","","","","","",""
"","283.99999998509884","sequential-stimulus-presentation","259","289119","0.0-49.0","SS1613100526989","pref_reveal","","40","800","1083.9999999850988","null","null","","","","","13","","","","background","","","",""
"","null","html-keyboard-response","260","290039","0.0-50.0-0.0","SS1613100526989","","","null","","","","","<p><img src= images/blank.png width =""200"" height = ""200"" style = ""float:right""></p><p><img src=images/blank.png width =""800"" height = ""200""></p>","","","","","","","","","","","",""
"","84.00000003166497","sequential-stimulus-presentation","261","290932","0.0-50.0-1.0","SS1613100526989","trial","","40","800","884.000000031665","images/stimuli/spore_stims/complex_14_A_d.gif","images/stimuli/spore_stims/complex_14_B_d.gif","","","","","14","complex_similar","images/stimuli/spore_stims/complex_14_B_d.gif","middle","","","","",""
"","null","html-keyboard-response","262","292104","0.0-50.0-0.1","SS1613100526989","","","null","","","","","<p><img src= images/blank.png width =""200"" height = ""200"" style = ""float:right""></p><p><img src=images/blank.png width =""800"" height = ""200""></p>","","","","","","","","","","","",""
"","157.00000000651926","sequential-stimulus-presentation","263","293081","0.0-50.0-1.1","SS1613100526989","trial","","40","800","957.0000000065193","images/stimuli/spore_stims/complex_14_A_d.gif","images/stimuli/spore_stims/complex_14_B_d.gif","","","","","14","complex_similar","images/stimuli/spore_stims/complex_14_B_d.gif","middle","","","","",""
"","null","html-keyboard-response","264","293999","0.0-50.0-0.2","SS1613100526989","","","null","","","","","<p><img src= images/blank.png width =""200"" height = ""200"" style = ""float:right""></p><p><img src=images/blank.png width =""800"" height = ""200""></p>","","","","","","","","","","","",""
"","86.00000001024455","sequential-stimulus-presentation","265","294892","0.0-50.0-1.2","SS1613100526989","trial","","40","800","886.0000000102445","images/stimuli/spore_stims/complex_14_A_d.gif","images/stimuli/spore_stims/complex_14_B_d.gif","","","","","14","complex_similar","images/stimuli/spore_stims/complex_14_B_d.gif","middle","","","","",""
"","null","html-keyboard-response","266","295899","0.0-50.0-0.3","SS1613100526989","","","null","","","","","<p><img src= images/blank.png width =""200"" height = ""200"" style = ""float:right""></p><p><img src=images/blank.png width =""800"" height = ""200""></p>","","","","","","","","","","","",""
"","30.000000027939677","sequential-stimulus-presentation","267","296734","0.0-50.0-1.3","SS1613100526989","trial","","40","800","830.0000000279397","images/stimuli/spore_stims/complex_14_A_d.gif","images/stimuli/spore_stims/complex_14_B_d.gif","","","","","14","complex_similar","images/stimuli/spore_stims/complex_14_B_d.gif","middle","","","","",""
"","null","html-keyboard-response","268","297763","0.0-50.0-0.4","SS1613100526989","","","null","","","","","<p><img src= images/blank.png width =""200"" height = ""200"" style = ""float:right""></p><p><img src=images/blank.png width =""800"" height = ""200""></p>","","","","","","","","","","","",""
"","69.99999994877726","sequential-stimulus-presentation","269","298647","0.0-50.0-1.4","SS1613100526989","trial","","40","800","869.9999999487773","images/stimuli/spore_stims/complex_14_A_d.gif","images/stimuli/spore_stims/complex_14_B_d.gif","","","","","14","complex_similar","images/stimuli/spore_stims/complex_14_A_d.gif","left","","","","",""
"","null","html-keyboard-response","270","299513","0.0-50.0-0.5","SS1613100526989","","","null","","","","","<p><img src= images/blank.png width =""200"" height = ""200"" style = ""float:right""></p><p><img src=images/blank.png width =""800"" height = ""200""></p>","","","","","","","","","","","",""
"","356.000000028871","sequential-stimulus-presentation","271","300681","0.0-50.0-1.5","SS1613100526989","trial","","40","800","1156.000000028871","images/stimuli/spore_stims/complex_14_A_d.gif","images/stimuli/spore_stims/complex_14_B_d.gif","","","","","14","complex_similar","images/stimuli/spore_stims/complex_14_B_d.gif","middle","","","","",""
"","null","html-keyboard-response","272","301672","0.0-50.0-0.6","SS1613100526989","","","null","","","","","<p><img src= images/blank.png width =""200"" height = ""200"" style = ""float:right""></p><p><img src=images/blank.png width =""800"" height = ""200""></p>","","","","","","","","","","","",""
"","449.00000002235174","sequential-stimulus-presentation","273","302943","0.0-50.0-1.6","SS1613100526989","trial","","40","800","1249.0000000223517","images/stimuli/spore_stims/complex_14_A_d.gif","images/stimuli/spore_stims/complex_14_B_d.gif","","","","","14","complex_similar","images/stimuli/spore_stims/complex_14_B_d.gif","middle","","","","",""
"","null","html-keyboard-response","274","304063","0.0-50.0-0.7","SS1613100526989","","","null","","","","","<p><img src= images/blank.png width =""200"" height = ""200"" style = ""float:right""></p><p><img src=images/blank.png width =""800"" height = ""200""></p>","","","","","","","","","","","",""
"","363.0000000121072","sequential-stimulus-presentation","275","305243","0.0-50.0-1.7","SS1613100526989","trial","","40","800","1163.0000000121072","images/stimuli/spore_stims/complex_14_A_d.gif","images/stimuli/spore_stims/complex_14_B_d.gif","","","","","14","complex_similar","images/stimuli/spore_stims/complex_14_B_d.gif","middle","","","","",""
"","0","html-keyboard-response","276","305247","0.0-51.0","SS1613100526989","pref_question","","50","","","","","<video width ='960' height = '540' style='padding-top:8%' autoplay muted><source src='images/stimuli/wall_pref.mp4' type='video/mp4'></video>","2","middle","45%","14","","","","","","","",""
"","237.00000008102506","sequential-stimulus-presentation","277","306291","0.0-52.0","SS1613100526989","pref_reveal","","40","800","1037.000000081025","null","null","","","","","14","","","","background","","","",""
"","null","html-keyboard-response","278","307201","0.0-53.0-0.0","SS1613100526989","","","null","","","","","<p><img src= images/blank.png width =""200"" height = ""200"" style = ""float:right""></p><p><img src=images/blank.png width =""800"" height = ""200""></p>","","","","","","","","","","","",""
"","288.0000000586733","sequential-stimulus-presentation","279","308312","0.0-53.0-1.0","SS1613100526989","trial","","40","800","1088.0000000586733","images/stimuli/spore_stims/simple_09_A_c.gif","images/stimuli/spore_stims/simple_08_B_c.gif","","","","","15","simple_dissimilar","images/stimuli/spore_stims/simple_08_B_c.gif","middle","","","","",""
"","null","html-keyboard-response","280","309264","0.0-53.0-0.1","SS1613100526989","","","null","","","","","<p><img src= images/blank.png width =""200"" height = ""200"" style = ""float:right""></p><p><img src=images/blank.png width =""800"" height = ""200""></p>","","","","","","","","","","","",""
"","111.00000003352761","sequential-stimulus-presentation","281","310192","0.0-53.0-1.1","SS1613100526989","trial","","40","800","911.0000000335276","images/stimuli/spore_stims/simple_09_A_c.gif","images/stimuli/spore_stims/simple_08_B_c.gif","","","","","15","simple_dissimilar","images/stimuli/spore_stims/simple_08_B_c.gif","middle","","","","",""
"","null","html-keyboard-response","282","311273","0.0-53.0-0.2","SS1613100526989","","","null","","","","","<p><img src= images/blank.png width =""200"" height = ""200"" style = ""float:right""></p><p><img src=images/blank.png width =""800"" height = ""200""></p>","","","","","","","","","","","",""
"","287.00000001117587","sequential-stimulus-presentation","283","312372","0.0-53.0-1.2","SS1613100526989","trial","","40","800","1087.0000000111759","images/stimuli/spore_stims/simple_09_A_c.gif","images/stimuli/spore_stims/simple_08_B_c.gif","","","","","15","simple_dissimilar","images/stimuli/spore_stims/simple_08_B_c.gif","middle","","","","",""
"","null","html-keyboard-response","284","313675","0.0-53.0-0.3","SS1613100526989","","","null","","","","","<p><img src= images/blank.png width =""200"" height = ""200"" style = ""float:right""></p><p><img src=images/blank.png width =""800"" height = ""200""></p>","","","","","","","","","","","",""
"","354.0000000502914","sequential-stimulus-presentation","285","314842","0.0-53.0-1.3","SS1613100526989","trial","","40","800","1154.0000000502914","images/stimuli/spore_stims/simple_09_A_c.gif","images/stimuli/spore_stims/simple_08_B_c.gif","","","","","15","simple_dissimilar","images/stimuli/spore_stims/simple_08_B_c.gif","middle","","","","",""
"","null","html-keyboard-response","286","316138","0.0-53.0-0.4","SS1613100526989","","","null","","","","","<p><img src= images/blank.png width =""200"" height = ""200"" style = ""float:right""></p><p><img src=images/blank.png width =""800"" height = ""200""></p>","","","","","","","","","","","",""
"","702.9999999795109","sequential-stimulus-presentation","287","317666","0.0-53.0-1.4","SS1613100526989","trial","","40","800","1502.999999979511","images/stimuli/spore_stims/simple_09_A_c.gif","images/stimuli/spore_stims/simple_08_B_c.gif","","","","","15","simple_dissimilar","images/stimuli/spore_stims/simple_08_B_c.gif","middle","","","","",""
"","null","html-keyboard-response","288","318889","0.0-53.0-0.5","SS1613100526989","","","null","","","","","<p><img src= images/blank.png width =""200"" height = ""200"" style = ""float:right""></p><p><img src=images/blank.png width =""800"" height = ""200""></p>","","","","","","","","","","","",""
"","210.99999989382923","sequential-stimulus-presentation","289","319907","0.0-53.0-1.5","SS1613100526989","trial","","40","800","1010.9999998938292","images/stimuli/spore_stims/simple_09_A_c.gif","images/stimuli/spore_stims/simple_08_B_c.gif","","","","","15","simple_dissimilar","images/stimuli/spore_stims/simple_09_A_c.gif","right","","","","",""
"","null","html-keyboard-response","290","320861","0.0-53.0-0.6","SS1613100526989","","","null","","","","","<p><img src= images/blank.png width =""200"" height = ""200"" style = ""float:right""></p><p><img src=images/blank.png width =""800"" height = ""200""></p>","","","","","","","","","","","",""
"","205.0000000745058","sequential-stimulus-presentation","291","321876","0.0-53.0-1.6","SS1613100526989","trial","","40","800","1005.0000000745058","images/stimuli/spore_stims/simple_09_A_c.gif","images/stimuli/spore_stims/simple_08_B_c.gif","","","","","15","simple_dissimilar","images/stimuli/spore_stims/simple_08_B_c.gif","middle","","","","",""
"","null","html-keyboard-response","292","322870","0.0-53.0-0.7","SS1613100526989","","","null","","","","","<p><img src= images/blank.png width =""200"" height = ""200"" style = ""float:right""></p><p><img src=images/blank.png width =""800"" height = ""200""></p>","","","","","","","","","","","",""
"","145.00000001862645","sequential-stimulus-presentation","293","323822","0.0-53.0-1.7","SS1613100526989","trial","","40","800","945.0000000186265","images/stimuli/spore_stims/simple_09_A_c.gif","images/stimuli/spore_stims/simple_08_B_c.gif","","","","","15","simple_dissimilar","images/stimuli/spore_stims/simple_08_B_c.gif","middle","","","","",""
"","52.00000002514571","html-keyboard-response","294","323891","0.0-54.0","SS1613100526989","pref_question","","50","","","","","<video width ='960' height = '540' style='padding-top:8%' autoplay muted><source src='images/stimuli/wall_pref.mp4' type='video/mp4'></video>","2","middle","45%","15","","","","","","","",""
"","97.99999999813735","sequential-stimulus-presentation","295","324796","0.0-55.0","SS1613100526989","pref_reveal","","40","800","897.9999999981374","null","null","","","","","15","","","","background","","","",""
"","null","html-keyboard-response","296","326022","0.0-56.0-0.0","SS1613100526989","","","null","","","","","<p><img src= images/blank.png width =""200"" height = ""200"" style = ""float:right""></p><p><img src=images/blank.png width =""800"" height = ""200""></p>","","","","","","","","","","","",""
"","50.99999997764826","sequential-stimulus-presentation","297","326893","0.0-56.0-1.0","SS1613100526989","trial","","40","800","850.9999999776483","images/stimuli/spore_stims/simple_20_A_a.gif","images/stimuli/spore_stims/simple_20_B_a.gif","","","","","16","simple_similar","images/stimuli/spore_stims/simple_20_B_a.gif","right","","","","",""
"","null","html-keyboard-response","298","328155","0.0-56.0-0.1","SS1613100526989","","","null","","","","","<p><img src= images/blank.png width =""200"" height = ""200"" style = ""float:right""></p><p><img src=images/blank.png width =""800"" height = ""200""></p>","","","","","","","","","","","",""
"","347.0000000670552","sequential-stimulus-presentation","299","329313","0.0-56.0-1.1","SS1613100526989","trial","","40","800","1147.0000000670552","images/stimuli/spore_stims/simple_20_A_a.gif","images/stimuli/spore_stims/simple_20_B_a.gif","","","","","16","simple_similar","images/stimuli/spore_stims/simple_20_B_a.gif","right","","","","",""
"","null","html-keyboard-response","300","330249","0.0-56.0-0.2","SS1613100526989","","","null","","","","","<p><img src= images/blank.png width =""200"" height = ""200"" style = ""float:right""></p><p><img src=images/blank.png width =""800"" height = ""200""></p>","","","","","","","","","","","",""
"","35.00000003259629","sequential-stimulus-presentation","301","331096","0.0-56.0-1.2","SS1613100526989","trial","","40","800","835.0000000325963","images/stimuli/spore_stims/simple_20_A_a.gif","images/stimuli/spore_stims/simple_20_B_a.gif","","","","","16","simple_similar","images/stimuli/spore_stims/simple_20_B_a.gif","right","","","","",""
"","null","html-keyboard-response","302","332198","0.0-56.0-0.3","SS1613100526989","","","null","","","","","<p><img src= images/blank.png width =""200"" height = ""200"" style = ""float:right""></p><p><img src=images/blank.png width =""800"" height = ""200""></p>","","","","","","","","","","","",""
"","124.00000006891787","sequential-stimulus-presentation","303","333131","0.0-56.0-1.3","SS1613100526989","trial","","40","800","924.0000000689179","images/stimuli/spore_stims/simple_20_A_a.gif","images/stimuli/spore_stims/simple_20_B_a.gif","","","","","16","simple_similar","images/stimuli/spore_stims/simple_20_B_a.gif","right","","","","",""
"","null","html-keyboard-response","304","333999","0.0-56.0-0.4","SS1613100526989","","","null","","","","","<p><img src= images/blank.png width =""200"" height = ""200"" style = ""float:right""></p><p><img src=images/blank.png width =""800"" height = ""200""></p>","","","","","","","","","","","",""
"","106.99999995995313","sequential-stimulus-presentation","305","334913","0.0-56.0-1.4","SS1613100526989","trial","","40","800","906.9999999599531","images/stimuli/spore_stims/simple_20_A_a.gif","images/stimuli/spore_stims/simple_20_B_a.gif","","","","","16","simple_similar","images/stimuli/spore_stims/simple_20_B_a.gif","right","","","","",""
"","null","html-keyboard-response","306","335958","0.0-56.0-0.5","SS1613100526989","","","null","","","","","<p><img src= images/blank.png width =""200"" height = ""200"" style = ""float:right""></p><p><img src=images/blank.png width =""800"" height = ""200""></p>","","","","","","","","","","","",""
"","386.0000000568107","sequential-stimulus-presentation","307","337163","0.0-56.0-1.5","SS1613100526989","trial","","40","800","1186.0000000568107","images/stimuli/spore_stims/simple_20_A_a.gif","images/stimuli/spore_stims/simple_20_B_a.gif","","","","","16","simple_similar","images/stimuli/spore_stims/simple_20_B_a.gif","right","","","","",""
"","null","html-keyboard-response","308","338008","0.0-56.0-0.6","SS1613100526989","","","null","","","","","<p><img src= images/blank.png width =""200"" height = ""200"" style = ""float:right""></p><p><img src=images/blank.png width =""800"" height = ""200""></p>","","","","","","","","","","","",""
"","37.00000001117587","sequential-stimulus-presentation","309","338895","0.0-56.0-1.6","SS1613100526989","trial","","40","800","837.0000000111759","images/stimuli/spore_stims/simple_20_A_a.gif","images/stimuli/spore_stims/simple_20_B_a.gif","","","","","16","simple_similar","images/stimuli/spore_stims/simple_20_B_a.gif","right","","","","",""
"","null","html-keyboard-response","310","340072","0.0-56.0-0.7","SS1613100526989","","","null","","","","","<p><img src= images/blank.png width =""200"" height = ""200"" style = ""float:right""></p><p><img src=images/blank.png width =""800"" height = ""200""></p>","","","","","","","","","","","",""
"","114.00000005960464","sequential-stimulus-presentation","311","341002","0.0-56.0-1.7","SS1613100526989","trial","","40","800","914.0000000596046","images/stimuli/spore_stims/simple_20_A_a.gif","images/stimuli/spore_stims/simple_20_B_a.gif","","","","","16","simple_similar","images/stimuli/spore_stims/simple_20_A_a.gif","middle","","","","",""
"","437.00000003445894","html-keyboard-response","312","341464","0.0-57.0","SS1613100526989","pref_question","","51","","","","","<video width ='960' height = '540' style='padding-top:8%' autoplay muted><source src='images/stimuli/wall_pref.mp4' type='video/mp4'></video>","3","right","66%","16","","","","","","","",""
