"view_history","rt","trial_type","trial_index","time_elapsed","internal_node_id","subject","stimulus_type","trial_stimulus","key_press","minimum_viewing_duration","trial_looking_time","block_deviant","block_background","stimulus","wall_pref","location","location_percent","block_number","block_type","stimulus_displayed","position_displayed","stim_type_selected","responses","question_order","stimulus_left","stimulus_right"
"[{""page_index"":0,""viewing_time"":5445.785000003525}]","5446.31500000105","instructions","0","5448","0.0-0.0","SS1613079878933","","","","","","","","","","","","","","","","","","","",""
"[{""page_index"":0,""viewing_time"":6703.22500000475},{""page_index"":1,""viewing_time"":5728.214999995544}]","12431.694999999308","instructions","1","19881","0.0-1.0","SS1613079878933","instructions","","","","","","","","","","","","","","","","","","",""
"","3594.2400000058115","sequential-stimulus-presentation","2","24279","0.0-2.0","SS1613079878933","","","40","800","4394.240000005811","null","null","","","","","","","","","","","","",""
"","2428.489999998419","sequential-stimulus-presentation","3","27509","0.0-3.0","SS1613079878933","","","40","800","3228.489999998419","null","null","","","","","","","","","","","","",""
"[{""page_index"":0,""viewing_time"":2806.834999995772}]","2807.1249999993597","instructions","4","30317","0.0-4.0","SS1613079878933","instructions","","","","","","","","","","","","","","","","","","",""
"","5751.410000004398","html-keyboard-response","5","36070","0.0-5.0","SS1613079878933","instructions","","98","","","","","<video width ='960' height = '540' autoplay muted><source src='images/stimuli/wall_pref.mp4' type='video/mp4'></video>","2","middle","45%","","","","","","","","",""
"","1036.2699999968754","sequential-stimulus-presentation","6","37909","0.0-6.0","SS1613079878933","pref_reveal","","40","800","1836.2699999968754","null","null","","","","","","","","","","","","",""
"[{""page_index"":0,""viewing_time"":4832.849999998871},{""page_index"":1,""viewing_time"":3524.4300000049407},{""page_index"":2,""viewing_time"":1189.8049999945215},{""page_index"":3,""viewing_time"":819.8800000027404}]","10367.220000000088","instructions","7","48277","0.0-7.0","SS1613079878933","instructions","","","","","","","","","","","","","","","","","","",""
"","null","html-keyboard-response","8","49249","0.0-8.0-0.0","SS1613079878933","","","null","","","","","<p><img src= images/blank.png width =""200"" height = ""200"" style = ""float:right""></p><p><img src=images/blank.png width =""800"" height = ""200""></p>","","","","","","","","","","","",""
"","3088.565000005474","sequential-stimulus-presentation","9","53157","0.0-8.0-1.0","SS1613079878933","trial","","40","800","3888.565000005474","images/stimuli/spore_stims/simple_08_A_b.gif","images/stimuli/spore_stims/simple_08_B_b.gif","","","","","0","simple_similar","images/stimuli/spore_stims/simple_08_B_b.gif","middle","","","","",""
"","null","html-keyboard-response","10","54271","0.0-8.0-0.1","SS1613079878933","","","null","","","","","<p><img src= images/blank.png width =""200"" height = ""200"" style = ""float:right""></p><p><img src=images/blank.png width =""800"" height = ""200""></p>","","","","","","","","","","","",""
"","3235.740000003716","sequential-stimulus-presentation","11","58310","0.0-8.0-1.1","SS1613079878933","trial","","40","800","4035.740000003716","images/stimuli/spore_stims/simple_08_A_b.gif","images/stimuli/spore_stims/simple_08_B_b.gif","","","","","0","simple_similar","images/stimuli/spore_stims/simple_08_B_b.gif","middle","","","","",""
"","null","html-keyboard-response","12","59188","0.0-8.0-0.2","SS1613079878933","","","null","","","","","<p><img src= images/blank.png width =""200"" height = ""200"" style = ""float:right""></p><p><img src=images/blank.png width =""800"" height = ""200""></p>","","","","","","","","","","","",""
"","1212.4049999983981","sequential-stimulus-presentation","13","61205","0.0-8.0-1.2","SS1613079878933","trial","","40","800","2012.4049999983981","images/stimuli/spore_stims/simple_08_A_b.gif","images/stimuli/spore_stims/simple_08_B_b.gif","","","","","0","simple_similar","images/stimuli/spore_stims/simple_08_B_b.gif","middle","","","","",""
"","null","html-keyboard-response","14","62237","0.0-8.0-0.3","SS1613079878933","","","null","","","","","<p><img src= images/blank.png width =""200"" height = ""200"" style = ""float:right""></p><p><img src=images/blank.png width =""800"" height = ""200""></p>","","","","","","","","","","","",""
"","917.2749999997905","sequential-stimulus-presentation","15","63957","0.0-8.0-1.3","SS1613079878933","trial","","40","800","1717.2749999997905","images/stimuli/spore_stims/simple_08_A_b.gif","images/stimuli/spore_stims/simple_08_B_b.gif","","","","","0","simple_similar","images/stimuli/spore_stims/simple_08_B_b.gif","middle","","","","",""
"","null","html-keyboard-response","16","64943","0.0-8.0-0.4","SS1613079878933","","","null","","","","","<p><img src= images/blank.png width =""200"" height = ""200"" style = ""float:right""></p><p><img src=images/blank.png width =""800"" height = ""200""></p>","","","","","","","","","","","",""
"","771.8700000041281","sequential-stimulus-presentation","17","66517","0.0-8.0-1.4","SS1613079878933","trial","","40","800","1571.870000004128","images/stimuli/spore_stims/simple_08_A_b.gif","images/stimuli/spore_stims/simple_08_B_b.gif","","","","","0","simple_similar","images/stimuli/spore_stims/simple_08_B_b.gif","middle","","","","",""
"","null","html-keyboard-response","18","67709","0.0-8.0-0.5","SS1613079878933","","","null","","","","","<p><img src= images/blank.png width =""200"" height = ""200"" style = ""float:right""></p><p><img src=images/blank.png width =""800"" height = ""200""></p>","","","","","","","","","","","",""
"","1732.5249999994412","sequential-stimulus-presentation","19","70246","0.0-8.0-1.5","SS1613079878933","trial","","40","800","2532.524999999441","images/stimuli/spore_stims/simple_08_A_b.gif","images/stimuli/spore_stims/simple_08_B_b.gif","","","","","0","simple_similar","images/stimuli/spore_stims/simple_08_B_b.gif","middle","","","","",""
"","null","html-keyboard-response","20","71519","0.0-8.0-0.6","SS1613079878933","","","null","","","","","<p><img src= images/blank.png width =""200"" height = ""200"" style = ""float:right""></p><p><img src=images/blank.png width =""800"" height = ""200""></p>","","","","","","","","","","","",""
"","5548.310000005586","sequential-stimulus-presentation","21","77877","0.0-8.0-1.6","SS1613079878933","trial","","40","800","6348.310000005586","images/stimuli/spore_stims/simple_08_A_b.gif","images/stimuli/spore_stims/simple_08_B_b.gif","","","","","0","simple_similar","images/stimuli/spore_stims/simple_08_A_b.gif","right","","","","",""
"","null","html-keyboard-response","22","78712","0.0-8.0-0.7","SS1613079878933","","","null","","","","","<p><img src= images/blank.png width =""200"" height = ""200"" style = ""float:right""></p><p><img src=images/blank.png width =""800"" height = ""200""></p>","","","","","","","","","","","",""
"","825.9449999968638","sequential-stimulus-presentation","23","80342","0.0-8.0-1.7","SS1613079878933","trial","","40","800","1625.9449999968638","images/stimuli/spore_stims/simple_08_A_b.gif","images/stimuli/spore_stims/simple_08_B_b.gif","","","","","0","simple_similar","images/stimuli/spore_stims/simple_08_B_b.gif","middle","","","","",""
"","2381.5249999970547","html-keyboard-response","24","82725","0.0-9.0","SS1613079878933","pref_question","","97","","","","","<video width ='960' height = '540' style='padding-top:8%' autoplay muted><source src='images/stimuli/wall_pref.mp4' type='video/mp4'></video>","1","left","25%","0","","","","","","","",""
"","2028.519999999844","sequential-stimulus-presentation","25","85556","0.0-10.0","SS1613079878933","pref_reveal","","40","800","2828.519999999844","null","null","","","","","0","","","","novel","","","",""
"","null","html-keyboard-response","26","86845","0.0-11.0-0.0","SS1613079878933","","","null","","","","","<p><img src= images/blank.png width =""200"" height = ""200"" style = ""float:right""></p><p><img src=images/blank.png width =""800"" height = ""200""></p>","","","","","","","","","","","",""
"","6109.524999999849","sequential-stimulus-presentation","27","93766","0.0-11.0-1.0","SS1613079878933","trial","","40","800","6909.524999999849","images/stimuli/spore_stims/simple_05_A_d.gif","images/stimuli/spore_stims/simple_03_A_d.gif","","","","","1","simple_dissimilar","images/stimuli/spore_stims/simple_03_A_d.gif","right","","","","",""
"","null","html-keyboard-response","28","94858","0.0-11.0-0.1","SS1613079878933","","","null","","","","","<p><img src= images/blank.png width =""200"" height = ""200"" style = ""float:right""></p><p><img src=images/blank.png width =""800"" height = ""200""></p>","","","","","","","","","","","",""
"","4424.08499999874","sequential-stimulus-presentation","29","100085","0.0-11.0-1.1","SS1613079878933","trial","","40","800","5224.08499999874","images/stimuli/spore_stims/simple_05_A_d.gif","images/stimuli/spore_stims/simple_03_A_d.gif","","","","","1","simple_dissimilar","images/stimuli/spore_stims/simple_03_A_d.gif","right","","","","",""
"","null","html-keyboard-response","30","101263","0.0-11.0-0.2","SS1613079878933","","","null","","","","","<p><img src= images/blank.png width =""200"" height = ""200"" style = ""float:right""></p><p><img src=images/blank.png width =""800"" height = ""200""></p>","","","","","","","","","","","",""
"","993.5049999985495","sequential-stimulus-presentation","31","103061","0.0-11.0-1.2","SS1613079878933","trial","","40","800","1793.5049999985495","images/stimuli/spore_stims/simple_05_A_d.gif","images/stimuli/spore_stims/simple_03_A_d.gif","","","","","1","simple_dissimilar","images/stimuli/spore_stims/simple_03_A_d.gif","right","","","","",""
"","null","html-keyboard-response","32","103934","0.0-11.0-0.3","SS1613079878933","","","null","","","","","<p><img src= images/blank.png width =""200"" height = ""200"" style = ""float:right""></p><p><img src=images/blank.png width =""800"" height = ""200""></p>","","","","","","","","","","","",""
"","1780.9350000025006","sequential-stimulus-presentation","33","106518","0.0-11.0-1.3","SS1613079878933","trial","","40","800","2580.9350000025006","images/stimuli/spore_stims/simple_05_A_d.gif","images/stimuli/spore_stims/simple_03_A_d.gif","","","","","1","simple_dissimilar","images/stimuli/spore_stims/simple_03_A_d.gif","right","","","","",""
"","null","html-keyboard-response","34","107359","0.0-11.0-0.4","SS1613079878933","","","null","","","","","<p><img src= images/blank.png width =""200"" height = ""200"" style = ""float:right""></p><p><img src=images/blank.png width =""800"" height = ""200""></p>","","","","","","","","","","","",""
"","1730.4799999983516","sequential-stimulus-presentation","35","109893","0.0-11.0-1.4","SS1613079878933","trial","","40","800","2530.4799999983516","images/stimuli/spore_stims/simple_05_A_d.gif","images/stimuli/spore_stims/simple_03_A_d.gif","","","","","1","simple_dissimilar","images/stimuli/spore_stims/simple_03_A_d.gif","right","","","","",""
"","null","html-keyboard-response","36","111087","0.0-11.0-0.5","SS1613079878933","","","null","","","","","<p><img src= images/blank.png width =""200"" height = ""200"" style = ""float:right""></p><p><img src=images/blank.png width =""800"" height = ""200""></p>","","","","","","","","","","","",""
"","5842.405000003055","sequential-stimulus-presentation","37","117734","0.0-11.0-1.5","SS1613079878933","trial","","40","800","6642.405000003055","images/stimuli/spore_stims/simple_05_A_d.gif","images/stimuli/spore_stims/simple_03_A_d.gif","","","","","1","simple_dissimilar","images/stimuli/spore_stims/simple_05_A_d.gif","middle","","","","",""
"","null","html-keyboard-response","38","118573","0.0-11.0-0.6","SS1613079878933","","","null","","","","","<p><img src= images/blank.png width =""200"" height = ""200"" style = ""float:right""></p><p><img src=images/blank.png width =""800"" height = ""200""></p>","","","","","","","","","","","",""
"","1683.0100000006496","sequential-stimulus-presentation","39","121061","0.0-11.0-1.6","SS1613079878933","trial","","40","800","2483.0100000006496","images/stimuli/spore_stims/simple_05_A_d.gif","images/stimuli/spore_stims/simple_03_A_d.gif","","","","","1","simple_dissimilar","images/stimuli/spore_stims/simple_03_A_d.gif","right","","","","",""
"","null","html-keyboard-response","40","122174","0.0-11.0-0.7","SS1613079878933","","","null","","","","","<p><img src= images/blank.png width =""200"" height = ""200"" style = ""float:right""></p><p><img src=images/blank.png width =""800"" height = ""200""></p>","","","","","","","","","","","",""
"","1587.1399999959976","sequential-stimulus-presentation","41","124565","0.0-11.0-1.7","SS1613079878933","trial","","40","800","2387.1399999959976","images/stimuli/spore_stims/simple_05_A_d.gif","images/stimuli/spore_stims/simple_03_A_d.gif","","","","","1","simple_dissimilar","images/stimuli/spore_stims/simple_03_A_d.gif","right","","","","",""
"","1342.609999999695","html-keyboard-response","42","125909","0.0-12.0","SS1613079878933","pref_question","","97","","","","","<video width ='960' height = '540' style='padding-top:8%' autoplay muted><source src='images/stimuli/wall_pref.mp4' type='video/mp4'></video>","1","left","25%","1","","","","","","","",""
"","7487.9150000051595","sequential-stimulus-presentation","43","134214","0.0-13.0","SS1613079878933","pref_reveal","","40","800","8287.91500000516","null","null","","","","","1","","","","novel","","","",""
"","null","html-keyboard-response","44","135350","0.0-14.0-0.0","SS1613079878933","","","null","","","","","<p><img src= images/blank.png width =""200"" height = ""200"" style = ""float:right""></p><p><img src=images/blank.png width =""800"" height = ""200""></p>","","","","","","","","","","","",""
"","5996.110000000044","sequential-stimulus-presentation","45","142149","0.0-14.0-1.0","SS1613079878933","trial","","40","800","6796.110000000044","images/stimuli/spore_stims/complex_17_B_a.gif","images/stimuli/spore_stims/complex_17_A_a.gif","","","","","2","complex_similar","images/stimuli/spore_stims/complex_17_A_a.gif","middle","","","","",""
"","null","html-keyboard-response","46","143419","0.0-14.0-0.1","SS1613079878933","","","null","","","","","<p><img src= images/blank.png width =""200"" height = ""200"" style = ""float:right""></p><p><img src=images/blank.png width =""800"" height = ""200""></p>","","","","","","","","","","","",""
"","982.6850000026752","sequential-stimulus-presentation","47","145206","0.0-14.0-1.1","SS1613079878933","trial","","40","800","1782.6850000026752","images/stimuli/spore_stims/complex_17_B_a.gif","images/stimuli/spore_stims/complex_17_A_a.gif","","","","","2","complex_similar","images/stimuli/spore_stims/complex_17_A_a.gif","middle","","","","",""
"","null","html-keyboard-response","48","146480","0.0-14.0-0.2","SS1613079878933","","","null","","","","","<p><img src= images/blank.png width =""200"" height = ""200"" style = ""float:right""></p><p><img src=images/blank.png width =""800"" height = ""200""></p>","","","","","","","","","","","",""
"","5891.924999996263","sequential-stimulus-presentation","49","153189","0.0-14.0-1.2","SS1613079878933","trial","","40","800","6691.924999996263","images/stimuli/spore_stims/complex_17_B_a.gif","images/stimuli/spore_stims/complex_17_A_a.gif","","","","","2","complex_similar","images/stimuli/spore_stims/complex_17_B_a.gif","left","","","","",""
"","null","html-keyboard-response","50","154029","0.0-14.0-0.3","SS1613079878933","","","null","","","","","<p><img src= images/blank.png width =""200"" height = ""200"" style = ""float:right""></p><p><img src=images/blank.png width =""800"" height = ""200""></p>","","","","","","","","","","","",""
"","4570.15500000125","sequential-stimulus-presentation","51","159414","0.0-14.0-1.3","SS1613079878933","trial","","40","800","5370.15500000125","images/stimuli/spore_stims/complex_17_B_a.gif","images/stimuli/spore_stims/complex_17_A_a.gif","","","","","2","complex_similar","images/stimuli/spore_stims/complex_17_A_a.gif","middle","","","","",""
"","null","html-keyboard-response","52","160430","0.0-14.0-0.4","SS1613079878933","","","null","","","","","<p><img src= images/blank.png width =""200"" height = ""200"" style = ""float:right""></p><p><img src=images/blank.png width =""800"" height = ""200""></p>","","","","","","","","","","","",""
"","1010.6299999970361","sequential-stimulus-presentation","53","162245","0.0-14.0-1.4","SS1613079878933","trial","","40","800","1810.629999997036","images/stimuli/spore_stims/complex_17_B_a.gif","images/stimuli/spore_stims/complex_17_A_a.gif","","","","","2","complex_similar","images/stimuli/spore_stims/complex_17_A_a.gif","middle","","","","",""
"","null","html-keyboard-response","54","163234","0.0-14.0-0.5","SS1613079878933","","","null","","","","","<p><img src= images/blank.png width =""200"" height = ""200"" style = ""float:right""></p><p><img src=images/blank.png width =""800"" height = ""200""></p>","","","","","","","","","","","",""
"","1039.3000000040047","sequential-stimulus-presentation","55","165077","0.0-14.0-1.5","SS1613079878933","trial","","40","800","1839.3000000040047","images/stimuli/spore_stims/complex_17_B_a.gif","images/stimuli/spore_stims/complex_17_A_a.gif","","","","","2","complex_similar","images/stimuli/spore_stims/complex_17_A_a.gif","middle","","","","",""
"","null","html-keyboard-response","56","166091","0.0-14.0-0.6","SS1613079878933","","","null","","","","","<p><img src= images/blank.png width =""200"" height = ""200"" style = ""float:right""></p><p><img src=images/blank.png width =""800"" height = ""200""></p>","","","","","","","","","","","",""
"","1147.064999997383","sequential-stimulus-presentation","57","168053","0.0-14.0-1.6","SS1613079878933","trial","","40","800","1947.064999997383","images/stimuli/spore_stims/complex_17_B_a.gif","images/stimuli/spore_stims/complex_17_A_a.gif","","","","","2","complex_similar","images/stimuli/spore_stims/complex_17_A_a.gif","middle","","","","",""
"","null","html-keyboard-response","58","169089","0.0-14.0-0.7","SS1613079878933","","","null","","","","","<p><img src= images/blank.png width =""200"" height = ""200"" style = ""float:right""></p><p><img src=images/blank.png width =""800"" height = ""200""></p>","","","","","","","","","","","",""
"","944.2699999999604","sequential-stimulus-presentation","59","170838","0.0-14.0-1.7","SS1613079878933","trial","","40","800","1744.2699999999604","images/stimuli/spore_stims/complex_17_B_a.gif","images/stimuli/spore_stims/complex_17_A_a.gif","","","","","2","complex_similar","images/stimuli/spore_stims/complex_17_A_a.gif","middle","","","","",""
"","1821.5800000034506","html-keyboard-response","60","172661","0.0-15.0","SS1613079878933","pref_question","","99","","","","","<video width ='960' height = '540' style='padding-top:8%' autoplay muted><source src='images/stimuli/wall_pref.mp4' type='video/mp4'></video>","3","right","66%","2","","","","","","","",""
"","8605.52500000631","sequential-stimulus-presentation","61","182070","0.0-16.0","SS1613079878933","pref_reveal","","40","800","9405.52500000631","null","null","","","","","2","","","","novel","","","",""
"","null","html-keyboard-response","62","182997","0.0-17.0-0.0","SS1613079878933","","","null","","","","","<p><img src= images/blank.png width =""200"" height = ""200"" style = ""float:right""></p><p><img src=images/blank.png width =""800"" height = ""200""></p>","","","","","","","","","","","",""
"","6627.874999998312","sequential-stimulus-presentation","63","190437","0.0-17.0-1.0","SS1613079878933","trial","","40","800","7427.874999998312","images/stimuli/spore_stims/simple_20_B_a.gif","images/stimuli/spore_stims/simple_20_A_a.gif","","","","","3","simple_similar","images/stimuli/spore_stims/simple_20_A_a.gif","left","","","","",""
"","null","html-keyboard-response","64","191489","0.0-17.0-0.1","SS1613079878933","","","null","","","","","<p><img src= images/blank.png width =""200"" height = ""200"" style = ""float:right""></p><p><img src=images/blank.png width =""800"" height = ""200""></p>","","","","","","","","","","","",""
"","3296.750000001339","sequential-stimulus-presentation","65","195590","0.0-17.0-1.1","SS1613079878933","trial","","40","800","4096.750000001339","images/stimuli/spore_stims/simple_20_B_a.gif","images/stimuli/spore_stims/simple_20_A_a.gif","","","","","3","simple_similar","images/stimuli/spore_stims/simple_20_A_a.gif","left","","","","",""
"","null","html-keyboard-response","66","196722","0.0-17.0-0.2","SS1613079878933","","","null","","","","","<p><img src= images/blank.png width =""200"" height = ""200"" style = ""float:right""></p><p><img src=images/blank.png width =""800"" height = ""200""></p>","","","","","","","","","","","",""
"","2589.9800000042887","sequential-stimulus-presentation","67","200117","0.0-17.0-1.2","SS1613079878933","trial","","40","800","3389.9800000042887","images/stimuli/spore_stims/simple_20_B_a.gif","images/stimuli/spore_stims/simple_20_A_a.gif","","","","","3","simple_similar","images/stimuli/spore_stims/simple_20_A_a.gif","left","","","","",""
"","null","html-keyboard-response","68","201280","0.0-17.0-0.3","SS1613079878933","","","null","","","","","<p><img src= images/blank.png width =""200"" height = ""200"" style = ""float:right""></p><p><img src=images/blank.png width =""800"" height = ""200""></p>","","","","","","","","","","","",""
"","2989.1549999956624","sequential-stimulus-presentation","69","205525","0.0-17.0-1.3","SS1613079878933","trial","","40","800","3789.1549999956624","images/stimuli/spore_stims/simple_20_B_a.gif","images/stimuli/spore_stims/simple_20_A_a.gif","","","","","3","simple_similar","images/stimuli/spore_stims/simple_20_A_a.gif","left","","","","",""
"","null","html-keyboard-response","70","206430","0.0-17.0-0.4","SS1613079878933","","","null","","","","","<p><img src= images/blank.png width =""200"" height = ""200"" style = ""float:right""></p><p><img src=images/blank.png width =""800"" height = ""200""></p>","","","","","","","","","","","",""
"","1381.1950000017532","sequential-stimulus-presentation","71","208614","0.0-17.0-1.4","SS1613079878933","trial","","40","800","2181.195000001753","images/stimuli/spore_stims/simple_20_B_a.gif","images/stimuli/spore_stims/simple_20_A_a.gif","","","","","3","simple_similar","images/stimuli/spore_stims/simple_20_A_a.gif","left","","","","",""
"","null","html-keyboard-response","72","209876","0.0-17.0-0.5","SS1613079878933","","","null","","","","","<p><img src= images/blank.png width =""200"" height = ""200"" style = ""float:right""></p><p><img src=images/blank.png width =""800"" height = ""200""></p>","","","","","","","","","","","",""
"","3838.8300000005984","sequential-stimulus-presentation","73","214518","0.0-17.0-1.5","SS1613079878933","trial","","40","800","4638.830000000598","images/stimuli/spore_stims/simple_20_B_a.gif","images/stimuli/spore_stims/simple_20_A_a.gif","","","","","3","simple_similar","images/stimuli/spore_stims/simple_20_B_a.gif","middle","","","","",""
"","null","html-keyboard-response","74","215640","0.0-17.0-0.6","SS1613079878933","","","null","","","","","<p><img src= images/blank.png width =""200"" height = ""200"" style = ""float:right""></p><p><img src=images/blank.png width =""800"" height = ""200""></p>","","","","","","","","","","","",""
"","1129.320000000007","sequential-stimulus-presentation","75","217573","0.0-17.0-1.6","SS1613079878933","trial","","40","800","1929.320000000007","images/stimuli/spore_stims/simple_20_B_a.gif","images/stimuli/spore_stims/simple_20_A_a.gif","","","","","3","simple_similar","images/stimuli/spore_stims/simple_20_A_a.gif","left","","","","",""
"","null","html-keyboard-response","76","218551","0.0-17.0-0.7","SS1613079878933","","","null","","","","","<p><img src= images/blank.png width =""200"" height = ""200"" style = ""float:right""></p><p><img src=images/blank.png width =""800"" height = ""200""></p>","","","","","","","","","","","",""
"","1116.6599999996834","sequential-stimulus-presentation","77","220470","0.0-17.0-1.7","SS1613079878933","trial","","40","800","1916.6599999996834","images/stimuli/spore_stims/simple_20_B_a.gif","images/stimuli/spore_stims/simple_20_A_a.gif","","","","","3","simple_similar","images/stimuli/spore_stims/simple_20_A_a.gif","left","","","","",""
"","1437.2250000014901","html-keyboard-response","78","221910","0.0-18.0","SS1613079878933","pref_question","","99","","","","","<video width ='960' height = '540' style='padding-top:8%' autoplay muted><source src='images/stimuli/wall_pref.mp4' type='video/mp4'></video>","3","right","66%","3","","","","","","","",""
"","8125.315000004775","sequential-stimulus-presentation","79","230839","0.0-19.0","SS1613079878933","pref_reveal","","40","800","8925.315000004775","null","null","","","","","3","","","","novel","","","",""
"","null","html-keyboard-response","80","231700","0.0-20.0-0.0","SS1613079878933","","","null","","","","","<p><img src= images/blank.png width =""200"" height = ""200"" style = ""float:right""></p><p><img src=images/blank.png width =""800"" height = ""200""></p>","","","","","","","","","","","",""
"","8639.445000000705","sequential-stimulus-presentation","81","241142","0.0-20.0-1.0","SS1613079878933","trial","","40","800","9439.445000000705","images/stimuli/spore_stims/complex_02_B_d.gif","images/stimuli/spore_stims/complex_02_A_d.gif","","","","","4","complex_similar","images/stimuli/spore_stims/complex_02_A_d.gif","middle","","","","",""
"","null","html-keyboard-response","82","242208","0.0-20.0-0.1","SS1613079878933","","","null","","","","","<p><img src= images/blank.png width =""200"" height = ""200"" style = ""float:right""></p><p><img src=images/blank.png width =""800"" height = ""200""></p>","","","","","","","","","","","",""
"","3426.0100000028615","sequential-stimulus-presentation","83","246437","0.0-20.0-1.1","SS1613079878933","trial","","40","800","4226.0100000028615","images/stimuli/spore_stims/complex_02_B_d.gif","images/stimuli/spore_stims/complex_02_A_d.gif","","","","","4","complex_similar","images/stimuli/spore_stims/complex_02_A_d.gif","middle","","","","",""
"","null","html-keyboard-response","84","247658","0.0-20.0-0.2","SS1613079878933","","","null","","","","","<p><img src= images/blank.png width =""200"" height = ""200"" style = ""float:right""></p><p><img src=images/blank.png width =""800"" height = ""200""></p>","","","","","","","","","","","",""
"","4040.7950000007986","sequential-stimulus-presentation","85","252503","0.0-20.0-1.2","SS1613079878933","trial","","40","800","4840.795000000799","images/stimuli/spore_stims/complex_02_B_d.gif","images/stimuli/spore_stims/complex_02_A_d.gif","","","","","4","complex_similar","images/stimuli/spore_stims/complex_02_B_d.gif","left","","","","",""
"","null","html-keyboard-response","86","253724","0.0-20.0-0.3","SS1613079878933","","","null","","","","","<p><img src= images/blank.png width =""200"" height = ""200"" style = ""float:right""></p><p><img src=images/blank.png width =""800"" height = ""200""></p>","","","","","","","","","","","",""
"","2644.395000002987","sequential-stimulus-presentation","87","257174","0.0-20.0-1.3","SS1613079878933","trial","","40","800","3444.395000002987","images/stimuli/spore_stims/complex_02_B_d.gif","images/stimuli/spore_stims/complex_02_A_d.gif","","","","","4","complex_similar","images/stimuli/spore_stims/complex_02_A_d.gif","middle","","","","",""
"","null","html-keyboard-response","88","258281","0.0-20.0-0.4","SS1613079878933","","","null","","","","","<p><img src= images/blank.png width =""200"" height = ""200"" style = ""float:right""></p><p><img src=images/blank.png width =""800"" height = ""200""></p>","","","","","","","","","","","",""
"","2590.924999996787","sequential-stimulus-presentation","89","261686","0.0-20.0-1.4","SS1613079878933","trial","","40","800","3390.924999996787","images/stimuli/spore_stims/complex_02_B_d.gif","images/stimuli/spore_stims/complex_02_A_d.gif","","","","","4","complex_similar","images/stimuli/spore_stims/complex_02_A_d.gif","middle","","","","",""
"","null","html-keyboard-response","90","262732","0.0-20.0-0.5","SS1613079878933","","","null","","","","","<p><img src= images/blank.png width =""200"" height = ""200"" style = ""float:right""></p><p><img src=images/blank.png width =""800"" height = ""200""></p>","","","","","","","","","","","",""
"","3045.2899999945657","sequential-stimulus-presentation","91","266582","0.0-20.0-1.5","SS1613079878933","trial","","40","800","3845.2899999945657","images/stimuli/spore_stims/complex_02_B_d.gif","images/stimuli/spore_stims/complex_02_A_d.gif","","","","","4","complex_similar","images/stimuli/spore_stims/complex_02_A_d.gif","middle","","","","",""
"","null","html-keyboard-response","92","267599","0.0-20.0-0.6","SS1613079878933","","","null","","","","","<p><img src= images/blank.png width =""200"" height = ""200"" style = ""float:right""></p><p><img src=images/blank.png width =""800"" height = ""200""></p>","","","","","","","","","","","",""
"","1195.3349999967031","sequential-stimulus-presentation","93","269606","0.0-20.0-1.6","SS1613079878933","trial","","40","800","1995.3349999967031","images/stimuli/spore_stims/complex_02_B_d.gif","images/stimuli/spore_stims/complex_02_A_d.gif","","","","","4","complex_similar","images/stimuli/spore_stims/complex_02_A_d.gif","middle","","","","",""
"","null","html-keyboard-response","94","270579","0.0-20.0-0.7","SS1613079878933","","","null","","","","","<p><img src= images/blank.png width =""200"" height = ""200"" style = ""float:right""></p><p><img src=images/blank.png width =""800"" height = ""200""></p>","","","","","","","","","","","",""
"","1287.5500000009197","sequential-stimulus-presentation","95","272677","0.0-20.0-1.7","SS1613079878933","trial","","40","800","2087.5500000009197","images/stimuli/spore_stims/complex_02_B_d.gif","images/stimuli/spore_stims/complex_02_A_d.gif","","","","","4","complex_similar","images/stimuli/spore_stims/complex_02_A_d.gif","middle","","","","",""
"","2141.524999999092","html-keyboard-response","96","274821","0.0-21.0","SS1613079878933","pref_question","","99","","","","","<video width ='960' height = '540' style='padding-top:8%' autoplay muted><source src='images/stimuli/wall_pref.mp4' type='video/mp4'></video>","3","right","66%","4","","","","","","","",""
"","11098.525000001246","sequential-stimulus-presentation","97","286727","0.0-22.0","SS1613079878933","pref_reveal","","40","800","11898.525000001246","null","null","","","","","4","","","","novel","","","",""
"","null","html-keyboard-response","98","288008","0.0-23.0-0.0","SS1613079878933","","","null","","","","","<p><img src= images/blank.png width =""200"" height = ""200"" style = ""float:right""></p><p><img src=images/blank.png width =""800"" height = ""200""></p>","","","","","","","","","","","",""
"","4472.789999999804","sequential-stimulus-presentation","99","293286","0.0-23.0-1.0","SS1613079878933","trial","","40","800","5272.789999999804","images/stimuli/spore_stims/simple_12_A_c.gif","images/stimuli/spore_stims/simple_01_A_d.gif","","","","","5","simple_dissimilar","images/stimuli/spore_stims/simple_01_A_d.gif","right","","","","",""
"","null","html-keyboard-response","100","294561","0.0-23.0-0.1","SS1613079878933","","","null","","","","","<p><img src= images/blank.png width =""200"" height = ""200"" style = ""float:right""></p><p><img src=images/blank.png width =""800"" height = ""200""></p>","","","","","","","","","","","",""
"","2898.059999999532","sequential-stimulus-presentation","101","298262","0.0-23.0-1.1","SS1613079878933","trial","","40","800","3698.059999999532","images/stimuli/spore_stims/simple_12_A_c.gif","images/stimuli/spore_stims/simple_01_A_d.gif","","","","","5","simple_dissimilar","images/stimuli/spore_stims/simple_01_A_d.gif","right","","","","",""
"","null","html-keyboard-response","102","299354","0.0-23.0-0.2","SS1613079878933","","","null","","","","","<p><img src= images/blank.png width =""200"" height = ""200"" style = ""float:right""></p><p><img src=images/blank.png width =""800"" height = ""200""></p>","","","","","","","","","","","",""
"","3513.119999995979","sequential-stimulus-presentation","103","303685","0.0-23.0-1.2","SS1613079878933","trial","","40","800","4313.119999995979","images/stimuli/spore_stims/simple_12_A_c.gif","images/stimuli/spore_stims/simple_01_A_d.gif","","","","","5","simple_dissimilar","images/stimuli/spore_stims/simple_01_A_d.gif","right","","","","",""
"","null","html-keyboard-response","104","304561","0.0-23.0-0.3","SS1613079878933","","","null","","","","","<p><img src= images/blank.png width =""200"" height = ""200"" style = ""float:right""></p><p><img src=images/blank.png width =""800"" height = ""200""></p>","","","","","","","","","","","",""
"","2640.6300000016927","sequential-stimulus-presentation","105","308006","0.0-23.0-1.3","SS1613079878933","trial","","40","800","3440.6300000016927","images/stimuli/spore_stims/simple_12_A_c.gif","images/stimuli/spore_stims/simple_01_A_d.gif","","","","","5","simple_dissimilar","images/stimuli/spore_stims/simple_01_A_d.gif","right","","","","",""
"","null","html-keyboard-response","106","308883","0.0-23.0-0.4","SS1613079878933","","","null","","","","","<p><img src= images/blank.png width =""200"" height = ""200"" style = ""float:right""></p><p><img src=images/blank.png width =""800"" height = ""200""></p>","","","","","","","","","","","",""
"","2750.290000003588","sequential-stimulus-presentation","107","312439","0.0-23.0-1.4","SS1613079878933","trial","","40","800","3550.290000003588","images/stimuli/spore_stims/simple_12_A_c.gif","images/stimuli/spore_stims/simple_01_A_d.gif","","","","","5","simple_dissimilar","images/stimuli/spore_stims/simple_01_A_d.gif","right","","","","",""
"","null","html-keyboard-response","108","313349","0.0-23.0-0.5","SS1613079878933","","","null","","","","","<p><img src= images/blank.png width =""200"" height = ""200"" style = ""float:right""></p><p><img src=images/blank.png width =""800"" height = ""200""></p>","","","","","","","","","","","",""
"","2491.650000003574","sequential-stimulus-presentation","109","316645","0.0-23.0-1.5","SS1613079878933","trial","","40","800","3291.650000003574","images/stimuli/spore_stims/simple_12_A_c.gif","images/stimuli/spore_stims/simple_01_A_d.gif","","","","","5","simple_dissimilar","images/stimuli/spore_stims/simple_01_A_d.gif","right","","","","",""
"","null","html-keyboard-response","110","317637","0.0-23.0-0.6","SS1613079878933","","","null","","","","","<p><img src= images/blank.png width =""200"" height = ""200"" style = ""float:right""></p><p><img src=images/blank.png width =""800"" height = ""200""></p>","","","","","","","","","","","",""
"","1979.8700000028475","sequential-stimulus-presentation","111","320422","0.0-23.0-1.6","SS1613079878933","trial","","40","800","2779.8700000028475","images/stimuli/spore_stims/simple_12_A_c.gif","images/stimuli/spore_stims/simple_01_A_d.gif","","","","","5","simple_dissimilar","images/stimuli/spore_stims/simple_12_A_c.gif","left","","","","",""
"","null","html-keyboard-response","112","321386","0.0-23.0-0.7","SS1613079878933","","","null","","","","","<p><img src= images/blank.png width =""200"" height = ""200"" style = ""float:right""></p><p><img src=images/blank.png width =""800"" height = ""200""></p>","","","","","","","","","","","",""
"","4392.075000003388","sequential-stimulus-presentation","113","326583","0.0-23.0-1.7","SS1613079878933","trial","","40","800","5192.075000003388","images/stimuli/spore_stims/simple_12_A_c.gif","images/stimuli/spore_stims/simple_01_A_d.gif","","","","","5","simple_dissimilar","images/stimuli/spore_stims/simple_01_A_d.gif","right","","","","",""
"","2604.490000005171","html-keyboard-response","114","329190","0.0-24.0","SS1613079878933","pref_question","","98","","","","","<video width ='960' height = '540' style='padding-top:8%' autoplay muted><source src='images/stimuli/wall_pref.mp4' type='video/mp4'></video>","2","middle","45%","5","","","","","","","",""
"","28652.630000004137","sequential-stimulus-presentation","115","358645","0.0-25.0","SS1613079878933","pref_reveal","","40","800","29452.630000004137","null","null","","","","","5","","","","novel","","","",""
"","null","html-keyboard-response","116","359946","0.0-26.0-0.0","SS1613079878933","","","null","","","","","<p><img src= images/blank.png width =""200"" height = ""200"" style = ""float:right""></p><p><img src=images/blank.png width =""800"" height = ""200""></p>","","","","","","","","","","","",""
"","1894.8700000037206","sequential-stimulus-presentation","117","362645","0.0-26.0-1.0","SS1613079878933","trial","","40","800","2694.8700000037206","images/stimuli/spore_stims/complex_03_A_d.gif","images/stimuli/spore_stims/complex_06_A_d.gif","","","","","6","complex_dissimilar","images/stimuli/spore_stims/complex_06_A_d.gif","right","","","","",""
"","null","html-keyboard-response","118","363569","0.0-26.0-0.1","SS1613079878933","","","null","","","","","<p><img src= images/blank.png width =""200"" height = ""200"" style = ""float:right""></p><p><img src=images/blank.png width =""800"" height = ""200""></p>","","","","","","","","","","","",""
"","1663.2249999966007","sequential-stimulus-presentation","119","366036","0.0-26.0-1.1","SS1613079878933","trial","","40","800","2463.2249999966007","images/stimuli/spore_stims/complex_03_A_d.gif","images/stimuli/spore_stims/complex_06_A_d.gif","","","","","6","complex_dissimilar","images/stimuli/spore_stims/complex_06_A_d.gif","right","","","","",""
"","null","html-keyboard-response","120","366905","0.0-26.0-0.2","SS1613079878933","","","null","","","","","<p><img src= images/blank.png width =""200"" height = ""200"" style = ""float:right""></p><p><img src=images/blank.png width =""800"" height = ""200""></p>","","","","","","","","","","","",""
"","1611.5000000063446","sequential-stimulus-presentation","121","369334","0.0-26.0-1.2","SS1613079878933","trial","","40","800","2411.5000000063446","images/stimuli/spore_stims/complex_03_A_d.gif","images/stimuli/spore_stims/complex_06_A_d.gif","","","","","6","complex_dissimilar","images/stimuli/spore_stims/complex_06_A_d.gif","right","","","","",""
"","null","html-keyboard-response","122","370597","0.0-26.0-0.3","SS1613079878933","","","null","","","","","<p><img src= images/blank.png width =""200"" height = ""200"" style = ""float:right""></p><p><img src=images/blank.png width =""800"" height = ""200""></p>","","","","","","","","","","","",""
"","525.1500000013039","sequential-stimulus-presentation","123","371925","0.0-26.0-1.3","SS1613079878933","trial","","40","800","1325.1500000013039","images/stimuli/spore_stims/complex_03_A_d.gif","images/stimuli/spore_stims/complex_06_A_d.gif","","","","","6","complex_dissimilar","images/stimuli/spore_stims/complex_06_A_d.gif","right","","","","",""
"","null","html-keyboard-response","124","373024","0.0-26.0-0.4","SS1613079878933","","","null","","","","","<p><img src= images/blank.png width =""200"" height = ""200"" style = ""float:right""></p><p><img src=images/blank.png width =""800"" height = ""200""></p>","","","","","","","","","","","",""
"","400.9200000000419","sequential-stimulus-presentation","125","374229","0.0-26.0-1.4","SS1613079878933","trial","","40","800","1200.920000000042","images/stimuli/spore_stims/complex_03_A_d.gif","images/stimuli/spore_stims/complex_06_A_d.gif","","","","","6","complex_dissimilar","images/stimuli/spore_stims/complex_06_A_d.gif","right","","","","",""
"","null","html-keyboard-response","126","375386","0.0-26.0-0.5","SS1613079878933","","","null","","","","","<p><img src= images/blank.png width =""200"" height = ""200"" style = ""float:right""></p><p><img src=images/blank.png width =""800"" height = ""200""></p>","","","","","","","","","","","",""
"","726.474999995844","sequential-stimulus-presentation","127","376917","0.0-26.0-1.5","SS1613079878933","trial","","40","800","1526.474999995844","images/stimuli/spore_stims/complex_03_A_d.gif","images/stimuli/spore_stims/complex_06_A_d.gif","","","","","6","complex_dissimilar","images/stimuli/spore_stims/complex_06_A_d.gif","right","","","","",""
"","null","html-keyboard-response","128","377767","0.0-26.0-0.6","SS1613079878933","","","null","","","","","<p><img src= images/blank.png width =""200"" height = ""200"" style = ""float:right""></p><p><img src=images/blank.png width =""800"" height = ""200""></p>","","","","","","","","","","","",""
"","11244.259999999485","sequential-stimulus-presentation","129","389814","0.0-26.0-1.6","SS1613079878933","trial","","40","800","12044.259999999485","images/stimuli/spore_stims/complex_03_A_d.gif","images/stimuli/spore_stims/complex_06_A_d.gif","","","","","6","complex_dissimilar","images/stimuli/spore_stims/complex_03_A_d.gif","left","","","","",""
"","null","html-keyboard-response","130","390933","0.0-26.0-0.7","SS1613079878933","","","null","","","","","<p><img src= images/blank.png width =""200"" height = ""200"" style = ""float:right""></p><p><img src=images/blank.png width =""800"" height = ""200""></p>","","","","","","","","","","","",""
"","796.0200000015902","sequential-stimulus-presentation","131","392533","0.0-26.0-1.7","SS1613079878933","trial","","40","800","1596.0200000015902","images/stimuli/spore_stims/complex_03_A_d.gif","images/stimuli/spore_stims/complex_06_A_d.gif","","","","","6","complex_dissimilar","images/stimuli/spore_stims/complex_06_A_d.gif","right","","","","",""
"","2605.185000000347","html-keyboard-response","132","395141","0.0-27.0","SS1613079878933","pref_question","","98","","","","","<video width ='960' height = '540' style='padding-top:8%' autoplay muted><source src='images/stimuli/wall_pref.mp4' type='video/mp4'></video>","2","middle","45%","6","","","","","","","",""
"","4331.914999995206","sequential-stimulus-presentation","133","400278","0.0-28.0","SS1613079878933","pref_reveal","","40","800","5131.914999995206","null","null","","","","","6","","","","novel","","","",""
"","null","html-keyboard-response","134","401531","0.0-29.0-0.0","SS1613079878933","","","null","","","","","<p><img src= images/blank.png width =""200"" height = ""200"" style = ""float:right""></p><p><img src=images/blank.png width =""800"" height = ""200""></p>","","","","","","","","","","","",""
"","5876.9350000002305","sequential-stimulus-presentation","135","408213","0.0-29.0-1.0","SS1613079878933","trial","","40","800","6676.9350000002305","images/stimuli/spore_stims/simple_04_A_c.gif","images/stimuli/spore_stims/simple_05_B_b.gif","","","","","7","simple_dissimilar","images/stimuli/spore_stims/simple_05_B_b.gif","middle","","","","",""
"","null","html-keyboard-response","136","409288","0.0-29.0-0.1","SS1613079878933","","","null","","","","","<p><img src= images/blank.png width =""200"" height = ""200"" style = ""float:right""></p><p><img src=images/blank.png width =""800"" height = ""200""></p>","","","","","","","","","","","",""
"","3832.3550000059186","sequential-stimulus-presentation","137","413926","0.0-29.0-1.1","SS1613079878933","trial","","40","800","4632.355000005919","images/stimuli/spore_stims/simple_04_A_c.gif","images/stimuli/spore_stims/simple_05_B_b.gif","","","","","7","simple_dissimilar","images/stimuli/spore_stims/simple_05_B_b.gif","middle","","","","",""
"","null","html-keyboard-response","138","415038","0.0-29.0-0.2","SS1613079878933","","","null","","","","","<p><img src= images/blank.png width =""200"" height = ""200"" style = ""float:right""></p><p><img src=images/blank.png width =""800"" height = ""200""></p>","","","","","","","","","","","",""
"","3426.2999999991735","sequential-stimulus-presentation","139","419269","0.0-29.0-1.2","SS1613079878933","trial","","40","800","4226.299999999173","images/stimuli/spore_stims/simple_04_A_c.gif","images/stimuli/spore_stims/simple_05_B_b.gif","","","","","7","simple_dissimilar","images/stimuli/spore_stims/simple_05_B_b.gif","middle","","","","",""
"","null","html-keyboard-response","140","420534","0.0-29.0-0.3","SS1613079878933","","","null","","","","","<p><img src= images/blank.png width =""200"" height = ""200"" style = ""float:right""></p><p><img src=images/blank.png width =""800"" height = ""200""></p>","","","","","","","","","","","",""
"","586.8399999963003","sequential-stimulus-presentation","141","421925","0.0-29.0-1.3","SS1613079878933","trial","","40","800","1386.8399999963003","images/stimuli/spore_stims/simple_04_A_c.gif","images/stimuli/spore_stims/simple_05_B_b.gif","","","","","7","simple_dissimilar","images/stimuli/spore_stims/simple_05_B_b.gif","middle","","","","",""
"","null","html-keyboard-response","142","423035","0.0-29.0-0.4","SS1613079878933","","","null","","","","","<p><img src= images/blank.png width =""200"" height = ""200"" style = ""float:right""></p><p><img src=images/blank.png width =""800"" height = ""200""></p>","","","","","","","","","","","",""
"","1093.0799999987357","sequential-stimulus-presentation","143","424934","0.0-29.0-1.4","SS1613079878933","trial","","40","800","1893.0799999987357","images/stimuli/spore_stims/simple_04_A_c.gif","images/stimuli/spore_stims/simple_05_B_b.gif","","","","","7","simple_dissimilar","images/stimuli/spore_stims/simple_05_B_b.gif","middle","","","","",""
"","null","html-keyboard-response","144","426177","0.0-29.0-0.5","SS1613079878933","","","null","","","","","<p><img src= images/blank.png width =""200"" height = ""200"" style = ""float:right""></p><p><img src=images/blank.png width =""800"" height = ""200""></p>","","","","","","","","","","","",""
"","3576.9250000012107","sequential-stimulus-presentation","145","430565","0.0-29.0-1.5","SS1613079878933","trial","","40","800","4376.925000001211","images/stimuli/spore_stims/simple_04_A_c.gif","images/stimuli/spore_stims/simple_05_B_b.gif","","","","","7","simple_dissimilar","images/stimuli/spore_stims/simple_04_A_c.gif","left","","","","",""
"","null","html-keyboard-response","146","431663","0.0-29.0-0.6","SS1613079878933","","","null","","","","","<p><img src= images/blank.png width =""200"" height = ""200"" style = ""float:right""></p><p><img src=images/blank.png width =""800"" height = ""200""></p>","","","","","","","","","","","",""
"","849.4449999998324","sequential-stimulus-presentation","147","433317","0.0-29.0-1.6","SS1613079878933","trial","","40","800","1649.4449999998324","images/stimuli/spore_stims/simple_04_A_c.gif","images/stimuli/spore_stims/simple_05_B_b.gif","","","","","7","simple_dissimilar","images/stimuli/spore_stims/simple_05_B_b.gif","middle","","","","",""
"","null","html-keyboard-response","148","434526","0.0-29.0-0.7","SS1613079878933","","","null","","","","","<p><img src= images/blank.png width =""200"" height = ""200"" style = ""float:right""></p><p><img src=images/blank.png width =""800"" height = ""200""></p>","","","","","","","","","","","",""
"","1587.52000000095","sequential-stimulus-presentation","149","436918","0.0-29.0-1.7","SS1613079878933","trial","","40","800","2387.52000000095","images/stimuli/spore_stims/simple_04_A_c.gif","images/stimuli/spore_stims/simple_05_B_b.gif","","","","","7","simple_dissimilar","images/stimuli/spore_stims/simple_05_B_b.gif","middle","","","","",""
"","1147.5800000043819","html-keyboard-response","150","438069","0.0-30.0","SS1613079878933","pref_question","","99","","","","","<video width ='960' height = '540' style='padding-top:8%' autoplay muted><source src='images/stimuli/wall_pref.mp4' type='video/mp4'></video>","3","right","66%","7","","","","","","","",""
"","4844.420000001264","sequential-stimulus-presentation","151","443717","0.0-31.0","SS1613079878933","pref_reveal","","40","800","5644.420000001264","null","null","","","","","7","","","","novel","","","",""
"","null","html-keyboard-response","152","444978","0.0-32.0-0.0","SS1613079878933","","","null","","","","","<p><img src= images/blank.png width =""200"" height = ""200"" style = ""float:right""></p><p><img src=images/blank.png width =""800"" height = ""200""></p>","","","","","","","","","","","",""
"","4268.915000000561","sequential-stimulus-presentation","153","450054","0.0-32.0-1.0","SS1613079878933","trial","","40","800","5068.915000000561","images/stimuli/spore_stims/complex_16_A_a.gif","images/stimuli/spore_stims/complex_11_B_b.gif","","","","","8","complex_dissimilar","images/stimuli/spore_stims/complex_11_B_b.gif","right","","","","",""
"","null","html-keyboard-response","154","450891","0.0-32.0-0.1","SS1613079878933","","","null","","","","","<p><img src= images/blank.png width =""200"" height = ""200"" style = ""float:right""></p><p><img src=images/blank.png width =""800"" height = ""200""></p>","","","","","","","","","","","",""
"","3238.3650000047055","sequential-stimulus-presentation","155","454933","0.0-32.0-1.1","SS1613079878933","trial","","40","800","4038.3650000047055","images/stimuli/spore_stims/complex_16_A_a.gif","images/stimuli/spore_stims/complex_11_B_b.gif","","","","","8","complex_dissimilar","images/stimuli/spore_stims/complex_11_B_b.gif","right","","","","",""
"","null","html-keyboard-response","156","455890","0.0-32.0-0.2","SS1613079878933","","","null","","","","","<p><img src= images/blank.png width =""200"" height = ""200"" style = ""float:right""></p><p><img src=images/blank.png width =""800"" height = ""200""></p>","","","","","","","","","","","",""
"","2074.304999994638","sequential-stimulus-presentation","157","458773","0.0-32.0-1.2","SS1613079878933","trial","","40","800","2874.304999994638","images/stimuli/spore_stims/complex_16_A_a.gif","images/stimuli/spore_stims/complex_11_B_b.gif","","","","","8","complex_dissimilar","images/stimuli/spore_stims/complex_11_B_b.gif","right","","","","",""
"","null","html-keyboard-response","158","459699","0.0-32.0-0.3","SS1613079878933","","","null","","","","","<p><img src= images/blank.png width =""200"" height = ""200"" style = ""float:right""></p><p><img src=images/blank.png width =""800"" height = ""200""></p>","","","","","","","","","","","",""
"","1535.0200000029872","sequential-stimulus-presentation","159","462039","0.0-32.0-1.3","SS1613079878933","trial","","40","800","2335.020000002987","images/stimuli/spore_stims/complex_16_A_a.gif","images/stimuli/spore_stims/complex_11_B_b.gif","","","","","8","complex_dissimilar","images/stimuli/spore_stims/complex_11_B_b.gif","right","","","","",""
"","null","html-keyboard-response","160","462983","0.0-32.0-0.4","SS1613079878933","","","null","","","","","<p><img src= images/blank.png width =""200"" height = ""200"" style = ""float:right""></p><p><img src=images/blank.png width =""800"" height = ""200""></p>","","","","","","","","","","","",""
"","1273.9299999957439","sequential-stimulus-presentation","161","465061","0.0-32.0-1.4","SS1613079878933","trial","","40","800","2073.929999995744","images/stimuli/spore_stims/complex_16_A_a.gif","images/stimuli/spore_stims/complex_11_B_b.gif","","","","","8","complex_dissimilar","images/stimuli/spore_stims/complex_11_B_b.gif","right","","","","",""
"","null","html-keyboard-response","162","466047","0.0-32.0-0.5","SS1613079878933","","","null","","","","","<p><img src= images/blank.png width =""200"" height = ""200"" style = ""float:right""></p><p><img src=images/blank.png width =""800"" height = ""200""></p>","","","","","","","","","","","",""
"","2000.6500000017695","sequential-stimulus-presentation","163","468853","0.0-32.0-1.5","SS1613079878933","trial","","40","800","2800.6500000017695","images/stimuli/spore_stims/complex_16_A_a.gif","images/stimuli/spore_stims/complex_11_B_b.gif","","","","","8","complex_dissimilar","images/stimuli/spore_stims/complex_11_B_b.gif","right","","","","",""
"","null","html-keyboard-response","164","469868","0.0-32.0-0.6","SS1613079878933","","","null","","","","","<p><img src= images/blank.png width =""200"" height = ""200"" style = ""float:right""></p><p><img src=images/blank.png width =""800"" height = ""200""></p>","","","","","","","","","","","",""
"","2436.6599999993923","sequential-stimulus-presentation","165","473110","0.0-32.0-1.6","SS1613079878933","trial","","40","800","3236.6599999993923","images/stimuli/spore_stims/complex_16_A_a.gif","images/stimuli/spore_stims/complex_11_B_b.gif","","","","","8","complex_dissimilar","images/stimuli/spore_stims/complex_11_B_b.gif","right","","","","",""
"","null","html-keyboard-response","166","474365","0.0-32.0-0.7","SS1613079878933","","","null","","","","","<p><img src= images/blank.png width =""200"" height = ""200"" style = ""float:right""></p><p><img src=images/blank.png width =""800"" height = ""200""></p>","","","","","","","","","","","",""
"","4886.884999999893","sequential-stimulus-presentation","167","480069","0.0-32.0-1.7","SS1613079878933","trial","","40","800","5686.884999999893","images/stimuli/spore_stims/complex_16_A_a.gif","images/stimuli/spore_stims/complex_11_B_b.gif","","","","","8","complex_dissimilar","images/stimuli/spore_stims/complex_16_A_a.gif","left","","","","",""
"","1420.51000000356","html-keyboard-response","168","481493","0.0-33.0","SS1613079878933","pref_question","","98","","","","","<video width ='960' height = '540' style='padding-top:8%' autoplay muted><source src='images/stimuli/wall_pref.mp4' type='video/mp4'></video>","2","middle","45%","8","","","","","","","",""
"","8507.505000001402","sequential-stimulus-presentation","169","490806","0.0-34.0","SS1613079878933","pref_reveal","","40","800","9307.505000001402","null","null","","","","","8","","","","novel","","","",""
"","null","html-keyboard-response","170","491726","0.0-35.0-0.0","SS1613079878933","","","null","","","","","<p><img src= images/blank.png width =""200"" height = ""200"" style = ""float:right""></p><p><img src=images/blank.png width =""800"" height = ""200""></p>","","","","","","","","","","","",""
"","1313.4700000009616","sequential-stimulus-presentation","171","493845","0.0-35.0-1.0","SS1613079878933","trial","","40","800","2113.4700000009616","images/stimuli/spore_stims/complex_07_B_a.gif","images/stimuli/spore_stims/complex_12_A_a.gif","","","","","9","complex_dissimilar","images/stimuli/spore_stims/complex_12_A_a.gif","right","","","","",""
"","null","html-keyboard-response","172","495031","0.0-35.0-0.1","SS1613079878933","","","null","","","","","<p><img src= images/blank.png width =""200"" height = ""200"" style = ""float:right""></p><p><img src=images/blank.png width =""800"" height = ""200""></p>","","","","","","","","","","","",""
"","729.8499999960768","sequential-stimulus-presentation","173","496565","0.0-35.0-1.1","SS1613079878933","trial","","40","800","1529.8499999960768","images/stimuli/spore_stims/complex_07_B_a.gif","images/stimuli/spore_stims/complex_12_A_a.gif","","","","","9","complex_dissimilar","images/stimuli/spore_stims/complex_12_A_a.gif","right","","","","",""
"","null","html-keyboard-response","174","497593","0.0-35.0-0.2","SS1613079878933","","","null","","","","","<p><img src= images/blank.png width =""200"" height = ""200"" style = ""float:right""></p><p><img src=images/blank.png width =""800"" height = ""200""></p>","","","","","","","","","","","",""
"","567.9250000030734","sequential-stimulus-presentation","175","498965","0.0-35.0-1.2","SS1613079878933","trial","","40","800","1367.9250000030734","images/stimuli/spore_stims/complex_07_B_a.gif","images/stimuli/spore_stims/complex_12_A_a.gif","","","","","9","complex_dissimilar","images/stimuli/spore_stims/complex_12_A_a.gif","right","","","","",""
"","null","html-keyboard-response","176","500100","0.0-35.0-0.3","SS1613079878933","","","null","","","","","<p><img src= images/blank.png width =""200"" height = ""200"" style = ""float:right""></p><p><img src=images/blank.png width =""800"" height = ""200""></p>","","","","","","","","","","","",""
"","845.2550000002375","sequential-stimulus-presentation","177","501750","0.0-35.0-1.3","SS1613079878933","trial","","40","800","1645.2550000002375","images/stimuli/spore_stims/complex_07_B_a.gif","images/stimuli/spore_stims/complex_12_A_a.gif","","","","","9","complex_dissimilar","images/stimuli/spore_stims/complex_12_A_a.gif","right","","","","",""
"","null","html-keyboard-response","178","502886","0.0-35.0-0.4","SS1613079878933","","","null","","","","","<p><img src= images/blank.png width =""200"" height = ""200"" style = ""float:right""></p><p><img src=images/blank.png width =""800"" height = ""200""></p>","","","","","","","","","","","",""
"","937.7700000042096","sequential-stimulus-presentation","179","504629","0.0-35.0-1.4","SS1613079878933","trial","","40","800","1737.7700000042096","images/stimuli/spore_stims/complex_07_B_a.gif","images/stimuli/spore_stims/complex_12_A_a.gif","","","","","9","complex_dissimilar","images/stimuli/spore_stims/complex_12_A_a.gif","right","","","","",""
"","null","html-keyboard-response","180","505511","0.0-35.0-0.5","SS1613079878933","","","null","","","","","<p><img src= images/blank.png width =""200"" height = ""200"" style = ""float:right""></p><p><img src=images/blank.png width =""800"" height = ""200""></p>","","","","","","","","","","","",""
"","4713.159999999334","sequential-stimulus-presentation","181","511029","0.0-35.0-1.5","SS1613079878933","trial","","40","800","5513.159999999334","images/stimuli/spore_stims/complex_07_B_a.gif","images/stimuli/spore_stims/complex_12_A_a.gif","","","","","9","complex_dissimilar","images/stimuli/spore_stims/complex_07_B_a.gif","middle","","","","",""
"","null","html-keyboard-response","182","512173","0.0-35.0-0.6","SS1613079878933","","","null","","","","","<p><img src= images/blank.png width =""200"" height = ""200"" style = ""float:right""></p><p><img src=images/blank.png width =""800"" height = ""200""></p>","","","","","","","","","","","",""
"","1908.9249999960884","sequential-stimulus-presentation","183","514886","0.0-35.0-1.6","SS1613079878933","trial","","40","800","2708.9249999960884","images/stimuli/spore_stims/complex_07_B_a.gif","images/stimuli/spore_stims/complex_12_A_a.gif","","","","","9","complex_dissimilar","images/stimuli/spore_stims/complex_12_A_a.gif","right","","","","",""
"","null","html-keyboard-response","184","515986","0.0-35.0-0.7","SS1613079878933","","","null","","","","","<p><img src= images/blank.png width =""200"" height = ""200"" style = ""float:right""></p><p><img src=images/blank.png width =""800"" height = ""200""></p>","","","","","","","","","","","",""
"","893.8800000033807","sequential-stimulus-presentation","185","517685","0.0-35.0-1.7","SS1613079878933","trial","","40","800","1693.8800000033807","images/stimuli/spore_stims/complex_07_B_a.gif","images/stimuli/spore_stims/complex_12_A_a.gif","","","","","9","complex_dissimilar","images/stimuli/spore_stims/complex_12_A_a.gif","right","","","","",""
"","1228.645000002929","html-keyboard-response","186","518917","0.0-36.0","SS1613079878933","pref_question","","97","","","","","<video width ='960' height = '540' style='padding-top:8%' autoplay muted><source src='images/stimuli/wall_pref.mp4' type='video/mp4'></video>","1","left","25%","9","","","","","","","",""
"","11196.524999999441","sequential-stimulus-presentation","187","530918","0.0-37.0","SS1613079878933","pref_reveal","","40","800","11996.524999999441","null","null","","","","","9","","","","novel","","","",""
"","null","html-keyboard-response","188","531743","0.0-38.0-0.0","SS1613079878933","","","null","","","","","<p><img src= images/blank.png width =""200"" height = ""200"" style = ""float:right""></p><p><img src=images/blank.png width =""800"" height = ""200""></p>","","","","","","","","","","","",""
"","8782.480000001611","sequential-stimulus-presentation","189","541334","0.0-38.0-1.0","SS1613079878933","trial","","40","800","9582.480000001611","images/stimuli/spore_stims/complex_18_B_b.gif","images/stimuli/spore_stims/complex_18_A_b.gif","","","","","10","complex_similar","images/stimuli/spore_stims/complex_18_A_b.gif","left","","","","",""
"","null","html-keyboard-response","190","542613","0.0-38.0-0.1","SS1613079878933","","","null","","","","","<p><img src= images/blank.png width =""200"" height = ""200"" style = ""float:right""></p><p><img src=images/blank.png width =""800"" height = ""200""></p>","","","","","","","","","","","",""
"","3258.0499999966705","sequential-stimulus-presentation","191","546677","0.0-38.0-1.1","SS1613079878933","trial","","40","800","4058.0499999966705","images/stimuli/spore_stims/complex_18_B_b.gif","images/stimuli/spore_stims/complex_18_A_b.gif","","","","","10","complex_similar","images/stimuli/spore_stims/complex_18_A_b.gif","left","","","","",""
"","null","html-keyboard-response","192","547844","0.0-38.0-0.2","SS1613079878933","","","null","","","","","<p><img src= images/blank.png width =""200"" height = ""200"" style = ""float:right""></p><p><img src=images/blank.png width =""800"" height = ""200""></p>","","","","","","","","","","","",""
"","5445.069999994244","sequential-stimulus-presentation","193","554102","0.0-38.0-1.2","SS1613079878933","trial","","40","800","6245.069999994244","images/stimuli/spore_stims/complex_18_B_b.gif","images/stimuli/spore_stims/complex_18_A_b.gif","","","","","10","complex_similar","images/stimuli/spore_stims/complex_18_A_b.gif","left","","","","",""
"","null","html-keyboard-response","194","555204","0.0-38.0-0.3","SS1613079878933","","","null","","","","","<p><img src= images/blank.png width =""200"" height = ""200"" style = ""float:right""></p><p><img src=images/blank.png width =""800"" height = ""200""></p>","","","","","","","","","","","",""
"","1739.675000004354","sequential-stimulus-presentation","195","557749","0.0-38.0-1.3","SS1613079878933","trial","","40","800","2539.675000004354","images/stimuli/spore_stims/complex_18_B_b.gif","images/stimuli/spore_stims/complex_18_A_b.gif","","","","","10","complex_similar","images/stimuli/spore_stims/complex_18_A_b.gif","left","","","","",""
"","null","html-keyboard-response","196","558558","0.0-38.0-0.4","SS1613079878933","","","null","","","","","<p><img src= images/blank.png width =""200"" height = ""200"" style = ""float:right""></p><p><img src=images/blank.png width =""800"" height = ""200""></p>","","","","","","","","","","","",""
"","6344.949999998789","sequential-stimulus-presentation","197","565718","0.0-38.0-1.4","SS1613079878933","trial","","40","800","7144.949999998789","images/stimuli/spore_stims/complex_18_B_b.gif","images/stimuli/spore_stims/complex_18_A_b.gif","","","","","10","complex_similar","images/stimuli/spore_stims/complex_18_A_b.gif","left","","","","",""
"","null","html-keyboard-response","198","566744","0.0-38.0-0.5","SS1613079878933","","","null","","","","","<p><img src= images/blank.png width =""200"" height = ""200"" style = ""float:right""></p><p><img src=images/blank.png width =""800"" height = ""200""></p>","","","","","","","","","","","",""
"","14867.730000005336","sequential-stimulus-presentation","199","582422","0.0-38.0-1.5","SS1613079878933","trial","","40","800","15667.730000005336","images/stimuli/spore_stims/complex_18_B_b.gif","images/stimuli/spore_stims/complex_18_A_b.gif","","","","","10","complex_similar","images/stimuli/spore_stims/complex_18_B_b.gif","right","","","","",""
"","null","html-keyboard-response","200","583285","0.0-38.0-0.6","SS1613079878933","","","null","","","","","<p><img src= images/blank.png width =""200"" height = ""200"" style = ""float:right""></p><p><img src=images/blank.png width =""800"" height = ""200""></p>","","","","","","","","","","","",""
"","4022.405000003404","sequential-stimulus-presentation","201","588117","0.0-38.0-1.6","SS1613079878933","trial","","40","800","4822.405000003404","images/stimuli/spore_stims/complex_18_B_b.gif","images/stimuli/spore_stims/complex_18_A_b.gif","","","","","10","complex_similar","images/stimuli/spore_stims/complex_18_A_b.gif","left","","","","",""
"","null","html-keyboard-response","202","589385","0.0-38.0-0.7","SS1613079878933","","","null","","","","","<p><img src= images/blank.png width =""200"" height = ""200"" style = ""float:right""></p><p><img src=images/blank.png width =""800"" height = ""200""></p>","","","","","","","","","","","",""
"","1431.08000000217","sequential-stimulus-presentation","203","591621","0.0-38.0-1.7","SS1613079878933","trial","","40","800","2231.08000000217","images/stimuli/spore_stims/complex_18_B_b.gif","images/stimuli/spore_stims/complex_18_A_b.gif","","","","","10","complex_similar","images/stimuli/spore_stims/complex_18_A_b.gif","left","","","","",""
"","1919.7500000009313","html-keyboard-response","204","593558","0.0-39.0","SS1613079878933","pref_question","","99","","","","","<video width ='960' height = '540' style='padding-top:8%' autoplay muted><source src='images/stimuli/wall_pref.mp4' type='video/mp4'></video>","3","right","66%","10","","","","","","","",""
"","4074.4899999990594","sequential-stimulus-presentation","205","598437","0.0-40.0","SS1613079878933","pref_reveal","","40","800","4874.489999999059","null","null","","","","","10","","","","deviant","","","",""
"","null","html-keyboard-response","206","599512","0.0-41.0-0.0","SS1613079878933","","","null","","","","","<p><img src= images/blank.png width =""200"" height = ""200"" style = ""float:right""></p><p><img src=images/blank.png width =""800"" height = ""200""></p>","","","","","","","","","","","",""
"","4489.284999995958","sequential-stimulus-presentation","207","604806","0.0-41.0-1.0","SS1613079878933","trial","","40","800","5289.284999995958","images/stimuli/spore_stims/simple_10_B_b.gif","images/stimuli/spore_stims/simple_02_A_a.gif","","","","","11","simple_dissimilar","images/stimuli/spore_stims/simple_02_A_a.gif","left","","","","",""
"","null","html-keyboard-response","208","605629","0.0-41.0-0.1","SS1613079878933","","","null","","","","","<p><img src= images/blank.png width =""200"" height = ""200"" style = ""float:right""></p><p><img src=images/blank.png width =""800"" height = ""200""></p>","","","","","","","","","","","",""
"","1028.1749999994645","sequential-stimulus-presentation","209","607461","0.0-41.0-1.1","SS1613079878933","trial","","40","800","1828.1749999994645","images/stimuli/spore_stims/simple_10_B_b.gif","images/stimuli/spore_stims/simple_02_A_a.gif","","","","","11","simple_dissimilar","images/stimuli/spore_stims/simple_02_A_a.gif","left","","","","",""
"","null","html-keyboard-response","210","608644","0.0-41.0-0.2","SS1613079878933","","","null","","","","","<p><img src= images/blank.png width =""200"" height = ""200"" style = ""float:right""></p><p><img src=images/blank.png width =""800"" height = ""200""></p>","","","","","","","","","","","",""
"","237.46999999997206","sequential-stimulus-presentation","211","609685","0.0-41.0-1.2","SS1613079878933","trial","","40","800","1037.469999999972","images/stimuli/spore_stims/simple_10_B_b.gif","images/stimuli/spore_stims/simple_02_A_a.gif","","","","","11","simple_dissimilar","images/stimuli/spore_stims/simple_02_A_a.gif","left","","","","",""
"","null","html-keyboard-response","212","610800","0.0-41.0-0.3","SS1613079878933","","","null","","","","","<p><img src= images/blank.png width =""200"" height = ""200"" style = ""float:right""></p><p><img src=images/blank.png width =""800"" height = ""200""></p>","","","","","","","","","","","",""
"","833.0950000018347","sequential-stimulus-presentation","213","612437","0.0-41.0-1.3","SS1613079878933","trial","","40","800","1633.0950000018347","images/stimuli/spore_stims/simple_10_B_b.gif","images/stimuli/spore_stims/simple_02_A_a.gif","","","","","11","simple_dissimilar","images/stimuli/spore_stims/simple_02_A_a.gif","left","","","","",""
"","null","html-keyboard-response","214","613640","0.0-41.0-0.4","SS1613079878933","","","null","","","","","<p><img src= images/blank.png width =""200"" height = ""200"" style = ""float:right""></p><p><img src=images/blank.png width =""800"" height = ""200""></p>","","","","","","","","","","","",""
"","871.8149999985471","sequential-stimulus-presentation","215","615318","0.0-41.0-1.4","SS1613079878933","trial","","40","800","1671.8149999985471","images/stimuli/spore_stims/simple_10_B_b.gif","images/stimuli/spore_stims/simple_02_A_a.gif","","","","","11","simple_dissimilar","images/stimuli/spore_stims/simple_02_A_a.gif","left","","","","",""
"","null","html-keyboard-response","216","616381","0.0-41.0-0.5","SS1613079878933","","","null","","","","","<p><img src= images/blank.png width =""200"" height = ""200"" style = ""float:right""></p><p><img src=images/blank.png width =""800"" height = ""200""></p>","","","","","","","","","","","",""
"","835.2050000031013","sequential-stimulus-presentation","217","618021","0.0-41.0-1.5","SS1613079878933","trial","","40","800","1635.2050000031013","images/stimuli/spore_stims/simple_10_B_b.gif","images/stimuli/spore_stims/simple_02_A_a.gif","","","","","11","simple_dissimilar","images/stimuli/spore_stims/simple_02_A_a.gif","left","","","","",""
"","null","html-keyboard-response","218","619120","0.0-41.0-0.6","SS1613079878933","","","null","","","","","<p><img src= images/blank.png width =""200"" height = ""200"" style = ""float:right""></p><p><img src=images/blank.png width =""800"" height = ""200""></p>","","","","","","","","","","","",""
"","1424.5799999990268","sequential-stimulus-presentation","219","621349","0.0-41.0-1.6","SS1613079878933","trial","","40","800","2224.5799999990268","images/stimuli/spore_stims/simple_10_B_b.gif","images/stimuli/spore_stims/simple_02_A_a.gif","","","","","11","simple_dissimilar","images/stimuli/spore_stims/simple_02_A_a.gif","left","","","","",""
"","null","html-keyboard-response","220","622425","0.0-41.0-0.7","SS1613079878933","","","null","","","","","<p><img src= images/blank.png width =""200"" height = ""200"" style = ""float:right""></p><p><img src=images/blank.png width =""800"" height = ""200""></p>","","","","","","","","","","","",""
"","5064.67999999586","sequential-stimulus-presentation","221","628294","0.0-41.0-1.7","SS1613079878933","trial","","40","800","5864.67999999586","images/stimuli/spore_stims/simple_10_B_b.gif","images/stimuli/spore_stims/simple_02_A_a.gif","","","","","11","simple_dissimilar","images/stimuli/spore_stims/simple_10_B_b.gif","right","","","","",""
"","1163.1599999964237","html-keyboard-response","222","629461","0.0-42.0","SS1613079878933","pref_question","","98","","","","","<video width ='960' height = '540' style='padding-top:8%' autoplay muted><source src='images/stimuli/wall_pref.mp4' type='video/mp4'></video>","2","middle","45%","11","","","","","","","",""
"","9691.054999995744","sequential-stimulus-presentation","223","639957","0.0-43.0","SS1613079878933","pref_reveal","","40","800","10491.054999995744","null","null","","","","","11","","","","novel","","","",""
"","null","html-keyboard-response","224","640841","0.0-44.0-0.0","SS1613079878933","","","null","","","","","<p><img src= images/blank.png width =""200"" height = ""200"" style = ""float:right""></p><p><img src=images/blank.png width =""800"" height = ""200""></p>","","","","","","","","","","","",""
"","2520.554999995511","sequential-stimulus-presentation","225","644165","0.0-44.0-1.0","SS1613079878933","trial","","40","800","3320.554999995511","images/stimuli/spore_stims/simple_14_B_b.gif","images/stimuli/spore_stims/simple_19_B_b.gif","","","","","12","simple_dissimilar","images/stimuli/spore_stims/simple_19_B_b.gif","right","","","","",""
"","null","html-keyboard-response","226","645257","0.0-44.0-0.1","SS1613079878933","","","null","","","","","<p><img src= images/blank.png width =""200"" height = ""200"" style = ""float:right""></p><p><img src=images/blank.png width =""800"" height = ""200""></p>","","","","","","","","","","","",""
"","1126.8699999999953","sequential-stimulus-presentation","227","647205","0.0-44.0-1.1","SS1613079878933","trial","","40","800","1926.8699999999953","images/stimuli/spore_stims/simple_14_B_b.gif","images/stimuli/spore_stims/simple_19_B_b.gif","","","","","12","simple_dissimilar","images/stimuli/spore_stims/simple_19_B_b.gif","right","","","","",""
"","null","html-keyboard-response","228","648330","0.0-44.0-0.2","SS1613079878933","","","null","","","","","<p><img src= images/blank.png width =""200"" height = ""200"" style = ""float:right""></p><p><img src=images/blank.png width =""800"" height = ""200""></p>","","","","","","","","","","","",""
"","2932.1649999984074","sequential-stimulus-presentation","229","652070","0.0-44.0-1.2","SS1613079878933","trial","","40","800","3732.1649999984074","images/stimuli/spore_stims/simple_14_B_b.gif","images/stimuli/spore_stims/simple_19_B_b.gif","","","","","12","simple_dissimilar","images/stimuli/spore_stims/simple_14_B_b.gif","left","","","","",""
"","null","html-keyboard-response","230","653363","0.0-44.0-0.3","SS1613079878933","","","null","","","","","<p><img src= images/blank.png width =""200"" height = ""200"" style = ""float:right""></p><p><img src=images/blank.png width =""800"" height = ""200""></p>","","","","","","","","","","","",""
"","1021.85499999905","sequential-stimulus-presentation","231","655189","0.0-44.0-1.3","SS1613079878933","trial","","40","800","1821.85499999905","images/stimuli/spore_stims/simple_14_B_b.gif","images/stimuli/spore_stims/simple_19_B_b.gif","","","","","12","simple_dissimilar","images/stimuli/spore_stims/simple_19_B_b.gif","right","","","","",""
"","null","html-keyboard-response","232","656447","0.0-44.0-0.4","SS1613079878933","","","null","","","","","<p><img src= images/blank.png width =""200"" height = ""200"" style = ""float:right""></p><p><img src=images/blank.png width =""800"" height = ""200""></p>","","","","","","","","","","","",""
"","877.1150000030175","sequential-stimulus-presentation","233","658133","0.0-44.0-1.4","SS1613079878933","trial","","40","800","1677.1150000030175","images/stimuli/spore_stims/simple_14_B_b.gif","images/stimuli/spore_stims/simple_19_B_b.gif","","","","","12","simple_dissimilar","images/stimuli/spore_stims/simple_19_B_b.gif","right","","","","",""
"","null","html-keyboard-response","234","659220","0.0-44.0-0.5","SS1613079878933","","","null","","","","","<p><img src= images/blank.png width =""200"" height = ""200"" style = ""float:right""></p><p><img src=images/blank.png width =""800"" height = ""200""></p>","","","","","","","","","","","",""
"","1196.8799999958137","sequential-stimulus-presentation","235","661221","0.0-44.0-1.5","SS1613079878933","trial","","40","800","1996.8799999958137","images/stimuli/spore_stims/simple_14_B_b.gif","images/stimuli/spore_stims/simple_19_B_b.gif","","","","","12","simple_dissimilar","images/stimuli/spore_stims/simple_19_B_b.gif","right","","","","",""
"","null","html-keyboard-response","236","662267","0.0-44.0-0.6","SS1613079878933","","","null","","","","","<p><img src= images/blank.png width =""200"" height = ""200"" style = ""float:right""></p><p><img src=images/blank.png width =""800"" height = ""200""></p>","","","","","","","","","","","",""
"","1046.2850000038743","sequential-stimulus-presentation","237","664118","0.0-44.0-1.6","SS1613079878933","trial","","40","800","1846.2850000038743","images/stimuli/spore_stims/simple_14_B_b.gif","images/stimuli/spore_stims/simple_19_B_b.gif","","","","","12","simple_dissimilar","images/stimuli/spore_stims/simple_19_B_b.gif","right","","","","",""
"","null","html-keyboard-response","238","665013","0.0-44.0-0.7","SS1613079878933","","","null","","","","","<p><img src= images/blank.png width =""200"" height = ""200"" style = ""float:right""></p><p><img src=images/blank.png width =""800"" height = ""200""></p>","","","","","","","","","","","",""
"","810.4650000024121","sequential-stimulus-presentation","239","666629","0.0-44.0-1.7","SS1613079878933","trial","","40","800","1610.4650000024121","images/stimuli/spore_stims/simple_14_B_b.gif","images/stimuli/spore_stims/simple_19_B_b.gif","","","","","12","simple_dissimilar","images/stimuli/spore_stims/simple_19_B_b.gif","right","","","","",""
"","1131.9950000033714","html-keyboard-response","240","667765","0.0-45.0","SS1613079878933","pref_question","","98","","","","","<video width ='960' height = '540' style='padding-top:8%' autoplay muted><source src='images/stimuli/wall_pref.mp4' type='video/mp4'></video>","2","middle","45%","12","","","","","","","",""
"","924.1150000016205","sequential-stimulus-presentation","241","669493","0.0-46.0","SS1613079878933","pref_reveal","","40","800","1724.1150000016205","null","null","","","","","12","","","","novel","","","",""
"","null","html-keyboard-response","242","670361","0.0-47.0-0.0","SS1613079878933","","","null","","","","","<p><img src= images/blank.png width =""200"" height = ""200"" style = ""float:right""></p><p><img src=images/blank.png width =""800"" height = ""200""></p>","","","","","","","","","","","",""
"","3383.1150000041816","sequential-stimulus-presentation","243","674550","0.0-47.0-1.0","SS1613079878933","trial","","40","800","4183.115000004182","images/stimuli/spore_stims/complex_15_A_c.gif","images/stimuli/spore_stims/complex_15_B_c.gif","","","","","13","complex_similar","images/stimuli/spore_stims/complex_15_B_c.gif","middle","","","","",""
"","null","html-keyboard-response","244","675730","0.0-47.0-0.1","SS1613079878933","","","null","","","","","<p><img src= images/blank.png width =""200"" height = ""200"" style = ""float:right""></p><p><img src=images/blank.png width =""800"" height = ""200""></p>","","","","","","","","","","","",""
"","779.0549999991199","sequential-stimulus-presentation","245","677317","0.0-47.0-1.1","SS1613079878933","trial","","40","800","1579.05499999912","images/stimuli/spore_stims/complex_15_A_c.gif","images/stimuli/spore_stims/complex_15_B_c.gif","","","","","13","complex_similar","images/stimuli/spore_stims/complex_15_B_c.gif","middle","","","","",""
"","null","html-keyboard-response","246","678134","0.0-47.0-0.2","SS1613079878933","","","null","","","","","<p><img src= images/blank.png width =""200"" height = ""200"" style = ""float:right""></p><p><img src=images/blank.png width =""800"" height = ""200""></p>","","","","","","","","","","","",""
"","746.0349999964237","sequential-stimulus-presentation","247","679685","0.0-47.0-1.2","SS1613079878933","trial","","40","800","1546.0349999964237","images/stimuli/spore_stims/complex_15_A_c.gif","images/stimuli/spore_stims/complex_15_B_c.gif","","","","","13","complex_similar","images/stimuli/spore_stims/complex_15_B_c.gif","middle","","","","",""
"","null","html-keyboard-response","248","680943","0.0-47.0-0.3","SS1613079878933","","","null","","","","","<p><img src= images/blank.png width =""200"" height = ""200"" style = ""float:right""></p><p><img src=images/blank.png width =""800"" height = ""200""></p>","","","","","","","","","","","",""
"","1072.5449999953853","sequential-stimulus-presentation","249","682821","0.0-47.0-1.3","SS1613079878933","trial","","40","800","1872.5449999953853","images/stimuli/spore_stims/complex_15_A_c.gif","images/stimuli/spore_stims/complex_15_B_c.gif","","","","","13","complex_similar","images/stimuli/spore_stims/complex_15_B_c.gif","middle","","","","",""
"","null","html-keyboard-response","250","683969","0.0-47.0-0.4","SS1613079878933","","","null","","","","","<p><img src= images/blank.png width =""200"" height = ""200"" style = ""float:right""></p><p><img src=images/blank.png width =""800"" height = ""200""></p>","","","","","","","","","","","",""
"","1563.3649999945192","sequential-stimulus-presentation","251","686342","0.0-47.0-1.4","SS1613079878933","trial","","40","800","2363.364999994519","images/stimuli/spore_stims/complex_15_A_c.gif","images/stimuli/spore_stims/complex_15_B_c.gif","","","","","13","complex_similar","images/stimuli/spore_stims/complex_15_B_c.gif","middle","","","","",""
"","null","html-keyboard-response","252","687348","0.0-47.0-0.5","SS1613079878933","","","null","","","","","<p><img src= images/blank.png width =""200"" height = ""200"" style = ""float:right""></p><p><img src=images/blank.png width =""800"" height = ""200""></p>","","","","","","","","","","","",""
"","1025.304999995511","sequential-stimulus-presentation","253","689189","0.0-47.0-1.5","SS1613079878933","trial","","40","800","1825.304999995511","images/stimuli/spore_stims/complex_15_A_c.gif","images/stimuli/spore_stims/complex_15_B_c.gif","","","","","13","complex_similar","images/stimuli/spore_stims/complex_15_B_c.gif","middle","","","","",""
"","null","html-keyboard-response","254","690342","0.0-47.0-0.6","SS1613079878933","","","null","","","","","<p><img src= images/blank.png width =""200"" height = ""200"" style = ""float:right""></p><p><img src=images/blank.png width =""800"" height = ""200""></p>","","","","","","","","","","","",""
"","3723.39500000095","sequential-stimulus-presentation","255","694885","0.0-47.0-1.6","SS1613079878933","trial","","40","800","4523.39500000095","images/stimuli/spore_stims/complex_15_A_c.gif","images/stimuli/spore_stims/complex_15_B_c.gif","","","","","13","complex_similar","images/stimuli/spore_stims/complex_15_A_c.gif","left","","","","",""
"","null","html-keyboard-response","256","695928","0.0-47.0-0.7","SS1613079878933","","","null","","","","","<p><img src= images/blank.png width =""200"" height = ""200"" style = ""float:right""></p><p><img src=images/blank.png width =""800"" height = ""200""></p>","","","","","","","","","","","",""
"","486.6249999977881","sequential-stimulus-presentation","257","697222","0.0-47.0-1.7","SS1613079878933","trial","","40","800","1286.624999997788","images/stimuli/spore_stims/complex_15_A_c.gif","images/stimuli/spore_stims/complex_15_B_c.gif","","","","","13","complex_similar","images/stimuli/spore_stims/complex_15_B_c.gif","middle","","","","",""
"","1035.3599999945145","html-keyboard-response","258","698261","0.0-48.0","SS1613079878933","pref_question","","99","","","","","<video width ='960' height = '540' style='padding-top:8%' autoplay muted><source src='images/stimuli/wall_pref.mp4' type='video/mp4'></video>","3","right","66%","13","","","","","","","",""
"","3018.949999997858","sequential-stimulus-presentation","259","702085","0.0-49.0","SS1613079878933","pref_reveal","","40","800","3818.949999997858","null","null","","","","","13","","","","novel","","","",""
"","null","html-keyboard-response","260","702933","0.0-50.0-0.0","SS1613079878933","","","null","","","","","<p><img src= images/blank.png width =""200"" height = ""200"" style = ""float:right""></p><p><img src=images/blank.png width =""800"" height = ""200""></p>","","","","","","","","","","","",""
"","4677.434999997844","sequential-stimulus-presentation","261","708422","0.0-50.0-1.0","SS1613079878933","trial","","40","800","5477.434999997844","images/stimuli/spore_stims/complex_14_A_b.gif","images/stimuli/spore_stims/complex_01_B_b.gif","","","","","14","complex_dissimilar","images/stimuli/spore_stims/complex_01_B_b.gif","right","","","","",""
"","null","html-keyboard-response","262","709588","0.0-50.0-0.1","SS1613079878933","","","null","","","","","<p><img src= images/blank.png width =""200"" height = ""200"" style = ""float:right""></p><p><img src=images/blank.png width =""800"" height = ""200""></p>","","","","","","","","","","","",""
"","1018.9800000007963","sequential-stimulus-presentation","263","711413","0.0-50.0-1.1","SS1613079878933","trial","","40","800","1818.9800000007963","images/stimuli/spore_stims/complex_14_A_b.gif","images/stimuli/spore_stims/complex_01_B_b.gif","","","","","14","complex_dissimilar","images/stimuli/spore_stims/complex_01_B_b.gif","right","","","","",""
"","null","html-keyboard-response","264","712539","0.0-50.0-0.2","SS1613079878933","","","null","","","","","<p><img src= images/blank.png width =""200"" height = ""200"" style = ""float:right""></p><p><img src=images/blank.png width =""800"" height = ""200""></p>","","","","","","","","","","","",""
"","2323.974999999278","sequential-stimulus-presentation","265","715669","0.0-50.0-1.2","SS1613079878933","trial","","40","800","3123.974999999278","images/stimuli/spore_stims/complex_14_A_b.gif","images/stimuli/spore_stims/complex_01_B_b.gif","","","","","14","complex_dissimilar","images/stimuli/spore_stims/complex_14_A_b.gif","middle","","","","",""
"","null","html-keyboard-response","266","716895","0.0-50.0-0.3","SS1613079878933","","","null","","","","","<p><img src= images/blank.png width =""200"" height = ""200"" style = ""float:right""></p><p><img src=images/blank.png width =""800"" height = ""200""></p>","","","","","","","","","","","",""
"","961.455000004149","sequential-stimulus-presentation","267","718662","0.0-50.0-1.3","SS1613079878933","trial","","40","800","1761.455000004149","images/stimuli/spore_stims/complex_14_A_b.gif","images/stimuli/spore_stims/complex_01_B_b.gif","","","","","14","complex_dissimilar","images/stimuli/spore_stims/complex_01_B_b.gif","right","","","","",""
"","null","html-keyboard-response","268","719706","0.0-50.0-0.4","SS1613079878933","","","null","","","","","<p><img src= images/blank.png width =""200"" height = ""200"" style = ""float:right""></p><p><img src=images/blank.png width =""800"" height = ""200""></p>","","","","","","","","","","","",""
"","428.2549999989569","sequential-stimulus-presentation","269","720949","0.0-50.0-1.4","SS1613079878933","trial","","40","800","1228.254999998957","images/stimuli/spore_stims/complex_14_A_b.gif","images/stimuli/spore_stims/complex_01_B_b.gif","","","","","14","complex_dissimilar","images/stimuli/spore_stims/complex_01_B_b.gif","right","","","","",""
"","null","html-keyboard-response","270","722217","0.0-50.0-0.5","SS1613079878933","","","null","","","","","<p><img src= images/blank.png width =""200"" height = ""200"" style = ""float:right""></p><p><img src=images/blank.png width =""800"" height = ""200""></p>","","","","","","","","","","","",""
"","406.2999999951571","sequential-stimulus-presentation","271","723429","0.0-50.0-1.5","SS1613079878933","trial","","40","800","1206.2999999951571","images/stimuli/spore_stims/complex_14_A_b.gif","images/stimuli/spore_stims/complex_01_B_b.gif","","","","","14","complex_dissimilar","images/stimuli/spore_stims/complex_01_B_b.gif","right","","","","",""
"","null","html-keyboard-response","272","724698","0.0-50.0-0.6","SS1613079878933","","","null","","","","","<p><img src= images/blank.png width =""200"" height = ""200"" style = ""float:right""></p><p><img src=images/blank.png width =""800"" height = ""200""></p>","","","","","","","","","","","",""
"","325.99499999929685","sequential-stimulus-presentation","273","725829","0.0-50.0-1.6","SS1613079878933","trial","","40","800","1125.9949999992969","images/stimuli/spore_stims/complex_14_A_b.gif","images/stimuli/spore_stims/complex_01_B_b.gif","","","","","14","complex_dissimilar","images/stimuli/spore_stims/complex_01_B_b.gif","right","","","","",""
"","null","html-keyboard-response","274","726634","0.0-50.0-0.7","SS1613079878933","","","null","","","","","<p><img src= images/blank.png width =""200"" height = ""200"" style = ""float:right""></p><p><img src=images/blank.png width =""800"" height = ""200""></p>","","","","","","","","","","","",""
"","1302.2399999973131","sequential-stimulus-presentation","275","728742","0.0-50.0-1.7","SS1613079878933","trial","","40","800","2102.239999997313","images/stimuli/spore_stims/complex_14_A_b.gif","images/stimuli/spore_stims/complex_01_B_b.gif","","","","","14","complex_dissimilar","images/stimuli/spore_stims/complex_01_B_b.gif","right","","","","",""
"","1034.3149999971502","html-keyboard-response","276","729781","0.0-51.0","SS1613079878933","pref_question","","97","","","","","<video width ='960' height = '540' style='padding-top:8%' autoplay muted><source src='images/stimuli/wall_pref.mp4' type='video/mp4'></video>","1","left","25%","14","","","","","","","",""
"","3579.375000001164","sequential-stimulus-presentation","277","734165","0.0-52.0","SS1613079878933","pref_reveal","","40","800","4379.375000001164","null","null","","","","","14","","","","novel","","","",""
"","null","html-keyboard-response","278","735096","0.0-53.0-0.0","SS1613079878933","","","null","","","","","<p><img src= images/blank.png width =""200"" height = ""200"" style = ""float:right""></p><p><img src=images/blank.png width =""800"" height = ""200""></p>","","","","","","","","","","","",""
"","1991.7050000004238","sequential-stimulus-presentation","279","737893","0.0-53.0-1.0","SS1613079878933","trial","","40","800","2791.7050000004238","images/stimuli/spore_stims/simple_12_A_d.gif","images/stimuli/spore_stims/simple_12_B_d.gif","","","","","15","simple_similar","images/stimuli/spore_stims/simple_12_B_d.gif","right","","","","",""
"","null","html-keyboard-response","280","738792","0.0-53.0-0.1","SS1613079878933","","","null","","","","","<p><img src= images/blank.png width =""200"" height = ""200"" style = ""float:right""></p><p><img src=images/blank.png width =""800"" height = ""200""></p>","","","","","","","","","","","",""
"","667.8899999969872","sequential-stimulus-presentation","281","740278","0.0-53.0-1.1","SS1613079878933","trial","","40","800","1467.8899999969872","images/stimuli/spore_stims/simple_12_A_d.gif","images/stimuli/spore_stims/simple_12_B_d.gif","","","","","15","simple_similar","images/stimuli/spore_stims/simple_12_B_d.gif","right","","","","",""
"","null","html-keyboard-response","282","741429","0.0-53.0-0.2","SS1613079878933","","","null","","","","","<p><img src= images/blank.png width =""200"" height = ""200"" style = ""float:right""></p><p><img src=images/blank.png width =""800"" height = ""200""></p>","","","","","","","","","","","",""
"","1198.7900000021327","sequential-stimulus-presentation","283","743445","0.0-53.0-1.2","SS1613079878933","trial","","40","800","1998.7900000021327","images/stimuli/spore_stims/simple_12_A_d.gif","images/stimuli/spore_stims/simple_12_B_d.gif","","","","","15","simple_similar","images/stimuli/spore_stims/simple_12_A_d.gif","middle","","","","",""
"","null","html-keyboard-response","284","744699","0.0-53.0-0.3","SS1613079878933","","","null","","","","","<p><img src= images/blank.png width =""200"" height = ""200"" style = ""float:right""></p><p><img src=images/blank.png width =""800"" height = ""200""></p>","","","","","","","","","","","",""
"","995.3800000002375","sequential-stimulus-presentation","285","746501","0.0-53.0-1.3","SS1613079878933","trial","","40","800","1795.3800000002375","images/stimuli/spore_stims/simple_12_A_d.gif","images/stimuli/spore_stims/simple_12_B_d.gif","","","","","15","simple_similar","images/stimuli/spore_stims/simple_12_B_d.gif","right","","","","",""
"","null","html-keyboard-response","286","747739","0.0-53.0-0.4","SS1613079878933","","","null","","","","","<p><img src= images/blank.png width =""200"" height = ""200"" style = ""float:right""></p><p><img src=images/blank.png width =""800"" height = ""200""></p>","","","","","","","","","","","",""
"","613.165000002482","sequential-stimulus-presentation","287","749157","0.0-53.0-1.4","SS1613079878933","trial","","40","800","1413.165000002482","images/stimuli/spore_stims/simple_12_A_d.gif","images/stimuli/spore_stims/simple_12_B_d.gif","","","","","15","simple_similar","images/stimuli/spore_stims/simple_12_B_d.gif","right","","","","",""
"","null","html-keyboard-response","288","750408","0.0-53.0-0.5","SS1613079878933","","","null","","","","","<p><img src= images/blank.png width =""200"" height = ""200"" style = ""float:right""></p><p><img src=images/blank.png width =""800"" height = ""200""></p>","","","","","","","","","","","",""
"","183.83999999798834","sequential-stimulus-presentation","289","751397","0.0-53.0-1.5","SS1613079878933","trial","","40","800","983.8399999979883","images/stimuli/spore_stims/simple_12_A_d.gif","images/stimuli/spore_stims/simple_12_B_d.gif","","","","","15","simple_similar","images/stimuli/spore_stims/simple_12_B_d.gif","right","","","","",""
"","null","html-keyboard-response","290","752452","0.0-53.0-0.6","SS1613079878933","","","null","","","","","<p><img src= images/blank.png width =""200"" height = ""200"" style = ""float:right""></p><p><img src=images/blank.png width =""800"" height = ""200""></p>","","","","","","","","","","","",""
"","331.3799999959301","sequential-stimulus-presentation","291","753589","0.0-53.0-1.6","SS1613079878933","trial","","40","800","1131.3799999959301","images/stimuli/spore_stims/simple_12_A_d.gif","images/stimuli/spore_stims/simple_12_B_d.gif","","","","","15","simple_similar","images/stimuli/spore_stims/simple_12_B_d.gif","right","","","","",""
"","null","html-keyboard-response","292","754812","0.0-53.0-0.7","SS1613079878933","","","null","","","","","<p><img src= images/blank.png width =""200"" height = ""200"" style = ""float:right""></p><p><img src=images/blank.png width =""800"" height = ""200""></p>","","","","","","","","","","","",""
"","395.329999999376","sequential-stimulus-presentation","293","756021","0.0-53.0-1.7","SS1613079878933","trial","","40","800","1195.329999999376","images/stimuli/spore_stims/simple_12_A_d.gif","images/stimuli/spore_stims/simple_12_B_d.gif","","","","","15","simple_similar","images/stimuli/spore_stims/simple_12_B_d.gif","right","","","","",""
"","1483.4049999990966","html-keyboard-response","294","757509","0.0-54.0","SS1613079878933","pref_question","","97","","","","","<video width ='960' height = '540' style='padding-top:8%' autoplay muted><source src='images/stimuli/wall_pref.mp4' type='video/mp4'></video>","1","left","25%","15","","","","","","","",""
"","2409.715000001481","sequential-stimulus-presentation","295","760725","0.0-55.0","SS1613079878933","pref_reveal","","40","800","3209.715000001481","null","null","","","","","15","","","","novel","","","",""
"","null","html-keyboard-response","296","761681","0.0-56.0-0.0","SS1613079878933","","","null","","","","","<p><img src= images/blank.png width =""200"" height = ""200"" style = ""float:right""></p><p><img src=images/blank.png width =""800"" height = ""200""></p>","","","","","","","","","","","",""
"","1119.125000004773","sequential-stimulus-presentation","297","763606","0.0-56.0-1.0","SS1613079878933","trial","","40","800","1919.125000004773","images/stimuli/spore_stims/simple_17_A_b.gif","images/stimuli/spore_stims/simple_17_B_b.gif","","","","","16","simple_similar","images/stimuli/spore_stims/simple_17_B_b.gif","left","","","","",""
"","null","html-keyboard-response","298","764542","0.0-56.0-0.1","SS1613079878933","","","null","","","","","<p><img src= images/blank.png width =""200"" height = ""200"" style = ""float:right""></p><p><img src=images/blank.png width =""800"" height = ""200""></p>","","","","","","","","","","","",""
"","703.9749999967171","sequential-stimulus-presentation","299","766053","0.0-56.0-1.1","SS1613079878933","trial","","40","800","1503.974999996717","images/stimuli/spore_stims/simple_17_A_b.gif","images/stimuli/spore_stims/simple_17_B_b.gif","","","","","16","simple_similar","images/stimuli/spore_stims/simple_17_B_b.gif","left","","","","",""
"","null","html-keyboard-response","300","767141","0.0-56.0-0.2","SS1613079878933","","","null","","","","","<p><img src= images/blank.png width =""200"" height = ""200"" style = ""float:right""></p><p><img src=images/blank.png width =""800"" height = ""200""></p>","","","","","","","","","","","",""
"","1058.149999997113","sequential-stimulus-presentation","301","769013","0.0-56.0-1.2","SS1613079878933","trial","","40","800","1858.149999997113","images/stimuli/spore_stims/simple_17_A_b.gif","images/stimuli/spore_stims/simple_17_B_b.gif","","","","","16","simple_similar","images/stimuli/spore_stims/simple_17_A_b.gif","right","","","","",""
"","null","html-keyboard-response","302","769996","0.0-56.0-0.3","SS1613079878933","","","null","","","","","<p><img src= images/blank.png width =""200"" height = ""200"" style = ""float:right""></p><p><img src=images/blank.png width =""800"" height = ""200""></p>","","","","","","","","","","","",""
"","1250.6549999961862","sequential-stimulus-presentation","303","772053","0.0-56.0-1.3","SS1613079878933","trial","","40","800","2050.6549999961862","images/stimuli/spore_stims/simple_17_A_b.gif","images/stimuli/spore_stims/simple_17_B_b.gif","","","","","16","simple_similar","images/stimuli/spore_stims/simple_17_B_b.gif","left","","","","",""
"","null","html-keyboard-response","304","773135","0.0-56.0-0.4","SS1613079878933","","","null","","","","","<p><img src= images/blank.png width =""200"" height = ""200"" style = ""float:right""></p><p><img src=images/blank.png width =""800"" height = ""200""></p>","","","","","","","","","","","",""
"","1088.335000000312","sequential-stimulus-presentation","305","775030","0.0-56.0-1.4","SS1613079878933","trial","","40","800","1888.335000000312","images/stimuli/spore_stims/simple_17_A_b.gif","images/stimuli/spore_stims/simple_17_B_b.gif","","","","","16","simple_similar","images/stimuli/spore_stims/simple_17_B_b.gif","left","","","","",""
"","null","html-keyboard-response","306","776292","0.0-56.0-0.5","SS1613079878933","","","null","","","","","<p><img src= images/blank.png width =""200"" height = ""200"" style = ""float:right""></p><p><img src=images/blank.png width =""800"" height = ""200""></p>","","","","","","","","","","","",""
"","1259.1649999958463","sequential-stimulus-presentation","307","778357","0.0-56.0-1.5","SS1613079878933","trial","","40","800","2059.1649999958463","images/stimuli/spore_stims/simple_17_A_b.gif","images/stimuli/spore_stims/simple_17_B_b.gif","","","","","16","simple_similar","images/stimuli/spore_stims/simple_17_B_b.gif","left","","","","",""
"","null","html-keyboard-response","308","779200","0.0-56.0-0.6","SS1613079878933","","","null","","","","","<p><img src= images/blank.png width =""200"" height = ""200"" style = ""float:right""></p><p><img src=images/blank.png width =""800"" height = ""200""></p>","","","","","","","","","","","",""
"","765.8950000040932","sequential-stimulus-presentation","309","780773","0.0-56.0-1.6","SS1613079878933","trial","","40","800","1565.8950000040932","images/stimuli/spore_stims/simple_17_A_b.gif","images/stimuli/spore_stims/simple_17_B_b.gif","","","","","16","simple_similar","images/stimuli/spore_stims/simple_17_B_b.gif","left","","","","",""
"","null","html-keyboard-response","310","781723","0.0-56.0-0.7","SS1613079878933","","","null","","","","","<p><img src= images/blank.png width =""200"" height = ""200"" style = ""float:right""></p><p><img src=images/blank.png width =""800"" height = ""200""></p>","","","","","","","","","","","",""
"","531.7349999968428","sequential-stimulus-presentation","311","783061","0.0-56.0-1.7","SS1613079878933","trial","","40","800","1331.7349999968428","images/stimuli/spore_stims/simple_17_A_b.gif","images/stimuli/spore_stims/simple_17_B_b.gif","","","","","16","simple_similar","images/stimuli/spore_stims/simple_17_B_b.gif","left","","","","",""
"","1163.3400000063702","html-keyboard-response","312","784229","0.0-57.0","SS1613079878933","pref_question","","98","","","","","<video width ='960' height = '540' style='padding-top:8%' autoplay muted><source src='images/stimuli/wall_pref.mp4' type='video/mp4'></video>","2","middle","45%","16","","","","","","","",""
