"view_history","rt","trial_type","trial_index","time_elapsed","internal_node_id","subject","stimulus_type","trial_stimulus","key_press","minimum_viewing_duration","trial_looking_time","block_deviant","block_background","stimulus","wall_pref","location","location_percent","block_number","block_type","stimulus_displayed","position_displayed","stim_type_selected","responses","question_order","stimulus_left","stimulus_right"
"[{""page_index"":0,""viewing_time"":370754.71000000834}]","370755.2200000064","instructions","0","370755","0.0-0.0","SS1613082173349","","","","","","","","","","","","","","","","","","","",""
"[{""page_index"":0,""viewing_time"":5727.515000005951},{""page_index"":1,""viewing_time"":3079.9799999949755}]","8807.730000000447","instructions","1","381777","0.0-1.0","SS1613082173349","instructions","","","","","","","","","","","","","","","","","","",""
"","3617.88499999966","sequential-stimulus-presentation","2","386197","0.0-2.0","SS1613082173349","","","40","800","4417.88499999966","null","null","","","","","","","","","","","","",""
"","3934.1050000075484","sequential-stimulus-presentation","3","390934","0.0-3.0","SS1613082173349","","","40","800","4734.105000007548","null","null","","","","","","","","","","","","",""
"[{""page_index"":0,""viewing_time"":2632.015000010142}]","2632.2300000028918","instructions","4","393567","0.0-4.0","SS1613082173349","instructions","","","","","","","","","","","","","","","","","","",""
"","5324.225000003935","html-keyboard-response","5","398893","0.0-5.0","SS1613082173349","instructions","","49","","","","","<video width ='960' height = '540' autoplay muted><source src='images/stimuli/wall_pref.mp4' type='video/mp4'></video>","1","left","25%","","","","","","","","",""
"","349.68499999376945","sequential-stimulus-presentation","6","400045","0.0-6.0","SS1613082173349","pref_reveal","","40","800","1149.6849999937695","null","null","","","","","","","","","","","","",""
"[{""page_index"":0,""viewing_time"":3496.900000012829},{""page_index"":1,""viewing_time"":3166.0549999942305},{""page_index"":2,""viewing_time"":1084.0250000037486},{""page_index"":3,""viewing_time"":919.6999999985565}]","8666.84499999974","instructions","7","408713","0.0-7.0","SS1613082173349","instructions","","","","","","","","","","","","","","","","","","",""
"","null","html-keyboard-response","8","409694","0.0-8.0-0.0","SS1613082173349","","","null","","","","","<p><img src= images/blank.png width =""200"" height = ""200"" style = ""float:right""></p><p><img src=images/blank.png width =""800"" height = ""200""></p>","","","","","","","","","","","",""
"","960.7949999917764","sequential-stimulus-presentation","9","411458","0.0-8.0-1.0","SS1613082173349","trial","","40","800","1760.7949999917764","images/stimuli/spore_stims/simple_13_A_a.gif","images/stimuli/spore_stims/simple_13_B_c.gif","","","","","0","simple_dissimilar","images/stimuli/spore_stims/simple_13_B_c.gif","middle","","","","",""
"","null","html-keyboard-response","10","412333","0.0-8.0-0.1","SS1613082173349","","","null","","","","","<p><img src= images/blank.png width =""200"" height = ""200"" style = ""float:right""></p><p><img src=images/blank.png width =""800"" height = ""200""></p>","","","","","","","","","","","",""
"","382.0399999967776","sequential-stimulus-presentation","11","413517","0.0-8.0-1.1","SS1613082173349","trial","","40","800","1182.0399999967776","images/stimuli/spore_stims/simple_13_A_a.gif","images/stimuli/spore_stims/simple_13_B_c.gif","","","","","0","simple_dissimilar","images/stimuli/spore_stims/simple_13_B_c.gif","middle","","","","",""
"","null","html-keyboard-response","12","414720","0.0-8.0-0.2","SS1613082173349","","","null","","","","","<p><img src= images/blank.png width =""200"" height = ""200"" style = ""float:right""></p><p><img src=images/blank.png width =""800"" height = ""200""></p>","","","","","","","","","","","",""
"","368.2599999883678","sequential-stimulus-presentation","13","415891","0.0-8.0-1.2","SS1613082173349","trial","","40","800","1168.2599999883678","images/stimuli/spore_stims/simple_13_A_a.gif","images/stimuli/spore_stims/simple_13_B_c.gif","","","","","0","simple_dissimilar","images/stimuli/spore_stims/simple_13_B_c.gif","middle","","","","",""
"","null","html-keyboard-response","14","416900","0.0-8.0-0.3","SS1613082173349","","","null","","","","","<p><img src= images/blank.png width =""200"" height = ""200"" style = ""float:right""></p><p><img src=images/blank.png width =""800"" height = ""200""></p>","","","","","","","","","","","",""
"","254.4400000042515","sequential-stimulus-presentation","15","417957","0.0-8.0-1.3","SS1613082173349","trial","","40","800","1054.4400000042515","images/stimuli/spore_stims/simple_13_A_a.gif","images/stimuli/spore_stims/simple_13_B_c.gif","","","","","0","simple_dissimilar","images/stimuli/spore_stims/simple_13_B_c.gif","middle","","","","",""
"","null","html-keyboard-response","16","418884","0.0-8.0-0.4","SS1613082173349","","","null","","","","","<p><img src= images/blank.png width =""200"" height = ""200"" style = ""float:right""></p><p><img src=images/blank.png width =""800"" height = ""200""></p>","","","","","","","","","","","",""
"","285.8950000081677","sequential-stimulus-presentation","17","419973","0.0-8.0-1.4","SS1613082173349","trial","","40","800","1085.8950000081677","images/stimuli/spore_stims/simple_13_A_a.gif","images/stimuli/spore_stims/simple_13_B_c.gif","","","","","0","simple_dissimilar","images/stimuli/spore_stims/simple_13_B_c.gif","middle","","","","",""
"","null","html-keyboard-response","18","420982","0.0-8.0-0.5","SS1613082173349","","","null","","","","","<p><img src= images/blank.png width =""200"" height = ""200"" style = ""float:right""></p><p><img src=images/blank.png width =""800"" height = ""200""></p>","","","","","","","","","","","",""
"","340.9300000057556","sequential-stimulus-presentation","19","422127","0.0-8.0-1.5","SS1613082173349","trial","","40","800","1140.9300000057556","images/stimuli/spore_stims/simple_13_A_a.gif","images/stimuli/spore_stims/simple_13_B_c.gif","","","","","0","simple_dissimilar","images/stimuli/spore_stims/simple_13_A_a.gif","left","","","","",""
"","null","html-keyboard-response","20","423135","0.0-8.0-0.6","SS1613082173349","","","null","","","","","<p><img src= images/blank.png width =""200"" height = ""200"" style = ""float:right""></p><p><img src=images/blank.png width =""800"" height = ""200""></p>","","","","","","","","","","","",""
"","291.8400000053225","sequential-stimulus-presentation","21","424228","0.0-8.0-1.6","SS1613082173349","trial","","40","800","1091.8400000053225","images/stimuli/spore_stims/simple_13_A_a.gif","images/stimuli/spore_stims/simple_13_B_c.gif","","","","","0","simple_dissimilar","images/stimuli/spore_stims/simple_13_B_c.gif","middle","","","","",""
"","null","html-keyboard-response","22","425433","0.0-8.0-0.7","SS1613082173349","","","null","","","","","<p><img src= images/blank.png width =""200"" height = ""200"" style = ""float:right""></p><p><img src=images/blank.png width =""800"" height = ""200""></p>","","","","","","","","","","","",""
"","325.3100000001723","sequential-stimulus-presentation","23","426561","0.0-8.0-1.7","SS1613082173349","trial","","40","800","1125.3100000001723","images/stimuli/spore_stims/simple_13_A_a.gif","images/stimuli/spore_stims/simple_13_B_c.gif","","","","","0","simple_dissimilar","images/stimuli/spore_stims/simple_13_B_c.gif","middle","","","","",""
"","2074.3099999963306","html-keyboard-response","24","428637","0.0-9.0","SS1613082173349","pref_question","","49","","","","","<video width ='960' height = '540' style='padding-top:8%' autoplay muted><source src='images/stimuli/wall_pref.mp4' type='video/mp4'></video>","1","left","25%","0","","","","","","","",""
"","887.6049999962561","sequential-stimulus-presentation","25","430332","0.0-10.0","SS1613082173349","pref_reveal","","40","800","1687.604999996256","null","null","","","","","0","","","","deviant","","","",""
"","null","html-keyboard-response","26","431181","0.0-11.0-0.0","SS1613082173349","","","null","","","","","<p><img src= images/blank.png width =""200"" height = ""200"" style = ""float:right""></p><p><img src=images/blank.png width =""800"" height = ""200""></p>","","","","","","","","","","","",""
"","393.37000000523403","sequential-stimulus-presentation","27","432376","0.0-11.0-1.0","SS1613082173349","trial","","40","800","1193.370000005234","images/stimuli/spore_stims/complex_03_B_b.gif","images/stimuli/spore_stims/complex_16_B_a.gif","","","","","1","complex_dissimilar","images/stimuli/spore_stims/complex_16_B_a.gif","middle","","","","",""
"","null","html-keyboard-response","28","433559","0.0-11.0-0.1","SS1613082173349","","","null","","","","","<p><img src= images/blank.png width =""200"" height = ""200"" style = ""float:right""></p><p><img src=images/blank.png width =""800"" height = ""200""></p>","","","","","","","","","","","",""
"","353.6750000057509","sequential-stimulus-presentation","29","434716","0.0-11.0-1.1","SS1613082173349","trial","","40","800","1153.675000005751","images/stimuli/spore_stims/complex_03_B_b.gif","images/stimuli/spore_stims/complex_16_B_a.gif","","","","","1","complex_dissimilar","images/stimuli/spore_stims/complex_16_B_a.gif","middle","","","","",""
"","null","html-keyboard-response","30","435891","0.0-11.0-0.2","SS1613082173349","","","null","","","","","<p><img src= images/blank.png width =""200"" height = ""200"" style = ""float:right""></p><p><img src=images/blank.png width =""800"" height = ""200""></p>","","","","","","","","","","","",""
"","320.44999999925494","sequential-stimulus-presentation","31","437015","0.0-11.0-1.2","SS1613082173349","trial","","40","800","1120.449999999255","images/stimuli/spore_stims/complex_03_B_b.gif","images/stimuli/spore_stims/complex_16_B_a.gif","","","","","1","complex_dissimilar","images/stimuli/spore_stims/complex_16_B_a.gif","middle","","","","",""
"","null","html-keyboard-response","32","438200","0.0-11.0-0.3","SS1613082173349","","","null","","","","","<p><img src= images/blank.png width =""200"" height = ""200"" style = ""float:right""></p><p><img src=images/blank.png width =""800"" height = ""200""></p>","","","","","","","","","","","",""
"","291.6949999926146","sequential-stimulus-presentation","33","439295","0.0-11.0-1.3","SS1613082173349","trial","","40","800","1091.6949999926146","images/stimuli/spore_stims/complex_03_B_b.gif","images/stimuli/spore_stims/complex_16_B_a.gif","","","","","1","complex_dissimilar","images/stimuli/spore_stims/complex_16_B_a.gif","middle","","","","",""
"","null","html-keyboard-response","34","440566","0.0-11.0-0.4","SS1613082173349","","","null","","","","","<p><img src= images/blank.png width =""200"" height = ""200"" style = ""float:right""></p><p><img src=images/blank.png width =""800"" height = ""200""></p>","","","","","","","","","","","",""
"","173.36500000965316","sequential-stimulus-presentation","35","441542","0.0-11.0-1.4","SS1613082173349","trial","","40","800","973.3650000096532","images/stimuli/spore_stims/complex_03_B_b.gif","images/stimuli/spore_stims/complex_16_B_a.gif","","","","","1","complex_dissimilar","images/stimuli/spore_stims/complex_16_B_a.gif","middle","","","","",""
"","null","html-keyboard-response","36","442530","0.0-11.0-0.5","SS1613082173349","","","null","","","","","<p><img src= images/blank.png width =""200"" height = ""200"" style = ""float:right""></p><p><img src=images/blank.png width =""800"" height = ""200""></p>","","","","","","","","","","","",""
"","252.28500000957865","sequential-stimulus-presentation","37","443585","0.0-11.0-1.5","SS1613082173349","trial","","40","800","1052.2850000095787","images/stimuli/spore_stims/complex_03_B_b.gif","images/stimuli/spore_stims/complex_16_B_a.gif","","","","","1","complex_dissimilar","images/stimuli/spore_stims/complex_16_B_a.gif","middle","","","","",""
"","null","html-keyboard-response","38","444485","0.0-11.0-0.6","SS1613082173349","","","null","","","","","<p><img src= images/blank.png width =""200"" height = ""200"" style = ""float:right""></p><p><img src=images/blank.png width =""800"" height = ""200""></p>","","","","","","","","","","","",""
"","462.4949999997625","sequential-stimulus-presentation","39","445751","0.0-11.0-1.6","SS1613082173349","trial","","40","800","1262.4949999997625","images/stimuli/spore_stims/complex_03_B_b.gif","images/stimuli/spore_stims/complex_16_B_a.gif","","","","","1","complex_dissimilar","images/stimuli/spore_stims/complex_16_B_a.gif","middle","","","","",""
"","null","html-keyboard-response","40","446819","0.0-11.0-0.7","SS1613082173349","","","null","","","","","<p><img src= images/blank.png width =""200"" height = ""200"" style = ""float:right""></p><p><img src=images/blank.png width =""800"" height = ""200""></p>","","","","","","","","","","","",""
"","698.8100000016857","sequential-stimulus-presentation","41","448329","0.0-11.0-1.7","SS1613082173349","trial","","40","800","1498.8100000016857","images/stimuli/spore_stims/complex_03_B_b.gif","images/stimuli/spore_stims/complex_16_B_a.gif","","","","","1","complex_dissimilar","images/stimuli/spore_stims/complex_03_B_b.gif","right","","","","",""
"","2048.2199999969453","html-keyboard-response","42","450378","0.0-12.0","SS1613082173349","pref_question","","50","","","","","<video width ='960' height = '540' style='padding-top:8%' autoplay muted><source src='images/stimuli/wall_pref.mp4' type='video/mp4'></video>","2","middle","45%","1","","","","","","","",""
"","286.59499999776017","sequential-stimulus-presentation","43","451467","0.0-13.0","SS1613082173349","pref_reveal","","40","800","1086.5949999977602","null","null","","","","","1","","","","background","","","",""
"","null","html-keyboard-response","44","452431","0.0-14.0-0.0","SS1613082173349","","","null","","","","","<p><img src= images/blank.png width =""200"" height = ""200"" style = ""float:right""></p><p><img src=images/blank.png width =""800"" height = ""200""></p>","","","","","","","","","","","",""
"","252.8899999888381","sequential-stimulus-presentation","45","453487","0.0-14.0-1.0","SS1613082173349","trial","","40","800","1052.889999988838","images/stimuli/spore_stims/complex_07_B_d.gif","images/stimuli/spore_stims/complex_02_A_a.gif","","","","","2","complex_dissimilar","images/stimuli/spore_stims/complex_02_A_a.gif","left","","","","",""
"","null","html-keyboard-response","46","454339","0.0-14.0-0.1","SS1613082173349","","","null","","","","","<p><img src= images/blank.png width =""200"" height = ""200"" style = ""float:right""></p><p><img src=images/blank.png width =""800"" height = ""200""></p>","","","","","","","","","","","",""
"","409.3600000051083","sequential-stimulus-presentation","47","455552","0.0-14.0-1.1","SS1613082173349","trial","","40","800","1209.3600000051083","images/stimuli/spore_stims/complex_07_B_d.gif","images/stimuli/spore_stims/complex_02_A_a.gif","","","","","2","complex_dissimilar","images/stimuli/spore_stims/complex_02_A_a.gif","left","","","","",""
"","null","html-keyboard-response","48","456491","0.0-14.0-0.2","SS1613082173349","","","null","","","","","<p><img src= images/blank.png width =""200"" height = ""200"" style = ""float:right""></p><p><img src=images/blank.png width =""800"" height = ""200""></p>","","","","","","","","","","","",""
"","221.81000000273343","sequential-stimulus-presentation","49","457516","0.0-14.0-1.2","SS1613082173349","trial","","40","800","1021.8100000027334","images/stimuli/spore_stims/complex_07_B_d.gif","images/stimuli/spore_stims/complex_02_A_a.gif","","","","","2","complex_dissimilar","images/stimuli/spore_stims/complex_02_A_a.gif","left","","","","",""
"","null","html-keyboard-response","50","458632","0.0-14.0-0.3","SS1613082173349","","","null","","","","","<p><img src= images/blank.png width =""200"" height = ""200"" style = ""float:right""></p><p><img src=images/blank.png width =""800"" height = ""200""></p>","","","","","","","","","","","",""
"","576.6699999949196","sequential-stimulus-presentation","51","460011","0.0-14.0-1.3","SS1613082173349","trial","","40","800","1376.6699999949196","images/stimuli/spore_stims/complex_07_B_d.gif","images/stimuli/spore_stims/complex_02_A_a.gif","","","","","2","complex_dissimilar","images/stimuli/spore_stims/complex_02_A_a.gif","left","","","","",""
"","null","html-keyboard-response","52","460971","0.0-14.0-0.4","SS1613082173349","","","null","","","","","<p><img src= images/blank.png width =""200"" height = ""200"" style = ""float:right""></p><p><img src=images/blank.png width =""800"" height = ""200""></p>","","","","","","","","","","","",""
"","696.750000002794","sequential-stimulus-presentation","53","462473","0.0-14.0-1.4","SS1613082173349","trial","","40","800","1496.750000002794","images/stimuli/spore_stims/complex_07_B_d.gif","images/stimuli/spore_stims/complex_02_A_a.gif","","","","","2","complex_dissimilar","images/stimuli/spore_stims/complex_02_A_a.gif","left","","","","",""
"","null","html-keyboard-response","54","463676","0.0-14.0-0.5","SS1613082173349","","","null","","","","","<p><img src= images/blank.png width =""200"" height = ""200"" style = ""float:right""></p><p><img src=images/blank.png width =""800"" height = ""200""></p>","","","","","","","","","","","",""
"","606.5349999989849","sequential-stimulus-presentation","55","465086","0.0-14.0-1.5","SS1613082173349","trial","","40","800","1406.5349999989849","images/stimuli/spore_stims/complex_07_B_d.gif","images/stimuli/spore_stims/complex_02_A_a.gif","","","","","2","complex_dissimilar","images/stimuli/spore_stims/complex_02_A_a.gif","left","","","","",""
"","null","html-keyboard-response","56","466159","0.0-14.0-0.6","SS1613082173349","","","null","","","","","<p><img src= images/blank.png width =""200"" height = ""200"" style = ""float:right""></p><p><img src=images/blank.png width =""800"" height = ""200""></p>","","","","","","","","","","","",""
"","609.0750000003027","sequential-stimulus-presentation","57","467571","0.0-14.0-1.6","SS1613082173349","trial","","40","800","1409.0750000003027","images/stimuli/spore_stims/complex_07_B_d.gif","images/stimuli/spore_stims/complex_02_A_a.gif","","","","","2","complex_dissimilar","images/stimuli/spore_stims/complex_02_A_a.gif","left","","","","",""
"","null","html-keyboard-response","58","468529","0.0-14.0-0.7","SS1613082173349","","","null","","","","","<p><img src= images/blank.png width =""200"" height = ""200"" style = ""float:right""></p><p><img src=images/blank.png width =""800"" height = ""200""></p>","","","","","","","","","","","",""
"","382.129999998142","sequential-stimulus-presentation","59","469714","0.0-14.0-1.7","SS1613082173349","trial","","40","800","1182.129999998142","images/stimuli/spore_stims/complex_07_B_d.gif","images/stimuli/spore_stims/complex_02_A_a.gif","","","","","2","complex_dissimilar","images/stimuli/spore_stims/complex_07_B_d.gif","middle","","","","",""
"","1931.685000003199","html-keyboard-response","60","471648","0.0-15.0","SS1613082173349","pref_question","","50","","","","","<video width ='960' height = '540' style='padding-top:8%' autoplay muted><source src='images/stimuli/wall_pref.mp4' type='video/mp4'></video>","2","middle","45%","2","","","","","","","",""
"","297.9449999984354","sequential-stimulus-presentation","61","472750","0.0-16.0","SS1613082173349","pref_reveal","","40","800","1097.9449999984354","null","null","","","","","2","","","","deviant","","","",""
"","null","html-keyboard-response","62","473773","0.0-17.0-0.0","SS1613082173349","","","null","","","","","<p><img src= images/blank.png width =""200"" height = ""200"" style = ""float:right""></p><p><img src=images/blank.png width =""800"" height = ""200""></p>","","","","","","","","","","","",""
"","633.4199999982957","sequential-stimulus-presentation","63","475210","0.0-17.0-1.0","SS1613082173349","trial","","40","800","1433.4199999982957","images/stimuli/spore_stims/complex_15_A_d.gif","images/stimuli/spore_stims/complex_15_B_d.gif","","","","","3","complex_similar","images/stimuli/spore_stims/complex_15_B_d.gif","left","","","","",""
"","null","html-keyboard-response","64","476319","0.0-17.0-0.1","SS1613082173349","","","null","","","","","<p><img src= images/blank.png width =""200"" height = ""200"" style = ""float:right""></p><p><img src=images/blank.png width =""800"" height = ""200""></p>","","","","","","","","","","","",""
"","1625.8649999945192","sequential-stimulus-presentation","65","478748","0.0-17.0-1.1","SS1613082173349","trial","","40","800","2425.864999994519","images/stimuli/spore_stims/complex_15_A_d.gif","images/stimuli/spore_stims/complex_15_B_d.gif","","","","","3","complex_similar","images/stimuli/spore_stims/complex_15_B_d.gif","left","","","","",""
"","null","html-keyboard-response","66","479955","0.0-17.0-0.2","SS1613082173349","","","null","","","","","<p><img src= images/blank.png width =""200"" height = ""200"" style = ""float:right""></p><p><img src=images/blank.png width =""800"" height = ""200""></p>","","","","","","","","","","","",""
"","468.7549999944167","sequential-stimulus-presentation","67","481227","0.0-17.0-1.2","SS1613082173349","trial","","40","800","1268.7549999944167","images/stimuli/spore_stims/complex_15_A_d.gif","images/stimuli/spore_stims/complex_15_B_d.gif","","","","","3","complex_similar","images/stimuli/spore_stims/complex_15_B_d.gif","left","","","","",""
"","null","html-keyboard-response","68","482281","0.0-17.0-0.3","SS1613082173349","","","null","","","","","<p><img src= images/blank.png width =""200"" height = ""200"" style = ""float:right""></p><p><img src=images/blank.png width =""800"" height = ""200""></p>","","","","","","","","","","","",""
"","394.53999999386724","sequential-stimulus-presentation","69","483484","0.0-17.0-1.3","SS1613082173349","trial","","40","800","1194.5399999938672","images/stimuli/spore_stims/complex_15_A_d.gif","images/stimuli/spore_stims/complex_15_B_d.gif","","","","","3","complex_similar","images/stimuli/spore_stims/complex_15_B_d.gif","left","","","","",""
"","null","html-keyboard-response","70","484358","0.0-17.0-0.4","SS1613082173349","","","null","","","","","<p><img src= images/blank.png width =""200"" height = ""200"" style = ""float:right""></p><p><img src=images/blank.png width =""800"" height = ""200""></p>","","","","","","","","","","","",""
"","390.24000000790693","sequential-stimulus-presentation","71","485550","0.0-17.0-1.4","SS1613082173349","trial","","40","800","1190.240000007907","images/stimuli/spore_stims/complex_15_A_d.gif","images/stimuli/spore_stims/complex_15_B_d.gif","","","","","3","complex_similar","images/stimuli/spore_stims/complex_15_A_d.gif","right","","","","",""
"","null","html-keyboard-response","72","486442","0.0-17.0-0.5","SS1613082173349","","","null","","","","","<p><img src= images/blank.png width =""200"" height = ""200"" style = ""float:right""></p><p><img src=images/blank.png width =""800"" height = ""200""></p>","","","","","","","","","","","",""
"","301.1750000005122","sequential-stimulus-presentation","73","487547","0.0-17.0-1.5","SS1613082173349","trial","","40","800","1101.1750000005122","images/stimuli/spore_stims/complex_15_A_d.gif","images/stimuli/spore_stims/complex_15_B_d.gif","","","","","3","complex_similar","images/stimuli/spore_stims/complex_15_B_d.gif","left","","","","",""
"","null","html-keyboard-response","74","488464","0.0-17.0-0.6","SS1613082173349","","","null","","","","","<p><img src= images/blank.png width =""200"" height = ""200"" style = ""float:right""></p><p><img src=images/blank.png width =""800"" height = ""200""></p>","","","","","","","","","","","",""
"","272.74499999475665","sequential-stimulus-presentation","75","489541","0.0-17.0-1.6","SS1613082173349","trial","","40","800","1072.7449999947567","images/stimuli/spore_stims/complex_15_A_d.gif","images/stimuli/spore_stims/complex_15_B_d.gif","","","","","3","complex_similar","images/stimuli/spore_stims/complex_15_B_d.gif","left","","","","",""
"","null","html-keyboard-response","76","490793","0.0-17.0-0.7","SS1613082173349","","","null","","","","","<p><img src= images/blank.png width =""200"" height = ""200"" style = ""float:right""></p><p><img src=images/blank.png width =""800"" height = ""200""></p>","","","","","","","","","","","",""
"","329.3050000065705","sequential-stimulus-presentation","77","491926","0.0-17.0-1.7","SS1613082173349","trial","","40","800","1129.3050000065705","images/stimuli/spore_stims/complex_15_A_d.gif","images/stimuli/spore_stims/complex_15_B_d.gif","","","","","3","complex_similar","images/stimuli/spore_stims/complex_15_B_d.gif","left","","","","",""
"","1835.68999999261","html-keyboard-response","78","493763","0.0-18.0","SS1613082173349","pref_question","","50","","","","","<video width ='960' height = '540' style='padding-top:8%' autoplay muted><source src='images/stimuli/wall_pref.mp4' type='video/mp4'></video>","2","middle","45%","3","","","","","","","",""
"","906.9100000051549","sequential-stimulus-presentation","79","495473","0.0-19.0","SS1613082173349","pref_reveal","","40","800","1706.9100000051549","null","null","","","","","3","","","","novel","","","",""
"","null","html-keyboard-response","80","496578","0.0-20.0-0.0","SS1613082173349","","","null","","","","","<p><img src= images/blank.png width =""200"" height = ""200"" style = ""float:right""></p><p><img src=images/blank.png width =""800"" height = ""200""></p>","","","","","","","","","","","",""
"","318.58000000647735","sequential-stimulus-presentation","81","497701","0.0-20.0-1.0","SS1613082173349","trial","","40","800","1118.5800000064773","images/stimuli/spore_stims/simple_12_A_a.gif","images/stimuli/spore_stims/simple_12_B_a.gif","","","","","4","simple_similar","images/stimuli/spore_stims/simple_12_B_a.gif","middle","","","","",""
"","null","html-keyboard-response","82","498960","0.0-20.0-0.1","SS1613082173349","","","null","","","","","<p><img src= images/blank.png width =""200"" height = ""200"" style = ""float:right""></p><p><img src=images/blank.png width =""800"" height = ""200""></p>","","","","","","","","","","","",""
"","291.8550000031246","sequential-stimulus-presentation","83","500061","0.0-20.0-1.1","SS1613082173349","trial","","40","800","1091.8550000031246","images/stimuli/spore_stims/simple_12_A_a.gif","images/stimuli/spore_stims/simple_12_B_a.gif","","","","","4","simple_similar","images/stimuli/spore_stims/simple_12_B_a.gif","middle","","","","",""
"","null","html-keyboard-response","84","501242","0.0-20.0-0.2","SS1613082173349","","","null","","","","","<p><img src= images/blank.png width =""200"" height = ""200"" style = ""float:right""></p><p><img src=images/blank.png width =""800"" height = ""200""></p>","","","","","","","","","","","",""
"","289.359999995213","sequential-stimulus-presentation","85","502334","0.0-20.0-1.2","SS1613082173349","trial","","40","800","1089.359999995213","images/stimuli/spore_stims/simple_12_A_a.gif","images/stimuli/spore_stims/simple_12_B_a.gif","","","","","4","simple_similar","images/stimuli/spore_stims/simple_12_A_a.gif","left","","","","",""
"","null","html-keyboard-response","86","503461","0.0-20.0-0.3","SS1613082173349","","","null","","","","","<p><img src= images/blank.png width =""200"" height = ""200"" style = ""float:right""></p><p><img src=images/blank.png width =""800"" height = ""200""></p>","","","","","","","","","","","",""
"","196.85500000196043","sequential-stimulus-presentation","87","504462","0.0-20.0-1.3","SS1613082173349","trial","","40","800","996.8550000019604","images/stimuli/spore_stims/simple_12_A_a.gif","images/stimuli/spore_stims/simple_12_B_a.gif","","","","","4","simple_similar","images/stimuli/spore_stims/simple_12_B_a.gif","middle","","","","",""
"","null","html-keyboard-response","88","505477","0.0-20.0-0.4","SS1613082173349","","","null","","","","","<p><img src= images/blank.png width =""200"" height = ""200"" style = ""float:right""></p><p><img src=images/blank.png width =""800"" height = ""200""></p>","","","","","","","","","","","",""
"","229.68499999842606","sequential-stimulus-presentation","89","506509","0.0-20.0-1.4","SS1613082173349","trial","","40","800","1029.684999998426","images/stimuli/spore_stims/simple_12_A_a.gif","images/stimuli/spore_stims/simple_12_B_a.gif","","","","","4","simple_similar","images/stimuli/spore_stims/simple_12_B_a.gif","middle","","","","",""
"","null","html-keyboard-response","90","507318","0.0-20.0-0.5","SS1613082173349","","","null","","","","","<p><img src= images/blank.png width =""200"" height = ""200"" style = ""float:right""></p><p><img src=images/blank.png width =""800"" height = ""200""></p>","","","","","","","","","","","",""
"","316.06499999179505","sequential-stimulus-presentation","91","508444","0.0-20.0-1.5","SS1613082173349","trial","","40","800","1116.064999991795","images/stimuli/spore_stims/simple_12_A_a.gif","images/stimuli/spore_stims/simple_12_B_a.gif","","","","","4","simple_similar","images/stimuli/spore_stims/simple_12_B_a.gif","middle","","","","",""
"","null","html-keyboard-response","92","509395","0.0-20.0-0.6","SS1613082173349","","","null","","","","","<p><img src= images/blank.png width =""200"" height = ""200"" style = ""float:right""></p><p><img src=images/blank.png width =""800"" height = ""200""></p>","","","","","","","","","","","",""
"","305.3300000028685","sequential-stimulus-presentation","93","510503","0.0-20.0-1.6","SS1613082173349","trial","","40","800","1105.3300000028685","images/stimuli/spore_stims/simple_12_A_a.gif","images/stimuli/spore_stims/simple_12_B_a.gif","","","","","4","simple_similar","images/stimuli/spore_stims/simple_12_B_a.gif","middle","","","","",""
"","null","html-keyboard-response","94","511733","0.0-20.0-0.7","SS1613082173349","","","null","","","","","<p><img src= images/blank.png width =""200"" height = ""200"" style = ""float:right""></p><p><img src=images/blank.png width =""800"" height = ""200""></p>","","","","","","","","","","","",""
"","284.6200000058161","sequential-stimulus-presentation","95","512821","0.0-20.0-1.7","SS1613082173349","trial","","40","800","1084.620000005816","images/stimuli/spore_stims/simple_12_A_a.gif","images/stimuli/spore_stims/simple_12_B_a.gif","","","","","4","simple_similar","images/stimuli/spore_stims/simple_12_B_a.gif","middle","","","","",""
"","1902.47499999532","html-keyboard-response","96","514726","0.0-21.0","SS1613082173349","pref_question","","51","","","","","<video width ='960' height = '540' style='padding-top:8%' autoplay muted><source src='images/stimuli/wall_pref.mp4' type='video/mp4'></video>","3","right","66%","4","","","","","","","",""
"","532.4950000067474","sequential-stimulus-presentation","97","516067","0.0-22.0","SS1613082173349","pref_reveal","","40","800","1332.4950000067474","null","null","","","","","4","","","","novel","","","",""
"","null","html-keyboard-response","98","516942","0.0-23.0-0.0","SS1613082173349","","","null","","","","","<p><img src= images/blank.png width =""200"" height = ""200"" style = ""float:right""></p><p><img src=images/blank.png width =""800"" height = ""200""></p>","","","","","","","","","","","",""
"","243.7599999975646","sequential-stimulus-presentation","99","517990","0.0-23.0-1.0","SS1613082173349","trial","","40","800","1043.7599999975646","images/stimuli/spore_stims/simple_09_B_d.gif","images/stimuli/spore_stims/simple_10_A_b.gif","","","","","5","simple_dissimilar","images/stimuli/spore_stims/simple_10_A_b.gif","right","","","","",""
"","null","html-keyboard-response","100","519167","0.0-23.0-0.1","SS1613082173349","","","null","","","","","<p><img src= images/blank.png width =""200"" height = ""200"" style = ""float:right""></p><p><img src=images/blank.png width =""800"" height = ""200""></p>","","","","","","","","","","","",""
"","287.4299999966752","sequential-stimulus-presentation","101","520258","0.0-23.0-1.1","SS1613082173349","trial","","40","800","1087.4299999966752","images/stimuli/spore_stims/simple_09_B_d.gif","images/stimuli/spore_stims/simple_10_A_b.gif","","","","","5","simple_dissimilar","images/stimuli/spore_stims/simple_10_A_b.gif","right","","","","",""
"","null","html-keyboard-response","102","521494","0.0-23.0-0.2","SS1613082173349","","","null","","","","","<p><img src= images/blank.png width =""200"" height = ""200"" style = ""float:right""></p><p><img src=images/blank.png width =""800"" height = ""200""></p>","","","","","","","","","","","",""
"","304.759999999078","sequential-stimulus-presentation","103","522601","0.0-23.0-1.2","SS1613082173349","trial","","40","800","1104.759999999078","images/stimuli/spore_stims/simple_09_B_d.gif","images/stimuli/spore_stims/simple_10_A_b.gif","","","","","5","simple_dissimilar","images/stimuli/spore_stims/simple_10_A_b.gif","right","","","","",""
"","null","html-keyboard-response","104","523681","0.0-23.0-0.3","SS1613082173349","","","null","","","","","<p><img src= images/blank.png width =""200"" height = ""200"" style = ""float:right""></p><p><img src=images/blank.png width =""800"" height = ""200""></p>","","","","","","","","","","","",""
"","502.04999999550637","sequential-stimulus-presentation","105","524986","0.0-23.0-1.3","SS1613082173349","trial","","40","800","1302.0499999955064","images/stimuli/spore_stims/simple_09_B_d.gif","images/stimuli/spore_stims/simple_10_A_b.gif","","","","","5","simple_dissimilar","images/stimuli/spore_stims/simple_10_A_b.gif","right","","","","",""
"","null","html-keyboard-response","106","525922","0.0-23.0-0.4","SS1613082173349","","","null","","","","","<p><img src= images/blank.png width =""200"" height = ""200"" style = ""float:right""></p><p><img src=images/blank.png width =""800"" height = ""200""></p>","","","","","","","","","","","",""
"","302.2750000091037","sequential-stimulus-presentation","107","527026","0.0-23.0-1.4","SS1613082173349","trial","","40","800","1102.2750000091037","images/stimuli/spore_stims/simple_09_B_d.gif","images/stimuli/spore_stims/simple_10_A_b.gif","","","","","5","simple_dissimilar","images/stimuli/spore_stims/simple_10_A_b.gif","right","","","","",""
"","null","html-keyboard-response","108","528281","0.0-23.0-0.5","SS1613082173349","","","null","","","","","<p><img src= images/blank.png width =""200"" height = ""200"" style = ""float:right""></p><p><img src=images/blank.png width =""800"" height = ""200""></p>","","","","","","","","","","","",""
"","373.1649999972433","sequential-stimulus-presentation","109","529457","0.0-23.0-1.5","SS1613082173349","trial","","40","800","1173.1649999972433","images/stimuli/spore_stims/simple_09_B_d.gif","images/stimuli/spore_stims/simple_10_A_b.gif","","","","","5","simple_dissimilar","images/stimuli/spore_stims/simple_09_B_d.gif","left","","","","",""
"","null","html-keyboard-response","110","530649","0.0-23.0-0.6","SS1613082173349","","","null","","","","","<p><img src= images/blank.png width =""200"" height = ""200"" style = ""float:right""></p><p><img src=images/blank.png width =""800"" height = ""200""></p>","","","","","","","","","","","",""
"","336.3499999977648","sequential-stimulus-presentation","111","531788","0.0-23.0-1.6","SS1613082173349","trial","","40","800","1136.3499999977648","images/stimuli/spore_stims/simple_09_B_d.gif","images/stimuli/spore_stims/simple_10_A_b.gif","","","","","5","simple_dissimilar","images/stimuli/spore_stims/simple_10_A_b.gif","right","","","","",""
"","null","html-keyboard-response","112","532634","0.0-23.0-0.7","SS1613082173349","","","null","","","","","<p><img src= images/blank.png width =""200"" height = ""200"" style = ""float:right""></p><p><img src=images/blank.png width =""800"" height = ""200""></p>","","","","","","","","","","","",""
"","573.420000000624","sequential-stimulus-presentation","113","534012","0.0-23.0-1.7","SS1613082173349","trial","","40","800","1373.420000000624","images/stimuli/spore_stims/simple_09_B_d.gif","images/stimuli/spore_stims/simple_10_A_b.gif","","","","","5","simple_dissimilar","images/stimuli/spore_stims/simple_10_A_b.gif","right","","","","",""
"","2684.464999998454","html-keyboard-response","114","536699","0.0-24.0","SS1613082173349","pref_question","","50","","","","","<video width ='960' height = '540' style='padding-top:8%' autoplay muted><source src='images/stimuli/wall_pref.mp4' type='video/mp4'></video>","2","middle","45%","5","","","","","","","",""
"","740.975000007893","sequential-stimulus-presentation","115","538243","0.0-25.0","SS1613082173349","pref_reveal","","40","800","1540.975000007893","null","null","","","","","5","","","","novel","","","",""
"","null","html-keyboard-response","116","539247","0.0-26.0-0.0","SS1613082173349","","","null","","","","","<p><img src= images/blank.png width =""200"" height = ""200"" style = ""float:right""></p><p><img src=images/blank.png width =""800"" height = ""200""></p>","","","","","","","","","","","",""
"","209.86999999149702","sequential-stimulus-presentation","117","540260","0.0-26.0-1.0","SS1613082173349","trial","","40","800","1009.869999991497","images/stimuli/spore_stims/simple_05_B_c.gif","images/stimuli/spore_stims/simple_05_A_c.gif","","","","","6","simple_similar","images/stimuli/spore_stims/simple_05_A_c.gif","right","","","","",""
"","null","html-keyboard-response","118","541233","0.0-26.0-0.1","SS1613082173349","","","null","","","","","<p><img src= images/blank.png width =""200"" height = ""200"" style = ""float:right""></p><p><img src=images/blank.png width =""800"" height = ""200""></p>","","","","","","","","","","","",""
"","318.14000000304077","sequential-stimulus-presentation","119","542365","0.0-26.0-1.1","SS1613082173349","trial","","40","800","1118.1400000030408","images/stimuli/spore_stims/simple_05_B_c.gif","images/stimuli/spore_stims/simple_05_A_c.gif","","","","","6","simple_similar","images/stimuli/spore_stims/simple_05_A_c.gif","right","","","","",""
"","null","html-keyboard-response","120","543190","0.0-26.0-0.2","SS1613082173349","","","null","","","","","<p><img src= images/blank.png width =""200"" height = ""200"" style = ""float:right""></p><p><img src=images/blank.png width =""800"" height = ""200""></p>","","","","","","","","","","","",""
"","316.5700000099605","sequential-stimulus-presentation","121","544310","0.0-26.0-1.2","SS1613082173349","trial","","40","800","1116.5700000099605","images/stimuli/spore_stims/simple_05_B_c.gif","images/stimuli/spore_stims/simple_05_A_c.gif","","","","","6","simple_similar","images/stimuli/spore_stims/simple_05_A_c.gif","right","","","","",""
"","null","html-keyboard-response","122","545537","0.0-26.0-0.3","SS1613082173349","","","null","","","","","<p><img src= images/blank.png width =""200"" height = ""200"" style = ""float:right""></p><p><img src=images/blank.png width =""800"" height = ""200""></p>","","","","","","","","","","","",""
"","292.0849999936763","sequential-stimulus-presentation","123","546633","0.0-26.0-1.3","SS1613082173349","trial","","40","800","1092.0849999936763","images/stimuli/spore_stims/simple_05_B_c.gif","images/stimuli/spore_stims/simple_05_A_c.gif","","","","","6","simple_similar","images/stimuli/spore_stims/simple_05_B_c.gif","middle","","","","",""
"","null","html-keyboard-response","124","547544","0.0-26.0-0.4","SS1613082173349","","","null","","","","","<p><img src= images/blank.png width =""200"" height = ""200"" style = ""float:right""></p><p><img src=images/blank.png width =""800"" height = ""200""></p>","","","","","","","","","","","",""
"","283.0050000047777","sequential-stimulus-presentation","125","548630","0.0-26.0-1.4","SS1613082173349","trial","","40","800","1083.0050000047777","images/stimuli/spore_stims/simple_05_B_c.gif","images/stimuli/spore_stims/simple_05_A_c.gif","","","","","6","simple_similar","images/stimuli/spore_stims/simple_05_A_c.gif","right","","","","",""
"","null","html-keyboard-response","126","549561","0.0-26.0-0.5","SS1613082173349","","","null","","","","","<p><img src= images/blank.png width =""200"" height = ""200"" style = ""float:right""></p><p><img src=images/blank.png width =""800"" height = ""200""></p>","","","","","","","","","","","",""
"","294.2499999917345","sequential-stimulus-presentation","127","550658","0.0-26.0-1.5","SS1613082173349","trial","","40","800","1094.2499999917345","images/stimuli/spore_stims/simple_05_B_c.gif","images/stimuli/spore_stims/simple_05_A_c.gif","","","","","6","simple_similar","images/stimuli/spore_stims/simple_05_A_c.gif","right","","","","",""
"","null","html-keyboard-response","128","551916","0.0-26.0-0.6","SS1613082173349","","","null","","","","","<p><img src= images/blank.png width =""200"" height = ""200"" style = ""float:right""></p><p><img src=images/blank.png width =""800"" height = ""200""></p>","","","","","","","","","","","",""
"","322.7349999942817","sequential-stimulus-presentation","129","553043","0.0-26.0-1.6","SS1613082173349","trial","","40","800","1122.7349999942817","images/stimuli/spore_stims/simple_05_B_c.gif","images/stimuli/spore_stims/simple_05_A_c.gif","","","","","6","simple_similar","images/stimuli/spore_stims/simple_05_A_c.gif","right","","","","",""
"","null","html-keyboard-response","130","554058","0.0-26.0-0.7","SS1613082173349","","","null","","","","","<p><img src= images/blank.png width =""200"" height = ""200"" style = ""float:right""></p><p><img src=images/blank.png width =""800"" height = ""200""></p>","","","","","","","","","","","",""
"","409.6350000036182","sequential-stimulus-presentation","131","555272","0.0-26.0-1.7","SS1613082173349","trial","","40","800","1209.6350000036182","images/stimuli/spore_stims/simple_05_B_c.gif","images/stimuli/spore_stims/simple_05_A_c.gif","","","","","6","simple_similar","images/stimuli/spore_stims/simple_05_A_c.gif","right","","","","",""
"","1583.1950000138022","html-keyboard-response","132","556858","0.0-27.0","SS1613082173349","pref_question","","49","","","","","<video width ='960' height = '540' style='padding-top:8%' autoplay muted><source src='images/stimuli/wall_pref.mp4' type='video/mp4'></video>","1","left","25%","6","","","","","","","",""
"","1867.7049999969313","sequential-stimulus-presentation","133","559529","0.0-28.0","SS1613082173349","pref_reveal","","40","800","2667.7049999969313","null","null","","","","","6","","","","novel","","","",""
"","null","html-keyboard-response","134","560718","0.0-29.0-0.0","SS1613082173349","","","null","","","","","<p><img src= images/blank.png width =""200"" height = ""200"" style = ""float:right""></p><p><img src=images/blank.png width =""800"" height = ""200""></p>","","","","","","","","","","","",""
"","266.6949999984354","sequential-stimulus-presentation","135","561788","0.0-29.0-1.0","SS1613082173349","trial","","40","800","1066.6949999984354","images/stimuli/spore_stims/complex_13_A_a.gif","images/stimuli/spore_stims/complex_13_B_a.gif","","","","","7","complex_similar","images/stimuli/spore_stims/complex_13_B_a.gif","left","","","","",""
"","null","html-keyboard-response","136","562752","0.0-29.0-0.1","SS1613082173349","","","null","","","","","<p><img src= images/blank.png width =""200"" height = ""200"" style = ""float:right""></p><p><img src=images/blank.png width =""800"" height = ""200""></p>","","","","","","","","","","","",""
"","194.38499999523629","sequential-stimulus-presentation","137","563750","0.0-29.0-1.1","SS1613082173349","trial","","40","800","994.3849999952363","images/stimuli/spore_stims/complex_13_A_a.gif","images/stimuli/spore_stims/complex_13_B_a.gif","","","","","7","complex_similar","images/stimuli/spore_stims/complex_13_B_a.gif","left","","","","",""
"","null","html-keyboard-response","138","564885","0.0-29.0-0.2","SS1613082173349","","","null","","","","","<p><img src= images/blank.png width =""200"" height = ""200"" style = ""float:right""></p><p><img src=images/blank.png width =""800"" height = ""200""></p>","","","","","","","","","","","",""
"","247.34499999613035","sequential-stimulus-presentation","139","565944","0.0-29.0-1.2","SS1613082173349","trial","","40","800","1047.3449999961304","images/stimuli/spore_stims/complex_13_A_a.gif","images/stimuli/spore_stims/complex_13_B_a.gif","","","","","7","complex_similar","images/stimuli/spore_stims/complex_13_B_a.gif","left","","","","",""
"","null","html-keyboard-response","140","566984","0.0-29.0-0.3","SS1613082173349","","","null","","","","","<p><img src= images/blank.png width =""200"" height = ""200"" style = ""float:right""></p><p><img src=images/blank.png width =""800"" height = ""200""></p>","","","","","","","","","","","",""
"","417.75500000221655","sequential-stimulus-presentation","141","568205","0.0-29.0-1.3","SS1613082173349","trial","","40","800","1217.7550000022165","images/stimuli/spore_stims/complex_13_A_a.gif","images/stimuli/spore_stims/complex_13_B_a.gif","","","","","7","complex_similar","images/stimuli/spore_stims/complex_13_A_a.gif","middle","","","","",""
"","null","html-keyboard-response","142","569071","0.0-29.0-0.4","SS1613082173349","","","null","","","","","<p><img src= images/blank.png width =""200"" height = ""200"" style = ""float:right""></p><p><img src=images/blank.png width =""800"" height = ""200""></p>","","","","","","","","","","","",""
"","681.8300000013551","sequential-stimulus-presentation","143","570556","0.0-29.0-1.4","SS1613082173349","trial","","40","800","1481.830000001355","images/stimuli/spore_stims/complex_13_A_a.gif","images/stimuli/spore_stims/complex_13_B_a.gif","","","","","7","complex_similar","images/stimuli/spore_stims/complex_13_B_a.gif","left","","","","",""
"","null","html-keyboard-response","144","571422","0.0-29.0-0.5","SS1613082173349","","","null","","","","","<p><img src= images/blank.png width =""200"" height = ""200"" style = ""float:right""></p><p><img src=images/blank.png width =""800"" height = ""200""></p>","","","","","","","","","","","",""
"","251.05999999505002","sequential-stimulus-presentation","145","572477","0.0-29.0-1.5","SS1613082173349","trial","","40","800","1051.05999999505","images/stimuli/spore_stims/complex_13_A_a.gif","images/stimuli/spore_stims/complex_13_B_a.gif","","","","","7","complex_similar","images/stimuli/spore_stims/complex_13_B_a.gif","left","","","","",""
"","null","html-keyboard-response","146","573494","0.0-29.0-0.6","SS1613082173349","","","null","","","","","<p><img src= images/blank.png width =""200"" height = ""200"" style = ""float:right""></p><p><img src=images/blank.png width =""800"" height = ""200""></p>","","","","","","","","","","","",""
"","324.24999999057036","sequential-stimulus-presentation","147","574622","0.0-29.0-1.6","SS1613082173349","trial","","40","800","1124.2499999905704","images/stimuli/spore_stims/complex_13_A_a.gif","images/stimuli/spore_stims/complex_13_B_a.gif","","","","","7","complex_similar","images/stimuli/spore_stims/complex_13_B_a.gif","left","","","","",""
"","null","html-keyboard-response","148","575867","0.0-29.0-0.7","SS1613082173349","","","null","","","","","<p><img src= images/blank.png width =""200"" height = ""200"" style = ""float:right""></p><p><img src=images/blank.png width =""800"" height = ""200""></p>","","","","","","","","","","","",""
"","230.7650000002468","sequential-stimulus-presentation","149","576901","0.0-29.0-1.7","SS1613082173349","trial","","40","800","1030.7650000002468","images/stimuli/spore_stims/complex_13_A_a.gif","images/stimuli/spore_stims/complex_13_B_a.gif","","","","","7","complex_similar","images/stimuli/spore_stims/complex_13_B_a.gif","left","","","","",""
"","1588.9100000058534","html-keyboard-response","150","578493","0.0-30.0","SS1613082173349","pref_question","","50","","","","","<video width ='960' height = '540' style='padding-top:8%' autoplay muted><source src='images/stimuli/wall_pref.mp4' type='video/mp4'></video>","2","middle","45%","7","","","","","","","",""
"","730.4800000129035","sequential-stimulus-presentation","151","580028","0.0-31.0","SS1613082173349","pref_reveal","","40","800","1530.4800000129035","null","null","","","","","7","","","","deviant","","","",""
"","null","html-keyboard-response","152","580883","0.0-32.0-0.0","SS1613082173349","","","null","","","","","<p><img src= images/blank.png width =""200"" height = ""200"" style = ""float:right""></p><p><img src=images/blank.png width =""800"" height = ""200""></p>","","","","","","","","","","","",""
"","220.05000000353903","sequential-stimulus-presentation","153","581906","0.0-32.0-1.0","SS1613082173349","trial","","40","800","1020.050000003539","images/stimuli/spore_stims/simple_10_A_d.gif","images/stimuli/spore_stims/simple_10_B_d.gif","","","","","8","simple_similar","images/stimuli/spore_stims/simple_10_B_d.gif","right","","","","",""
"","null","html-keyboard-response","154","582903","0.0-32.0-0.1","SS1613082173349","","","null","","","","","<p><img src= images/blank.png width =""200"" height = ""200"" style = ""float:right""></p><p><img src=images/blank.png width =""800"" height = ""200""></p>","","","","","","","","","","","",""
"","165.31500000564847","sequential-stimulus-presentation","155","583878","0.0-32.0-1.1","SS1613082173349","trial","","40","800","965.3150000056485","images/stimuli/spore_stims/simple_10_A_d.gif","images/stimuli/spore_stims/simple_10_B_d.gif","","","","","8","simple_similar","images/stimuli/spore_stims/simple_10_B_d.gif","right","","","","",""
"","null","html-keyboard-response","156","585109","0.0-32.0-0.2","SS1613082173349","","","null","","","","","<p><img src= images/blank.png width =""200"" height = ""200"" style = ""float:right""></p><p><img src=images/blank.png width =""800"" height = ""200""></p>","","","","","","","","","","","",""
"","160.1399999926798","sequential-stimulus-presentation","157","586074","0.0-32.0-1.2","SS1613082173349","trial","","40","800","960.1399999926798","images/stimuli/spore_stims/simple_10_A_d.gif","images/stimuli/spore_stims/simple_10_B_d.gif","","","","","8","simple_similar","images/stimuli/spore_stims/simple_10_B_d.gif","right","","","","",""
"","null","html-keyboard-response","158","587248","0.0-32.0-0.3","SS1613082173349","","","null","","","","","<p><img src= images/blank.png width =""200"" height = ""200"" style = ""float:right""></p><p><img src=images/blank.png width =""800"" height = ""200""></p>","","","","","","","","","","","",""
"","312.1699999901466","sequential-stimulus-presentation","159","588364","0.0-32.0-1.3","SS1613082173349","trial","","40","800","1112.1699999901466","images/stimuli/spore_stims/simple_10_A_d.gif","images/stimuli/spore_stims/simple_10_B_d.gif","","","","","8","simple_similar","images/stimuli/spore_stims/simple_10_B_d.gif","right","","","","",""
"","null","html-keyboard-response","160","589216","0.0-32.0-0.4","SS1613082173349","","","null","","","","","<p><img src= images/blank.png width =""200"" height = ""200"" style = ""float:right""></p><p><img src=images/blank.png width =""800"" height = ""200""></p>","","","","","","","","","","","",""
"","203.41000000189524","sequential-stimulus-presentation","161","590223","0.0-32.0-1.4","SS1613082173349","trial","","40","800","1003.4100000018952","images/stimuli/spore_stims/simple_10_A_d.gif","images/stimuli/spore_stims/simple_10_B_d.gif","","","","","8","simple_similar","images/stimuli/spore_stims/simple_10_B_d.gif","right","","","","",""
"","null","html-keyboard-response","162","591044","0.0-32.0-0.5","SS1613082173349","","","null","","","","","<p><img src= images/blank.png width =""200"" height = ""200"" style = ""float:right""></p><p><img src=images/blank.png width =""800"" height = ""200""></p>","","","","","","","","","","","",""
"","161.4300000073854","sequential-stimulus-presentation","163","592009","0.0-32.0-1.5","SS1613082173349","trial","","40","800","961.4300000073854","images/stimuli/spore_stims/simple_10_A_d.gif","images/stimuli/spore_stims/simple_10_B_d.gif","","","","","8","simple_similar","images/stimuli/spore_stims/simple_10_B_d.gif","right","","","","",""
"","null","html-keyboard-response","164","593101","0.0-32.0-0.6","SS1613082173349","","","null","","","","","<p><img src= images/blank.png width =""200"" height = ""200"" style = ""float:right""></p><p><img src=images/blank.png width =""800"" height = ""200""></p>","","","","","","","","","","","",""
"","211.11999999266118","sequential-stimulus-presentation","165","594116","0.0-32.0-1.6","SS1613082173349","trial","","40","800","1011.1199999926612","images/stimuli/spore_stims/simple_10_A_d.gif","images/stimuli/spore_stims/simple_10_B_d.gif","","","","","8","simple_similar","images/stimuli/spore_stims/simple_10_A_d.gif","left","","","","",""
"","null","html-keyboard-response","166","595016","0.0-32.0-0.7","SS1613082173349","","","null","","","","","<p><img src= images/blank.png width =""200"" height = ""200"" style = ""float:right""></p><p><img src=images/blank.png width =""800"" height = ""200""></p>","","","","","","","","","","","",""
"","231.84500000206754","sequential-stimulus-presentation","167","596056","0.0-32.0-1.7","SS1613082173349","trial","","40","800","1031.8450000020675","images/stimuli/spore_stims/simple_10_A_d.gif","images/stimuli/spore_stims/simple_10_B_d.gif","","","","","8","simple_similar","images/stimuli/spore_stims/simple_10_B_d.gif","right","","","","",""
"","2031.1099999962607","html-keyboard-response","168","598090","0.0-33.0","SS1613082173349","pref_question","","50","","","","","<video width ='960' height = '540' style='padding-top:8%' autoplay muted><source src='images/stimuli/wall_pref.mp4' type='video/mp4'></video>","2","middle","45%","8","","","","","","","",""
"","970.1700000005076","sequential-stimulus-presentation","169","599865","0.0-34.0","SS1613082173349","pref_reveal","","40","800","1770.1700000005076","null","null","","","","","8","","","","novel","","","",""
"","null","html-keyboard-response","170","600810","0.0-35.0-0.0","SS1613082173349","","","null","","","","","<p><img src= images/blank.png width =""200"" height = ""200"" style = ""float:right""></p><p><img src=images/blank.png width =""800"" height = ""200""></p>","","","","","","","","","","","",""
"","303.71499998727813","sequential-stimulus-presentation","171","601919","0.0-35.0-1.0","SS1613082173349","trial","","40","800","1103.7149999872781","images/stimuli/spore_stims/simple_01_A_c.gif","images/stimuli/spore_stims/simple_14_B_c.gif","","","","","9","simple_dissimilar","images/stimuli/spore_stims/simple_14_B_c.gif","middle","","","","",""
"","null","html-keyboard-response","172","602889","0.0-35.0-0.1","SS1613082173349","","","null","","","","","<p><img src= images/blank.png width =""200"" height = ""200"" style = ""float:right""></p><p><img src=images/blank.png width =""800"" height = ""200""></p>","","","","","","","","","","","",""
"","133.2399999955669","sequential-stimulus-presentation","173","603826","0.0-35.0-1.1","SS1613082173349","trial","","40","800","933.2399999955669","images/stimuli/spore_stims/simple_01_A_c.gif","images/stimuli/spore_stims/simple_14_B_c.gif","","","","","9","simple_dissimilar","images/stimuli/spore_stims/simple_14_B_c.gif","middle","","","","",""
"","null","html-keyboard-response","174","605069","0.0-35.0-0.2","SS1613082173349","","","null","","","","","<p><img src= images/blank.png width =""200"" height = ""200"" style = ""float:right""></p><p><img src=images/blank.png width =""800"" height = ""200""></p>","","","","","","","","","","","",""
"","210.47000000544358","sequential-stimulus-presentation","175","606088","0.0-35.0-1.2","SS1613082173349","trial","","40","800","1010.4700000054436","images/stimuli/spore_stims/simple_01_A_c.gif","images/stimuli/spore_stims/simple_14_B_c.gif","","","","","9","simple_dissimilar","images/stimuli/spore_stims/simple_14_B_c.gif","middle","","","","",""
"","null","html-keyboard-response","176","607062","0.0-35.0-0.3","SS1613082173349","","","null","","","","","<p><img src= images/blank.png width =""200"" height = ""200"" style = ""float:right""></p><p><img src=images/blank.png width =""800"" height = ""200""></p>","","","","","","","","","","","",""
"","234.23000000184402","sequential-stimulus-presentation","177","608100","0.0-35.0-1.3","SS1613082173349","trial","","40","800","1034.230000001844","images/stimuli/spore_stims/simple_01_A_c.gif","images/stimuli/spore_stims/simple_14_B_c.gif","","","","","9","simple_dissimilar","images/stimuli/spore_stims/simple_14_B_c.gif","middle","","","","",""
"","null","html-keyboard-response","178","608970","0.0-35.0-0.4","SS1613082173349","","","null","","","","","<p><img src= images/blank.png width =""200"" height = ""200"" style = ""float:right""></p><p><img src=images/blank.png width =""800"" height = ""200""></p>","","","","","","","","","","","",""
"","177.5000000052387","sequential-stimulus-presentation","179","609952","0.0-35.0-1.4","SS1613082173349","trial","","40","800","977.5000000052387","images/stimuli/spore_stims/simple_01_A_c.gif","images/stimuli/spore_stims/simple_14_B_c.gif","","","","","9","simple_dissimilar","images/stimuli/spore_stims/simple_01_A_c.gif","left","","","","",""
"","null","html-keyboard-response","180","611015","0.0-35.0-0.5","SS1613082173349","","","null","","","","","<p><img src= images/blank.png width =""200"" height = ""200"" style = ""float:right""></p><p><img src=images/blank.png width =""800"" height = ""200""></p>","","","","","","","","","","","",""
"","175.73499999707565","sequential-stimulus-presentation","181","612002","0.0-35.0-1.5","SS1613082173349","trial","","40","800","975.7349999970756","images/stimuli/spore_stims/simple_01_A_c.gif","images/stimuli/spore_stims/simple_14_B_c.gif","","","","","9","simple_dissimilar","images/stimuli/spore_stims/simple_14_B_c.gif","middle","","","","",""
"","null","html-keyboard-response","182","613028","0.0-35.0-0.6","SS1613082173349","","","null","","","","","<p><img src= images/blank.png width =""200"" height = ""200"" style = ""float:right""></p><p><img src=images/blank.png width =""800"" height = ""200""></p>","","","","","","","","","","","",""
"","214.87499999057036","sequential-stimulus-presentation","183","614047","0.0-35.0-1.6","SS1613082173349","trial","","40","800","1014.8749999905704","images/stimuli/spore_stims/simple_01_A_c.gif","images/stimuli/spore_stims/simple_14_B_c.gif","","","","","9","simple_dissimilar","images/stimuli/spore_stims/simple_14_B_c.gif","middle","","","","",""
"","null","html-keyboard-response","184","615115","0.0-35.0-0.7","SS1613082173349","","","null","","","","","<p><img src= images/blank.png width =""200"" height = ""200"" style = ""float:right""></p><p><img src=images/blank.png width =""800"" height = ""200""></p>","","","","","","","","","","","",""
"","191.16000000212807","sequential-stimulus-presentation","185","616109","0.0-35.0-1.7","SS1613082173349","trial","","40","800","991.1600000021281","images/stimuli/spore_stims/simple_01_A_c.gif","images/stimuli/spore_stims/simple_14_B_c.gif","","","","","9","simple_dissimilar","images/stimuli/spore_stims/simple_14_B_c.gif","middle","","","","",""
"","6609.089999998105","html-keyboard-response","186","622721","0.0-36.0","SS1613082173349","pref_question","","50","","","","","<video width ='960' height = '540' style='padding-top:8%' autoplay muted><source src='images/stimuli/wall_pref.mp4' type='video/mp4'></video>","2","middle","45%","9","","","","","","","",""
"","1606.964999999036","sequential-stimulus-presentation","187","625133","0.0-37.0","SS1613082173349","pref_reveal","","40","800","2406.964999999036","null","null","","","","","9","","","","background","","","",""
"","null","html-keyboard-response","188","626134","0.0-38.0-0.0","SS1613082173349","","","null","","","","","<p><img src= images/blank.png width =""200"" height = ""200"" style = ""float:right""></p><p><img src=images/blank.png width =""800"" height = ""200""></p>","","","","","","","","","","","",""
"","1187.4449999886565","sequential-stimulus-presentation","189","628125","0.0-38.0-1.0","SS1613082173349","trial","","40","800","1987.4449999886565","images/stimuli/spore_stims/simple_18_A_d.gif","images/stimuli/spore_stims/simple_18_B_d.gif","","","","","10","simple_similar","images/stimuli/spore_stims/simple_18_B_d.gif","right","","","","",""
"","null","html-keyboard-response","190","628978","0.0-38.0-0.1","SS1613082173349","","","null","","","","","<p><img src= images/blank.png width =""200"" height = ""200"" style = ""float:right""></p><p><img src=images/blank.png width =""800"" height = ""200""></p>","","","","","","","","","","","",""
"","263.1600000022445","sequential-stimulus-presentation","191","630046","0.0-38.0-1.1","SS1613082173349","trial","","40","800","1063.1600000022445","images/stimuli/spore_stims/simple_18_A_d.gif","images/stimuli/spore_stims/simple_18_B_d.gif","","","","","10","simple_similar","images/stimuli/spore_stims/simple_18_B_d.gif","right","","","","",""
"","null","html-keyboard-response","192","631050","0.0-38.0-0.2","SS1613082173349","","","null","","","","","<p><img src= images/blank.png width =""200"" height = ""200"" style = ""float:right""></p><p><img src=images/blank.png width =""800"" height = ""200""></p>","","","","","","","","","","","",""
"","18121.240000007674","sequential-stimulus-presentation","193","649976","0.0-38.0-1.2","SS1613082173349","trial","","40","800","18921.240000007674","images/stimuli/spore_stims/simple_18_A_d.gif","images/stimuli/spore_stims/simple_18_B_d.gif","","","","","10","simple_similar","images/stimuli/spore_stims/simple_18_B_d.gif","right","","","","",""
"","null","html-keyboard-response","194","650829","0.0-38.0-0.3","SS1613082173349","","","null","","","","","<p><img src= images/blank.png width =""200"" height = ""200"" style = ""float:right""></p><p><img src=images/blank.png width =""800"" height = ""200""></p>","","","","","","","","","","","",""
"","385.3999999992084","sequential-stimulus-presentation","195","652019","0.0-38.0-1.3","SS1613082173349","trial","","40","800","1185.3999999992084","images/stimuli/spore_stims/simple_18_A_d.gif","images/stimuli/spore_stims/simple_18_B_d.gif","","","","","10","simple_similar","images/stimuli/spore_stims/simple_18_A_d.gif","middle","","","","",""
"","null","html-keyboard-response","196","653124","0.0-38.0-0.4","SS1613082173349","","","null","","","","","<p><img src= images/blank.png width =""200"" height = ""200"" style = ""float:right""></p><p><img src=images/blank.png width =""800"" height = ""200""></p>","","","","","","","","","","","",""
"","328.32000000053085","sequential-stimulus-presentation","197","654256","0.0-38.0-1.4","SS1613082173349","trial","","40","800","1128.3200000005309","images/stimuli/spore_stims/simple_18_A_d.gif","images/stimuli/spore_stims/simple_18_B_d.gif","","","","","10","simple_similar","images/stimuli/spore_stims/simple_18_B_d.gif","right","","","","",""
"","null","html-keyboard-response","198","655197","0.0-38.0-0.5","SS1613082173349","","","null","","","","","<p><img src= images/blank.png width =""200"" height = ""200"" style = ""float:right""></p><p><img src=images/blank.png width =""800"" height = ""200""></p>","","","","","","","","","","","",""
"","280.8750000112923","sequential-stimulus-presentation","199","656283","0.0-38.0-1.5","SS1613082173349","trial","","40","800","1080.8750000112923","images/stimuli/spore_stims/simple_18_A_d.gif","images/stimuli/spore_stims/simple_18_B_d.gif","","","","","10","simple_similar","images/stimuli/spore_stims/simple_18_B_d.gif","right","","","","",""
"","null","html-keyboard-response","200","657223","0.0-38.0-0.6","SS1613082173349","","","null","","","","","<p><img src= images/blank.png width =""200"" height = ""200"" style = ""float:right""></p><p><img src=images/blank.png width =""800"" height = ""200""></p>","","","","","","","","","","","",""
"","297.3700000002282","sequential-stimulus-presentation","201","658324","0.0-38.0-1.6","SS1613082173349","trial","","40","800","1097.3700000002282","images/stimuli/spore_stims/simple_18_A_d.gif","images/stimuli/spore_stims/simple_18_B_d.gif","","","","","10","simple_similar","images/stimuli/spore_stims/simple_18_B_d.gif","right","","","","",""
"","null","html-keyboard-response","202","659461","0.0-38.0-0.7","SS1613082173349","","","null","","","","","<p><img src= images/blank.png width =""200"" height = ""200"" style = ""float:right""></p><p><img src=images/blank.png width =""800"" height = ""200""></p>","","","","","","","","","","","",""
"","290.5250000039814","sequential-stimulus-presentation","203","660557","0.0-38.0-1.7","SS1613082173349","trial","","40","800","1090.5250000039814","images/stimuli/spore_stims/simple_18_A_d.gif","images/stimuli/spore_stims/simple_18_B_d.gif","","","","","10","simple_similar","images/stimuli/spore_stims/simple_18_B_d.gif","right","","","","",""
"","1454.4449999957578","html-keyboard-response","204","662014","0.0-39.0","SS1613082173349","pref_question","","49","","","","","<video width ='960' height = '540' style='padding-top:8%' autoplay muted><source src='images/stimuli/wall_pref.mp4' type='video/mp4'></video>","1","left","25%","10","","","","","","","",""
"","539.2500000016298","sequential-stimulus-presentation","205","663359","0.0-40.0","SS1613082173349","pref_reveal","","40","800","1339.2500000016298","null","null","","","","","10","","","","novel","","","",""
"","null","html-keyboard-response","206","664504","0.0-41.0-0.0","SS1613082173349","","","null","","","","","<p><img src= images/blank.png width =""200"" height = ""200"" style = ""float:right""></p><p><img src=images/blank.png width =""800"" height = ""200""></p>","","","","","","","","","","","",""
"","173.03000000538304","sequential-stimulus-presentation","207","665482","0.0-41.0-1.0","SS1613082173349","trial","","40","800","973.030000005383","images/stimuli/spore_stims/complex_10_B_a.gif","images/stimuli/spore_stims/complex_10_A_a.gif","","","","","11","complex_similar","images/stimuli/spore_stims/complex_10_A_a.gif","left","","","","",""
"","null","html-keyboard-response","208","666734","0.0-41.0-0.1","SS1613082173349","","","null","","","","","<p><img src= images/blank.png width =""200"" height = ""200"" style = ""float:right""></p><p><img src=images/blank.png width =""800"" height = ""200""></p>","","","","","","","","","","","",""
"","159.66499999922235","sequential-stimulus-presentation","209","667698","0.0-41.0-1.1","SS1613082173349","trial","","40","800","959.6649999992223","images/stimuli/spore_stims/complex_10_B_a.gif","images/stimuli/spore_stims/complex_10_A_a.gif","","","","","11","complex_similar","images/stimuli/spore_stims/complex_10_A_a.gif","left","","","","",""
"","null","html-keyboard-response","210","668814","0.0-41.0-0.2","SS1613082173349","","","null","","","","","<p><img src= images/blank.png width =""200"" height = ""200"" style = ""float:right""></p><p><img src=images/blank.png width =""800"" height = ""200""></p>","","","","","","","","","","","",""
"","162.01499999442603","sequential-stimulus-presentation","211","669780","0.0-41.0-1.2","SS1613082173349","trial","","40","800","962.014999994426","images/stimuli/spore_stims/complex_10_B_a.gif","images/stimuli/spore_stims/complex_10_A_a.gif","","","","","11","complex_similar","images/stimuli/spore_stims/complex_10_A_a.gif","left","","","","",""
"","null","html-keyboard-response","212","670935","0.0-41.0-0.3","SS1613082173349","","","null","","","","","<p><img src= images/blank.png width =""200"" height = ""200"" style = ""float:right""></p><p><img src=images/blank.png width =""800"" height = ""200""></p>","","","","","","","","","","","",""
"","185.37500000093132","sequential-stimulus-presentation","213","671924","0.0-41.0-1.3","SS1613082173349","trial","","40","800","985.3750000009313","images/stimuli/spore_stims/complex_10_B_a.gif","images/stimuli/spore_stims/complex_10_A_a.gif","","","","","11","complex_similar","images/stimuli/spore_stims/complex_10_B_a.gif","middle","","","","",""
"","null","html-keyboard-response","214","672916","0.0-41.0-0.4","SS1613082173349","","","null","","","","","<p><img src= images/blank.png width =""200"" height = ""200"" style = ""float:right""></p><p><img src=images/blank.png width =""800"" height = ""200""></p>","","","","","","","","","","","",""
"","363.34999999962747","sequential-stimulus-presentation","215","674084","0.0-41.0-1.4","SS1613082173349","trial","","40","800","1163.3499999996275","images/stimuli/spore_stims/complex_10_B_a.gif","images/stimuli/spore_stims/complex_10_A_a.gif","","","","","11","complex_similar","images/stimuli/spore_stims/complex_10_A_a.gif","left","","","","",""
"","null","html-keyboard-response","216","674919","0.0-41.0-0.5","SS1613082173349","","","null","","","","","<p><img src= images/blank.png width =""200"" height = ""200"" style = ""float:right""></p><p><img src=images/blank.png width =""800"" height = ""200""></p>","","","","","","","","","","","",""
"","10.125000000698492","sequential-stimulus-presentation","217","675740","0.0-41.0-1.5","SS1613082173349","trial","","40","800","810.1250000006985","images/stimuli/spore_stims/complex_10_B_a.gif","images/stimuli/spore_stims/complex_10_A_a.gif","","","","","11","complex_similar","images/stimuli/spore_stims/complex_10_A_a.gif","left","","","","",""
"","null","html-keyboard-response","218","676973","0.0-41.0-0.6","SS1613082173349","","","null","","","","","<p><img src= images/blank.png width =""200"" height = ""200"" style = ""float:right""></p><p><img src=images/blank.png width =""800"" height = ""200""></p>","","","","","","","","","","","",""
"","206.54499999363907","sequential-stimulus-presentation","219","677984","0.0-41.0-1.6","SS1613082173349","trial","","40","800","1006.5449999936391","images/stimuli/spore_stims/complex_10_B_a.gif","images/stimuli/spore_stims/complex_10_A_a.gif","","","","","11","complex_similar","images/stimuli/spore_stims/complex_10_A_a.gif","left","","","","",""
"","null","html-keyboard-response","220","679170","0.0-41.0-0.7","SS1613082173349","","","null","","","","","<p><img src= images/blank.png width =""200"" height = ""200"" style = ""float:right""></p><p><img src=images/blank.png width =""800"" height = ""200""></p>","","","","","","","","","","","",""
"","1666.6850000037812","sequential-stimulus-presentation","221","681642","0.0-41.0-1.7","SS1613082173349","trial","","40","800","2466.685000003781","images/stimuli/spore_stims/complex_10_B_a.gif","images/stimuli/spore_stims/complex_10_A_a.gif","","","","","11","complex_similar","images/stimuli/spore_stims/complex_10_A_a.gif","left","","","","",""
"","4896.760000003269","html-keyboard-response","222","686541","0.0-42.0","SS1613082173349","pref_question","","51","","","","","<video width ='960' height = '540' style='padding-top:8%' autoplay muted><source src='images/stimuli/wall_pref.mp4' type='video/mp4'></video>","3","right","66%","11","","","","","","","",""
"","3554.149999996298","sequential-stimulus-presentation","223","690900","0.0-43.0","SS1613082173349","pref_reveal","","40","800","4354.149999996298","null","null","","","","","11","","","","novel","","","",""
"","null","html-keyboard-response","224","692120","0.0-44.0-0.0","SS1613082173349","","","null","","","","","<p><img src= images/blank.png width =""200"" height = ""200"" style = ""float:right""></p><p><img src=images/blank.png width =""800"" height = ""200""></p>","","","","","","","","","","","",""
"","396.4200000045821","sequential-stimulus-presentation","225","693321","0.0-44.0-1.0","SS1613082173349","trial","","40","800","1196.420000004582","images/stimuli/spore_stims/complex_12_A_d.gif","images/stimuli/spore_stims/complex_12_B_d.gif","","","","","12","complex_similar","images/stimuli/spore_stims/complex_12_B_d.gif","right","","","","",""
"","null","html-keyboard-response","226","694182","0.0-44.0-0.1","SS1613082173349","","","null","","","","","<p><img src= images/blank.png width =""200"" height = ""200"" style = ""float:right""></p><p><img src=images/blank.png width =""800"" height = ""200""></p>","","","","","","","","","","","",""
"","387.17000000178814","sequential-stimulus-presentation","227","695373","0.0-44.0-1.1","SS1613082173349","trial","","40","800","1187.1700000017881","images/stimuli/spore_stims/complex_12_A_d.gif","images/stimuli/spore_stims/complex_12_B_d.gif","","","","","12","complex_similar","images/stimuli/spore_stims/complex_12_B_d.gif","right","","","","",""
"","null","html-keyboard-response","228","696578","0.0-44.0-0.2","SS1613082173349","","","null","","","","","<p><img src= images/blank.png width =""200"" height = ""200"" style = ""float:right""></p><p><img src=images/blank.png width =""800"" height = ""200""></p>","","","","","","","","","","","",""
"","449.00499998766463","sequential-stimulus-presentation","229","697831","0.0-44.0-1.2","SS1613082173349","trial","","40","800","1249.0049999876646","images/stimuli/spore_stims/complex_12_A_d.gif","images/stimuli/spore_stims/complex_12_B_d.gif","","","","","12","complex_similar","images/stimuli/spore_stims/complex_12_B_d.gif","right","","","","",""
"","null","html-keyboard-response","230","699017","0.0-44.0-0.3","SS1613082173349","","","null","","","","","<p><img src= images/blank.png width =""200"" height = ""200"" style = ""float:right""></p><p><img src=images/blank.png width =""800"" height = ""200""></p>","","","","","","","","","","","",""
"","306.2599999975646","sequential-stimulus-presentation","231","700128","0.0-44.0-1.3","SS1613082173349","trial","","40","800","1106.2599999975646","images/stimuli/spore_stims/complex_12_A_d.gif","images/stimuli/spore_stims/complex_12_B_d.gif","","","","","12","complex_similar","images/stimuli/spore_stims/complex_12_B_d.gif","right","","","","",""
"","null","html-keyboard-response","232","700939","0.0-44.0-0.4","SS1613082173349","","","null","","","","","<p><img src= images/blank.png width =""200"" height = ""200"" style = ""float:right""></p><p><img src=images/blank.png width =""800"" height = ""200""></p>","","","","","","","","","","","",""
"","338.5100000014063","sequential-stimulus-presentation","233","702086","0.0-44.0-1.4","SS1613082173349","trial","","40","800","1138.5100000014063","images/stimuli/spore_stims/complex_12_A_d.gif","images/stimuli/spore_stims/complex_12_B_d.gif","","","","","12","complex_similar","images/stimuli/spore_stims/complex_12_B_d.gif","right","","","","",""
"","null","html-keyboard-response","234","703189","0.0-44.0-0.5","SS1613082173349","","","null","","","","","<p><img src= images/blank.png width =""200"" height = ""200"" style = ""float:right""></p><p><img src=images/blank.png width =""800"" height = ""200""></p>","","","","","","","","","","","",""
"","393.0649999965681","sequential-stimulus-presentation","235","704388","0.0-44.0-1.5","SS1613082173349","trial","","40","800","1193.064999996568","images/stimuli/spore_stims/complex_12_A_d.gif","images/stimuli/spore_stims/complex_12_B_d.gif","","","","","12","complex_similar","images/stimuli/spore_stims/complex_12_A_d.gif","left","","","","",""
"","null","html-keyboard-response","236","705437","0.0-44.0-0.6","SS1613082173349","","","null","","","","","<p><img src= images/blank.png width =""200"" height = ""200"" style = ""float:right""></p><p><img src=images/blank.png width =""800"" height = ""200""></p>","","","","","","","","","","","",""
"","325.39000001270324","sequential-stimulus-presentation","237","706567","0.0-44.0-1.6","SS1613082173349","trial","","40","800","1125.3900000127032","images/stimuli/spore_stims/complex_12_A_d.gif","images/stimuli/spore_stims/complex_12_B_d.gif","","","","","12","complex_similar","images/stimuli/spore_stims/complex_12_B_d.gif","right","","","","",""
"","null","html-keyboard-response","238","707462","0.0-44.0-0.7","SS1613082173349","","","null","","","","","<p><img src= images/blank.png width =""200"" height = ""200"" style = ""float:right""></p><p><img src=images/blank.png width =""800"" height = ""200""></p>","","","","","","","","","","","",""
"","299.17999998724554","sequential-stimulus-presentation","239","708565","0.0-44.0-1.7","SS1613082173349","trial","","40","800","1099.1799999872455","images/stimuli/spore_stims/complex_12_A_d.gif","images/stimuli/spore_stims/complex_12_B_d.gif","","","","","12","complex_similar","images/stimuli/spore_stims/complex_12_B_d.gif","right","","","","",""
"","2217.335000008461","html-keyboard-response","240","710786","0.0-45.0","SS1613082173349","pref_question","","50","","","","","<video width ='960' height = '540' style='padding-top:8%' autoplay muted><source src='images/stimuli/wall_pref.mp4' type='video/mp4'></video>","2","middle","45%","12","","","","","","","",""
"","1423.8400000031106","sequential-stimulus-presentation","241","713013","0.0-46.0","SS1613082173349","pref_reveal","","40","800","2223.8400000031106","null","null","","","","","12","","","","novel","","","",""
"","null","html-keyboard-response","242","713998","0.0-47.0-0.0","SS1613082173349","","","null","","","","","<p><img src= images/blank.png width =""200"" height = ""200"" style = ""float:right""></p><p><img src=images/blank.png width =""800"" height = ""200""></p>","","","","","","","","","","","",""
"","270.0500000064494","sequential-stimulus-presentation","243","715074","0.0-47.0-1.0","SS1613082173349","trial","","40","800","1070.0500000064494","images/stimuli/spore_stims/simple_11_B_d.gif","images/stimuli/spore_stims/simple_11_A_d.gif","","","","","13","simple_similar","images/stimuli/spore_stims/simple_11_A_d.gif","middle","","","","",""
"","null","html-keyboard-response","244","716145","0.0-47.0-0.1","SS1613082173349","","","null","","","","","<p><img src= images/blank.png width =""200"" height = ""200"" style = ""float:right""></p><p><img src=images/blank.png width =""800"" height = ""200""></p>","","","","","","","","","","","",""
"","202.85499999590684","sequential-stimulus-presentation","245","717152","0.0-47.0-1.1","SS1613082173349","trial","","40","800","1002.8549999959068","images/stimuli/spore_stims/simple_11_B_d.gif","images/stimuli/spore_stims/simple_11_A_d.gif","","","","","13","simple_similar","images/stimuli/spore_stims/simple_11_A_d.gif","middle","","","","",""
"","null","html-keyboard-response","246","717973","0.0-47.0-0.2","SS1613082173349","","","null","","","","","<p><img src= images/blank.png width =""200"" height = ""200"" style = ""float:right""></p><p><img src=images/blank.png width =""800"" height = ""200""></p>","","","","","","","","","","","",""
"","158.450000002631","sequential-stimulus-presentation","247","718936","0.0-47.0-1.2","SS1613082173349","trial","","40","800","958.450000002631","images/stimuli/spore_stims/simple_11_B_d.gif","images/stimuli/spore_stims/simple_11_A_d.gif","","","","","13","simple_similar","images/stimuli/spore_stims/simple_11_A_d.gif","middle","","","","",""
"","null","html-keyboard-response","248","720072","0.0-47.0-0.3","SS1613082173349","","","null","","","","","<p><img src= images/blank.png width =""200"" height = ""200"" style = ""float:right""></p><p><img src=images/blank.png width =""800"" height = ""200""></p>","","","","","","","","","","","",""
"","139.5150000025751","sequential-stimulus-presentation","249","721017","0.0-47.0-1.3","SS1613082173349","trial","","40","800","939.5150000025751","images/stimuli/spore_stims/simple_11_B_d.gif","images/stimuli/spore_stims/simple_11_A_d.gif","","","","","13","simple_similar","images/stimuli/spore_stims/simple_11_A_d.gif","middle","","","","",""
"","null","html-keyboard-response","250","722072","0.0-47.0-0.4","SS1613082173349","","","null","","","","","<p><img src= images/blank.png width =""200"" height = ""200"" style = ""float:right""></p><p><img src=images/blank.png width =""800"" height = ""200""></p>","","","","","","","","","","","",""
"","98.824999993667","sequential-stimulus-presentation","251","722975","0.0-47.0-1.4","SS1613082173349","trial","","40","800","898.824999993667","images/stimuli/spore_stims/simple_11_B_d.gif","images/stimuli/spore_stims/simple_11_A_d.gif","","","","","13","simple_similar","images/stimuli/spore_stims/simple_11_B_d.gif","left","","","","",""
"","null","html-keyboard-response","252","723802","0.0-47.0-0.5","SS1613082173349","","","null","","","","","<p><img src= images/blank.png width =""200"" height = ""200"" style = ""float:right""></p><p><img src=images/blank.png width =""800"" height = ""200""></p>","","","","","","","","","","","",""
"","211.14499999384861","sequential-stimulus-presentation","253","724817","0.0-47.0-1.5","SS1613082173349","trial","","40","800","1011.1449999938486","images/stimuli/spore_stims/simple_11_B_d.gif","images/stimuli/spore_stims/simple_11_A_d.gif","","","","","13","simple_similar","images/stimuli/spore_stims/simple_11_A_d.gif","middle","","","","",""
"","null","html-keyboard-response","254","725726","0.0-47.0-0.6","SS1613082173349","","","null","","","","","<p><img src= images/blank.png width =""200"" height = ""200"" style = ""float:right""></p><p><img src=images/blank.png width =""800"" height = ""200""></p>","","","","","","","","","","","",""
"","194.46500000776723","sequential-stimulus-presentation","255","726725","0.0-47.0-1.6","SS1613082173349","trial","","40","800","994.4650000077672","images/stimuli/spore_stims/simple_11_B_d.gif","images/stimuli/spore_stims/simple_11_A_d.gif","","","","","13","simple_similar","images/stimuli/spore_stims/simple_11_A_d.gif","middle","","","","",""
"","null","html-keyboard-response","256","727968","0.0-47.0-0.7","SS1613082173349","","","null","","","","","<p><img src= images/blank.png width =""200"" height = ""200"" style = ""float:right""></p><p><img src=images/blank.png width =""800"" height = ""200""></p>","","","","","","","","","","","",""
"","735.1999999955297","sequential-stimulus-presentation","257","729514","0.0-47.0-1.7","SS1613082173349","trial","","40","800","1535.1999999955297","images/stimuli/spore_stims/simple_11_B_d.gif","images/stimuli/spore_stims/simple_11_A_d.gif","","","","","13","simple_similar","images/stimuli/spore_stims/simple_11_A_d.gif","middle","","","","",""
"","1557.2050000046147","html-keyboard-response","258","731074","0.0-48.0","SS1613082173349","pref_question","","51","","","","","<video width ='960' height = '540' style='padding-top:8%' autoplay muted><source src='images/stimuli/wall_pref.mp4' type='video/mp4'></video>","3","right","66%","13","","","","","","","",""
"","475.72000000218395","sequential-stimulus-presentation","259","732357","0.0-49.0","SS1613082173349","pref_reveal","","40","800","1275.720000002184","null","null","","","","","13","","","","novel","","","",""
"","null","html-keyboard-response","260","733309","0.0-50.0-0.0","SS1613082173349","","","null","","","","","<p><img src= images/blank.png width =""200"" height = ""200"" style = ""float:right""></p><p><img src=images/blank.png width =""800"" height = ""200""></p>","","","","","","","","","","","",""
"","306.84000000474043","sequential-stimulus-presentation","261","734421","0.0-50.0-1.0","SS1613082173349","trial","","40","800","1106.8400000047404","images/stimuli/spore_stims/complex_20_A_a.gif","images/stimuli/spore_stims/complex_20_B_a.gif","","","","","14","complex_similar","images/stimuli/spore_stims/complex_20_B_a.gif","right","","","","",""
"","null","html-keyboard-response","262","735624","0.0-50.0-0.1","SS1613082173349","","","null","","","","","<p><img src= images/blank.png width =""200"" height = ""200"" style = ""float:right""></p><p><img src=images/blank.png width =""800"" height = ""200""></p>","","","","","","","","","","","",""
"","128.06999999156687","sequential-stimulus-presentation","263","736558","0.0-50.0-1.1","SS1613082173349","trial","","40","800","928.0699999915669","images/stimuli/spore_stims/complex_20_A_a.gif","images/stimuli/spore_stims/complex_20_B_a.gif","","","","","14","complex_similar","images/stimuli/spore_stims/complex_20_B_a.gif","right","","","","",""
"","null","html-keyboard-response","264","737734","0.0-50.0-0.2","SS1613082173349","","","null","","","","","<p><img src= images/blank.png width =""200"" height = ""200"" style = ""float:right""></p><p><img src=images/blank.png width =""800"" height = ""200""></p>","","","","","","","","","","","",""
"","150.35500000522006","sequential-stimulus-presentation","265","738688","0.0-50.0-1.2","SS1613082173349","trial","","40","800","950.3550000052201","images/stimuli/spore_stims/complex_20_A_a.gif","images/stimuli/spore_stims/complex_20_B_a.gif","","","","","14","complex_similar","images/stimuli/spore_stims/complex_20_B_a.gif","right","","","","",""
"","null","html-keyboard-response","266","739931","0.0-50.0-0.3","SS1613082173349","","","null","","","","","<p><img src= images/blank.png width =""200"" height = ""200"" style = ""float:right""></p><p><img src=images/blank.png width =""800"" height = ""200""></p>","","","","","","","","","","","",""
"","128.08499998936895","sequential-stimulus-presentation","267","740864","0.0-50.0-1.3","SS1613082173349","trial","","40","800","928.084999989369","images/stimuli/spore_stims/complex_20_A_a.gif","images/stimuli/spore_stims/complex_20_B_a.gif","","","","","14","complex_similar","images/stimuli/spore_stims/complex_20_B_a.gif","right","","","","",""
"","null","html-keyboard-response","268","742005","0.0-50.0-0.4","SS1613082173349","","","null","","","","","<p><img src= images/blank.png width =""200"" height = ""200"" style = ""float:right""></p><p><img src=images/blank.png width =""800"" height = ""200""></p>","","","","","","","","","","","",""
"","115.99000000569504","sequential-stimulus-presentation","269","742925","0.0-50.0-1.4","SS1613082173349","trial","","40","800","915.990000005695","images/stimuli/spore_stims/complex_20_A_a.gif","images/stimuli/spore_stims/complex_20_B_a.gif","","","","","14","complex_similar","images/stimuli/spore_stims/complex_20_B_a.gif","right","","","","",""
"","null","html-keyboard-response","270","744079","0.0-50.0-0.5","SS1613082173349","","","null","","","","","<p><img src= images/blank.png width =""200"" height = ""200"" style = ""float:right""></p><p><img src=images/blank.png width =""800"" height = ""200""></p>","","","","","","","","","","","",""
"","261.0549999953946","sequential-stimulus-presentation","271","745145","0.0-50.0-1.5","SS1613082173349","trial","","40","800","1061.0549999953946","images/stimuli/spore_stims/complex_20_A_a.gif","images/stimuli/spore_stims/complex_20_B_a.gif","","","","","14","complex_similar","images/stimuli/spore_stims/complex_20_B_a.gif","right","","","","",""
"","null","html-keyboard-response","272","746147","0.0-50.0-0.6","SS1613082173349","","","null","","","","","<p><img src= images/blank.png width =""200"" height = ""200"" style = ""float:right""></p><p><img src=images/blank.png width =""800"" height = ""200""></p>","","","","","","","","","","","",""
"","334.21000000089407","sequential-stimulus-presentation","273","747286","0.0-50.0-1.6","SS1613082173349","trial","","40","800","1134.210000000894","images/stimuli/spore_stims/complex_20_A_a.gif","images/stimuli/spore_stims/complex_20_B_a.gif","","","","","14","complex_similar","images/stimuli/spore_stims/complex_20_B_a.gif","right","","","","",""
"","null","html-keyboard-response","274","748514","0.0-50.0-0.7","SS1613082173349","","","null","","","","","<p><img src= images/blank.png width =""200"" height = ""200"" style = ""float:right""></p><p><img src=images/blank.png width =""800"" height = ""200""></p>","","","","","","","","","","","",""
"","434.61999999999534","sequential-stimulus-presentation","275","749754","0.0-50.0-1.7","SS1613082173349","trial","","40","800","1234.6199999999953","images/stimuli/spore_stims/complex_20_A_a.gif","images/stimuli/spore_stims/complex_20_B_a.gif","","","","","14","complex_similar","images/stimuli/spore_stims/complex_20_A_a.gif","left","","","","",""
"","6631.114999996498","html-keyboard-response","276","756389","0.0-51.0","SS1613082173349","pref_question","","50","","","","","<video width ='960' height = '540' style='padding-top:8%' autoplay muted><source src='images/stimuli/wall_pref.mp4' type='video/mp4'></video>","2","middle","45%","14","","","","","","","",""
"","794.8699999978999","sequential-stimulus-presentation","277","757989","0.0-52.0","SS1613082173349","pref_reveal","","40","800","1594.8699999978999","null","null","","","","","14","","","","novel","","","",""
"","null","html-keyboard-response","278","759270","0.0-53.0-0.0","SS1613082173349","","","null","","","","","<p><img src= images/blank.png width =""200"" height = ""200"" style = ""float:right""></p><p><img src=images/blank.png width =""800"" height = ""200""></p>","","","","","","","","","","","",""
"","405.1800000015646","sequential-stimulus-presentation","279","760480","0.0-53.0-1.0","SS1613082173349","trial","","40","800","1205.1800000015646","images/stimuli/spore_stims/complex_19_B_c.gif","images/stimuli/spore_stims/complex_11_B_b.gif","","","","","15","complex_dissimilar","images/stimuli/spore_stims/complex_11_B_b.gif","left","","","","",""
"","null","html-keyboard-response","280","761762","0.0-53.0-0.1","SS1613082173349","","","null","","","","","<p><img src= images/blank.png width =""200"" height = ""200"" style = ""float:right""></p><p><img src=images/blank.png width =""800"" height = ""200""></p>","","","","","","","","","","","",""
"","331.9749999936903","sequential-stimulus-presentation","281","762899","0.0-53.0-1.1","SS1613082173349","trial","","40","800","1131.9749999936903","images/stimuli/spore_stims/complex_19_B_c.gif","images/stimuli/spore_stims/complex_11_B_b.gif","","","","","15","complex_dissimilar","images/stimuli/spore_stims/complex_11_B_b.gif","left","","","","",""
"","null","html-keyboard-response","282","764146","0.0-53.0-0.2","SS1613082173349","","","null","","","","","<p><img src= images/blank.png width =""200"" height = ""200"" style = ""float:right""></p><p><img src=images/blank.png width =""800"" height = ""200""></p>","","","","","","","","","","","",""
"","339.3250000081025","sequential-stimulus-presentation","283","765290","0.0-53.0-1.2","SS1613082173349","trial","","40","800","1139.3250000081025","images/stimuli/spore_stims/complex_19_B_c.gif","images/stimuli/spore_stims/complex_11_B_b.gif","","","","","15","complex_dissimilar","images/stimuli/spore_stims/complex_11_B_b.gif","left","","","","",""
"","null","html-keyboard-response","284","766284","0.0-53.0-0.3","SS1613082173349","","","null","","","","","<p><img src= images/blank.png width =""200"" height = ""200"" style = ""float:right""></p><p><img src=images/blank.png width =""800"" height = ""200""></p>","","","","","","","","","","","",""
"","728.9999999920838","sequential-stimulus-presentation","285","767817","0.0-53.0-1.3","SS1613082173349","trial","","40","800","1528.9999999920838","images/stimuli/spore_stims/complex_19_B_c.gif","images/stimuli/spore_stims/complex_11_B_b.gif","","","","","15","complex_dissimilar","images/stimuli/spore_stims/complex_11_B_b.gif","left","","","","",""
"","null","html-keyboard-response","286","768954","0.0-53.0-0.4","SS1613082173349","","","null","","","","","<p><img src= images/blank.png width =""200"" height = ""200"" style = ""float:right""></p><p><img src=images/blank.png width =""800"" height = ""200""></p>","","","","","","","","","","","",""
"","377.52500000351574","sequential-stimulus-presentation","287","770136","0.0-53.0-1.4","SS1613082173349","trial","","40","800","1177.5250000035157","images/stimuli/spore_stims/complex_19_B_c.gif","images/stimuli/spore_stims/complex_11_B_b.gif","","","","","15","complex_dissimilar","images/stimuli/spore_stims/complex_11_B_b.gif","left","","","","",""
"","null","html-keyboard-response","288","771288","0.0-53.0-0.5","SS1613082173349","","","null","","","","","<p><img src= images/blank.png width =""200"" height = ""200"" style = ""float:right""></p><p><img src=images/blank.png width =""800"" height = ""200""></p>","","","","","","","","","","","",""
"","628.0649999971502","sequential-stimulus-presentation","289","772721","0.0-53.0-1.5","SS1613082173349","trial","","40","800","1428.0649999971502","images/stimuli/spore_stims/complex_19_B_c.gif","images/stimuli/spore_stims/complex_11_B_b.gif","","","","","15","complex_dissimilar","images/stimuli/spore_stims/complex_11_B_b.gif","left","","","","",""
"","null","html-keyboard-response","290","773831","0.0-53.0-0.6","SS1613082173349","","","null","","","","","<p><img src= images/blank.png width =""200"" height = ""200"" style = ""float:right""></p><p><img src=images/blank.png width =""800"" height = ""200""></p>","","","","","","","","","","","",""
"","636.0549999953946","sequential-stimulus-presentation","291","775271","0.0-53.0-1.6","SS1613082173349","trial","","40","800","1436.0549999953946","images/stimuli/spore_stims/complex_19_B_c.gif","images/stimuli/spore_stims/complex_11_B_b.gif","","","","","15","complex_dissimilar","images/stimuli/spore_stims/complex_11_B_b.gif","left","","","","",""
"","null","html-keyboard-response","292","776539","0.0-53.0-0.7","SS1613082173349","","","null","","","","","<p><img src= images/blank.png width =""200"" height = ""200"" style = ""float:right""></p><p><img src=images/blank.png width =""800"" height = ""200""></p>","","","","","","","","","","","",""
"","1130.235000004177","sequential-stimulus-presentation","293","778473","0.0-53.0-1.7","SS1613082173349","trial","","40","800","1930.235000004177","images/stimuli/spore_stims/complex_19_B_c.gif","images/stimuli/spore_stims/complex_11_B_b.gif","","","","","15","complex_dissimilar","images/stimuli/spore_stims/complex_19_B_c.gif","right","","","","",""
"","1743.3250000030966","html-keyboard-response","294","780220","0.0-54.0","SS1613082173349","pref_question","","50","","","","","<video width ='960' height = '540' style='padding-top:8%' autoplay muted><source src='images/stimuli/wall_pref.mp4' type='video/mp4'></video>","2","middle","45%","15","","","","","","","",""
"","5201.955000011367","sequential-stimulus-presentation","295","786226","0.0-55.0","SS1613082173349","pref_reveal","","40","800","6001.955000011367","null","null","","","","","15","","","","novel","","","",""
"","null","html-keyboard-response","296","787324","0.0-56.0-0.0","SS1613082173349","","","null","","","","","<p><img src= images/blank.png width =""200"" height = ""200"" style = ""float:right""></p><p><img src=images/blank.png width =""800"" height = ""200""></p>","","","","","","","","","","","",""
"","544.9450000014622","sequential-stimulus-presentation","297","788675","0.0-56.0-1.0","SS1613082173349","trial","","40","800","1344.9450000014622","images/stimuli/spore_stims/complex_02_B_b.gif","images/stimuli/spore_stims/complex_06_A_c.gif","","","","","16","complex_dissimilar","images/stimuli/spore_stims/complex_06_A_c.gif","left","","","","",""
"","null","html-keyboard-response","298","789675","0.0-56.0-0.1","SS1613082173349","","","null","","","","","<p><img src= images/blank.png width =""200"" height = ""200"" style = ""float:right""></p><p><img src=images/blank.png width =""800"" height = ""200""></p>","","","","","","","","","","","",""
"","9792.694999996456","sequential-stimulus-presentation","299","800273","0.0-56.0-1.1","SS1613082173349","trial","","40","800","10592.694999996456","images/stimuli/spore_stims/complex_02_B_b.gif","images/stimuli/spore_stims/complex_06_A_c.gif","","","","","16","complex_dissimilar","images/stimuli/spore_stims/complex_06_A_c.gif","left","","","","",""
"","null","html-keyboard-response","300","801527","0.0-56.0-0.2","SS1613082173349","","","null","","","","","<p><img src= images/blank.png width =""200"" height = ""200"" style = ""float:right""></p><p><img src=images/blank.png width =""800"" height = ""200""></p>","","","","","","","","","","","",""
"","320.0199999992037","sequential-stimulus-presentation","301","802652","0.0-56.0-1.2","SS1613082173349","trial","","40","800","1120.0199999992037","images/stimuli/spore_stims/complex_02_B_b.gif","images/stimuli/spore_stims/complex_06_A_c.gif","","","","","16","complex_dissimilar","images/stimuli/spore_stims/complex_06_A_c.gif","left","","","","",""
"","null","html-keyboard-response","302","803668","0.0-56.0-0.3","SS1613082173349","","","null","","","","","<p><img src= images/blank.png width =""200"" height = ""200"" style = ""float:right""></p><p><img src=images/blank.png width =""800"" height = ""200""></p>","","","","","","","","","","","",""
"","400.7299999939278","sequential-stimulus-presentation","303","804874","0.0-56.0-1.3","SS1613082173349","trial","","40","800","1200.7299999939278","images/stimuli/spore_stims/complex_02_B_b.gif","images/stimuli/spore_stims/complex_06_A_c.gif","","","","","16","complex_dissimilar","images/stimuli/spore_stims/complex_06_A_c.gif","left","","","","",""
"","null","html-keyboard-response","304","805693","0.0-56.0-0.4","SS1613082173349","","","null","","","","","<p><img src= images/blank.png width =""200"" height = ""200"" style = ""float:right""></p><p><img src=images/blank.png width =""800"" height = ""200""></p>","","","","","","","","","","","",""
"","451.6600000060862","sequential-stimulus-presentation","305","806950","0.0-56.0-1.4","SS1613082173349","trial","","40","800","1251.6600000060862","images/stimuli/spore_stims/complex_02_B_b.gif","images/stimuli/spore_stims/complex_06_A_c.gif","","","","","16","complex_dissimilar","images/stimuli/spore_stims/complex_06_A_c.gif","left","","","","",""
"","null","html-keyboard-response","306","808203","0.0-56.0-0.5","SS1613082173349","","","null","","","","","<p><img src= images/blank.png width =""200"" height = ""200"" style = ""float:right""></p><p><img src=images/blank.png width =""800"" height = ""200""></p>","","","","","","","","","","","",""
"","335.3600000118604","sequential-stimulus-presentation","307","809343","0.0-56.0-1.5","SS1613082173349","trial","","40","800","1135.3600000118604","images/stimuli/spore_stims/complex_02_B_b.gif","images/stimuli/spore_stims/complex_06_A_c.gif","","","","","16","complex_dissimilar","images/stimuli/spore_stims/complex_06_A_c.gif","left","","","","",""
"","null","html-keyboard-response","308","810416","0.0-56.0-0.6","SS1613082173349","","","null","","","","","<p><img src= images/blank.png width =""200"" height = ""200"" style = ""float:right""></p><p><img src=images/blank.png width =""800"" height = ""200""></p>","","","","","","","","","","","",""
"","3676.4449999900535","sequential-stimulus-presentation","309","814899","0.0-56.0-1.6","SS1613082173349","trial","","40","800","4476.4449999900535","images/stimuli/spore_stims/complex_02_B_b.gif","images/stimuli/spore_stims/complex_06_A_c.gif","","","","","16","complex_dissimilar","images/stimuli/spore_stims/complex_02_B_b.gif","middle","","","","",""
"","null","html-keyboard-response","310","816042","0.0-56.0-0.7","SS1613082173349","","","null","","","","","<p><img src= images/blank.png width =""200"" height = ""200"" style = ""float:right""></p><p><img src=images/blank.png width =""800"" height = ""200""></p>","","","","","","","","","","","",""
"","593.1500000006054","sequential-stimulus-presentation","311","817441","0.0-56.0-1.7","SS1613082173349","trial","","40","800","1393.1500000006054","images/stimuli/spore_stims/complex_02_B_b.gif","images/stimuli/spore_stims/complex_06_A_c.gif","","","","","16","complex_dissimilar","images/stimuli/spore_stims/complex_06_A_c.gif","left","","","","",""
"","1795.7699999969918","html-keyboard-response","312","819241","0.0-57.0","SS1613082173349","pref_question","","51","","","","","<video width ='960' height = '540' style='padding-top:8%' autoplay muted><source src='images/stimuli/wall_pref.mp4' type='video/mp4'></video>","3","right","66%","16","","","","","","","",""
