"view_history","rt","trial_type","trial_index","time_elapsed","internal_node_id","subject","stimulus_type","trial_stimulus","key_press","minimum_viewing_duration","trial_looking_time","block_deviant","block_background","stimulus","wall_pref","location","location_percent","block_number","block_type","stimulus_displayed","position_displayed","stim_type_selected","responses","question_order","stimulus_left","stimulus_right"
"[{""page_index"":0,""viewing_time"":17512.689999999566}]","17515.675000002375","instructions","0","17521","0.0-0.0","SS1613080403796","","","","","","","","","","","","","","","","","","","",""
"[{""page_index"":0,""viewing_time"":3285.2449999991222},{""page_index"":1,""viewing_time"":35235.73000000033}]","38521.76999999938","instructions","1","58050","0.0-1.0","SS1613080403796","instructions","","","","","","","","","","","","","","","","","","",""
"","5336.269999999786","sequential-stimulus-presentation","2","64204","0.0-2.0","SS1613080403796","","","40","800","6136.269999999786","null","null","","","","","","","","","","","","",""
"","18967.609999999695","sequential-stimulus-presentation","3","83985","0.0-3.0","SS1613080403796","","","40","800","19767.609999999695","null","null","","","","","","","","","","","","",""
"[{""page_index"":0,""viewing_time"":3833.2100000006903}]","3833.9500000001863","instructions","4","87827","0.0-4.0","SS1613080403796","instructions","","","","","","","","","","","","","","","","","","",""
"","9436.95000000298","html-keyboard-response","5","97275","0.0-5.0","SS1613080403796","instructions","","99","","","","","<video width ='960' height = '540' autoplay muted><source src='images/stimuli/wall_pref.mp4' type='video/mp4'></video>","3","right","66%","","","","","","","","",""
"","16543.63999999987","sequential-stimulus-presentation","6","114633","0.0-6.0","SS1613080403796","pref_reveal","","40","800","17343.63999999987","null","null","","","","","","","","","","","","",""
"[{""page_index"":0,""viewing_time"":2115.7300000013493},{""page_index"":1,""viewing_time"":695.834999998624},{""page_index"":2,""viewing_time"":2847.9450000013458},{""page_index"":3,""viewing_time"":2368.514999998297}]","8028.770000000804","instructions","7","122665","0.0-7.0","SS1613080403796","instructions","","","","","","","","","","","","","","","","","","",""
"","null","html-keyboard-response","8","123603","0.0-8.0-0.0","SS1613080403796","","","null","","","","","<p><img src= images/blank.png width =""200"" height = ""200"" style = ""float:right""></p><p><img src=images/blank.png width =""800"" height = ""200""></p>","","","","","","","","","","","",""
"","9006.020000000717","sequential-stimulus-presentation","9","133425","0.0-8.0-1.0","SS1613080403796","trial","","40","800","9806.020000000717","images/stimuli/spore_stims/complex_02_A_d.gif","images/stimuli/spore_stims/complex_02_B_b.gif","","","","","0","complex_dissimilar","images/stimuli/spore_stims/complex_02_B_b.gif","middle","","","","",""
"","null","html-keyboard-response","10","134648","0.0-8.0-0.1","SS1613080403796","","","null","","","","","<p><img src= images/blank.png width =""200"" height = ""200"" style = ""float:right""></p><p><img src=images/blank.png width =""800"" height = ""200""></p>","","","","","","","","","","","",""
"","6459.599999998318","sequential-stimulus-presentation","11","141920","0.0-8.0-1.1","SS1613080403796","trial","","40","800","7259.599999998318","images/stimuli/spore_stims/complex_02_A_d.gif","images/stimuli/spore_stims/complex_02_B_b.gif","","","","","0","complex_dissimilar","images/stimuli/spore_stims/complex_02_B_b.gif","middle","","","","",""
"","null","html-keyboard-response","12","142819","0.0-8.0-0.2","SS1613080403796","","","null","","","","","<p><img src= images/blank.png width =""200"" height = ""200"" style = ""float:right""></p><p><img src=images/blank.png width =""800"" height = ""200""></p>","","","","","","","","","","","",""
"","896.0150000020803","sequential-stimulus-presentation","13","144529","0.0-8.0-1.2","SS1613080403796","trial","","40","800","1696.0150000020803","images/stimuli/spore_stims/complex_02_A_d.gif","images/stimuli/spore_stims/complex_02_B_b.gif","","","","","0","complex_dissimilar","images/stimuli/spore_stims/complex_02_B_b.gif","middle","","","","",""
"","null","html-keyboard-response","14","145349","0.0-8.0-0.3","SS1613080403796","","","null","","","","","<p><img src= images/blank.png width =""200"" height = ""200"" style = ""float:right""></p><p><img src=images/blank.png width =""800"" height = ""200""></p>","","","","","","","","","","","",""
"","4614.025000002584","sequential-stimulus-presentation","15","150778","0.0-8.0-1.3","SS1613080403796","trial","","40","800","5414.025000002584","images/stimuli/spore_stims/complex_02_A_d.gif","images/stimuli/spore_stims/complex_02_B_b.gif","","","","","0","complex_dissimilar","images/stimuli/spore_stims/complex_02_B_b.gif","middle","","","","",""
"","null","html-keyboard-response","16","151726","0.0-8.0-0.4","SS1613080403796","","","null","","","","","<p><img src= images/blank.png width =""200"" height = ""200"" style = ""float:right""></p><p><img src=images/blank.png width =""800"" height = ""200""></p>","","","","","","","","","","","",""
"","12929.329999999027","sequential-stimulus-presentation","17","165466","0.0-8.0-1.4","SS1613080403796","trial","","40","800","13729.329999999027","images/stimuli/spore_stims/complex_02_A_d.gif","images/stimuli/spore_stims/complex_02_B_b.gif","","","","","0","complex_dissimilar","images/stimuli/spore_stims/complex_02_A_d.gif","right","","","","",""
"","null","html-keyboard-response","18","166321","0.0-8.0-0.5","SS1613080403796","","","null","","","","","<p><img src= images/blank.png width =""200"" height = ""200"" style = ""float:right""></p><p><img src=images/blank.png width =""800"" height = ""200""></p>","","","","","","","","","","","",""
"","4448.4599999996135","sequential-stimulus-presentation","19","171584","0.0-8.0-1.5","SS1613080403796","trial","","40","800","5248.4599999996135","images/stimuli/spore_stims/complex_02_A_d.gif","images/stimuli/spore_stims/complex_02_B_b.gif","","","","","0","complex_dissimilar","images/stimuli/spore_stims/complex_02_B_b.gif","middle","","","","",""
"","null","html-keyboard-response","20","172715","0.0-8.0-0.6","SS1613080403796","","","null","","","","","<p><img src= images/blank.png width =""200"" height = ""200"" style = ""float:right""></p><p><img src=images/blank.png width =""800"" height = ""200""></p>","","","","","","","","","","","",""
"","3115.7899999998335","sequential-stimulus-presentation","21","176639","0.0-8.0-1.6","SS1613080403796","trial","","40","800","3915.7899999998335","images/stimuli/spore_stims/complex_02_A_d.gif","images/stimuli/spore_stims/complex_02_B_b.gif","","","","","0","complex_dissimilar","images/stimuli/spore_stims/complex_02_B_b.gif","middle","","","","",""
"","null","html-keyboard-response","22","177501","0.0-8.0-0.7","SS1613080403796","","","null","","","","","<p><img src= images/blank.png width =""200"" height = ""200"" style = ""float:right""></p><p><img src=images/blank.png width =""800"" height = ""200""></p>","","","","","","","","","","","",""
"","2014.9399999972957","sequential-stimulus-presentation","23","180353","0.0-8.0-1.7","SS1613080403796","trial","","40","800","2814.9399999972957","images/stimuli/spore_stims/complex_02_A_d.gif","images/stimuli/spore_stims/complex_02_B_b.gif","","","","","0","complex_dissimilar","images/stimuli/spore_stims/complex_02_B_b.gif","middle","","","","",""
"","6177.950000001147","html-keyboard-response","24","186545","0.0-9.0","SS1613080403796","pref_question","","99","","","","","<video width ='960' height = '540' style='padding-top:8%' autoplay muted><source src='images/stimuli/wall_pref.mp4' type='video/mp4'></video>","3","right","66%","0","","","","","","","",""
"","5952.324999998382","sequential-stimulus-presentation","25","193312","0.0-10.0","SS1613080403796","pref_reveal","","40","800","6752.324999998382","null","null","","","","","0","","","","deviant","","","",""
"","null","html-keyboard-response","26","194482","0.0-11.0-0.0","SS1613080403796","","","null","","","","","<p><img src= images/blank.png width =""200"" height = ""200"" style = ""float:right""></p><p><img src=images/blank.png width =""800"" height = ""200""></p>","","","","","","","","","","","",""
"","5422.150000002148","sequential-stimulus-presentation","27","200719","0.0-11.0-1.0","SS1613080403796","trial","","40","800","6222.150000002148","images/stimuli/spore_stims/complex_10_A_b.gif","images/stimuli/spore_stims/complex_18_A_d.gif","","","","","1","complex_dissimilar","images/stimuli/spore_stims/complex_18_A_d.gif","middle","","","","",""
"","null","html-keyboard-response","28","201998","0.0-11.0-0.1","SS1613080403796","","","null","","","","","<p><img src= images/blank.png width =""200"" height = ""200"" style = ""float:right""></p><p><img src=images/blank.png width =""800"" height = ""200""></p>","","","","","","","","","","","",""
"","1182.4949999972887","sequential-stimulus-presentation","29","204002","0.0-11.0-1.1","SS1613080403796","trial","","40","800","1982.4949999972887","images/stimuli/spore_stims/complex_10_A_b.gif","images/stimuli/spore_stims/complex_18_A_d.gif","","","","","1","complex_dissimilar","images/stimuli/spore_stims/complex_18_A_d.gif","middle","","","","",""
"","null","html-keyboard-response","30","205020","0.0-11.0-0.2","SS1613080403796","","","null","","","","","<p><img src= images/blank.png width =""200"" height = ""200"" style = ""float:right""></p><p><img src=images/blank.png width =""800"" height = ""200""></p>","","","","","","","","","","","",""
"","5484.089999998105","sequential-stimulus-presentation","31","211369","0.0-11.0-1.2","SS1613080403796","trial","","40","800","6284.089999998105","images/stimuli/spore_stims/complex_10_A_b.gif","images/stimuli/spore_stims/complex_18_A_d.gif","","","","","1","complex_dissimilar","images/stimuli/spore_stims/complex_18_A_d.gif","middle","","","","",""
"","null","html-keyboard-response","32","212617","0.0-11.0-0.3","SS1613080403796","","","null","","","","","<p><img src= images/blank.png width =""200"" height = ""200"" style = ""float:right""></p><p><img src=images/blank.png width =""800"" height = ""200""></p>","","","","","","","","","","","",""
"","2673.4849999993457","sequential-stimulus-presentation","33","216105","0.0-11.0-1.3","SS1613080403796","trial","","40","800","3473.4849999993457","images/stimuli/spore_stims/complex_10_A_b.gif","images/stimuli/spore_stims/complex_18_A_d.gif","","","","","1","complex_dissimilar","images/stimuli/spore_stims/complex_18_A_d.gif","middle","","","","",""
"","null","html-keyboard-response","34","217396","0.0-11.0-0.4","SS1613080403796","","","null","","","","","<p><img src= images/blank.png width =""200"" height = ""200"" style = ""float:right""></p><p><img src=images/blank.png width =""800"" height = ""200""></p>","","","","","","","","","","","",""
"","2522.16000000044","sequential-stimulus-presentation","35","220753","0.0-11.0-1.4","SS1613080403796","trial","","40","800","3322.16000000044","images/stimuli/spore_stims/complex_10_A_b.gif","images/stimuli/spore_stims/complex_18_A_d.gif","","","","","1","complex_dissimilar","images/stimuli/spore_stims/complex_10_A_b.gif","right","","","","",""
"","null","html-keyboard-response","36","221963","0.0-11.0-0.5","SS1613080403796","","","null","","","","","<p><img src= images/blank.png width =""200"" height = ""200"" style = ""float:right""></p><p><img src=images/blank.png width =""800"" height = ""200""></p>","","","","","","","","","","","",""
"","2551.9050000002608","sequential-stimulus-presentation","37","225330","0.0-11.0-1.5","SS1613080403796","trial","","40","800","3351.9050000002608","images/stimuli/spore_stims/complex_10_A_b.gif","images/stimuli/spore_stims/complex_18_A_d.gif","","","","","1","complex_dissimilar","images/stimuli/spore_stims/complex_18_A_d.gif","middle","","","","",""
"","null","html-keyboard-response","38","226362","0.0-11.0-0.6","SS1613080403796","","","null","","","","","<p><img src= images/blank.png width =""200"" height = ""200"" style = ""float:right""></p><p><img src=images/blank.png width =""800"" height = ""200""></p>","","","","","","","","","","","",""
"","720.8449999998265","sequential-stimulus-presentation","39","227897","0.0-11.0-1.6","SS1613080403796","trial","","40","800","1520.8449999998265","images/stimuli/spore_stims/complex_10_A_b.gif","images/stimuli/spore_stims/complex_18_A_d.gif","","","","","1","complex_dissimilar","images/stimuli/spore_stims/complex_18_A_d.gif","middle","","","","",""
"","null","html-keyboard-response","40","228772","0.0-11.0-0.7","SS1613080403796","","","null","","","","","<p><img src= images/blank.png width =""200"" height = ""200"" style = ""float:right""></p><p><img src=images/blank.png width =""800"" height = ""200""></p>","","","","","","","","","","","",""
"","1175.984999998036","sequential-stimulus-presentation","41","230762","0.0-11.0-1.7","SS1613080403796","trial","","40","800","1975.984999998036","images/stimuli/spore_stims/complex_10_A_b.gif","images/stimuli/spore_stims/complex_18_A_d.gif","","","","","1","complex_dissimilar","images/stimuli/spore_stims/complex_18_A_d.gif","middle","","","","",""
"","2542.98999999807","html-keyboard-response","42","233315","0.0-12.0","SS1613080403796","pref_question","","97","","","","","<video width ='960' height = '540' style='padding-top:8%' autoplay muted><source src='images/stimuli/wall_pref.mp4' type='video/mp4'></video>","1","left","25%","1","","","","","","","",""
"","3454.0650000017486","sequential-stimulus-presentation","43","237585","0.0-13.0","SS1613080403796","pref_reveal","","40","800","4254.065000001749","null","null","","","","","1","","","","novel","","","",""
"","null","html-keyboard-response","44","238831","0.0-14.0-0.0","SS1613080403796","","","null","","","","","<p><img src= images/blank.png width =""200"" height = ""200"" style = ""float:right""></p><p><img src=images/blank.png width =""800"" height = ""200""></p>","","","","","","","","","","","",""
"","2618.160000001779","sequential-stimulus-presentation","45","242265","0.0-14.0-1.0","SS1613080403796","trial","","40","800","3418.160000001779","images/stimuli/spore_stims/simple_19_A_c.gif","images/stimuli/spore_stims/simple_19_B_c.gif","","","","","2","simple_similar","images/stimuli/spore_stims/simple_19_B_c.gif","middle","","","","",""
"","null","html-keyboard-response","46","243503","0.0-14.0-0.1","SS1613080403796","","","null","","","","","<p><img src= images/blank.png width =""200"" height = ""200"" style = ""float:right""></p><p><img src=images/blank.png width =""800"" height = ""200""></p>","","","","","","","","","","","",""
"","6594.655000000726","sequential-stimulus-presentation","47","250912","0.0-14.0-1.1","SS1613080403796","trial","","40","800","7394.655000000726","images/stimuli/spore_stims/simple_19_A_c.gif","images/stimuli/spore_stims/simple_19_B_c.gif","","","","","2","simple_similar","images/stimuli/spore_stims/simple_19_B_c.gif","middle","","","","",""
"","null","html-keyboard-response","48","252181","0.0-14.0-0.2","SS1613080403796","","","null","","","","","<p><img src= images/blank.png width =""200"" height = ""200"" style = ""float:right""></p><p><img src=images/blank.png width =""800"" height = ""200""></p>","","","","","","","","","","","",""
"","1266.895000000659","sequential-stimulus-presentation","49","254265","0.0-14.0-1.2","SS1613080403796","trial","","40","800","2066.895000000659","images/stimuli/spore_stims/simple_19_A_c.gif","images/stimuli/spore_stims/simple_19_B_c.gif","","","","","2","simple_similar","images/stimuli/spore_stims/simple_19_A_c.gif","left","","","","",""
"","null","html-keyboard-response","50","255181","0.0-14.0-0.3","SS1613080403796","","","null","","","","","<p><img src= images/blank.png width =""200"" height = ""200"" style = ""float:right""></p><p><img src=images/blank.png width =""800"" height = ""200""></p>","","","","","","","","","","","",""
"","388.22000000078697","sequential-stimulus-presentation","51","256384","0.0-14.0-1.3","SS1613080403796","trial","","40","800","1188.220000000787","images/stimuli/spore_stims/simple_19_A_c.gif","images/stimuli/spore_stims/simple_19_B_c.gif","","","","","2","simple_similar","images/stimuli/spore_stims/simple_19_B_c.gif","middle","","","","",""
"","null","html-keyboard-response","52","257252","0.0-14.0-0.4","SS1613080403796","","","null","","","","","<p><img src= images/blank.png width =""200"" height = ""200"" style = ""float:right""></p><p><img src=images/blank.png width =""800"" height = ""200""></p>","","","","","","","","","","","",""
"","2196.960000001127","sequential-stimulus-presentation","53","260288","0.0-14.0-1.4","SS1613080403796","trial","","40","800","2996.960000001127","images/stimuli/spore_stims/simple_19_A_c.gif","images/stimuli/spore_stims/simple_19_B_c.gif","","","","","2","simple_similar","images/stimuli/spore_stims/simple_19_B_c.gif","middle","","","","",""
"","null","html-keyboard-response","54","261344","0.0-14.0-0.5","SS1613080403796","","","null","","","","","<p><img src= images/blank.png width =""200"" height = ""200"" style = ""float:right""></p><p><img src=images/blank.png width =""800"" height = ""200""></p>","","","","","","","","","","","",""
"","386.11500000115484","sequential-stimulus-presentation","55","262545","0.0-14.0-1.5","SS1613080403796","trial","","40","800","1186.1150000011548","images/stimuli/spore_stims/simple_19_A_c.gif","images/stimuli/spore_stims/simple_19_B_c.gif","","","","","2","simple_similar","images/stimuli/spore_stims/simple_19_B_c.gif","middle","","","","",""
"","null","html-keyboard-response","56","263653","0.0-14.0-0.6","SS1613080403796","","","null","","","","","<p><img src= images/blank.png width =""200"" height = ""200"" style = ""float:right""></p><p><img src=images/blank.png width =""800"" height = ""200""></p>","","","","","","","","","","","",""
"","3635.2850000003236","sequential-stimulus-presentation","57","268106","0.0-14.0-1.6","SS1613080403796","trial","","40","800","4435.285000000324","images/stimuli/spore_stims/simple_19_A_c.gif","images/stimuli/spore_stims/simple_19_B_c.gif","","","","","2","simple_similar","images/stimuli/spore_stims/simple_19_B_c.gif","middle","","","","",""
"","null","html-keyboard-response","58","269231","0.0-14.0-0.7","SS1613080403796","","","null","","","","","<p><img src= images/blank.png width =""200"" height = ""200"" style = ""float:right""></p><p><img src=images/blank.png width =""800"" height = ""200""></p>","","","","","","","","","","","",""
"","5080.574999999953","sequential-stimulus-presentation","59","275145","0.0-14.0-1.7","SS1613080403796","trial","","40","800","5880.574999999953","images/stimuli/spore_stims/simple_19_A_c.gif","images/stimuli/spore_stims/simple_19_B_c.gif","","","","","2","simple_similar","images/stimuli/spore_stims/simple_19_B_c.gif","middle","","","","",""
"","4249.5899999994435","html-keyboard-response","60","279411","0.0-15.0","SS1613080403796","pref_question","","98","","","","","<video width ='960' height = '540' style='padding-top:8%' autoplay muted><source src='images/stimuli/wall_pref.mp4' type='video/mp4'></video>","2","middle","45%","2","","","","","","","",""
"","11717.335000001185","sequential-stimulus-presentation","61","291947","0.0-16.0","SS1613080403796","pref_reveal","","40","800","12517.335000001185","null","null","","","","","2","","","","background","","","",""
"","null","html-keyboard-response","62","293213","0.0-17.0-0.0","SS1613080403796","","","null","","","","","<p><img src= images/blank.png width =""200"" height = ""200"" style = ""float:right""></p><p><img src=images/blank.png width =""800"" height = ""200""></p>","","","","","","","","","","","",""
"","3771.4650000016554","sequential-stimulus-presentation","63","297800","0.0-17.0-1.0","SS1613080403796","trial","","40","800","4571.465000001655","images/stimuli/spore_stims/complex_16_A_b.gif","images/stimuli/spore_stims/complex_16_B_b.gif","","","","","3","complex_similar","images/stimuli/spore_stims/complex_16_B_b.gif","right","","","","",""
"","null","html-keyboard-response","64","298642","0.0-17.0-0.1","SS1613080403796","","","null","","","","","<p><img src= images/blank.png width =""200"" height = ""200"" style = ""float:right""></p><p><img src=images/blank.png width =""800"" height = ""200""></p>","","","","","","","","","","","",""
"","4876.189999999013","sequential-stimulus-presentation","65","304335","0.0-17.0-1.1","SS1613080403796","trial","","40","800","5676.189999999013","images/stimuli/spore_stims/complex_16_A_b.gif","images/stimuli/spore_stims/complex_16_B_b.gif","","","","","3","complex_similar","images/stimuli/spore_stims/complex_16_B_b.gif","right","","","","",""
"","null","html-keyboard-response","66","305206","0.0-17.0-0.2","SS1613080403796","","","null","","","","","<p><img src= images/blank.png width =""200"" height = ""200"" style = ""float:right""></p><p><img src=images/blank.png width =""800"" height = ""200""></p>","","","","","","","","","","","",""
"","1049.4849999995204","sequential-stimulus-presentation","67","307072","0.0-17.0-1.2","SS1613080403796","trial","","40","800","1849.4849999995204","images/stimuli/spore_stims/complex_16_A_b.gif","images/stimuli/spore_stims/complex_16_B_b.gif","","","","","3","complex_similar","images/stimuli/spore_stims/complex_16_B_b.gif","right","","","","",""
"","null","html-keyboard-response","68","308359","0.0-17.0-0.3","SS1613080403796","","","null","","","","","<p><img src= images/blank.png width =""200"" height = ""200"" style = ""float:right""></p><p><img src=images/blank.png width =""800"" height = ""200""></p>","","","","","","","","","","","",""
"","920.7150000002002","sequential-stimulus-presentation","69","310095","0.0-17.0-1.3","SS1613080403796","trial","","40","800","1720.7150000002002","images/stimuli/spore_stims/complex_16_A_b.gif","images/stimuli/spore_stims/complex_16_B_b.gif","","","","","3","complex_similar","images/stimuli/spore_stims/complex_16_B_b.gif","right","","","","",""
"","null","html-keyboard-response","70","311329","0.0-17.0-0.4","SS1613080403796","","","null","","","","","<p><img src= images/blank.png width =""200"" height = ""200"" style = ""float:right""></p><p><img src=images/blank.png width =""800"" height = ""200""></p>","","","","","","","","","","","",""
"","103.89999999827705","sequential-stimulus-presentation","71","312248","0.0-17.0-1.4","SS1613080403796","trial","","40","800","903.899999998277","images/stimuli/spore_stims/complex_16_A_b.gif","images/stimuli/spore_stims/complex_16_B_b.gif","","","","","3","complex_similar","images/stimuli/spore_stims/complex_16_B_b.gif","right","","","","",""
"","null","html-keyboard-response","72","313415","0.0-17.0-0.5","SS1613080403796","","","null","","","","","<p><img src= images/blank.png width =""200"" height = ""200"" style = ""float:right""></p><p><img src=images/blank.png width =""800"" height = ""200""></p>","","","","","","","","","","","",""
"","1199.4049999993877","sequential-stimulus-presentation","73","315456","0.0-17.0-1.5","SS1613080403796","trial","","40","800","1999.4049999993877","images/stimuli/spore_stims/complex_16_A_b.gif","images/stimuli/spore_stims/complex_16_B_b.gif","","","","","3","complex_similar","images/stimuli/spore_stims/complex_16_A_b.gif","middle","","","","",""
"","null","html-keyboard-response","74","316604","0.0-17.0-0.6","SS1613080403796","","","null","","","","","<p><img src= images/blank.png width =""200"" height = ""200"" style = ""float:right""></p><p><img src=images/blank.png width =""800"" height = ""200""></p>","","","","","","","","","","","",""
"","2379.0700000027427","sequential-stimulus-presentation","75","319799","0.0-17.0-1.6","SS1613080403796","trial","","40","800","3179.0700000027427","images/stimuli/spore_stims/complex_16_A_b.gif","images/stimuli/spore_stims/complex_16_B_b.gif","","","","","3","complex_similar","images/stimuli/spore_stims/complex_16_B_b.gif","right","","","","",""
"","null","html-keyboard-response","76","320664","0.0-17.0-0.7","SS1613080403796","","","null","","","","","<p><img src= images/blank.png width =""200"" height = ""200"" style = ""float:right""></p><p><img src=images/blank.png width =""800"" height = ""200""></p>","","","","","","","","","","","",""
"","1902.8299999991432","sequential-stimulus-presentation","77","323383","0.0-17.0-1.7","SS1613080403796","trial","","40","800","2702.829999999143","images/stimuli/spore_stims/complex_16_A_b.gif","images/stimuli/spore_stims/complex_16_B_b.gif","","","","","3","complex_similar","images/stimuli/spore_stims/complex_16_B_b.gif","right","","","","",""
"","4003.469999999623","html-keyboard-response","78","327399","0.0-18.0","SS1613080403796","pref_question","","97","","","","","<video width ='960' height = '540' style='padding-top:8%' autoplay muted><source src='images/stimuli/wall_pref.mp4' type='video/mp4'></video>","1","left","25%","3","","","","","","","",""
"","2397.800000002433","sequential-stimulus-presentation","79","330616","0.0-19.0","SS1613080403796","pref_reveal","","40","800","3197.800000002433","null","null","","","","","3","","","","novel","","","",""
"","null","html-keyboard-response","80","331830","0.0-20.0-0.0","SS1613080403796","","","null","","","","","<p><img src= images/blank.png width =""200"" height = ""200"" style = ""float:right""></p><p><img src=images/blank.png width =""800"" height = ""200""></p>","","","","","","","","","","","",""
"","8978.585000000778","sequential-stimulus-presentation","81","341624","0.0-20.0-1.0","SS1613080403796","trial","","40","800","9778.585000000778","images/stimuli/spore_stims/complex_12_A_d.gif","images/stimuli/spore_stims/complex_12_B_d.gif","","","","","4","complex_similar","images/stimuli/spore_stims/complex_12_B_d.gif","middle","","","","",""
"","null","html-keyboard-response","82","342519","0.0-20.0-0.1","SS1613080403796","","","null","","","","","<p><img src= images/blank.png width =""200"" height = ""200"" style = ""float:right""></p><p><img src=images/blank.png width =""800"" height = ""200""></p>","","","","","","","","","","","",""
"","3016.4199999999255","sequential-stimulus-presentation","83","346353","0.0-20.0-1.1","SS1613080403796","trial","","40","800","3816.4199999999255","images/stimuli/spore_stims/complex_12_A_d.gif","images/stimuli/spore_stims/complex_12_B_d.gif","","","","","4","complex_similar","images/stimuli/spore_stims/complex_12_B_d.gif","middle","","","","",""
"","null","html-keyboard-response","84","347327","0.0-20.0-0.2","SS1613080403796","","","null","","","","","<p><img src= images/blank.png width =""200"" height = ""200"" style = ""float:right""></p><p><img src=images/blank.png width =""800"" height = ""200""></p>","","","","","","","","","","","",""
"","5248.5749999978","sequential-stimulus-presentation","85","353392","0.0-20.0-1.2","SS1613080403796","trial","","40","800","6048.5749999978","images/stimuli/spore_stims/complex_12_A_d.gif","images/stimuli/spore_stims/complex_12_B_d.gif","","","","","4","complex_similar","images/stimuli/spore_stims/complex_12_A_d.gif","left","","","","",""
"","null","html-keyboard-response","86","354248","0.0-20.0-0.3","SS1613080403796","","","null","","","","","<p><img src= images/blank.png width =""200"" height = ""200"" style = ""float:right""></p><p><img src=images/blank.png width =""800"" height = ""200""></p>","","","","","","","","","","","",""
"","4278.82999999926","sequential-stimulus-presentation","87","359344","0.0-20.0-1.3","SS1613080403796","trial","","40","800","5078.82999999926","images/stimuli/spore_stims/complex_12_A_d.gif","images/stimuli/spore_stims/complex_12_B_d.gif","","","","","4","complex_similar","images/stimuli/spore_stims/complex_12_B_d.gif","middle","","","","",""
"","null","html-keyboard-response","88","360218","0.0-20.0-0.4","SS1613080403796","","","null","","","","","<p><img src= images/blank.png width =""200"" height = ""200"" style = ""float:right""></p><p><img src=images/blank.png width =""800"" height = ""200""></p>","","","","","","","","","","","",""
"","1637.6600000003236","sequential-stimulus-presentation","89","362673","0.0-20.0-1.4","SS1613080403796","trial","","40","800","2437.6600000003236","images/stimuli/spore_stims/complex_12_A_d.gif","images/stimuli/spore_stims/complex_12_B_d.gif","","","","","4","complex_similar","images/stimuli/spore_stims/complex_12_B_d.gif","middle","","","","",""
"","null","html-keyboard-response","90","363898","0.0-20.0-0.5","SS1613080403796","","","null","","","","","<p><img src= images/blank.png width =""200"" height = ""200"" style = ""float:right""></p><p><img src=images/blank.png width =""800"" height = ""200""></p>","","","","","","","","","","","",""
"","1396.969999997993","sequential-stimulus-presentation","91","366111","0.0-20.0-1.5","SS1613080403796","trial","","40","800","2196.969999997993","images/stimuli/spore_stims/complex_12_A_d.gif","images/stimuli/spore_stims/complex_12_B_d.gif","","","","","4","complex_similar","images/stimuli/spore_stims/complex_12_B_d.gif","middle","","","","",""
"","null","html-keyboard-response","92","367375","0.0-20.0-0.6","SS1613080403796","","","null","","","","","<p><img src= images/blank.png width =""200"" height = ""200"" style = ""float:right""></p><p><img src=images/blank.png width =""800"" height = ""200""></p>","","","","","","","","","","","",""
"","10496.474999999919","sequential-stimulus-presentation","93","378687","0.0-20.0-1.6","SS1613080403796","trial","","40","800","11296.474999999919","images/stimuli/spore_stims/complex_12_A_d.gif","images/stimuli/spore_stims/complex_12_B_d.gif","","","","","4","complex_similar","images/stimuli/spore_stims/complex_12_B_d.gif","middle","","","","",""
"","null","html-keyboard-response","94","379685","0.0-20.0-0.7","SS1613080403796","","","null","","","","","<p><img src= images/blank.png width =""200"" height = ""200"" style = ""float:right""></p><p><img src=images/blank.png width =""800"" height = ""200""></p>","","","","","","","","","","","",""
"","917.975000000326","sequential-stimulus-presentation","95","381422","0.0-20.0-1.7","SS1613080403796","trial","","40","800","1717.975000000326","images/stimuli/spore_stims/complex_12_A_d.gif","images/stimuli/spore_stims/complex_12_B_d.gif","","","","","4","complex_similar","images/stimuli/spore_stims/complex_12_B_d.gif","middle","","","","",""
"","2787.9500000016997","html-keyboard-response","96","384225","0.0-21.0","SS1613080403796","pref_question","","99","","","","","<video width ='960' height = '540' style='padding-top:8%' autoplay muted><source src='images/stimuli/wall_pref.mp4' type='video/mp4'></video>","3","right","66%","4","","","","","","","",""
"","8124.345000000147","sequential-stimulus-presentation","97","393168","0.0-22.0","SS1613080403796","pref_reveal","","40","800","8924.345000000147","null","null","","","","","4","","","","novel","","","",""
"","null","html-keyboard-response","98","394411","0.0-23.0-0.0","SS1613080403796","","","null","","","","","<p><img src= images/blank.png width =""200"" height = ""200"" style = ""float:right""></p><p><img src=images/blank.png width =""800"" height = ""200""></p>","","","","","","","","","","","",""
"","1274.8199999987846","sequential-stimulus-presentation","99","396503","0.0-23.0-1.0","SS1613080403796","trial","","40","800","2074.8199999987846","images/stimuli/spore_stims/complex_14_B_b.gif","images/stimuli/spore_stims/complex_17_A_b.gif","","","","","5","complex_dissimilar","images/stimuli/spore_stims/complex_17_A_b.gif","right","","","","",""
"","null","html-keyboard-response","100","397546","0.0-23.0-0.1","SS1613080403796","","","null","","","","","<p><img src= images/blank.png width =""200"" height = ""200"" style = ""float:right""></p><p><img src=images/blank.png width =""800"" height = ""200""></p>","","","","","","","","","","","",""
"","675.8149999987218","sequential-stimulus-presentation","101","399041","0.0-23.0-1.1","SS1613080403796","trial","","40","800","1475.8149999987218","images/stimuli/spore_stims/complex_14_B_b.gif","images/stimuli/spore_stims/complex_17_A_b.gif","","","","","5","complex_dissimilar","images/stimuli/spore_stims/complex_17_A_b.gif","right","","","","",""
"","null","html-keyboard-response","102","400337","0.0-23.0-0.2","SS1613080403796","","","null","","","","","<p><img src= images/blank.png width =""200"" height = ""200"" style = ""float:right""></p><p><img src=images/blank.png width =""800"" height = ""200""></p>","","","","","","","","","","","",""
"","3459.7649999995483","sequential-stimulus-presentation","103","404608","0.0-23.0-1.2","SS1613080403796","trial","","40","800","4259.764999999548","images/stimuli/spore_stims/complex_14_B_b.gif","images/stimuli/spore_stims/complex_17_A_b.gif","","","","","5","complex_dissimilar","images/stimuli/spore_stims/complex_14_B_b.gif","left","","","","",""
"","null","html-keyboard-response","104","405542","0.0-23.0-0.3","SS1613080403796","","","null","","","","","<p><img src= images/blank.png width =""200"" height = ""200"" style = ""float:right""></p><p><img src=images/blank.png width =""800"" height = ""200""></p>","","","","","","","","","","","",""
"","6432.919999999285","sequential-stimulus-presentation","105","412793","0.0-23.0-1.3","SS1613080403796","trial","","40","800","7232.919999999285","images/stimuli/spore_stims/complex_14_B_b.gif","images/stimuli/spore_stims/complex_17_A_b.gif","","","","","5","complex_dissimilar","images/stimuli/spore_stims/complex_17_A_b.gif","right","","","","",""
"","null","html-keyboard-response","106","413681","0.0-23.0-0.4","SS1613080403796","","","null","","","","","<p><img src= images/blank.png width =""200"" height = ""200"" style = ""float:right""></p><p><img src=images/blank.png width =""800"" height = ""200""></p>","","","","","","","","","","","",""
"","1208.489999997255","sequential-stimulus-presentation","107","415718","0.0-23.0-1.4","SS1613080403796","trial","","40","800","2008.489999997255","images/stimuli/spore_stims/complex_14_B_b.gif","images/stimuli/spore_stims/complex_17_A_b.gif","","","","","5","complex_dissimilar","images/stimuli/spore_stims/complex_17_A_b.gif","right","","","","",""
"","null","html-keyboard-response","108","416850","0.0-23.0-0.5","SS1613080403796","","","null","","","","","<p><img src= images/blank.png width =""200"" height = ""200"" style = ""float:right""></p><p><img src=images/blank.png width =""800"" height = ""200""></p>","","","","","","","","","","","",""
"","837.5249999989755","sequential-stimulus-presentation","109","418503","0.0-23.0-1.5","SS1613080403796","trial","","40","800","1637.5249999989755","images/stimuli/spore_stims/complex_14_B_b.gif","images/stimuli/spore_stims/complex_17_A_b.gif","","","","","5","complex_dissimilar","images/stimuli/spore_stims/complex_17_A_b.gif","right","","","","",""
"","null","html-keyboard-response","110","419795","0.0-23.0-0.6","SS1613080403796","","","null","","","","","<p><img src= images/blank.png width =""200"" height = ""200"" style = ""float:right""></p><p><img src=images/blank.png width =""800"" height = ""200""></p>","","","","","","","","","","","",""
"","2292.4000000021188","sequential-stimulus-presentation","111","422904","0.0-23.0-1.6","SS1613080403796","trial","","40","800","3092.4000000021188","images/stimuli/spore_stims/complex_14_B_b.gif","images/stimuli/spore_stims/complex_17_A_b.gif","","","","","5","complex_dissimilar","images/stimuli/spore_stims/complex_17_A_b.gif","right","","","","",""
"","null","html-keyboard-response","112","423978","0.0-23.0-0.7","SS1613080403796","","","null","","","","","<p><img src= images/blank.png width =""200"" height = ""200"" style = ""float:right""></p><p><img src=images/blank.png width =""800"" height = ""200""></p>","","","","","","","","","","","",""
"","896.5400000015507","sequential-stimulus-presentation","113","425696","0.0-23.0-1.7","SS1613080403796","trial","","40","800","1696.5400000015507","images/stimuli/spore_stims/complex_14_B_b.gif","images/stimuli/spore_stims/complex_17_A_b.gif","","","","","5","complex_dissimilar","images/stimuli/spore_stims/complex_17_A_b.gif","right","","","","",""
"","3840.554999998887","html-keyboard-response","114","429552","0.0-24.0","SS1613080403796","pref_question","","97","","","","","<video width ='960' height = '540' style='padding-top:8%' autoplay muted><source src='images/stimuli/wall_pref.mp4' type='video/mp4'></video>","1","left","25%","5","","","","","","","",""
"","6007.304999999178","sequential-stimulus-presentation","115","436375","0.0-25.0","SS1613080403796","pref_reveal","","40","800","6807.304999999178","null","null","","","","","5","","","","deviant","","","",""
"","null","html-keyboard-response","116","437209","0.0-26.0-0.0","SS1613080403796","","","null","","","","","<p><img src= images/blank.png width =""200"" height = ""200"" style = ""float:right""></p><p><img src=images/blank.png width =""800"" height = ""200""></p>","","","","","","","","","","","",""
"","57.424999999057036","sequential-stimulus-presentation","117","438087","0.0-26.0-1.0","SS1613080403796","trial","","40","800","857.424999999057","images/stimuli/spore_stims/simple_13_A_b.gif","images/stimuli/spore_stims/simple_09_B_d.gif","","","","","6","simple_dissimilar","images/stimuli/spore_stims/simple_09_B_d.gif","left","","","","",""
"","null","html-keyboard-response","118","439413","0.0-26.0-0.1","SS1613080403796","","","null","","","","","<p><img src= images/blank.png width =""200"" height = ""200"" style = ""float:right""></p><p><img src=images/blank.png width =""800"" height = ""200""></p>","","","","","","","","","","","",""
"","1567.2650000014692","sequential-stimulus-presentation","119","441799","0.0-26.0-1.1","SS1613080403796","trial","","40","800","2367.265000001469","images/stimuli/spore_stims/simple_13_A_b.gif","images/stimuli/spore_stims/simple_09_B_d.gif","","","","","6","simple_dissimilar","images/stimuli/spore_stims/simple_09_B_d.gif","left","","","","",""
"","null","html-keyboard-response","120","442923","0.0-26.0-0.2","SS1613080403796","","","null","","","","","<p><img src= images/blank.png width =""200"" height = ""200"" style = ""float:right""></p><p><img src=images/blank.png width =""800"" height = ""200""></p>","","","","","","","","","","","",""
"","707.1450000003679","sequential-stimulus-presentation","121","444447","0.0-26.0-1.2","SS1613080403796","trial","","40","800","1507.1450000003679","images/stimuli/spore_stims/simple_13_A_b.gif","images/stimuli/spore_stims/simple_09_B_d.gif","","","","","6","simple_dissimilar","images/stimuli/spore_stims/simple_09_B_d.gif","left","","","","",""
"","null","html-keyboard-response","122","445650","0.0-26.0-0.3","SS1613080403796","","","null","","","","","<p><img src= images/blank.png width =""200"" height = ""200"" style = ""float:right""></p><p><img src=images/blank.png width =""800"" height = ""200""></p>","","","","","","","","","","","",""
"","1025.5849999993807","sequential-stimulus-presentation","123","447493","0.0-26.0-1.3","SS1613080403796","trial","","40","800","1825.5849999993807","images/stimuli/spore_stims/simple_13_A_b.gif","images/stimuli/spore_stims/simple_09_B_d.gif","","","","","6","simple_dissimilar","images/stimuli/spore_stims/simple_09_B_d.gif","left","","","","",""
"","null","html-keyboard-response","124","448536","0.0-26.0-0.4","SS1613080403796","","","null","","","","","<p><img src= images/blank.png width =""200"" height = ""200"" style = ""float:right""></p><p><img src=images/blank.png width =""800"" height = ""200""></p>","","","","","","","","","","","",""
"","2734.7449999979","sequential-stimulus-presentation","125","452087","0.0-26.0-1.4","SS1613080403796","trial","","40","800","3534.7449999979","images/stimuli/spore_stims/simple_13_A_b.gif","images/stimuli/spore_stims/simple_09_B_d.gif","","","","","6","simple_dissimilar","images/stimuli/spore_stims/simple_13_A_b.gif","right","","","","",""
"","null","html-keyboard-response","126","453119","0.0-26.0-0.5","SS1613080403796","","","null","","","","","<p><img src= images/blank.png width =""200"" height = ""200"" style = ""float:right""></p><p><img src=images/blank.png width =""800"" height = ""200""></p>","","","","","","","","","","","",""
"","222.77000000036787","sequential-stimulus-presentation","127","454160","0.0-26.0-1.5","SS1613080403796","trial","","40","800","1022.7700000003679","images/stimuli/spore_stims/simple_13_A_b.gif","images/stimuli/spore_stims/simple_09_B_d.gif","","","","","6","simple_dissimilar","images/stimuli/spore_stims/simple_09_B_d.gif","left","","","","",""
"","null","html-keyboard-response","128","455364","0.0-26.0-0.6","SS1613080403796","","","null","","","","","<p><img src= images/blank.png width =""200"" height = ""200"" style = ""float:right""></p><p><img src=images/blank.png width =""800"" height = ""200""></p>","","","","","","","","","","","",""
"","1848.1800000008661","sequential-stimulus-presentation","129","458031","0.0-26.0-1.6","SS1613080403796","trial","","40","800","2648.180000000866","images/stimuli/spore_stims/simple_13_A_b.gif","images/stimuli/spore_stims/simple_09_B_d.gif","","","","","6","simple_dissimilar","images/stimuli/spore_stims/simple_09_B_d.gif","left","","","","",""
"","null","html-keyboard-response","130","459288","0.0-26.0-0.7","SS1613080403796","","","null","","","","","<p><img src= images/blank.png width =""200"" height = ""200"" style = ""float:right""></p><p><img src=images/blank.png width =""800"" height = ""200""></p>","","","","","","","","","","","",""
"","8483.474999997241","sequential-stimulus-presentation","131","468591","0.0-26.0-1.7","SS1613080403796","trial","","40","800","9283.474999997241","images/stimuli/spore_stims/simple_13_A_b.gif","images/stimuli/spore_stims/simple_09_B_d.gif","","","","","6","simple_dissimilar","images/stimuli/spore_stims/simple_09_B_d.gif","left","","","","",""
"","1928.8249999990803","html-keyboard-response","132","470535","0.0-27.0","SS1613080403796","pref_question","","98","","","","","<video width ='960' height = '540' style='padding-top:8%' autoplay muted><source src='images/stimuli/wall_pref.mp4' type='video/mp4'></video>","2","middle","45%","6","","","","","","","",""
"","1821.3450000003213","sequential-stimulus-presentation","133","473175","0.0-28.0","SS1613080403796","pref_reveal","","40","800","2621.3450000003213","null","null","","","","","6","","","","novel","","","",""
"","null","html-keyboard-response","134","474211","0.0-29.0-0.0","SS1613080403796","","","null","","","","","<p><img src= images/blank.png width =""200"" height = ""200"" style = ""float:right""></p><p><img src=images/blank.png width =""800"" height = ""200""></p>","","","","","","","","","","","",""
"","225.71500000043306","sequential-stimulus-presentation","135","475254","0.0-29.0-1.0","SS1613080403796","trial","","40","800","1025.715000000433","images/stimuli/spore_stims/simple_10_A_c.gif","images/stimuli/spore_stims/simple_17_B_b.gif","","","","","7","simple_dissimilar","images/stimuli/spore_stims/simple_17_B_b.gif","middle","","","","",""
"","null","html-keyboard-response","136","476525","0.0-29.0-0.1","SS1613080403796","","","null","","","","","<p><img src= images/blank.png width =""200"" height = ""200"" style = ""float:right""></p><p><img src=images/blank.png width =""800"" height = ""200""></p>","","","","","","","","","","","",""
"","456.41499999689404","sequential-stimulus-presentation","137","477801","0.0-29.0-1.1","SS1613080403796","trial","","40","800","1256.414999996894","images/stimuli/spore_stims/simple_10_A_c.gif","images/stimuli/spore_stims/simple_17_B_b.gif","","","","","7","simple_dissimilar","images/stimuli/spore_stims/simple_17_B_b.gif","middle","","","","",""
"","null","html-keyboard-response","138","478899","0.0-29.0-0.2","SS1613080403796","","","null","","","","","<p><img src= images/blank.png width =""200"" height = ""200"" style = ""float:right""></p><p><img src=images/blank.png width =""800"" height = ""200""></p>","","","","","","","","","","","",""
"","681.8400000010733","sequential-stimulus-presentation","139","480398","0.0-29.0-1.2","SS1613080403796","trial","","40","800","1481.8400000010733","images/stimuli/spore_stims/simple_10_A_c.gif","images/stimuli/spore_stims/simple_17_B_b.gif","","","","","7","simple_dissimilar","images/stimuli/spore_stims/simple_10_A_c.gif","right","","","","",""
"","null","html-keyboard-response","140","481390","0.0-29.0-0.3","SS1613080403796","","","null","","","","","<p><img src= images/blank.png width =""200"" height = ""200"" style = ""float:right""></p><p><img src=images/blank.png width =""800"" height = ""200""></p>","","","","","","","","","","","",""
"","349.6149999991758","sequential-stimulus-presentation","141","482559","0.0-29.0-1.3","SS1613080403796","trial","","40","800","1149.6149999991758","images/stimuli/spore_stims/simple_10_A_c.gif","images/stimuli/spore_stims/simple_17_B_b.gif","","","","","7","simple_dissimilar","images/stimuli/spore_stims/simple_17_B_b.gif","middle","","","","",""
"","null","html-keyboard-response","142","483732","0.0-29.0-0.4","SS1613080403796","","","null","","","","","<p><img src= images/blank.png width =""200"" height = ""200"" style = ""float:right""></p><p><img src=images/blank.png width =""800"" height = ""200""></p>","","","","","","","","","","","",""
"","550.1450000010664","sequential-stimulus-presentation","143","485111","0.0-29.0-1.4","SS1613080403796","trial","","40","800","1350.1450000010664","images/stimuli/spore_stims/simple_10_A_c.gif","images/stimuli/spore_stims/simple_17_B_b.gif","","","","","7","simple_dissimilar","images/stimuli/spore_stims/simple_17_B_b.gif","middle","","","","",""
"","null","html-keyboard-response","144","486065","0.0-29.0-0.5","SS1613080403796","","","null","","","","","<p><img src= images/blank.png width =""200"" height = ""200"" style = ""float:right""></p><p><img src=images/blank.png width =""800"" height = ""200""></p>","","","","","","","","","","","",""
"","650.6300000001211","sequential-stimulus-presentation","145","487534","0.0-29.0-1.5","SS1613080403796","trial","","40","800","1450.630000000121","images/stimuli/spore_stims/simple_10_A_c.gif","images/stimuli/spore_stims/simple_17_B_b.gif","","","","","7","simple_dissimilar","images/stimuli/spore_stims/simple_17_B_b.gif","middle","","","","",""
"","null","html-keyboard-response","146","488610","0.0-29.0-0.6","SS1613080403796","","","null","","","","","<p><img src= images/blank.png width =""200"" height = ""200"" style = ""float:right""></p><p><img src=images/blank.png width =""800"" height = ""200""></p>","","","","","","","","","","","",""
"","2644.6950000026263","sequential-stimulus-presentation","147","492072","0.0-29.0-1.6","SS1613080403796","trial","","40","800","3444.6950000026263","images/stimuli/spore_stims/simple_10_A_c.gif","images/stimuli/spore_stims/simple_17_B_b.gif","","","","","7","simple_dissimilar","images/stimuli/spore_stims/simple_17_B_b.gif","middle","","","","",""
"","null","html-keyboard-response","148","492955","0.0-29.0-0.7","SS1613080403796","","","null","","","","","<p><img src= images/blank.png width =""200"" height = ""200"" style = ""float:right""></p><p><img src=images/blank.png width =""800"" height = ""200""></p>","","","","","","","","","","","",""
"","638.9199999975972","sequential-stimulus-presentation","149","494414","0.0-29.0-1.7","SS1613080403796","trial","","40","800","1438.9199999975972","images/stimuli/spore_stims/simple_10_A_c.gif","images/stimuli/spore_stims/simple_17_B_b.gif","","","","","7","simple_dissimilar","images/stimuli/spore_stims/simple_17_B_b.gif","middle","","","","",""
"","2751.5800000000745","html-keyboard-response","150","497184","0.0-30.0","SS1613080403796","pref_question","","97","","","","","<video width ='960' height = '540' style='padding-top:8%' autoplay muted><source src='images/stimuli/wall_pref.mp4' type='video/mp4'></video>","1","left","25%","7","","","","","","","",""
"","434.08500000077765","sequential-stimulus-presentation","151","498439","0.0-31.0","SS1613080403796","pref_reveal","","40","800","1234.0850000007777","null","null","","","","","7","","","","novel","","","",""
"","null","html-keyboard-response","152","499296","0.0-32.0-0.0","SS1613080403796","","","null","","","","","<p><img src= images/blank.png width =""200"" height = ""200"" style = ""float:right""></p><p><img src=images/blank.png width =""800"" height = ""200""></p>","","","","","","","","","","","",""
"","114.59000000113156","sequential-stimulus-presentation","153","500230","0.0-32.0-1.0","SS1613080403796","trial","","40","800","914.5900000011316","images/stimuli/spore_stims/simple_12_B_b.gif","images/stimuli/spore_stims/simple_12_A_b.gif","","","","","8","simple_similar","images/stimuli/spore_stims/simple_12_A_b.gif","middle","","","","",""
"","null","html-keyboard-response","154","501313","0.0-32.0-0.1","SS1613080403796","","","null","","","","","<p><img src= images/blank.png width =""200"" height = ""200"" style = ""float:right""></p><p><img src=images/blank.png width =""800"" height = ""200""></p>","","","","","","","","","","","",""
"","833.8250000015832","sequential-stimulus-presentation","155","502966","0.0-32.0-1.1","SS1613080403796","trial","","40","800","1633.8250000015832","images/stimuli/spore_stims/simple_12_B_b.gif","images/stimuli/spore_stims/simple_12_A_b.gif","","","","","8","simple_similar","images/stimuli/spore_stims/simple_12_A_b.gif","middle","","","","",""
"","null","html-keyboard-response","156","503788","0.0-32.0-0.2","SS1613080403796","","","null","","","","","<p><img src= images/blank.png width =""200"" height = ""200"" style = ""float:right""></p><p><img src=images/blank.png width =""800"" height = ""200""></p>","","","","","","","","","","","",""
"","107.45000000309665","sequential-stimulus-presentation","157","504718","0.0-32.0-1.2","SS1613080403796","trial","","40","800","907.4500000030966","images/stimuli/spore_stims/simple_12_B_b.gif","images/stimuli/spore_stims/simple_12_A_b.gif","","","","","8","simple_similar","images/stimuli/spore_stims/simple_12_B_b.gif","left","","","","",""
"","null","html-keyboard-response","158","505532","0.0-32.0-0.3","SS1613080403796","","","null","","","","","<p><img src= images/blank.png width =""200"" height = ""200"" style = ""float:right""></p><p><img src=images/blank.png width =""800"" height = ""200""></p>","","","","","","","","","","","",""
"","149.1550000028219","sequential-stimulus-presentation","159","506501","0.0-32.0-1.3","SS1613080403796","trial","","40","800","949.1550000028219","images/stimuli/spore_stims/simple_12_B_b.gif","images/stimuli/spore_stims/simple_12_A_b.gif","","","","","8","simple_similar","images/stimuli/spore_stims/simple_12_A_b.gif","middle","","","","",""
"","null","html-keyboard-response","160","507663","0.0-32.0-0.4","SS1613080403796","","","null","","","","","<p><img src= images/blank.png width =""200"" height = ""200"" style = ""float:right""></p><p><img src=images/blank.png width =""800"" height = ""200""></p>","","","","","","","","","","","",""
"","811.7749999983935","sequential-stimulus-presentation","161","509298","0.0-32.0-1.4","SS1613080403796","trial","","40","800","1611.7749999983935","images/stimuli/spore_stims/simple_12_B_b.gif","images/stimuli/spore_stims/simple_12_A_b.gif","","","","","8","simple_similar","images/stimuli/spore_stims/simple_12_A_b.gif","middle","","","","",""
"","null","html-keyboard-response","162","510152","0.0-32.0-0.5","SS1613080403796","","","null","","","","","<p><img src= images/blank.png width =""200"" height = ""200"" style = ""float:right""></p><p><img src=images/blank.png width =""800"" height = ""200""></p>","","","","","","","","","","","",""
"","564.7250000002095","sequential-stimulus-presentation","163","511536","0.0-32.0-1.5","SS1613080403796","trial","","40","800","1364.7250000002095","images/stimuli/spore_stims/simple_12_B_b.gif","images/stimuli/spore_stims/simple_12_A_b.gif","","","","","8","simple_similar","images/stimuli/spore_stims/simple_12_A_b.gif","middle","","","","",""
"","null","html-keyboard-response","164","512398","0.0-32.0-0.6","SS1613080403796","","","null","","","","","<p><img src= images/blank.png width =""200"" height = ""200"" style = ""float:right""></p><p><img src=images/blank.png width =""800"" height = ""200""></p>","","","","","","","","","","","",""
"","1541.7750000015367","sequential-stimulus-presentation","165","514759","0.0-32.0-1.6","SS1613080403796","trial","","40","800","2341.7750000015367","images/stimuli/spore_stims/simple_12_B_b.gif","images/stimuli/spore_stims/simple_12_A_b.gif","","","","","8","simple_similar","images/stimuli/spore_stims/simple_12_A_b.gif","middle","","","","",""
"","null","html-keyboard-response","166","515680","0.0-32.0-0.7","SS1613080403796","","","null","","","","","<p><img src= images/blank.png width =""200"" height = ""200"" style = ""float:right""></p><p><img src=images/blank.png width =""800"" height = ""200""></p>","","","","","","","","","","","",""
"","3508.6200000005774","sequential-stimulus-presentation","167","520000","0.0-32.0-1.7","SS1613080403796","trial","","40","800","4308.620000000577","images/stimuli/spore_stims/simple_12_B_b.gif","images/stimuli/spore_stims/simple_12_A_b.gif","","","","","8","simple_similar","images/stimuli/spore_stims/simple_12_A_b.gif","middle","","","","",""
"","1678.5249999994412","html-keyboard-response","168","521697","0.0-33.0","SS1613080403796","pref_question","","98","","","","","<video width ='960' height = '540' style='padding-top:8%' autoplay muted><source src='images/stimuli/wall_pref.mp4' type='video/mp4'></video>","2","middle","45%","8","","","","","","","",""
"","539.0450000013225","sequential-stimulus-presentation","169","523055","0.0-34.0","SS1613080403796","pref_reveal","","40","800","1339.0450000013225","null","null","","","","","8","","","","background","","","",""
"","null","html-keyboard-response","170","524184","0.0-35.0-0.0","SS1613080403796","","","null","","","","","<p><img src= images/blank.png width =""200"" height = ""200"" style = ""float:right""></p><p><img src=images/blank.png width =""800"" height = ""200""></p>","","","","","","","","","","","",""
"","2308.91999999946","sequential-stimulus-presentation","171","527303","0.0-35.0-1.0","SS1613080403796","trial","","40","800","3108.91999999946","images/stimuli/spore_stims/simple_20_B_a.gif","images/stimuli/spore_stims/simple_20_A_a.gif","","","","","9","simple_similar","images/stimuli/spore_stims/simple_20_A_a.gif","middle","","","","",""
"","null","html-keyboard-response","172","528255","0.0-35.0-0.1","SS1613080403796","","","null","","","","","<p><img src= images/blank.png width =""200"" height = ""200"" style = ""float:right""></p><p><img src=images/blank.png width =""800"" height = ""200""></p>","","","","","","","","","","","",""
"","739.3799999991897","sequential-stimulus-presentation","173","529815","0.0-35.0-1.1","SS1613080403796","trial","","40","800","1539.3799999991897","images/stimuli/spore_stims/simple_20_B_a.gif","images/stimuli/spore_stims/simple_20_A_a.gif","","","","","9","simple_similar","images/stimuli/spore_stims/simple_20_A_a.gif","middle","","","","",""
"","null","html-keyboard-response","174","530701","0.0-35.0-0.2","SS1613080403796","","","null","","","","","<p><img src= images/blank.png width =""200"" height = ""200"" style = ""float:right""></p><p><img src=images/blank.png width =""800"" height = ""200""></p>","","","","","","","","","","","",""
"","992.0500000007451","sequential-stimulus-presentation","175","532510","0.0-35.0-1.2","SS1613080403796","trial","","40","800","1792.050000000745","images/stimuli/spore_stims/simple_20_B_a.gif","images/stimuli/spore_stims/simple_20_A_a.gif","","","","","9","simple_similar","images/stimuli/spore_stims/simple_20_B_a.gif","left","","","","",""
"","null","html-keyboard-response","176","533343","0.0-35.0-0.3","SS1613080403796","","","null","","","","","<p><img src= images/blank.png width =""200"" height = ""200"" style = ""float:right""></p><p><img src=images/blank.png width =""800"" height = ""200""></p>","","","","","","","","","","","",""
"","75.33499999775086","sequential-stimulus-presentation","177","534239","0.0-35.0-1.3","SS1613080403796","trial","","40","800","875.3349999977509","images/stimuli/spore_stims/simple_20_B_a.gif","images/stimuli/spore_stims/simple_20_A_a.gif","","","","","9","simple_similar","images/stimuli/spore_stims/simple_20_A_a.gif","middle","","","","",""
"","null","html-keyboard-response","178","535332","0.0-35.0-0.4","SS1613080403796","","","null","","","","","<p><img src= images/blank.png width =""200"" height = ""200"" style = ""float:right""></p><p><img src=images/blank.png width =""800"" height = ""200""></p>","","","","","","","","","","","",""
"","457.1350000005914","sequential-stimulus-presentation","179","536606","0.0-35.0-1.4","SS1613080403796","trial","","40","800","1257.1350000005914","images/stimuli/spore_stims/simple_20_B_a.gif","images/stimuli/spore_stims/simple_20_A_a.gif","","","","","9","simple_similar","images/stimuli/spore_stims/simple_20_A_a.gif","middle","","","","",""
"","null","html-keyboard-response","180","537636","0.0-35.0-0.5","SS1613080403796","","","null","","","","","<p><img src= images/blank.png width =""200"" height = ""200"" style = ""float:right""></p><p><img src=images/blank.png width =""800"" height = ""200""></p>","","","","","","","","","","","",""
"","168.14499999966938","sequential-stimulus-presentation","181","538623","0.0-35.0-1.5","SS1613080403796","trial","","40","800","968.1449999996694","images/stimuli/spore_stims/simple_20_B_a.gif","images/stimuli/spore_stims/simple_20_A_a.gif","","","","","9","simple_similar","images/stimuli/spore_stims/simple_20_A_a.gif","middle","","","","",""
"","null","html-keyboard-response","182","539870","0.0-35.0-0.6","SS1613080403796","","","null","","","","","<p><img src= images/blank.png width =""200"" height = ""200"" style = ""float:right""></p><p><img src=images/blank.png width =""800"" height = ""200""></p>","","","","","","","","","","","",""
"","604.0049999974435","sequential-stimulus-presentation","183","541293","0.0-35.0-1.6","SS1613080403796","trial","","40","800","1404.0049999974435","images/stimuli/spore_stims/simple_20_B_a.gif","images/stimuli/spore_stims/simple_20_A_a.gif","","","","","9","simple_similar","images/stimuli/spore_stims/simple_20_A_a.gif","middle","","","","",""
"","null","html-keyboard-response","184","542164","0.0-35.0-0.7","SS1613080403796","","","null","","","","","<p><img src= images/blank.png width =""200"" height = ""200"" style = ""float:right""></p><p><img src=images/blank.png width =""800"" height = ""200""></p>","","","","","","","","","","","",""
"","1278.07499999844","sequential-stimulus-presentation","185","544263","0.0-35.0-1.7","SS1613080403796","trial","","40","800","2078.07499999844","images/stimuli/spore_stims/simple_20_B_a.gif","images/stimuli/spore_stims/simple_20_A_a.gif","","","","","9","simple_similar","images/stimuli/spore_stims/simple_20_A_a.gif","middle","","","","",""
"","2372.494999999646","html-keyboard-response","186","546648","0.0-36.0","SS1613080403796","pref_question","","97","","","","","<video width ='960' height = '540' style='padding-top:8%' autoplay muted><source src='images/stimuli/wall_pref.mp4' type='video/mp4'></video>","1","left","25%","9","","","","","","","",""
"","6770.119999997318","sequential-stimulus-presentation","187","554238","0.0-37.0","SS1613080403796","pref_reveal","","40","800","7570.119999997318","null","null","","","","","9","","","","deviant","","","",""
"","null","html-keyboard-response","188","555324","0.0-38.0-0.0","SS1613080403796","","","null","","","","","<p><img src= images/blank.png width =""200"" height = ""200"" style = ""float:right""></p><p><img src=images/blank.png width =""800"" height = ""200""></p>","","","","","","","","","","","",""
"","75.39499999990221","sequential-stimulus-presentation","189","556223","0.0-38.0-1.0","SS1613080403796","trial","","40","800","875.3949999999022","images/stimuli/spore_stims/complex_05_A_b.gif","images/stimuli/spore_stims/complex_05_B_b.gif","","","","","10","complex_similar","images/stimuli/spore_stims/complex_05_B_b.gif","right","","","","",""
"","null","html-keyboard-response","190","557304","0.0-38.0-0.1","SS1613080403796","","","null","","","","","<p><img src= images/blank.png width =""200"" height = ""200"" style = ""float:right""></p><p><img src=images/blank.png width =""800"" height = ""200""></p>","","","","","","","","","","","",""
"","513.5450000015553","sequential-stimulus-presentation","191","558638","0.0-38.0-1.1","SS1613080403796","trial","","40","800","1313.5450000015553","images/stimuli/spore_stims/complex_05_A_b.gif","images/stimuli/spore_stims/complex_05_B_b.gif","","","","","10","complex_similar","images/stimuli/spore_stims/complex_05_B_b.gif","right","","","","",""
"","null","html-keyboard-response","192","559710","0.0-38.0-0.2","SS1613080403796","","","null","","","","","<p><img src= images/blank.png width =""200"" height = ""200"" style = ""float:right""></p><p><img src=images/blank.png width =""800"" height = ""200""></p>","","","","","","","","","","","",""
"","107.64500000001863","sequential-stimulus-presentation","193","560639","0.0-38.0-1.2","SS1613080403796","trial","","40","800","907.6450000000186","images/stimuli/spore_stims/complex_05_A_b.gif","images/stimuli/spore_stims/complex_05_B_b.gif","","","","","10","complex_similar","images/stimuli/spore_stims/complex_05_B_b.gif","right","","","","",""
"","null","html-keyboard-response","194","561687","0.0-38.0-0.3","SS1613080403796","","","null","","","","","<p><img src= images/blank.png width =""200"" height = ""200"" style = ""float:right""></p><p><img src=images/blank.png width =""800"" height = ""200""></p>","","","","","","","","","","","",""
"","130.4450000023935","sequential-stimulus-presentation","195","562639","0.0-38.0-1.3","SS1613080403796","trial","","40","800","930.4450000023935","images/stimuli/spore_stims/complex_05_A_b.gif","images/stimuli/spore_stims/complex_05_B_b.gif","","","","","10","complex_similar","images/stimuli/spore_stims/complex_05_B_b.gif","right","","","","",""
"","null","html-keyboard-response","196","563694","0.0-38.0-0.4","SS1613080403796","","","null","","","","","<p><img src= images/blank.png width =""200"" height = ""200"" style = ""float:right""></p><p><img src=images/blank.png width =""800"" height = ""200""></p>","","","","","","","","","","","",""
"","43.79000000329688","sequential-stimulus-presentation","197","564559","0.0-38.0-1.4","SS1613080403796","trial","","40","800","843.7900000032969","images/stimuli/spore_stims/complex_05_A_b.gif","images/stimuli/spore_stims/complex_05_B_b.gif","","","","","10","complex_similar","images/stimuli/spore_stims/complex_05_B_b.gif","right","","","","",""
"","null","html-keyboard-response","198","565505","0.0-38.0-0.5","SS1613080403796","","","null","","","","","<p><img src= images/blank.png width =""200"" height = ""200"" style = ""float:right""></p><p><img src=images/blank.png width =""800"" height = ""200""></p>","","","","","","","","","","","",""
"","363.8600000012666","sequential-stimulus-presentation","199","566708","0.0-38.0-1.5","SS1613080403796","trial","","40","800","1163.8600000012666","images/stimuli/spore_stims/complex_05_A_b.gif","images/stimuli/spore_stims/complex_05_B_b.gif","","","","","10","complex_similar","images/stimuli/spore_stims/complex_05_A_b.gif","left","","","","",""
"","null","html-keyboard-response","200","567964","0.0-38.0-0.6","SS1613080403796","","","null","","","","","<p><img src= images/blank.png width =""200"" height = ""200"" style = ""float:right""></p><p><img src=images/blank.png width =""800"" height = ""200""></p>","","","","","","","","","","","",""
"","443.0900000006659","sequential-stimulus-presentation","201","569231","0.0-38.0-1.6","SS1613080403796","trial","","40","800","1243.090000000666","images/stimuli/spore_stims/complex_05_A_b.gif","images/stimuli/spore_stims/complex_05_B_b.gif","","","","","10","complex_similar","images/stimuli/spore_stims/complex_05_B_b.gif","right","","","","",""
"","null","html-keyboard-response","202","570402","0.0-38.0-0.7","SS1613080403796","","","null","","","","","<p><img src= images/blank.png width =""200"" height = ""200"" style = ""float:right""></p><p><img src=images/blank.png width =""800"" height = ""200""></p>","","","","","","","","","","","",""
"","177.03000000258908","sequential-stimulus-presentation","203","571399","0.0-38.0-1.7","SS1613080403796","trial","","40","800","977.0300000025891","images/stimuli/spore_stims/complex_05_A_b.gif","images/stimuli/spore_stims/complex_05_B_b.gif","","","","","10","complex_similar","images/stimuli/spore_stims/complex_05_B_b.gif","right","","","","",""
"","3866.4449999995995","html-keyboard-response","204","575306","0.0-39.0","SS1613080403796","pref_question","","97","","","","","<video width ='960' height = '540' style='padding-top:8%' autoplay muted><source src='images/stimuli/wall_pref.mp4' type='video/mp4'></video>","1","left","25%","10","","","","","","","",""
"","301.51499999919906","sequential-stimulus-presentation","205","576431","0.0-40.0","SS1613080403796","pref_reveal","","40","800","1101.514999999199","null","null","","","","","10","","","","deviant","","","",""
"","null","html-keyboard-response","206","577647","0.0-41.0-0.0","SS1613080403796","","","null","","","","","<p><img src= images/blank.png width =""200"" height = ""200"" style = ""float:right""></p><p><img src=images/blank.png width =""800"" height = ""200""></p>","","","","","","","","","","","",""
"","1415.499999999185","sequential-stimulus-presentation","207","579911","0.0-41.0-1.0","SS1613080403796","trial","","40","800","2215.499999999185","images/stimuli/spore_stims/complex_03_A_b.gif","images/stimuli/spore_stims/complex_19_B_b.gif","","","","","11","complex_dissimilar","images/stimuli/spore_stims/complex_19_B_b.gif","left","","","","",""
"","null","html-keyboard-response","208","581174","0.0-41.0-0.1","SS1613080403796","","","null","","","","","<p><img src= images/blank.png width =""200"" height = ""200"" style = ""float:right""></p><p><img src=images/blank.png width =""800"" height = ""200""></p>","","","","","","","","","","","",""
"","1068.070000001113","sequential-stimulus-presentation","209","583063","0.0-41.0-1.1","SS1613080403796","trial","","40","800","1868.070000001113","images/stimuli/spore_stims/complex_03_A_b.gif","images/stimuli/spore_stims/complex_19_B_b.gif","","","","","11","complex_dissimilar","images/stimuli/spore_stims/complex_19_B_b.gif","left","","","","",""
"","null","html-keyboard-response","210","584285","0.0-41.0-0.2","SS1613080403796","","","null","","","","","<p><img src= images/blank.png width =""200"" height = ""200"" style = ""float:right""></p><p><img src=images/blank.png width =""800"" height = ""200""></p>","","","","","","","","","","","",""
"","428.58999999950174","sequential-stimulus-presentation","211","585536","0.0-41.0-1.2","SS1613080403796","trial","","40","800","1228.5899999995017","images/stimuli/spore_stims/complex_03_A_b.gif","images/stimuli/spore_stims/complex_19_B_b.gif","","","","","11","complex_dissimilar","images/stimuli/spore_stims/complex_19_B_b.gif","left","","","","",""
"","null","html-keyboard-response","212","586453","0.0-41.0-0.3","SS1613080403796","","","null","","","","","<p><img src= images/blank.png width =""200"" height = ""200"" style = ""float:right""></p><p><img src=images/blank.png width =""800"" height = ""200""></p>","","","","","","","","","","","",""
"","481.9099999985192","sequential-stimulus-presentation","213","587759","0.0-41.0-1.3","SS1613080403796","trial","","40","800","1281.9099999985192","images/stimuli/spore_stims/complex_03_A_b.gif","images/stimuli/spore_stims/complex_19_B_b.gif","","","","","11","complex_dissimilar","images/stimuli/spore_stims/complex_19_B_b.gif","left","","","","",""
"","null","html-keyboard-response","214","589052","0.0-41.0-0.4","SS1613080403796","","","null","","","","","<p><img src= images/blank.png width =""200"" height = ""200"" style = ""float:right""></p><p><img src=images/blank.png width =""800"" height = ""200""></p>","","","","","","","","","","","",""
"","670.5250000014203","sequential-stimulus-presentation","215","590542","0.0-41.0-1.4","SS1613080403796","trial","","40","800","1470.5250000014203","images/stimuli/spore_stims/complex_03_A_b.gif","images/stimuli/spore_stims/complex_19_B_b.gif","","","","","11","complex_dissimilar","images/stimuli/spore_stims/complex_03_A_b.gif","middle","","","","",""
"","null","html-keyboard-response","216","591816","0.0-41.0-0.5","SS1613080403796","","","null","","","","","<p><img src= images/blank.png width =""200"" height = ""200"" style = ""float:right""></p><p><img src=images/blank.png width =""800"" height = ""200""></p>","","","","","","","","","","","",""
"","17.864999998011626","sequential-stimulus-presentation","217","592655","0.0-41.0-1.5","SS1613080403796","trial","","40","800","817.8649999980116","images/stimuli/spore_stims/complex_03_A_b.gif","images/stimuli/spore_stims/complex_19_B_b.gif","","","","","11","complex_dissimilar","images/stimuli/spore_stims/complex_19_B_b.gif","left","","","","",""
"","null","html-keyboard-response","218","593776","0.0-41.0-0.6","SS1613080403796","","","null","","","","","<p><img src= images/blank.png width =""200"" height = ""200"" style = ""float:right""></p><p><img src=images/blank.png width =""800"" height = ""200""></p>","","","","","","","","","","","",""
"","50.15999999886844","sequential-stimulus-presentation","219","594646","0.0-41.0-1.6","SS1613080403796","trial","","40","800","850.1599999988684","images/stimuli/spore_stims/complex_03_A_b.gif","images/stimuli/spore_stims/complex_19_B_b.gif","","","","","11","complex_dissimilar","images/stimuli/spore_stims/complex_19_B_b.gif","left","","","","",""
"","null","html-keyboard-response","220","595496","0.0-41.0-0.7","SS1613080403796","","","null","","","","","<p><img src= images/blank.png width =""200"" height = ""200"" style = ""float:right""></p><p><img src=images/blank.png width =""800"" height = ""200""></p>","","","","","","","","","","","",""
"","217.205000000773","sequential-stimulus-presentation","221","596534","0.0-41.0-1.7","SS1613080403796","trial","","40","800","1017.205000000773","images/stimuli/spore_stims/complex_03_A_b.gif","images/stimuli/spore_stims/complex_19_B_b.gif","","","","","11","complex_dissimilar","images/stimuli/spore_stims/complex_19_B_b.gif","left","","","","",""
"","2252.8050000001676","html-keyboard-response","222","598807","0.0-42.0","SS1613080403796","pref_question","","97","","","","","<video width ='960' height = '540' style='padding-top:8%' autoplay muted><source src='images/stimuli/wall_pref.mp4' type='video/mp4'></video>","1","left","25%","11","","","","","","","",""
"","274.3850000005914","sequential-stimulus-presentation","223","599904","0.0-43.0","SS1613080403796","pref_reveal","","40","800","1074.3850000005914","null","null","","","","","11","","","","background","","","",""
"","null","html-keyboard-response","224","600977","0.0-44.0-0.0","SS1613080403796","","","null","","","","","<p><img src= images/blank.png width =""200"" height = ""200"" style = ""float:right""></p><p><img src=images/blank.png width =""800"" height = ""200""></p>","","","","","","","","","","","",""
"","663.8350000029895","sequential-stimulus-presentation","225","602462","0.0-44.0-1.0","SS1613080403796","trial","","40","800","1463.8350000029895","images/stimuli/spore_stims/simple_08_A_b.gif","images/stimuli/spore_stims/simple_08_B_b.gif","","","","","12","simple_similar","images/stimuli/spore_stims/simple_08_B_b.gif","right","","","","",""
"","null","html-keyboard-response","226","603335","0.0-44.0-0.1","SS1613080403796","","","null","","","","","<p><img src= images/blank.png width =""200"" height = ""200"" style = ""float:right""></p><p><img src=images/blank.png width =""800"" height = ""200""></p>","","","","","","","","","","","",""
"","144.97000000125263","sequential-stimulus-presentation","227","604302","0.0-44.0-1.1","SS1613080403796","trial","","40","800","944.9700000012526","images/stimuli/spore_stims/simple_08_A_b.gif","images/stimuli/spore_stims/simple_08_B_b.gif","","","","","12","simple_similar","images/stimuli/spore_stims/simple_08_B_b.gif","right","","","","",""
"","null","html-keyboard-response","228","605159","0.0-44.0-0.2","SS1613080403796","","","null","","","","","<p><img src= images/blank.png width =""200"" height = ""200"" style = ""float:right""></p><p><img src=images/blank.png width =""800"" height = ""200""></p>","","","","","","","","","","","",""
"","129.69499999959953","sequential-stimulus-presentation","229","606110","0.0-44.0-1.2","SS1613080403796","trial","","40","800","929.6949999995995","images/stimuli/spore_stims/simple_08_A_b.gif","images/stimuli/spore_stims/simple_08_B_b.gif","","","","","12","simple_similar","images/stimuli/spore_stims/simple_08_B_b.gif","right","","","","",""
"","null","html-keyboard-response","230","607341","0.0-44.0-0.3","SS1613080403796","","","null","","","","","<p><img src= images/blank.png width =""200"" height = ""200"" style = ""float:right""></p><p><img src=images/blank.png width =""800"" height = ""200""></p>","","","","","","","","","","","",""
"","83.62500000291038","sequential-stimulus-presentation","231","608246","0.0-44.0-1.3","SS1613080403796","trial","","40","800","883.6250000029104","images/stimuli/spore_stims/simple_08_A_b.gif","images/stimuli/spore_stims/simple_08_B_b.gif","","","","","12","simple_similar","images/stimuli/spore_stims/simple_08_B_b.gif","right","","","","",""
"","null","html-keyboard-response","232","609129","0.0-44.0-0.4","SS1613080403796","","","null","","","","","<p><img src= images/blank.png width =""200"" height = ""200"" style = ""float:right""></p><p><img src=images/blank.png width =""800"" height = ""200""></p>","","","","","","","","","","","",""
"","287.39999999734573","sequential-stimulus-presentation","233","610238","0.0-44.0-1.4","SS1613080403796","trial","","40","800","1087.3999999973457","images/stimuli/spore_stims/simple_08_A_b.gif","images/stimuli/spore_stims/simple_08_B_b.gif","","","","","12","simple_similar","images/stimuli/spore_stims/simple_08_A_b.gif","left","","","","",""
"","null","html-keyboard-response","234","611471","0.0-44.0-0.5","SS1613080403796","","","null","","","","","<p><img src= images/blank.png width =""200"" height = ""200"" style = ""float:right""></p><p><img src=images/blank.png width =""800"" height = ""200""></p>","","","","","","","","","","","",""
"","208.38000000000466","sequential-stimulus-presentation","235","612502","0.0-44.0-1.5","SS1613080403796","trial","","40","800","1008.3800000000047","images/stimuli/spore_stims/simple_08_A_b.gif","images/stimuli/spore_stims/simple_08_B_b.gif","","","","","12","simple_similar","images/stimuli/spore_stims/simple_08_B_b.gif","right","","","","",""
"","null","html-keyboard-response","236","613646","0.0-44.0-0.6","SS1613080403796","","","null","","","","","<p><img src= images/blank.png width =""200"" height = ""200"" style = ""float:right""></p><p><img src=images/blank.png width =""800"" height = ""200""></p>","","","","","","","","","","","",""
"","539.3399999993853","sequential-stimulus-presentation","237","615006","0.0-44.0-1.6","SS1613080403796","trial","","40","800","1339.3399999993853","images/stimuli/spore_stims/simple_08_A_b.gif","images/stimuli/spore_stims/simple_08_B_b.gif","","","","","12","simple_similar","images/stimuli/spore_stims/simple_08_B_b.gif","right","","","","",""
"","null","html-keyboard-response","238","616154","0.0-44.0-0.7","SS1613080403796","","","null","","","","","<p><img src= images/blank.png width =""200"" height = ""200"" style = ""float:right""></p><p><img src=images/blank.png width =""800"" height = ""200""></p>","","","","","","","","","","","",""
"","133.4149999966612","sequential-stimulus-presentation","239","617109","0.0-44.0-1.7","SS1613080403796","trial","","40","800","933.4149999966612","images/stimuli/spore_stims/simple_08_A_b.gif","images/stimuli/spore_stims/simple_08_B_b.gif","","","","","12","simple_similar","images/stimuli/spore_stims/simple_08_B_b.gif","right","","","","",""
"","2261.834999997518","html-keyboard-response","240","619383","0.0-45.0","SS1613080403796","pref_question","","98","","","","","<video width ='960' height = '540' style='padding-top:8%' autoplay muted><source src='images/stimuli/wall_pref.mp4' type='video/mp4'></video>","2","middle","45%","12","","","","","","","",""
"","563.8150000013411","sequential-stimulus-presentation","241","620774","0.0-46.0","SS1613080403796","pref_reveal","","40","800","1363.815000001341","null","null","","","","","12","","","","novel","","","",""
"","null","html-keyboard-response","242","621698","0.0-47.0-0.0","SS1613080403796","","","null","","","","","<p><img src= images/blank.png width =""200"" height = ""200"" style = ""float:right""></p><p><img src=images/blank.png width =""800"" height = ""200""></p>","","","","","","","","","","","",""
"","115.69000000238884","sequential-stimulus-presentation","243","622637","0.0-47.0-1.0","SS1613080403796","trial","","40","800","915.6900000023888","images/stimuli/spore_stims/simple_05_A_b.gif","images/stimuli/spore_stims/simple_15_B_a.gif","","","","","13","simple_dissimilar","images/stimuli/spore_stims/simple_15_B_a.gif","left","","","","",""
"","null","html-keyboard-response","244","623530","0.0-47.0-0.1","SS1613080403796","","","null","","","","","<p><img src= images/blank.png width =""200"" height = ""200"" style = ""float:right""></p><p><img src=images/blank.png width =""800"" height = ""200""></p>","","","","","","","","","","","",""
"","60.05499999807216","sequential-stimulus-presentation","245","624414","0.0-47.0-1.1","SS1613080403796","trial","","40","800","860.0549999980722","images/stimuli/spore_stims/simple_05_A_b.gif","images/stimuli/spore_stims/simple_15_B_a.gif","","","","","13","simple_dissimilar","images/stimuli/spore_stims/simple_15_B_a.gif","left","","","","",""
"","null","html-keyboard-response","246","625710","0.0-47.0-0.2","SS1613080403796","","","null","","","","","<p><img src= images/blank.png width =""200"" height = ""200"" style = ""float:right""></p><p><img src=images/blank.png width =""800"" height = ""200""></p>","","","","","","","","","","","",""
"","115.99999999813735","sequential-stimulus-presentation","247","626644","0.0-47.0-1.2","SS1613080403796","trial","","40","800","915.9999999981374","images/stimuli/spore_stims/simple_05_A_b.gif","images/stimuli/spore_stims/simple_15_B_a.gif","","","","","13","simple_dissimilar","images/stimuli/spore_stims/simple_05_A_b.gif","right","","","","",""
"","null","html-keyboard-response","248","627754","0.0-47.0-0.3","SS1613080403796","","","null","","","","","<p><img src= images/blank.png width =""200"" height = ""200"" style = ""float:right""></p><p><img src=images/blank.png width =""800"" height = ""200""></p>","","","","","","","","","","","",""
"","5.310000000405125","sequential-stimulus-presentation","249","628575","0.0-47.0-1.3","SS1613080403796","trial","","40","800","805.3100000004051","images/stimuli/spore_stims/simple_05_A_b.gif","images/stimuli/spore_stims/simple_15_B_a.gif","","","","","13","simple_dissimilar","images/stimuli/spore_stims/simple_15_B_a.gif","left","","","","",""
"","null","html-keyboard-response","250","629659","0.0-47.0-0.4","SS1613080403796","","","null","","","","","<p><img src= images/blank.png width =""200"" height = ""200"" style = ""float:right""></p><p><img src=images/blank.png width =""800"" height = ""200""></p>","","","","","","","","","","","",""
"","116.9850000005681","sequential-stimulus-presentation","251","630598","0.0-47.0-1.4","SS1613080403796","trial","","40","800","916.9850000005681","images/stimuli/spore_stims/simple_05_A_b.gif","images/stimuli/spore_stims/simple_15_B_a.gif","","","","","13","simple_dissimilar","images/stimuli/spore_stims/simple_15_B_a.gif","left","","","","",""
"","null","html-keyboard-response","252","631837","0.0-47.0-0.5","SS1613080403796","","","null","","","","","<p><img src= images/blank.png width =""200"" height = ""200"" style = ""float:right""></p><p><img src=images/blank.png width =""800"" height = ""200""></p>","","","","","","","","","","","",""
"","372.02500000048894","sequential-stimulus-presentation","253","633031","0.0-47.0-1.5","SS1613080403796","trial","","40","800","1172.025000000489","images/stimuli/spore_stims/simple_05_A_b.gif","images/stimuli/spore_stims/simple_15_B_a.gif","","","","","13","simple_dissimilar","images/stimuli/spore_stims/simple_15_B_a.gif","left","","","","",""
"","null","html-keyboard-response","254","634227","0.0-47.0-0.6","SS1613080403796","","","null","","","","","<p><img src= images/blank.png width =""200"" height = ""200"" style = ""float:right""></p><p><img src=images/blank.png width =""800"" height = ""200""></p>","","","","","","","","","","","",""
"","9.340000000433065","sequential-stimulus-presentation","255","635055","0.0-47.0-1.6","SS1613080403796","trial","","40","800","809.3400000004331","images/stimuli/spore_stims/simple_05_A_b.gif","images/stimuli/spore_stims/simple_15_B_a.gif","","","","","13","simple_dissimilar","images/stimuli/spore_stims/simple_15_B_a.gif","left","","","","",""
"","null","html-keyboard-response","256","635931","0.0-47.0-0.7","SS1613080403796","","","null","","","","","<p><img src= images/blank.png width =""200"" height = ""200"" style = ""float:right""></p><p><img src=images/blank.png width =""800"" height = ""200""></p>","","","","","","","","","","","",""
"","527.2549999972107","sequential-stimulus-presentation","257","637295","0.0-47.0-1.7","SS1613080403796","trial","","40","800","1327.2549999972107","images/stimuli/spore_stims/simple_05_A_b.gif","images/stimuli/spore_stims/simple_15_B_a.gif","","","","","13","simple_dissimilar","images/stimuli/spore_stims/simple_15_B_a.gif","left","","","","",""
"","1712.759999998496","html-keyboard-response","258","639031","0.0-48.0","SS1613080403796","pref_question","","98","","","","","<video width ='960' height = '540' style='padding-top:8%' autoplay muted><source src='images/stimuli/wall_pref.mp4' type='video/mp4'></video>","2","middle","45%","13","","","","","","","",""
"","520.6550000002608","sequential-stimulus-presentation","259","640376","0.0-49.0","SS1613080403796","pref_reveal","","40","800","1320.6550000002608","null","null","","","","","13","","","","novel","","","",""
"","null","html-keyboard-response","260","641281","0.0-50.0-0.0","SS1613080403796","","","null","","","","","<p><img src= images/blank.png width =""200"" height = ""200"" style = ""float:right""></p><p><img src=images/blank.png width =""800"" height = ""200""></p>","","","","","","","","","","","",""
"","103.15000000258442","sequential-stimulus-presentation","261","642232","0.0-50.0-1.0","SS1613080403796","trial","","40","800","903.1500000025844","images/stimuli/spore_stims/simple_17_B_a.gif","images/stimuli/spore_stims/simple_17_A_a.gif","","","","","14","simple_similar","images/stimuli/spore_stims/simple_17_A_a.gif","middle","","","","",""
"","null","html-keyboard-response","262","643500","0.0-50.0-0.1","SS1613080403796","","","null","","","","","<p><img src= images/blank.png width =""200"" height = ""200"" style = ""float:right""></p><p><img src=images/blank.png width =""800"" height = ""200""></p>","","","","","","","","","","","",""
"","170.11499999719672","sequential-stimulus-presentation","263","644494","0.0-50.0-1.1","SS1613080403796","trial","","40","800","970.1149999971967","images/stimuli/spore_stims/simple_17_B_a.gif","images/stimuli/spore_stims/simple_17_A_a.gif","","","","","14","simple_similar","images/stimuli/spore_stims/simple_17_A_a.gif","middle","","","","",""
"","null","html-keyboard-response","264","645643","0.0-50.0-0.2","SS1613080403796","","","null","","","","","<p><img src= images/blank.png width =""200"" height = ""200"" style = ""float:right""></p><p><img src=images/blank.png width =""800"" height = ""200""></p>","","","","","","","","","","","",""
"","2187.9400000034366","sequential-stimulus-presentation","265","648654","0.0-50.0-1.2","SS1613080403796","trial","","40","800","2987.9400000034366","images/stimuli/spore_stims/simple_17_B_a.gif","images/stimuli/spore_stims/simple_17_A_a.gif","","","","","14","simple_similar","images/stimuli/spore_stims/simple_17_A_a.gif","middle","","","","",""
"","null","html-keyboard-response","266","649748","0.0-50.0-0.3","SS1613080403796","","","null","","","","","<p><img src= images/blank.png width =""200"" height = ""200"" style = ""float:right""></p><p><img src=images/blank.png width =""800"" height = ""200""></p>","","","","","","","","","","","",""
"","1116.5199999996694","sequential-stimulus-presentation","267","651687","0.0-50.0-1.3","SS1613080403796","trial","","40","800","1916.5199999996694","images/stimuli/spore_stims/simple_17_B_a.gif","images/stimuli/spore_stims/simple_17_A_a.gif","","","","","14","simple_similar","images/stimuli/spore_stims/simple_17_A_a.gif","middle","","","","",""
"","null","html-keyboard-response","268","652962","0.0-50.0-0.4","SS1613080403796","","","null","","","","","<p><img src= images/blank.png width =""200"" height = ""200"" style = ""float:right""></p><p><img src=images/blank.png width =""800"" height = ""200""></p>","","","","","","","","","","","",""
"","44.719999998109415","sequential-stimulus-presentation","269","653831","0.0-50.0-1.4","SS1613080403796","trial","","40","800","844.7199999981094","images/stimuli/spore_stims/simple_17_B_a.gif","images/stimuli/spore_stims/simple_17_A_a.gif","","","","","14","simple_similar","images/stimuli/spore_stims/simple_17_A_a.gif","middle","","","","",""
"","null","html-keyboard-response","270","654820","0.0-50.0-0.5","SS1613080403796","","","null","","","","","<p><img src= images/blank.png width =""200"" height = ""200"" style = ""float:right""></p><p><img src=images/blank.png width =""800"" height = ""200""></p>","","","","","","","","","","","",""
"","169.6300000003539","sequential-stimulus-presentation","271","655814","0.0-50.0-1.5","SS1613080403796","trial","","40","800","969.6300000003539","images/stimuli/spore_stims/simple_17_B_a.gif","images/stimuli/spore_stims/simple_17_A_a.gif","","","","","14","simple_similar","images/stimuli/spore_stims/simple_17_A_a.gif","middle","","","","",""
"","null","html-keyboard-response","272","657123","0.0-50.0-0.6","SS1613080403796","","","null","","","","","<p><img src= images/blank.png width =""200"" height = ""200"" style = ""float:right""></p><p><img src=images/blank.png width =""800"" height = ""200""></p>","","","","","","","","","","","",""
"","91.04500000097323","sequential-stimulus-presentation","273","658040","0.0-50.0-1.6","SS1613080403796","trial","","40","800","891.0450000009732","images/stimuli/spore_stims/simple_17_B_a.gif","images/stimuli/spore_stims/simple_17_A_a.gif","","","","","14","simple_similar","images/stimuli/spore_stims/simple_17_B_a.gif","right","","","","",""
"","null","html-keyboard-response","274","659098","0.0-50.0-0.7","SS1613080403796","","","null","","","","","<p><img src= images/blank.png width =""200"" height = ""200"" style = ""float:right""></p><p><img src=images/blank.png width =""800"" height = ""200""></p>","","","","","","","","","","","",""
"","94.31499999843072","sequential-stimulus-presentation","275","660014","0.0-50.0-1.7","SS1613080403796","trial","","40","800","894.3149999984307","images/stimuli/spore_stims/simple_17_B_a.gif","images/stimuli/spore_stims/simple_17_A_a.gif","","","","","14","simple_similar","images/stimuli/spore_stims/simple_17_A_a.gif","middle","","","","",""
"","2284.5250000028173","html-keyboard-response","276","662319","0.0-51.0","SS1613080403796","pref_question","","98","","","","","<video width ='960' height = '540' style='padding-top:8%' autoplay muted><source src='images/stimuli/wall_pref.mp4' type='video/mp4'></video>","2","middle","45%","14","","","","","","","",""
"","413.6450000004843","sequential-stimulus-presentation","277","663557","0.0-52.0","SS1613080403796","pref_reveal","","40","800","1213.6450000004843","null","null","","","","","14","","","","background","","","",""
"","null","html-keyboard-response","278","664488","0.0-53.0-0.0","SS1613080403796","","","null","","","","","<p><img src= images/blank.png width =""200"" height = ""200"" style = ""float:right""></p><p><img src=images/blank.png width =""800"" height = ""200""></p>","","","","","","","","","","","",""
"","73.47999999916647","sequential-stimulus-presentation","279","665396","0.0-53.0-1.0","SS1613080403796","trial","","40","800","873.4799999991665","images/stimuli/spore_stims/simple_13_B_a.gif","images/stimuli/spore_stims/simple_12_B_d.gif","","","","","15","simple_dissimilar","images/stimuli/spore_stims/simple_12_B_d.gif","middle","","","","",""
"","null","html-keyboard-response","280","666565","0.0-53.0-0.1","SS1613080403796","","","null","","","","","<p><img src= images/blank.png width =""200"" height = ""200"" style = ""float:right""></p><p><img src=images/blank.png width =""800"" height = ""200""></p>","","","","","","","","","","","",""
"","88.32000000262633","sequential-stimulus-presentation","281","667469","0.0-53.0-1.1","SS1613080403796","trial","","40","800","888.3200000026263","images/stimuli/spore_stims/simple_13_B_a.gif","images/stimuli/spore_stims/simple_12_B_d.gif","","","","","15","simple_dissimilar","images/stimuli/spore_stims/simple_12_B_d.gif","middle","","","","",""
"","null","html-keyboard-response","282","668638","0.0-53.0-0.2","SS1613080403796","","","null","","","","","<p><img src= images/blank.png width =""200"" height = ""200"" style = ""float:right""></p><p><img src=images/blank.png width =""800"" height = ""200""></p>","","","","","","","","","","","",""
"","225.3850000015227","sequential-stimulus-presentation","283","669685","0.0-53.0-1.2","SS1613080403796","trial","","40","800","1025.3850000015227","images/stimuli/spore_stims/simple_13_B_a.gif","images/stimuli/spore_stims/simple_12_B_d.gif","","","","","15","simple_dissimilar","images/stimuli/spore_stims/simple_12_B_d.gif","middle","","","","",""
"","null","html-keyboard-response","284","670755","0.0-53.0-0.3","SS1613080403796","","","null","","","","","<p><img src= images/blank.png width =""200"" height = ""200"" style = ""float:right""></p><p><img src=images/blank.png width =""800"" height = ""200""></p>","","","","","","","","","","","",""
"","165.0999999983469","sequential-stimulus-presentation","285","671740","0.0-53.0-1.3","SS1613080403796","trial","","40","800","965.0999999983469","images/stimuli/spore_stims/simple_13_B_a.gif","images/stimuli/spore_stims/simple_12_B_d.gif","","","","","15","simple_dissimilar","images/stimuli/spore_stims/simple_13_B_a.gif","right","","","","",""
"","null","html-keyboard-response","286","672585","0.0-53.0-0.4","SS1613080403796","","","null","","","","","<p><img src= images/blank.png width =""200"" height = ""200"" style = ""float:right""></p><p><img src=images/blank.png width =""800"" height = ""200""></p>","","","","","","","","","","","",""
"","59.95999999868218","sequential-stimulus-presentation","287","673470","0.0-53.0-1.4","SS1613080403796","trial","","40","800","859.9599999986822","images/stimuli/spore_stims/simple_13_B_a.gif","images/stimuli/spore_stims/simple_12_B_d.gif","","","","","15","simple_dissimilar","images/stimuli/spore_stims/simple_12_B_d.gif","middle","","","","",""
"","null","html-keyboard-response","288","674497","0.0-53.0-0.5","SS1613080403796","","","null","","","","","<p><img src= images/blank.png width =""200"" height = ""200"" style = ""float:right""></p><p><img src=images/blank.png width =""800"" height = ""200""></p>","","","","","","","","","","","",""
"","226.03499999968335","sequential-stimulus-presentation","289","675549","0.0-53.0-1.5","SS1613080403796","trial","","40","800","1026.0349999996834","images/stimuli/spore_stims/simple_13_B_a.gif","images/stimuli/spore_stims/simple_12_B_d.gif","","","","","15","simple_dissimilar","images/stimuli/spore_stims/simple_12_B_d.gif","middle","","","","",""
"","null","html-keyboard-response","290","676517","0.0-53.0-0.6","SS1613080403796","","","null","","","","","<p><img src= images/blank.png width =""200"" height = ""200"" style = ""float:right""></p><p><img src=images/blank.png width =""800"" height = ""200""></p>","","","","","","","","","","","",""
"","624.1349999982631","sequential-stimulus-presentation","291","677965","0.0-53.0-1.6","SS1613080403796","trial","","40","800","1424.134999998263","images/stimuli/spore_stims/simple_13_B_a.gif","images/stimuli/spore_stims/simple_12_B_d.gif","","","","","15","simple_dissimilar","images/stimuli/spore_stims/simple_12_B_d.gif","middle","","","","",""
"","null","html-keyboard-response","292","679243","0.0-53.0-0.7","SS1613080403796","","","null","","","","","<p><img src= images/blank.png width =""200"" height = ""200"" style = ""float:right""></p><p><img src=images/blank.png width =""800"" height = ""200""></p>","","","","","","","","","","","",""
"","73.91000000271015","sequential-stimulus-presentation","293","680142","0.0-53.0-1.7","SS1613080403796","trial","","40","800","873.9100000027101","images/stimuli/spore_stims/simple_13_B_a.gif","images/stimuli/spore_stims/simple_12_B_d.gif","","","","","15","simple_dissimilar","images/stimuli/spore_stims/simple_12_B_d.gif","middle","","","","",""
"","9059.679999998421","html-keyboard-response","294","689230","0.0-54.0","SS1613080403796","pref_question","","97","","","","","<video width ='960' height = '540' style='padding-top:8%' autoplay muted><source src='images/stimuli/wall_pref.mp4' type='video/mp4'></video>","1","left","25%","15","","","","","","","",""
"","172.85999999882188","sequential-stimulus-presentation","295","690215","0.0-55.0","SS1613080403796","pref_reveal","","40","800","972.8599999988219","null","null","","","","","15","","","","novel","","","",""
"","null","html-keyboard-response","296","691309","0.0-56.0-0.0","SS1613080403796","","","null","","","","","<p><img src= images/blank.png width =""200"" height = ""200"" style = ""float:right""></p><p><img src=images/blank.png width =""800"" height = ""200""></p>","","","","","","","","","","","",""
"","447.0849999997299","sequential-stimulus-presentation","297","692598","0.0-56.0-1.0","SS1613080403796","trial","","40","800","1247.08499999973","images/stimuli/spore_stims/complex_08_A_c.gif","images/stimuli/spore_stims/complex_14_A_a.gif","","","","","16","complex_dissimilar","images/stimuli/spore_stims/complex_14_A_a.gif","left","","","","",""
"","null","html-keyboard-response","298","693611","0.0-56.0-0.1","SS1613080403796","","","null","","","","","<p><img src= images/blank.png width =""200"" height = ""200"" style = ""float:right""></p><p><img src=images/blank.png width =""800"" height = ""200""></p>","","","","","","","","","","","",""
"","1095.5250000006054","sequential-stimulus-presentation","299","695534","0.0-56.0-1.1","SS1613080403796","trial","","40","800","1895.5250000006054","images/stimuli/spore_stims/complex_08_A_c.gif","images/stimuli/spore_stims/complex_14_A_a.gif","","","","","16","complex_dissimilar","images/stimuli/spore_stims/complex_14_A_a.gif","left","","","","",""
"","null","html-keyboard-response","300","696523","0.0-56.0-0.2","SS1613080403796","","","null","","","","","<p><img src= images/blank.png width =""200"" height = ""200"" style = ""float:right""></p><p><img src=images/blank.png width =""800"" height = ""200""></p>","","","","","","","","","","","",""
"","139.36000000103377","sequential-stimulus-presentation","301","697485","0.0-56.0-1.2","SS1613080403796","trial","","40","800","939.3600000010338","images/stimuli/spore_stims/complex_08_A_c.gif","images/stimuli/spore_stims/complex_14_A_a.gif","","","","","16","complex_dissimilar","images/stimuli/spore_stims/complex_14_A_a.gif","left","","","","",""
"","null","html-keyboard-response","302","698396","0.0-56.0-0.3","SS1613080403796","","","null","","","","","<p><img src= images/blank.png width =""200"" height = ""200"" style = ""float:right""></p><p><img src=images/blank.png width =""800"" height = ""200""></p>","","","","","","","","","","","",""
"","265.26499999826774","sequential-stimulus-presentation","303","699510","0.0-56.0-1.3","SS1613080403796","trial","","40","800","1065.2649999982677","images/stimuli/spore_stims/complex_08_A_c.gif","images/stimuli/spore_stims/complex_14_A_a.gif","","","","","16","complex_dissimilar","images/stimuli/spore_stims/complex_08_A_c.gif","middle","","","","",""
"","null","html-keyboard-response","304","700750","0.0-56.0-0.4","SS1613080403796","","","null","","","","","<p><img src= images/blank.png width =""200"" height = ""200"" style = ""float:right""></p><p><img src=images/blank.png width =""800"" height = ""200""></p>","","","","","","","","","","","",""
"","1048.2999999985332","sequential-stimulus-presentation","305","702622","0.0-56.0-1.4","SS1613080403796","trial","","40","800","1848.2999999985332","images/stimuli/spore_stims/complex_08_A_c.gif","images/stimuli/spore_stims/complex_14_A_a.gif","","","","","16","complex_dissimilar","images/stimuli/spore_stims/complex_14_A_a.gif","left","","","","",""
"","null","html-keyboard-response","306","703879","0.0-56.0-0.5","SS1613080403796","","","null","","","","","<p><img src= images/blank.png width =""200"" height = ""200"" style = ""float:right""></p><p><img src=images/blank.png width =""800"" height = ""200""></p>","","","","","","","","","","","",""
"","151.35000000009313","sequential-stimulus-presentation","307","704854","0.0-56.0-1.5","SS1613080403796","trial","","40","800","951.3500000000931","images/stimuli/spore_stims/complex_08_A_c.gif","images/stimuli/spore_stims/complex_14_A_a.gif","","","","","16","complex_dissimilar","images/stimuli/spore_stims/complex_14_A_a.gif","left","","","","",""
"","null","html-keyboard-response","308","706163","0.0-56.0-0.6","SS1613080403796","","","null","","","","","<p><img src= images/blank.png width =""200"" height = ""200"" style = ""float:right""></p><p><img src=images/blank.png width =""800"" height = ""200""></p>","","","","","","","","","","","",""
"","26.074999997974373","sequential-stimulus-presentation","309","707016","0.0-56.0-1.6","SS1613080403796","trial","","40","800","826.0749999979744","images/stimuli/spore_stims/complex_08_A_c.gif","images/stimuli/spore_stims/complex_14_A_a.gif","","","","","16","complex_dissimilar","images/stimuli/spore_stims/complex_14_A_a.gif","left","","","","",""
"","null","html-keyboard-response","310","707872","0.0-56.0-0.7","SS1613080403796","","","null","","","","","<p><img src= images/blank.png width =""200"" height = ""200"" style = ""float:right""></p><p><img src=images/blank.png width =""800"" height = ""200""></p>","","","","","","","","","","","",""
"","190.8000000002794","sequential-stimulus-presentation","311","708887","0.0-56.0-1.7","SS1613080403796","trial","","40","800","990.8000000002794","images/stimuli/spore_stims/complex_08_A_c.gif","images/stimuli/spore_stims/complex_14_A_a.gif","","","","","16","complex_dissimilar","images/stimuli/spore_stims/complex_14_A_a.gif","left","","","","",""
"","2143.4599999992643","html-keyboard-response","312","711054","0.0-57.0","SS1613080403796","pref_question","","97","","","","","<video width ='960' height = '540' style='padding-top:8%' autoplay muted><source src='images/stimuli/wall_pref.mp4' type='video/mp4'></video>","1","left","25%","16","","","","","","","",""
