"view_history","rt","trial_type","trial_index","time_elapsed","internal_node_id","subject","stimulus_type","trial_stimulus","key_press","minimum_viewing_duration","trial_looking_time","block_deviant","block_background","stimulus","wall_pref","location","location_percent","block_number","block_type","stimulus_displayed","position_displayed","stim_type_selected","responses","question_order","stimulus_left","stimulus_right"
"[{""page_index"":0,""viewing_time"":18250}]","18250","instructions","0","18253","0.0-0.0","SS1613140457374","","","","","","","","","","","","","","","","","","","",""
"[{""page_index"":0,""viewing_time"":13033},{""page_index"":1,""viewing_time"":3992}]","17025","instructions","1","37293","0.0-1.0","SS1613140457374","instructions","","","","","","","","","","","","","","","","","","",""
"","5370","sequential-stimulus-presentation","2","43485","0.0-2.0","SS1613140457374","","","40","800","6170","null","null","","","","","","","","","","","","",""
"","811","sequential-stimulus-presentation","3","45118","0.0-3.0","SS1613140457374","","","40","800","1611","null","null","","","","","","","","","","","","",""
"[{""page_index"":0,""viewing_time"":5628}]","5628","instructions","4","50748","0.0-4.0","SS1613140457374","instructions","","","","","","","","","","","","","","","","","","",""
"","8039","html-keyboard-response","5","58791","0.0-5.0","SS1613140457374","instructions","","49","","","","","<video width ='960' height = '540' autoplay muted><source src='images/stimuli/wall_pref.mp4' type='video/mp4'></video>","1","left","25%","","","","","","","","",""
"","610","sequential-stimulus-presentation","6","60216","0.0-6.0","SS1613140457374","pref_reveal","","40","800","1410","null","null","","","","","","","","","","","","",""
"[{""page_index"":0,""viewing_time"":8866},{""page_index"":1,""viewing_time"":3824},{""page_index"":2,""viewing_time"":15919},{""page_index"":3,""viewing_time"":2073}]","30682","instructions","7","90900","0.0-7.0","SS1613140457374","instructions","","","","","","","","","","","","","","","","","","",""
"","null","html-keyboard-response","8","91836","0.0-8.0-0.0","SS1613140457374","","","null","","","","","<p><img src= images/blank.png width =""200"" height = ""200"" style = ""float:right""></p><p><img src=images/blank.png width =""800"" height = ""200""></p>","","","","","","","","","","","",""
"","576","sequential-stimulus-presentation","9","93230","0.0-8.0-1.0","SS1613140457374","trial","","40","800","1376","images/stimuli/spore_stims/simple_10_B_a.gif","images/stimuli/spore_stims/simple_10_A_a.gif","","","","","0","simple_similar","images/stimuli/spore_stims/simple_10_A_a.gif","middle","","","","",""
"","null","html-keyboard-response","10","94284","0.0-8.0-0.1","SS1613140457374","","","null","","","","","<p><img src= images/blank.png width =""200"" height = ""200"" style = ""float:right""></p><p><img src=images/blank.png width =""800"" height = ""200""></p>","","","","","","","","","","","",""
"","142","sequential-stimulus-presentation","11","95246","0.0-8.0-1.1","SS1613140457374","trial","","40","800","942","images/stimuli/spore_stims/simple_10_B_a.gif","images/stimuli/spore_stims/simple_10_A_a.gif","","","","","0","simple_similar","images/stimuli/spore_stims/simple_10_A_a.gif","middle","","","","",""
"","null","html-keyboard-response","12","96114","0.0-8.0-0.2","SS1613140457374","","","null","","","","","<p><img src= images/blank.png width =""200"" height = ""200"" style = ""float:right""></p><p><img src=images/blank.png width =""800"" height = ""200""></p>","","","","","","","","","","","",""
"","255","sequential-stimulus-presentation","13","97191","0.0-8.0-1.2","SS1613140457374","trial","","40","800","1055","images/stimuli/spore_stims/simple_10_B_a.gif","images/stimuli/spore_stims/simple_10_A_a.gif","","","","","0","simple_similar","images/stimuli/spore_stims/simple_10_A_a.gif","middle","","","","",""
"","null","html-keyboard-response","14","98174","0.0-8.0-0.3","SS1613140457374","","","null","","","","","<p><img src= images/blank.png width =""200"" height = ""200"" style = ""float:right""></p><p><img src=images/blank.png width =""800"" height = ""200""></p>","","","","","","","","","","","",""
"","106","sequential-stimulus-presentation","15","99100","0.0-8.0-1.3","SS1613140457374","trial","","40","800","906","images/stimuli/spore_stims/simple_10_B_a.gif","images/stimuli/spore_stims/simple_10_A_a.gif","","","","","0","simple_similar","images/stimuli/spore_stims/simple_10_B_a.gif","right","","","","",""
"","null","html-keyboard-response","16","100355","0.0-8.0-0.4","SS1613140457374","","","null","","","","","<p><img src= images/blank.png width =""200"" height = ""200"" style = ""float:right""></p><p><img src=images/blank.png width =""800"" height = ""200""></p>","","","","","","","","","","","",""
"","216","sequential-stimulus-presentation","17","101381","0.0-8.0-1.4","SS1613140457374","trial","","40","800","1016","images/stimuli/spore_stims/simple_10_B_a.gif","images/stimuli/spore_stims/simple_10_A_a.gif","","","","","0","simple_similar","images/stimuli/spore_stims/simple_10_A_a.gif","middle","","","","",""
"","null","html-keyboard-response","18","102264","0.0-8.0-0.5","SS1613140457374","","","null","","","","","<p><img src= images/blank.png width =""200"" height = ""200"" style = ""float:right""></p><p><img src=images/blank.png width =""800"" height = ""200""></p>","","","","","","","","","","","",""
"","160","sequential-stimulus-presentation","19","103245","0.0-8.0-1.5","SS1613140457374","trial","","40","800","960","images/stimuli/spore_stims/simple_10_B_a.gif","images/stimuli/spore_stims/simple_10_A_a.gif","","","","","0","simple_similar","images/stimuli/spore_stims/simple_10_A_a.gif","middle","","","","",""
"","null","html-keyboard-response","20","104215","0.0-8.0-0.6","SS1613140457374","","","null","","","","","<p><img src= images/blank.png width =""200"" height = ""200"" style = ""float:right""></p><p><img src=images/blank.png width =""800"" height = ""200""></p>","","","","","","","","","","","",""
"","169","sequential-stimulus-presentation","21","105204","0.0-8.0-1.6","SS1613140457374","trial","","40","800","969","images/stimuli/spore_stims/simple_10_B_a.gif","images/stimuli/spore_stims/simple_10_A_a.gif","","","","","0","simple_similar","images/stimuli/spore_stims/simple_10_A_a.gif","middle","","","","",""
"","null","html-keyboard-response","22","106074","0.0-8.0-0.7","SS1613140457374","","","null","","","","","<p><img src= images/blank.png width =""200"" height = ""200"" style = ""float:right""></p><p><img src=images/blank.png width =""800"" height = ""200""></p>","","","","","","","","","","","",""
"","261","sequential-stimulus-presentation","23","107156","0.0-8.0-1.7","SS1613140457374","trial","","40","800","1061","images/stimuli/spore_stims/simple_10_B_a.gif","images/stimuli/spore_stims/simple_10_A_a.gif","","","","","0","simple_similar","images/stimuli/spore_stims/simple_10_A_a.gif","middle","","","","",""
"","740","html-keyboard-response","24","107900","0.0-9.0","SS1613140457374","pref_question","","49","","","","","<video width ='960' height = '540' style='padding-top:8%' autoplay muted><source src='images/stimuli/wall_pref.mp4' type='video/mp4'></video>","1","left","25%","0","","","","","","","",""
"","211","sequential-stimulus-presentation","25","108925","0.0-10.0","SS1613140457374","pref_reveal","","40","800","1011","null","null","","","","","0","","","","novel","","","",""
"","null","html-keyboard-response","26","110076","0.0-11.0-0.0","SS1613140457374","","","null","","","","","<p><img src= images/blank.png width =""200"" height = ""200"" style = ""float:right""></p><p><img src=images/blank.png width =""800"" height = ""200""></p>","","","","","","","","","","","",""
"","193","sequential-stimulus-presentation","27","111088","0.0-11.0-1.0","SS1613140457374","trial","","40","800","993","images/stimuli/spore_stims/simple_18_B_d.gif","images/stimuli/spore_stims/simple_18_A_d.gif","","","","","1","simple_similar","images/stimuli/spore_stims/simple_18_A_d.gif","right","","","","",""
"","null","html-keyboard-response","28","111994","0.0-11.0-0.1","SS1613140457374","","","null","","","","","<p><img src= images/blank.png width =""200"" height = ""200"" style = ""float:right""></p><p><img src=images/blank.png width =""800"" height = ""200""></p>","","","","","","","","","","","",""
"","208","sequential-stimulus-presentation","29","113014","0.0-11.0-1.1","SS1613140457374","trial","","40","800","1008","images/stimuli/spore_stims/simple_18_B_d.gif","images/stimuli/spore_stims/simple_18_A_d.gif","","","","","1","simple_similar","images/stimuli/spore_stims/simple_18_A_d.gif","right","","","","",""
"","null","html-keyboard-response","30","114245","0.0-11.0-0.2","SS1613140457374","","","null","","","","","<p><img src= images/blank.png width =""200"" height = ""200"" style = ""float:right""></p><p><img src=images/blank.png width =""800"" height = ""200""></p>","","","","","","","","","","","",""
"","46","sequential-stimulus-presentation","31","115110","0.0-11.0-1.2","SS1613140457374","trial","","40","800","846","images/stimuli/spore_stims/simple_18_B_d.gif","images/stimuli/spore_stims/simple_18_A_d.gif","","","","","1","simple_similar","images/stimuli/spore_stims/simple_18_A_d.gif","right","","","","",""
"","null","html-keyboard-response","32","116384","0.0-11.0-0.3","SS1613140457374","","","null","","","","","<p><img src= images/blank.png width =""200"" height = ""200"" style = ""float:right""></p><p><img src=images/blank.png width =""800"" height = ""200""></p>","","","","","","","","","","","",""
"","322","sequential-stimulus-presentation","33","117517","0.0-11.0-1.3","SS1613140457374","trial","","40","800","1122","images/stimuli/spore_stims/simple_18_B_d.gif","images/stimuli/spore_stims/simple_18_A_d.gif","","","","","1","simple_similar","images/stimuli/spore_stims/simple_18_A_d.gif","right","","","","",""
"","null","html-keyboard-response","34","118695","0.0-11.0-0.4","SS1613140457374","","","null","","","","","<p><img src= images/blank.png width =""200"" height = ""200"" style = ""float:right""></p><p><img src=images/blank.png width =""800"" height = ""200""></p>","","","","","","","","","","","",""
"","91","sequential-stimulus-presentation","35","119605","0.0-11.0-1.4","SS1613140457374","trial","","40","800","891","images/stimuli/spore_stims/simple_18_B_d.gif","images/stimuli/spore_stims/simple_18_A_d.gif","","","","","1","simple_similar","images/stimuli/spore_stims/simple_18_A_d.gif","right","","","","",""
"","null","html-keyboard-response","36","120714","0.0-11.0-0.5","SS1613140457374","","","null","","","","","<p><img src= images/blank.png width =""200"" height = ""200"" style = ""float:right""></p><p><img src=images/blank.png width =""800"" height = ""200""></p>","","","","","","","","","","","",""
"","71","sequential-stimulus-presentation","37","121606","0.0-11.0-1.5","SS1613140457374","trial","","40","800","871","images/stimuli/spore_stims/simple_18_B_d.gif","images/stimuli/spore_stims/simple_18_A_d.gif","","","","","1","simple_similar","images/stimuli/spore_stims/simple_18_A_d.gif","right","","","","",""
"","null","html-keyboard-response","38","122454","0.0-11.0-0.6","SS1613140457374","","","null","","","","","<p><img src= images/blank.png width =""200"" height = ""200"" style = ""float:right""></p><p><img src=images/blank.png width =""800"" height = ""200""></p>","","","","","","","","","","","",""
"","207","sequential-stimulus-presentation","39","123478","0.0-11.0-1.6","SS1613140457374","trial","","40","800","1007","images/stimuli/spore_stims/simple_18_B_d.gif","images/stimuli/spore_stims/simple_18_A_d.gif","","","","","1","simple_similar","images/stimuli/spore_stims/simple_18_B_d.gif","left","","","","",""
"","null","html-keyboard-response","40","124672","0.0-11.0-0.7","SS1613140457374","","","null","","","","","<p><img src= images/blank.png width =""200"" height = ""200"" style = ""float:right""></p><p><img src=images/blank.png width =""800"" height = ""200""></p>","","","","","","","","","","","",""
"","293","sequential-stimulus-presentation","41","125788","0.0-11.0-1.7","SS1613140457374","trial","","40","800","1093","images/stimuli/spore_stims/simple_18_B_d.gif","images/stimuli/spore_stims/simple_18_A_d.gif","","","","","1","simple_similar","images/stimuli/spore_stims/simple_18_A_d.gif","right","","","","",""
"","863","html-keyboard-response","42","126653","0.0-12.0","SS1613140457374","pref_question","","49","","","","","<video width ='960' height = '540' style='padding-top:8%' autoplay muted><source src='images/stimuli/wall_pref.mp4' type='video/mp4'></video>","1","left","25%","1","","","","","","","",""
"","314","sequential-stimulus-presentation","43","127789","0.0-13.0","SS1613140457374","pref_reveal","","40","800","1114","null","null","","","","","1","","","","deviant","","","",""
"","null","html-keyboard-response","44","128946","0.0-14.0-0.0","SS1613140457374","","","null","","","","","<p><img src= images/blank.png width =""200"" height = ""200"" style = ""float:right""></p><p><img src=images/blank.png width =""800"" height = ""200""></p>","","","","","","","","","","","",""
"","303","sequential-stimulus-presentation","45","130067","0.0-14.0-1.0","SS1613140457374","trial","","40","800","1103","images/stimuli/spore_stims/simple_19_A_a.gif","images/stimuli/spore_stims/simple_09_A_b.gif","","","","","2","simple_dissimilar","images/stimuli/spore_stims/simple_09_A_b.gif","middle","","","","",""
"","null","html-keyboard-response","46","130985","0.0-14.0-0.1","SS1613140457374","","","null","","","","","<p><img src= images/blank.png width =""200"" height = ""200"" style = ""float:right""></p><p><img src=images/blank.png width =""800"" height = ""200""></p>","","","","","","","","","","","",""
"","322","sequential-stimulus-presentation","47","132126","0.0-14.0-1.1","SS1613140457374","trial","","40","800","1122","images/stimuli/spore_stims/simple_19_A_a.gif","images/stimuli/spore_stims/simple_09_A_b.gif","","","","","2","simple_dissimilar","images/stimuli/spore_stims/simple_09_A_b.gif","middle","","","","",""
"","null","html-keyboard-response","48","133244","0.0-14.0-0.2","SS1613140457374","","","null","","","","","<p><img src= images/blank.png width =""200"" height = ""200"" style = ""float:right""></p><p><img src=images/blank.png width =""800"" height = ""200""></p>","","","","","","","","","","","",""
"","205","sequential-stimulus-presentation","49","134270","0.0-14.0-1.2","SS1613140457374","trial","","40","800","1005","images/stimuli/spore_stims/simple_19_A_a.gif","images/stimuli/spore_stims/simple_09_A_b.gif","","","","","2","simple_dissimilar","images/stimuli/spore_stims/simple_09_A_b.gif","middle","","","","",""
"","null","html-keyboard-response","50","135444","0.0-14.0-0.3","SS1613140457374","","","null","","","","","<p><img src= images/blank.png width =""200"" height = ""200"" style = ""float:right""></p><p><img src=images/blank.png width =""800"" height = ""200""></p>","","","","","","","","","","","",""
"","46","sequential-stimulus-presentation","51","136311","0.0-14.0-1.3","SS1613140457374","trial","","40","800","846","images/stimuli/spore_stims/simple_19_A_a.gif","images/stimuli/spore_stims/simple_09_A_b.gif","","","","","2","simple_dissimilar","images/stimuli/spore_stims/simple_09_A_b.gif","middle","","","","",""
"","null","html-keyboard-response","52","137484","0.0-14.0-0.4","SS1613140457374","","","null","","","","","<p><img src= images/blank.png width =""200"" height = ""200"" style = ""float:right""></p><p><img src=images/blank.png width =""800"" height = ""200""></p>","","","","","","","","","","","",""
"","268","sequential-stimulus-presentation","53","138572","0.0-14.0-1.4","SS1613140457374","trial","","40","800","1068","images/stimuli/spore_stims/simple_19_A_a.gif","images/stimuli/spore_stims/simple_09_A_b.gif","","","","","2","simple_dissimilar","images/stimuli/spore_stims/simple_19_A_a.gif","left","","","","",""
"","null","html-keyboard-response","54","139484","0.0-14.0-0.5","SS1613140457374","","","null","","","","","<p><img src= images/blank.png width =""200"" height = ""200"" style = ""float:right""></p><p><img src=images/blank.png width =""800"" height = ""200""></p>","","","","","","","","","","","",""
"","231","sequential-stimulus-presentation","55","140526","0.0-14.0-1.5","SS1613140457374","trial","","40","800","1031","images/stimuli/spore_stims/simple_19_A_a.gif","images/stimuli/spore_stims/simple_09_A_b.gif","","","","","2","simple_dissimilar","images/stimuli/spore_stims/simple_09_A_b.gif","middle","","","","",""
"","null","html-keyboard-response","56","141594","0.0-14.0-0.6","SS1613140457374","","","null","","","","","<p><img src= images/blank.png width =""200"" height = ""200"" style = ""float:right""></p><p><img src=images/blank.png width =""800"" height = ""200""></p>","","","","","","","","","","","",""
"","21","sequential-stimulus-presentation","57","142447","0.0-14.0-1.6","SS1613140457374","trial","","40","800","821","images/stimuli/spore_stims/simple_19_A_a.gif","images/stimuli/spore_stims/simple_09_A_b.gif","","","","","2","simple_dissimilar","images/stimuli/spore_stims/simple_09_A_b.gif","middle","","","","",""
"","null","html-keyboard-response","58","143285","0.0-14.0-0.7","SS1613140457374","","","null","","","","","<p><img src= images/blank.png width =""200"" height = ""200"" style = ""float:right""></p><p><img src=images/blank.png width =""800"" height = ""200""></p>","","","","","","","","","","","",""
"","238","sequential-stimulus-presentation","59","144341","0.0-14.0-1.7","SS1613140457374","trial","","40","800","1038","images/stimuli/spore_stims/simple_19_A_a.gif","images/stimuli/spore_stims/simple_09_A_b.gif","","","","","2","simple_dissimilar","images/stimuli/spore_stims/simple_09_A_b.gif","middle","","","","",""
"","1183","html-keyboard-response","60","145532","0.0-15.0","SS1613140457374","pref_question","","49","","","","","<video width ='960' height = '540' style='padding-top:8%' autoplay muted><source src='images/stimuli/wall_pref.mp4' type='video/mp4'></video>","1","left","25%","2","","","","","","","",""
"","184","sequential-stimulus-presentation","61","146529","0.0-16.0","SS1613140457374","pref_reveal","","40","800","984","null","null","","","","","2","","","","deviant","","","",""
"","null","html-keyboard-response","62","147525","0.0-17.0-0.0","SS1613140457374","","","null","","","","","<p><img src= images/blank.png width =""200"" height = ""200"" style = ""float:right""></p><p><img src=images/blank.png width =""800"" height = ""200""></p>","","","","","","","","","","","",""
"","125","sequential-stimulus-presentation","63","148470","0.0-17.0-1.0","SS1613140457374","trial","","40","800","925","images/stimuli/spore_stims/simple_13_B_b.gif","images/stimuli/spore_stims/simple_13_A_b.gif","","","","","3","simple_similar","images/stimuli/spore_stims/simple_13_A_b.gif","left","","","","",""
"","null","html-keyboard-response","64","149424","0.0-17.0-0.1","SS1613140457374","","","null","","","","","<p><img src= images/blank.png width =""200"" height = ""200"" style = ""float:right""></p><p><img src=images/blank.png width =""800"" height = ""200""></p>","","","","","","","","","","","",""
"","81","sequential-stimulus-presentation","65","150325","0.0-17.0-1.1","SS1613140457374","trial","","40","800","881","images/stimuli/spore_stims/simple_13_B_b.gif","images/stimuli/spore_stims/simple_13_A_b.gif","","","","","3","simple_similar","images/stimuli/spore_stims/simple_13_A_b.gif","left","","","","",""
"","null","html-keyboard-response","66","151504","0.0-17.0-0.2","SS1613140457374","","","null","","","","","<p><img src= images/blank.png width =""200"" height = ""200"" style = ""float:right""></p><p><img src=images/blank.png width =""800"" height = ""200""></p>","","","","","","","","","","","",""
"","529","sequential-stimulus-presentation","67","152853","0.0-17.0-1.2","SS1613140457374","trial","","40","800","1329","images/stimuli/spore_stims/simple_13_B_b.gif","images/stimuli/spore_stims/simple_13_A_b.gif","","","","","3","simple_similar","images/stimuli/spore_stims/simple_13_A_b.gif","left","","","","",""
"","null","html-keyboard-response","68","154049","0.0-17.0-0.3","SS1613140457374","","","null","","","","","<p><img src= images/blank.png width =""200"" height = ""200"" style = ""float:right""></p><p><img src=images/blank.png width =""800"" height = ""200""></p>","","","","","","","","","","","",""
"","265","sequential-stimulus-presentation","69","155140","0.0-17.0-1.3","SS1613140457374","trial","","40","800","1065","images/stimuli/spore_stims/simple_13_B_b.gif","images/stimuli/spore_stims/simple_13_A_b.gif","","","","","3","simple_similar","images/stimuli/spore_stims/simple_13_B_b.gif","right","","","","",""
"","null","html-keyboard-response","70","156234","0.0-17.0-0.4","SS1613140457374","","","null","","","","","<p><img src= images/blank.png width =""200"" height = ""200"" style = ""float:right""></p><p><img src=images/blank.png width =""800"" height = ""200""></p>","","","","","","","","","","","",""
"","310","sequential-stimulus-presentation","71","157366","0.0-17.0-1.4","SS1613140457374","trial","","40","800","1110","images/stimuli/spore_stims/simple_13_B_b.gif","images/stimuli/spore_stims/simple_13_A_b.gif","","","","","3","simple_similar","images/stimuli/spore_stims/simple_13_A_b.gif","left","","","","",""
"","null","html-keyboard-response","72","158474","0.0-17.0-0.5","SS1613140457374","","","null","","","","","<p><img src= images/blank.png width =""200"" height = ""200"" style = ""float:right""></p><p><img src=images/blank.png width =""800"" height = ""200""></p>","","","","","","","","","","","",""
"","310","sequential-stimulus-presentation","73","159606","0.0-17.0-1.5","SS1613140457374","trial","","40","800","1110","images/stimuli/spore_stims/simple_13_B_b.gif","images/stimuli/spore_stims/simple_13_A_b.gif","","","","","3","simple_similar","images/stimuli/spore_stims/simple_13_A_b.gif","left","","","","",""
"","null","html-keyboard-response","74","160644","0.0-17.0-0.6","SS1613140457374","","","null","","","","","<p><img src= images/blank.png width =""200"" height = ""200"" style = ""float:right""></p><p><img src=images/blank.png width =""800"" height = ""200""></p>","","","","","","","","","","","",""
"","181","sequential-stimulus-presentation","75","161644","0.0-17.0-1.6","SS1613140457374","trial","","40","800","981","images/stimuli/spore_stims/simple_13_B_b.gif","images/stimuli/spore_stims/simple_13_A_b.gif","","","","","3","simple_similar","images/stimuli/spore_stims/simple_13_A_b.gif","left","","","","",""
"","null","html-keyboard-response","76","162944","0.0-17.0-0.7","SS1613140457374","","","null","","","","","<p><img src= images/blank.png width =""200"" height = ""200"" style = ""float:right""></p><p><img src=images/blank.png width =""800"" height = ""200""></p>","","","","","","","","","","","",""
"","24","sequential-stimulus-presentation","77","163788","0.0-17.0-1.7","SS1613140457374","trial","","40","800","824","images/stimuli/spore_stims/simple_13_B_b.gif","images/stimuli/spore_stims/simple_13_A_b.gif","","","","","3","simple_similar","images/stimuli/spore_stims/simple_13_A_b.gif","left","","","","",""
"","662","html-keyboard-response","78","164452","0.0-18.0","SS1613140457374","pref_question","","49","","","","","<video width ='960' height = '540' style='padding-top:8%' autoplay muted><source src='images/stimuli/wall_pref.mp4' type='video/mp4'></video>","1","left","25%","3","","","","","","","",""
"","316","sequential-stimulus-presentation","79","165580","0.0-19.0","SS1613140457374","pref_reveal","","40","800","1116","null","null","","","","","3","","","","background","","","",""
"","null","html-keyboard-response","80","166884","0.0-20.0-0.0","SS1613140457374","","","null","","","","","<p><img src= images/blank.png width =""200"" height = ""200"" style = ""float:right""></p><p><img src=images/blank.png width =""800"" height = ""200""></p>","","","","","","","","","","","",""
"","252","sequential-stimulus-presentation","81","167956","0.0-20.0-1.0","SS1613140457374","trial","","40","800","1052","images/stimuli/spore_stims/simple_03_A_a.gif","images/stimuli/spore_stims/simple_14_A_a.gif","","","","","4","simple_dissimilar","images/stimuli/spore_stims/simple_14_A_a.gif","middle","","","","",""
"","null","html-keyboard-response","82","168883","0.0-20.0-0.1","SS1613140457374","","","null","","","","","<p><img src= images/blank.png width =""200"" height = ""200"" style = ""float:right""></p><p><img src=images/blank.png width =""800"" height = ""200""></p>","","","","","","","","","","","",""
"","174","sequential-stimulus-presentation","83","169868","0.0-20.0-1.1","SS1613140457374","trial","","40","800","974","images/stimuli/spore_stims/simple_03_A_a.gif","images/stimuli/spore_stims/simple_14_A_a.gif","","","","","4","simple_dissimilar","images/stimuli/spore_stims/simple_14_A_a.gif","middle","","","","",""
"","null","html-keyboard-response","84","170714","0.0-20.0-0.2","SS1613140457374","","","null","","","","","<p><img src= images/blank.png width =""200"" height = ""200"" style = ""float:right""></p><p><img src=images/blank.png width =""800"" height = ""200""></p>","","","","","","","","","","","",""
"","205","sequential-stimulus-presentation","85","171748","0.0-20.0-1.2","SS1613140457374","trial","","40","800","1005","images/stimuli/spore_stims/simple_03_A_a.gif","images/stimuli/spore_stims/simple_14_A_a.gif","","","","","4","simple_dissimilar","images/stimuli/spore_stims/simple_03_A_a.gif","left","","","","",""
"","null","html-keyboard-response","86","173025","0.0-20.0-0.3","SS1613140457374","","","null","","","","","<p><img src= images/blank.png width =""200"" height = ""200"" style = ""float:right""></p><p><img src=images/blank.png width =""800"" height = ""200""></p>","","","","","","","","","","","",""
"","321","sequential-stimulus-presentation","87","174156","0.0-20.0-1.3","SS1613140457374","trial","","40","800","1121","images/stimuli/spore_stims/simple_03_A_a.gif","images/stimuli/spore_stims/simple_14_A_a.gif","","","","","4","simple_dissimilar","images/stimuli/spore_stims/simple_14_A_a.gif","middle","","","","",""
"","null","html-keyboard-response","88","175465","0.0-20.0-0.4","SS1613140457374","","","null","","","","","<p><img src= images/blank.png width =""200"" height = ""200"" style = ""float:right""></p><p><img src=images/blank.png width =""800"" height = ""200""></p>","","","","","","","","","","","",""
"","16","sequential-stimulus-presentation","89","176302","0.0-20.0-1.4","SS1613140457374","trial","","40","800","816","images/stimuli/spore_stims/simple_03_A_a.gif","images/stimuli/spore_stims/simple_14_A_a.gif","","","","","4","simple_dissimilar","images/stimuli/spore_stims/simple_14_A_a.gif","middle","","","","",""
"","null","html-keyboard-response","90","177505","0.0-20.0-0.5","SS1613140457374","","","null","","","","","<p><img src= images/blank.png width =""200"" height = ""200"" style = ""float:right""></p><p><img src=images/blank.png width =""800"" height = ""200""></p>","","","","","","","","","","","",""
"","313","sequential-stimulus-presentation","91","178637","0.0-20.0-1.5","SS1613140457374","trial","","40","800","1113","images/stimuli/spore_stims/simple_03_A_a.gif","images/stimuli/spore_stims/simple_14_A_a.gif","","","","","4","simple_dissimilar","images/stimuli/spore_stims/simple_14_A_a.gif","middle","","","","",""
"","null","html-keyboard-response","92","179743","0.0-20.0-0.6","SS1613140457374","","","null","","","","","<p><img src= images/blank.png width =""200"" height = ""200"" style = ""float:right""></p><p><img src=images/blank.png width =""800"" height = ""200""></p>","","","","","","","","","","","",""
"","322","sequential-stimulus-presentation","93","180877","0.0-20.0-1.6","SS1613140457374","trial","","40","800","1122","images/stimuli/spore_stims/simple_03_A_a.gif","images/stimuli/spore_stims/simple_14_A_a.gif","","","","","4","simple_dissimilar","images/stimuli/spore_stims/simple_14_A_a.gif","middle","","","","",""
"","null","html-keyboard-response","94","182145","0.0-20.0-0.7","SS1613140457374","","","null","","","","","<p><img src= images/blank.png width =""200"" height = ""200"" style = ""float:right""></p><p><img src=images/blank.png width =""800"" height = ""200""></p>","","","","","","","","","","","",""
"","56","sequential-stimulus-presentation","95","183021","0.0-20.0-1.7","SS1613140457374","trial","","40","800","856","images/stimuli/spore_stims/simple_03_A_a.gif","images/stimuli/spore_stims/simple_14_A_a.gif","","","","","4","simple_dissimilar","images/stimuli/spore_stims/simple_14_A_a.gif","middle","","","","",""
"","723","html-keyboard-response","96","183748","0.0-21.0","SS1613140457374","pref_question","","49","","","","","<video width ='960' height = '540' style='padding-top:8%' autoplay muted><source src='images/stimuli/wall_pref.mp4' type='video/mp4'></video>","1","left","25%","4","","","","","","","",""
"","175","sequential-stimulus-presentation","97","184751","0.0-22.0","SS1613140457374","pref_reveal","","40","800","975","null","null","","","","","4","","","","deviant","","","",""
"","null","html-keyboard-response","98","185595","0.0-23.0-0.0","SS1613140457374","","","null","","","","","<p><img src= images/blank.png width =""200"" height = ""200"" style = ""float:right""></p><p><img src=images/blank.png width =""800"" height = ""200""></p>","","","","","","","","","","","",""
"","151","sequential-stimulus-presentation","99","186566","0.0-23.0-1.0","SS1613140457374","trial","","40","800","951","images/stimuli/spore_stims/complex_11_B_c.gif","images/stimuli/spore_stims/complex_09_A_b.gif","","","","","5","complex_dissimilar","images/stimuli/spore_stims/complex_09_A_b.gif","right","","","","",""
"","null","html-keyboard-response","100","187835","0.0-23.0-0.1","SS1613140457374","","","null","","","","","<p><img src= images/blank.png width =""200"" height = ""200"" style = ""float:right""></p><p><img src=images/blank.png width =""800"" height = ""200""></p>","","","","","","","","","","","",""
"","78","sequential-stimulus-presentation","101","188734","0.0-23.0-1.1","SS1613140457374","trial","","40","800","878","images/stimuli/spore_stims/complex_11_B_c.gif","images/stimuli/spore_stims/complex_09_A_b.gif","","","","","5","complex_dissimilar","images/stimuli/spore_stims/complex_09_A_b.gif","right","","","","",""
"","null","html-keyboard-response","102","189774","0.0-23.0-0.2","SS1613140457374","","","null","","","","","<p><img src= images/blank.png width =""200"" height = ""200"" style = ""float:right""></p><p><img src=images/blank.png width =""800"" height = ""200""></p>","","","","","","","","","","","",""
"","186","sequential-stimulus-presentation","103","190781","0.0-23.0-1.2","SS1613140457374","trial","","40","800","986","images/stimuli/spore_stims/complex_11_B_c.gif","images/stimuli/spore_stims/complex_09_A_b.gif","","","","","5","complex_dissimilar","images/stimuli/spore_stims/complex_09_A_b.gif","right","","","","",""
"","null","html-keyboard-response","104","192035","0.0-23.0-0.3","SS1613140457374","","","null","","","","","<p><img src= images/blank.png width =""200"" height = ""200"" style = ""float:right""></p><p><img src=images/blank.png width =""800"" height = ""200""></p>","","","","","","","","","","","",""
"","54","sequential-stimulus-presentation","105","192917","0.0-23.0-1.3","SS1613140457374","trial","","40","800","854","images/stimuli/spore_stims/complex_11_B_c.gif","images/stimuli/spore_stims/complex_09_A_b.gif","","","","","5","complex_dissimilar","images/stimuli/spore_stims/complex_09_A_b.gif","right","","","","",""
"","null","html-keyboard-response","106","193744","0.0-23.0-0.4","SS1613140457374","","","null","","","","","<p><img src= images/blank.png width =""200"" height = ""200"" style = ""float:right""></p><p><img src=images/blank.png width =""800"" height = ""200""></p>","","","","","","","","","","","",""
"","113","sequential-stimulus-presentation","107","194677","0.0-23.0-1.4","SS1613140457374","trial","","40","800","913","images/stimuli/spore_stims/complex_11_B_c.gif","images/stimuli/spore_stims/complex_09_A_b.gif","","","","","5","complex_dissimilar","images/stimuli/spore_stims/complex_09_A_b.gif","right","","","","",""
"","null","html-keyboard-response","108","195884","0.0-23.0-0.5","SS1613140457374","","","null","","","","","<p><img src= images/blank.png width =""200"" height = ""200"" style = ""float:right""></p><p><img src=images/blank.png width =""800"" height = ""200""></p>","","","","","","","","","","","",""
"","85","sequential-stimulus-presentation","109","196790","0.0-23.0-1.5","SS1613140457374","trial","","40","800","885","images/stimuli/spore_stims/complex_11_B_c.gif","images/stimuli/spore_stims/complex_09_A_b.gif","","","","","5","complex_dissimilar","images/stimuli/spore_stims/complex_09_A_b.gif","right","","","","",""
"","null","html-keyboard-response","110","197764","0.0-23.0-0.6","SS1613140457374","","","null","","","","","<p><img src= images/blank.png width =""200"" height = ""200"" style = ""float:right""></p><p><img src=images/blank.png width =""800"" height = ""200""></p>","","","","","","","","","","","",""
"","157","sequential-stimulus-presentation","111","198741","0.0-23.0-1.6","SS1613140457374","trial","","40","800","957","images/stimuli/spore_stims/complex_11_B_c.gif","images/stimuli/spore_stims/complex_09_A_b.gif","","","","","5","complex_dissimilar","images/stimuli/spore_stims/complex_11_B_c.gif","middle","","","","",""
"","null","html-keyboard-response","112","199964","0.0-23.0-0.7","SS1613140457374","","","null","","","","","<p><img src= images/blank.png width =""200"" height = ""200"" style = ""float:right""></p><p><img src=images/blank.png width =""800"" height = ""200""></p>","","","","","","","","","","","",""
"","169","sequential-stimulus-presentation","113","200949","0.0-23.0-1.7","SS1613140457374","trial","","40","800","969","images/stimuli/spore_stims/complex_11_B_c.gif","images/stimuli/spore_stims/complex_09_A_b.gif","","","","","5","complex_dissimilar","images/stimuli/spore_stims/complex_09_A_b.gif","right","","","","",""
"","804","html-keyboard-response","114","201764","0.0-24.0","SS1613140457374","pref_question","","49","","","","","<video width ='960' height = '540' style='padding-top:8%' autoplay muted><source src='images/stimuli/wall_pref.mp4' type='video/mp4'></video>","1","left","25%","5","","","","","","","",""
"","77","sequential-stimulus-presentation","115","202653","0.0-25.0","SS1613140457374","pref_reveal","","40","800","877","null","null","","","","","5","","","","novel","","","",""
"","null","html-keyboard-response","116","203773","0.0-26.0-0.0","SS1613140457374","","","null","","","","","<p><img src= images/blank.png width =""200"" height = ""200"" style = ""float:right""></p><p><img src=images/blank.png width =""800"" height = ""200""></p>","","","","","","","","","","","",""
"","108","sequential-stimulus-presentation","117","204702","0.0-26.0-1.0","SS1613140457374","trial","","40","800","908","images/stimuli/spore_stims/complex_20_A_b.gif","images/stimuli/spore_stims/complex_20_B_b.gif","","","","","6","complex_similar","images/stimuli/spore_stims/complex_20_B_b.gif","left","","","","",""
"","null","html-keyboard-response","118","205954","0.0-26.0-0.1","SS1613140457374","","","null","","","","","<p><img src= images/blank.png width =""200"" height = ""200"" style = ""float:right""></p><p><img src=images/blank.png width =""800"" height = ""200""></p>","","","","","","","","","","","",""
"","214","sequential-stimulus-presentation","119","206989","0.0-26.0-1.1","SS1613140457374","trial","","40","800","1014","images/stimuli/spore_stims/complex_20_A_b.gif","images/stimuli/spore_stims/complex_20_B_b.gif","","","","","6","complex_similar","images/stimuli/spore_stims/complex_20_B_b.gif","left","","","","",""
"","null","html-keyboard-response","120","208264","0.0-26.0-0.2","SS1613140457374","","","null","","","","","<p><img src= images/blank.png width =""200"" height = ""200"" style = ""float:right""></p><p><img src=images/blank.png width =""800"" height = ""200""></p>","","","","","","","","","","","",""
"","321","sequential-stimulus-presentation","121","209406","0.0-26.0-1.2","SS1613140457374","trial","","40","800","1121","images/stimuli/spore_stims/complex_20_A_b.gif","images/stimuli/spore_stims/complex_20_B_b.gif","","","","","6","complex_similar","images/stimuli/spore_stims/complex_20_B_b.gif","left","","","","",""
"","null","html-keyboard-response","122","210725","0.0-26.0-0.3","SS1613140457374","","","null","","","","","<p><img src= images/blank.png width =""200"" height = ""200"" style = ""float:right""></p><p><img src=images/blank.png width =""800"" height = ""200""></p>","","","","","","","","","","","",""
"","274","sequential-stimulus-presentation","123","211828","0.0-26.0-1.3","SS1613140457374","trial","","40","800","1074","images/stimuli/spore_stims/complex_20_A_b.gif","images/stimuli/spore_stims/complex_20_B_b.gif","","","","","6","complex_similar","images/stimuli/spore_stims/complex_20_B_b.gif","left","","","","",""
"","null","html-keyboard-response","124","212989","0.0-26.0-0.4","SS1613140457374","","","null","","","","","<p><img src= images/blank.png width =""200"" height = ""200"" style = ""float:right""></p><p><img src=images/blank.png width =""800"" height = ""200""></p>","","","","","","","","","","","",""
"","142","sequential-stimulus-presentation","125","213955","0.0-26.0-1.4","SS1613140457374","trial","","40","800","942","images/stimuli/spore_stims/complex_20_A_b.gif","images/stimuli/spore_stims/complex_20_B_b.gif","","","","","6","complex_similar","images/stimuli/spore_stims/complex_20_B_b.gif","left","","","","",""
"","null","html-keyboard-response","126","214993","0.0-26.0-0.5","SS1613140457374","","","null","","","","","<p><img src= images/blank.png width =""200"" height = ""200"" style = ""float:right""></p><p><img src=images/blank.png width =""800"" height = ""200""></p>","","","","","","","","","","","",""
"","350","sequential-stimulus-presentation","127","216163","0.0-26.0-1.5","SS1613140457374","trial","","40","800","1150","images/stimuli/spore_stims/complex_20_A_b.gif","images/stimuli/spore_stims/complex_20_B_b.gif","","","","","6","complex_similar","images/stimuli/spore_stims/complex_20_B_b.gif","left","","","","",""
"","null","html-keyboard-response","128","217124","0.0-26.0-0.6","SS1613140457374","","","null","","","","","<p><img src= images/blank.png width =""200"" height = ""200"" style = ""float:right""></p><p><img src=images/blank.png width =""800"" height = ""200""></p>","","","","","","","","","","","",""
"","44","sequential-stimulus-presentation","129","217988","0.0-26.0-1.6","SS1613140457374","trial","","40","800","844","images/stimuli/spore_stims/complex_20_A_b.gif","images/stimuli/spore_stims/complex_20_B_b.gif","","","","","6","complex_similar","images/stimuli/spore_stims/complex_20_B_b.gif","left","","","","",""
"","null","html-keyboard-response","130","219204","0.0-26.0-0.7","SS1613140457374","","","null","","","","","<p><img src= images/blank.png width =""200"" height = ""200"" style = ""float:right""></p><p><img src=images/blank.png width =""800"" height = ""200""></p>","","","","","","","","","","","",""
"","14","sequential-stimulus-presentation","131","220037","0.0-26.0-1.7","SS1613140457374","trial","","40","800","814","images/stimuli/spore_stims/complex_20_A_b.gif","images/stimuli/spore_stims/complex_20_B_b.gif","","","","","6","complex_similar","images/stimuli/spore_stims/complex_20_A_b.gif","right","","","","",""
"","642","html-keyboard-response","132","220686","0.0-27.0","SS1613140457374","pref_question","","49","","","","","<video width ='960' height = '540' style='padding-top:8%' autoplay muted><source src='images/stimuli/wall_pref.mp4' type='video/mp4'></video>","1","left","25%","6","","","","","","","",""
"","75","sequential-stimulus-presentation","133","221581","0.0-28.0","SS1613140457374","pref_reveal","","40","800","875","null","null","","","","","6","","","","background","","","",""
"","null","html-keyboard-response","134","222405","0.0-29.0-0.0","SS1613140457374","","","null","","","","","<p><img src= images/blank.png width =""200"" height = ""200"" style = ""float:right""></p><p><img src=images/blank.png width =""800"" height = ""200""></p>","","","","","","","","","","","",""
"","192","sequential-stimulus-presentation","135","223405","0.0-29.0-1.0","SS1613140457374","trial","","40","800","992","images/stimuli/spore_stims/complex_01_B_c.gif","images/stimuli/spore_stims/complex_15_B_c.gif","","","","","7","complex_dissimilar","images/stimuli/spore_stims/complex_15_B_c.gif","middle","","","","",""
"","null","html-keyboard-response","136","224474","0.0-29.0-0.1","SS1613140457374","","","null","","","","","<p><img src= images/blank.png width =""200"" height = ""200"" style = ""float:right""></p><p><img src=images/blank.png width =""800"" height = ""200""></p>","","","","","","","","","","","",""
"","87","sequential-stimulus-presentation","137","225381","0.0-29.0-1.1","SS1613140457374","trial","","40","800","887","images/stimuli/spore_stims/complex_01_B_c.gif","images/stimuli/spore_stims/complex_15_B_c.gif","","","","","7","complex_dissimilar","images/stimuli/spore_stims/complex_15_B_c.gif","middle","","","","",""
"","null","html-keyboard-response","138","226704","0.0-29.0-0.2","SS1613140457374","","","null","","","","","<p><img src= images/blank.png width =""200"" height = ""200"" style = ""float:right""></p><p><img src=images/blank.png width =""800"" height = ""200""></p>","","","","","","","","","","","",""
"","129","sequential-stimulus-presentation","139","227653","0.0-29.0-1.2","SS1613140457374","trial","","40","800","929","images/stimuli/spore_stims/complex_01_B_c.gif","images/stimuli/spore_stims/complex_15_B_c.gif","","","","","7","complex_dissimilar","images/stimuli/spore_stims/complex_15_B_c.gif","middle","","","","",""
"","null","html-keyboard-response","140","228564","0.0-29.0-0.3","SS1613140457374","","","null","","","","","<p><img src= images/blank.png width =""200"" height = ""200"" style = ""float:right""></p><p><img src=images/blank.png width =""800"" height = ""200""></p>","","","","","","","","","","","",""
"","93","sequential-stimulus-presentation","141","229477","0.0-29.0-1.3","SS1613140457374","trial","","40","800","893","images/stimuli/spore_stims/complex_01_B_c.gif","images/stimuli/spore_stims/complex_15_B_c.gif","","","","","7","complex_dissimilar","images/stimuli/spore_stims/complex_01_B_c.gif","right","","","","",""
"","null","html-keyboard-response","142","230604","0.0-29.0-0.4","SS1613140457374","","","null","","","","","<p><img src= images/blank.png width =""200"" height = ""200"" style = ""float:right""></p><p><img src=images/blank.png width =""800"" height = ""200""></p>","","","","","","","","","","","",""
"","43","sequential-stimulus-presentation","143","231478","0.0-29.0-1.4","SS1613140457374","trial","","40","800","843","images/stimuli/spore_stims/complex_01_B_c.gif","images/stimuli/spore_stims/complex_15_B_c.gif","","","","","7","complex_dissimilar","images/stimuli/spore_stims/complex_15_B_c.gif","middle","","","","",""
"","null","html-keyboard-response","144","232713","0.0-29.0-0.5","SS1613140457374","","","null","","","","","<p><img src= images/blank.png width =""200"" height = ""200"" style = ""float:right""></p><p><img src=images/blank.png width =""800"" height = ""200""></p>","","","","","","","","","","","",""
"","159","sequential-stimulus-presentation","145","233692","0.0-29.0-1.5","SS1613140457374","trial","","40","800","959","images/stimuli/spore_stims/complex_01_B_c.gif","images/stimuli/spore_stims/complex_15_B_c.gif","","","","","7","complex_dissimilar","images/stimuli/spore_stims/complex_15_B_c.gif","middle","","","","",""
"","null","html-keyboard-response","146","234514","0.0-29.0-0.6","SS1613140457374","","","null","","","","","<p><img src= images/blank.png width =""200"" height = ""200"" style = ""float:right""></p><p><img src=images/blank.png width =""800"" height = ""200""></p>","","","","","","","","","","","",""
"","222","sequential-stimulus-presentation","147","235558","0.0-29.0-1.6","SS1613140457374","trial","","40","800","1022","images/stimuli/spore_stims/complex_01_B_c.gif","images/stimuli/spore_stims/complex_15_B_c.gif","","","","","7","complex_dissimilar","images/stimuli/spore_stims/complex_15_B_c.gif","middle","","","","",""
"","null","html-keyboard-response","148","236434","0.0-29.0-0.7","SS1613140457374","","","null","","","","","<p><img src= images/blank.png width =""200"" height = ""200"" style = ""float:right""></p><p><img src=images/blank.png width =""800"" height = ""200""></p>","","","","","","","","","","","",""
"","223","sequential-stimulus-presentation","149","237477","0.0-29.0-1.7","SS1613140457374","trial","","40","800","1023","images/stimuli/spore_stims/complex_01_B_c.gif","images/stimuli/spore_stims/complex_15_B_c.gif","","","","","7","complex_dissimilar","images/stimuli/spore_stims/complex_15_B_c.gif","middle","","","","",""
"","843","html-keyboard-response","150","238334","0.0-30.0","SS1613140457374","pref_question","","49","","","","","<video width ='960' height = '540' style='padding-top:8%' autoplay muted><source src='images/stimuli/wall_pref.mp4' type='video/mp4'></video>","1","left","25%","7","","","","","","","",""
"","401","sequential-stimulus-presentation","151","239564","0.0-31.0","SS1613140457374","pref_reveal","","40","800","1201","null","null","","","","","7","","","","novel","","","",""
"","null","html-keyboard-response","152","240764","0.0-32.0-0.0","SS1613140457374","","","null","","","","","<p><img src= images/blank.png width =""200"" height = ""200"" style = ""float:right""></p><p><img src=images/blank.png width =""800"" height = ""200""></p>","","","","","","","","","","","",""
"","347","sequential-stimulus-presentation","153","241933","0.0-32.0-1.0","SS1613140457374","trial","","40","800","1147","images/stimuli/spore_stims/simple_15_B_d.gif","images/stimuli/spore_stims/simple_15_A_d.gif","","","","","8","simple_similar","images/stimuli/spore_stims/simple_15_A_d.gif","right","","","","",""
"","null","html-keyboard-response","154","242864","0.0-32.0-0.1","SS1613140457374","","","null","","","","","<p><img src= images/blank.png width =""200"" height = ""200"" style = ""float:right""></p><p><img src=images/blank.png width =""800"" height = ""200""></p>","","","","","","","","","","","",""
"","368","sequential-stimulus-presentation","155","244054","0.0-32.0-1.1","SS1613140457374","trial","","40","800","1168","images/stimuli/spore_stims/simple_15_B_d.gif","images/stimuli/spore_stims/simple_15_A_d.gif","","","","","8","simple_similar","images/stimuli/spore_stims/simple_15_A_d.gif","right","","","","",""
"","null","html-keyboard-response","156","245004","0.0-32.0-0.2","SS1613140457374","","","null","","","","","<p><img src= images/blank.png width =""200"" height = ""200"" style = ""float:right""></p><p><img src=images/blank.png width =""800"" height = ""200""></p>","","","","","","","","","","","",""
"","325","sequential-stimulus-presentation","157","246149","0.0-32.0-1.2","SS1613140457374","trial","","40","800","1125","images/stimuli/spore_stims/simple_15_B_d.gif","images/stimuli/spore_stims/simple_15_A_d.gif","","","","","8","simple_similar","images/stimuli/spore_stims/simple_15_A_d.gif","right","","","","",""
"","null","html-keyboard-response","158","247404","0.0-32.0-0.3","SS1613140457374","","","null","","","","","<p><img src= images/blank.png width =""200"" height = ""200"" style = ""float:right""></p><p><img src=images/blank.png width =""800"" height = ""200""></p>","","","","","","","","","","","",""
"","101","sequential-stimulus-presentation","159","248326","0.0-32.0-1.3","SS1613140457374","trial","","40","800","901","images/stimuli/spore_stims/simple_15_B_d.gif","images/stimuli/spore_stims/simple_15_A_d.gif","","","","","8","simple_similar","images/stimuli/spore_stims/simple_15_A_d.gif","right","","","","",""
"","null","html-keyboard-response","160","249404","0.0-32.0-0.4","SS1613140457374","","","null","","","","","<p><img src= images/blank.png width =""200"" height = ""200"" style = ""float:right""></p><p><img src=images/blank.png width =""800"" height = ""200""></p>","","","","","","","","","","","",""
"","231","sequential-stimulus-presentation","161","250455","0.0-32.0-1.4","SS1613140457374","trial","","40","800","1031","images/stimuli/spore_stims/simple_15_B_d.gif","images/stimuli/spore_stims/simple_15_A_d.gif","","","","","8","simple_similar","images/stimuli/spore_stims/simple_15_A_d.gif","right","","","","",""
"","null","html-keyboard-response","162","251544","0.0-32.0-0.5","SS1613140457374","","","null","","","","","<p><img src= images/blank.png width =""200"" height = ""200"" style = ""float:right""></p><p><img src=images/blank.png width =""800"" height = ""200""></p>","","","","","","","","","","","",""
"","33","sequential-stimulus-presentation","163","252397","0.0-32.0-1.5","SS1613140457374","trial","","40","800","833","images/stimuli/spore_stims/simple_15_B_d.gif","images/stimuli/spore_stims/simple_15_A_d.gif","","","","","8","simple_similar","images/stimuli/spore_stims/simple_15_A_d.gif","right","","","","",""
"","null","html-keyboard-response","164","253323","0.0-32.0-0.6","SS1613140457374","","","null","","","","","<p><img src= images/blank.png width =""200"" height = ""200"" style = ""float:right""></p><p><img src=images/blank.png width =""800"" height = ""200""></p>","","","","","","","","","","","",""
"","269","sequential-stimulus-presentation","165","254413","0.0-32.0-1.6","SS1613140457374","trial","","40","800","1069","images/stimuli/spore_stims/simple_15_B_d.gif","images/stimuli/spore_stims/simple_15_A_d.gif","","","","","8","simple_similar","images/stimuli/spore_stims/simple_15_A_d.gif","right","","","","",""
"","null","html-keyboard-response","166","255614","0.0-32.0-0.7","SS1613140457374","","","null","","","","","<p><img src= images/blank.png width =""200"" height = ""200"" style = ""float:right""></p><p><img src=images/blank.png width =""800"" height = ""200""></p>","","","","","","","","","","","",""
"","59","sequential-stimulus-presentation","167","256492","0.0-32.0-1.7","SS1613140457374","trial","","40","800","859","images/stimuli/spore_stims/simple_15_B_d.gif","images/stimuli/spore_stims/simple_15_A_d.gif","","","","","8","simple_similar","images/stimuli/spore_stims/simple_15_B_d.gif","middle","","","","",""
"","675","html-keyboard-response","168","257181","0.0-33.0","SS1613140457374","pref_question","","49","","","","","<video width ='960' height = '540' style='padding-top:8%' autoplay muted><source src='images/stimuli/wall_pref.mp4' type='video/mp4'></video>","1","left","25%","8","","","","","","","",""
"","231","sequential-stimulus-presentation","169","258245","0.0-34.0","SS1613140457374","pref_reveal","","40","800","1031","null","null","","","","","8","","","","novel","","","",""
"","null","html-keyboard-response","170","259454","0.0-35.0-0.0","SS1613140457374","","","null","","","","","<p><img src= images/blank.png width =""200"" height = ""200"" style = ""float:right""></p><p><img src=images/blank.png width =""800"" height = ""200""></p>","","","","","","","","","","","",""
"","259","sequential-stimulus-presentation","171","260534","0.0-35.0-1.0","SS1613140457374","trial","","40","800","1059","images/stimuli/spore_stims/simple_05_A_a.gif","images/stimuli/spore_stims/simple_05_B_a.gif","","","","","9","simple_similar","images/stimuli/spore_stims/simple_05_B_a.gif","left","","","","",""
"","null","html-keyboard-response","172","261804","0.0-35.0-0.1","SS1613140457374","","","null","","","","","<p><img src= images/blank.png width =""200"" height = ""200"" style = ""float:right""></p><p><img src=images/blank.png width =""800"" height = ""200""></p>","","","","","","","","","","","",""
"","22","sequential-stimulus-presentation","173","262646","0.0-35.0-1.1","SS1613140457374","trial","","40","800","822","images/stimuli/spore_stims/simple_05_A_a.gif","images/stimuli/spore_stims/simple_05_B_a.gif","","","","","9","simple_similar","images/stimuli/spore_stims/simple_05_B_a.gif","left","","","","",""
"","null","html-keyboard-response","174","263694","0.0-35.0-0.2","SS1613140457374","","","null","","","","","<p><img src= images/blank.png width =""200"" height = ""200"" style = ""float:right""></p><p><img src=images/blank.png width =""800"" height = ""200""></p>","","","","","","","","","","","",""
"","240","sequential-stimulus-presentation","175","264766","0.0-35.0-1.2","SS1613140457374","trial","","40","800","1040","images/stimuli/spore_stims/simple_05_A_a.gif","images/stimuli/spore_stims/simple_05_B_a.gif","","","","","9","simple_similar","images/stimuli/spore_stims/simple_05_B_a.gif","left","","","","",""
"","null","html-keyboard-response","176","265944","0.0-35.0-0.3","SS1613140457374","","","null","","","","","<p><img src= images/blank.png width =""200"" height = ""200"" style = ""float:right""></p><p><img src=images/blank.png width =""800"" height = ""200""></p>","","","","","","","","","","","",""
"","351","sequential-stimulus-presentation","177","267116","0.0-35.0-1.3","SS1613140457374","trial","","40","800","1151","images/stimuli/spore_stims/simple_05_A_a.gif","images/stimuli/spore_stims/simple_05_B_a.gif","","","","","9","simple_similar","images/stimuli/spore_stims/simple_05_A_a.gif","middle","","","","",""
"","null","html-keyboard-response","178","268244","0.0-35.0-0.4","SS1613140457374","","","null","","","","","<p><img src= images/blank.png width =""200"" height = ""200"" style = ""float:right""></p><p><img src=images/blank.png width =""800"" height = ""200""></p>","","","","","","","","","","","",""
"","213","sequential-stimulus-presentation","179","269278","0.0-35.0-1.4","SS1613140457374","trial","","40","800","1013","images/stimuli/spore_stims/simple_05_A_a.gif","images/stimuli/spore_stims/simple_05_B_a.gif","","","","","9","simple_similar","images/stimuli/spore_stims/simple_05_B_a.gif","left","","","","",""
"","null","html-keyboard-response","180","270314","0.0-35.0-0.5","SS1613140457374","","","null","","","","","<p><img src= images/blank.png width =""200"" height = ""200"" style = ""float:right""></p><p><img src=images/blank.png width =""800"" height = ""200""></p>","","","","","","","","","","","",""
"","127","sequential-stimulus-presentation","181","271261","0.0-35.0-1.5","SS1613140457374","trial","","40","800","927","images/stimuli/spore_stims/simple_05_A_a.gif","images/stimuli/spore_stims/simple_05_B_a.gif","","","","","9","simple_similar","images/stimuli/spore_stims/simple_05_B_a.gif","left","","","","",""
"","null","html-keyboard-response","182","272205","0.0-35.0-0.6","SS1613140457374","","","null","","","","","<p><img src= images/blank.png width =""200"" height = ""200"" style = ""float:right""></p><p><img src=images/blank.png width =""800"" height = ""200""></p>","","","","","","","","","","","",""
"","94","sequential-stimulus-presentation","183","273116","0.0-35.0-1.6","SS1613140457374","trial","","40","800","894","images/stimuli/spore_stims/simple_05_A_a.gif","images/stimuli/spore_stims/simple_05_B_a.gif","","","","","9","simple_similar","images/stimuli/spore_stims/simple_05_B_a.gif","left","","","","",""
"","null","html-keyboard-response","184","274304","0.0-35.0-0.7","SS1613140457374","","","null","","","","","<p><img src= images/blank.png width =""200"" height = ""200"" style = ""float:right""></p><p><img src=images/blank.png width =""800"" height = ""200""></p>","","","","","","","","","","","",""
"","17","sequential-stimulus-presentation","185","275140","0.0-35.0-1.7","SS1613140457374","trial","","40","800","817","images/stimuli/spore_stims/simple_05_A_a.gif","images/stimuli/spore_stims/simple_05_B_a.gif","","","","","9","simple_similar","images/stimuli/spore_stims/simple_05_B_a.gif","left","","","","",""
"","613","html-keyboard-response","186","275765","0.0-36.0","SS1613140457374","pref_question","","50","","","","","<video width ='960' height = '540' style='padding-top:8%' autoplay muted><source src='images/stimuli/wall_pref.mp4' type='video/mp4'></video>","2","middle","45%","9","","","","","","","",""
"","196","sequential-stimulus-presentation","187","276782","0.0-37.0","SS1613140457374","pref_reveal","","40","800","996","null","null","","","","","9","","","","deviant","","","",""
"","null","html-keyboard-response","188","277844","0.0-38.0-0.0","SS1613140457374","","","null","","","","","<p><img src= images/blank.png width =""200"" height = ""200"" style = ""float:right""></p><p><img src=images/blank.png width =""800"" height = ""200""></p>","","","","","","","","","","","",""
"","116","sequential-stimulus-presentation","189","278781","0.0-38.0-1.0","SS1613140457374","trial","","40","800","916","images/stimuli/spore_stims/simple_02_A_c.gif","images/stimuli/spore_stims/simple_07_A_c.gif","","","","","10","simple_dissimilar","images/stimuli/spore_stims/simple_07_A_c.gif","right","","","","",""
"","null","html-keyboard-response","190","279784","0.0-38.0-0.1","SS1613140457374","","","null","","","","","<p><img src= images/blank.png width =""200"" height = ""200"" style = ""float:right""></p><p><img src=images/blank.png width =""800"" height = ""200""></p>","","","","","","","","","","","",""
"","49","sequential-stimulus-presentation","191","280652","0.0-38.0-1.1","SS1613140457374","trial","","40","800","849","images/stimuli/spore_stims/simple_02_A_c.gif","images/stimuli/spore_stims/simple_07_A_c.gif","","","","","10","simple_dissimilar","images/stimuli/spore_stims/simple_07_A_c.gif","right","","","","",""
"","null","html-keyboard-response","192","281613","0.0-38.0-0.2","SS1613140457374","","","null","","","","","<p><img src= images/blank.png width =""200"" height = ""200"" style = ""float:right""></p><p><img src=images/blank.png width =""800"" height = ""200""></p>","","","","","","","","","","","",""
"","242","sequential-stimulus-presentation","193","282676","0.0-38.0-1.2","SS1613140457374","trial","","40","800","1042","images/stimuli/spore_stims/simple_02_A_c.gif","images/stimuli/spore_stims/simple_07_A_c.gif","","","","","10","simple_dissimilar","images/stimuli/spore_stims/simple_07_A_c.gif","right","","","","",""
"","null","html-keyboard-response","194","283784","0.0-38.0-0.3","SS1613140457374","","","null","","","","","<p><img src= images/blank.png width =""200"" height = ""200"" style = ""float:right""></p><p><img src=images/blank.png width =""800"" height = ""200""></p>","","","","","","","","","","","",""
"","24","sequential-stimulus-presentation","195","284629","0.0-38.0-1.3","SS1613140457374","trial","","40","800","824","images/stimuli/spore_stims/simple_02_A_c.gif","images/stimuli/spore_stims/simple_07_A_c.gif","","","","","10","simple_dissimilar","images/stimuli/spore_stims/simple_07_A_c.gif","right","","","","",""
"","null","html-keyboard-response","196","285464","0.0-38.0-0.4","SS1613140457374","","","null","","","","","<p><img src= images/blank.png width =""200"" height = ""200"" style = ""float:right""></p><p><img src=images/blank.png width =""800"" height = ""200""></p>","","","","","","","","","","","",""
"","196","sequential-stimulus-presentation","197","286486","0.0-38.0-1.4","SS1613140457374","trial","","40","800","996","images/stimuli/spore_stims/simple_02_A_c.gif","images/stimuli/spore_stims/simple_07_A_c.gif","","","","","10","simple_dissimilar","images/stimuli/spore_stims/simple_02_A_c.gif","left","","","","",""
"","null","html-keyboard-response","198","287344","0.0-38.0-0.5","SS1613140457374","","","null","","","","","<p><img src= images/blank.png width =""200"" height = ""200"" style = ""float:right""></p><p><img src=images/blank.png width =""800"" height = ""200""></p>","","","","","","","","","","","",""
"","86","sequential-stimulus-presentation","199","288260","0.0-38.0-1.5","SS1613140457374","trial","","40","800","886","images/stimuli/spore_stims/simple_02_A_c.gif","images/stimuli/spore_stims/simple_07_A_c.gif","","","","","10","simple_dissimilar","images/stimuli/spore_stims/simple_07_A_c.gif","right","","","","",""
"","null","html-keyboard-response","200","289294","0.0-38.0-0.6","SS1613140457374","","","null","","","","","<p><img src= images/blank.png width =""200"" height = ""200"" style = ""float:right""></p><p><img src=images/blank.png width =""800"" height = ""200""></p>","","","","","","","","","","","",""
"","168","sequential-stimulus-presentation","201","290284","0.0-38.0-1.6","SS1613140457374","trial","","40","800","968","images/stimuli/spore_stims/simple_02_A_c.gif","images/stimuli/spore_stims/simple_07_A_c.gif","","","","","10","simple_dissimilar","images/stimuli/spore_stims/simple_07_A_c.gif","right","","","","",""
"","null","html-keyboard-response","202","291234","0.0-38.0-0.7","SS1613140457374","","","null","","","","","<p><img src= images/blank.png width =""200"" height = ""200"" style = ""float:right""></p><p><img src=images/blank.png width =""800"" height = ""200""></p>","","","","","","","","","","","",""
"","238","sequential-stimulus-presentation","203","292293","0.0-38.0-1.7","SS1613140457374","trial","","40","800","1038","images/stimuli/spore_stims/simple_02_A_c.gif","images/stimuli/spore_stims/simple_07_A_c.gif","","","","","10","simple_dissimilar","images/stimuli/spore_stims/simple_07_A_c.gif","right","","","","",""
"","894","html-keyboard-response","204","293198","0.0-39.0","SS1613140457374","pref_question","","49","","","","","<video width ='960' height = '540' style='padding-top:8%' autoplay muted><source src='images/stimuli/wall_pref.mp4' type='video/mp4'></video>","1","left","25%","10","","","","","","","",""
"","270","sequential-stimulus-presentation","205","294293","0.0-40.0","SS1613140457374","pref_reveal","","40","800","1070","null","null","","","","","10","","","","deviant","","","",""
"","null","html-keyboard-response","206","295545","0.0-41.0-0.0","SS1613140457374","","","null","","","","","<p><img src= images/blank.png width =""200"" height = ""200"" style = ""float:right""></p><p><img src=images/blank.png width =""800"" height = ""200""></p>","","","","","","","","","","","",""
"","357","sequential-stimulus-presentation","207","296731","0.0-41.0-1.0","SS1613140457374","trial","","40","800","1157","images/stimuli/spore_stims/complex_07_A_c.gif","images/stimuli/spore_stims/complex_06_A_c.gif","","","","","11","complex_dissimilar","images/stimuli/spore_stims/complex_06_A_c.gif","right","","","","",""
"","null","html-keyboard-response","208","297803","0.0-41.0-0.1","SS1613140457374","","","null","","","","","<p><img src= images/blank.png width =""200"" height = ""200"" style = ""float:right""></p><p><img src=images/blank.png width =""800"" height = ""200""></p>","","","","","","","","","","","",""
"","285","sequential-stimulus-presentation","209","298910","0.0-41.0-1.1","SS1613140457374","trial","","40","800","1085","images/stimuli/spore_stims/complex_07_A_c.gif","images/stimuli/spore_stims/complex_06_A_c.gif","","","","","11","complex_dissimilar","images/stimuli/spore_stims/complex_06_A_c.gif","right","","","","",""
"","null","html-keyboard-response","210","299854","0.0-41.0-0.2","SS1613140457374","","","null","","","","","<p><img src= images/blank.png width =""200"" height = ""200"" style = ""float:right""></p><p><img src=images/blank.png width =""800"" height = ""200""></p>","","","","","","","","","","","",""
"","362","sequential-stimulus-presentation","211","301038","0.0-41.0-1.2","SS1613140457374","trial","","40","800","1162","images/stimuli/spore_stims/complex_07_A_c.gif","images/stimuli/spore_stims/complex_06_A_c.gif","","","","","11","complex_dissimilar","images/stimuli/spore_stims/complex_06_A_c.gif","right","","","","",""
"","null","html-keyboard-response","212","302013","0.0-41.0-0.3","SS1613140457374","","","null","","","","","<p><img src= images/blank.png width =""200"" height = ""200"" style = ""float:right""></p><p><img src=images/blank.png width =""800"" height = ""200""></p>","","","","","","","","","","","",""
"","866","sequential-stimulus-presentation","213","303701","0.0-41.0-1.3","SS1613140457374","trial","","40","800","1666","images/stimuli/spore_stims/complex_07_A_c.gif","images/stimuli/spore_stims/complex_06_A_c.gif","","","","","11","complex_dissimilar","images/stimuli/spore_stims/complex_06_A_c.gif","right","","","","",""
"","null","html-keyboard-response","214","305033","0.0-41.0-0.4","SS1613140457374","","","null","","","","","<p><img src= images/blank.png width =""200"" height = ""200"" style = ""float:right""></p><p><img src=images/blank.png width =""800"" height = ""200""></p>","","","","","","","","","","","",""
"","141","sequential-stimulus-presentation","215","305997","0.0-41.0-1.4","SS1613140457374","trial","","40","800","941","images/stimuli/spore_stims/complex_07_A_c.gif","images/stimuli/spore_stims/complex_06_A_c.gif","","","","","11","complex_dissimilar","images/stimuli/spore_stims/complex_06_A_c.gif","right","","","","",""
"","null","html-keyboard-response","216","306894","0.0-41.0-0.5","SS1613140457374","","","null","","","","","<p><img src= images/blank.png width =""200"" height = ""200"" style = ""float:right""></p><p><img src=images/blank.png width =""800"" height = ""200""></p>","","","","","","","","","","","",""
"","322","sequential-stimulus-presentation","217","308036","0.0-41.0-1.5","SS1613140457374","trial","","40","800","1122","images/stimuli/spore_stims/complex_07_A_c.gif","images/stimuli/spore_stims/complex_06_A_c.gif","","","","","11","complex_dissimilar","images/stimuli/spore_stims/complex_06_A_c.gif","right","","","","",""
"","null","html-keyboard-response","218","309233","0.0-41.0-0.6","SS1613140457374","","","null","","","","","<p><img src= images/blank.png width =""200"" height = ""200"" style = ""float:right""></p><p><img src=images/blank.png width =""800"" height = ""200""></p>","","","","","","","","","","","",""
"","287","sequential-stimulus-presentation","219","310341","0.0-41.0-1.6","SS1613140457374","trial","","40","800","1087","images/stimuli/spore_stims/complex_07_A_c.gif","images/stimuli/spore_stims/complex_06_A_c.gif","","","","","11","complex_dissimilar","images/stimuli/spore_stims/complex_07_A_c.gif","middle","","","","",""
"","null","html-keyboard-response","220","311215","0.0-41.0-0.7","SS1613140457374","","","null","","","","","<p><img src= images/blank.png width =""200"" height = ""200"" style = ""float:right""></p><p><img src=images/blank.png width =""800"" height = ""200""></p>","","","","","","","","","","","",""
"","250","sequential-stimulus-presentation","221","312284","0.0-41.0-1.7","SS1613140457374","trial","","40","800","1050","images/stimuli/spore_stims/complex_07_A_c.gif","images/stimuli/spore_stims/complex_06_A_c.gif","","","","","11","complex_dissimilar","images/stimuli/spore_stims/complex_06_A_c.gif","right","","","","",""
"","701","html-keyboard-response","222","312989","0.0-42.0","SS1613140457374","pref_question","","49","","","","","<video width ='960' height = '540' style='padding-top:8%' autoplay muted><source src='images/stimuli/wall_pref.mp4' type='video/mp4'></video>","1","left","25%","11","","","","","","","",""
"","356","sequential-stimulus-presentation","223","314181","0.0-43.0","SS1613140457374","pref_reveal","","40","800","1156","null","null","","","","","11","","","","novel","","","",""
"","null","html-keyboard-response","224","315065","0.0-44.0-0.0","SS1613140457374","","","null","","","","","<p><img src= images/blank.png width =""200"" height = ""200"" style = ""float:right""></p><p><img src=images/blank.png width =""800"" height = ""200""></p>","","","","","","","","","","","",""
"","218","sequential-stimulus-presentation","225","316123","0.0-44.0-1.0","SS1613140457374","trial","","40","800","1018","images/stimuli/spore_stims/complex_17_B_c.gif","images/stimuli/spore_stims/complex_15_A_b.gif","","","","","12","complex_dissimilar","images/stimuli/spore_stims/complex_15_A_b.gif","right","","","","",""
"","null","html-keyboard-response","226","317265","0.0-44.0-0.1","SS1613140457374","","","null","","","","","<p><img src= images/blank.png width =""200"" height = ""200"" style = ""float:right""></p><p><img src=images/blank.png width =""800"" height = ""200""></p>","","","","","","","","","","","",""
"","232","sequential-stimulus-presentation","227","318316","0.0-44.0-1.1","SS1613140457374","trial","","40","800","1032","images/stimuli/spore_stims/complex_17_B_c.gif","images/stimuli/spore_stims/complex_15_A_b.gif","","","","","12","complex_dissimilar","images/stimuli/spore_stims/complex_15_A_b.gif","right","","","","",""
"","null","html-keyboard-response","228","319294","0.0-44.0-0.2","SS1613140457374","","","null","","","","","<p><img src= images/blank.png width =""200"" height = ""200"" style = ""float:right""></p><p><img src=images/blank.png width =""800"" height = ""200""></p>","","","","","","","","","","","",""
"","281","sequential-stimulus-presentation","229","320395","0.0-44.0-1.2","SS1613140457374","trial","","40","800","1081","images/stimuli/spore_stims/complex_17_B_c.gif","images/stimuli/spore_stims/complex_15_A_b.gif","","","","","12","complex_dissimilar","images/stimuli/spore_stims/complex_15_A_b.gif","right","","","","",""
"","null","html-keyboard-response","230","321255","0.0-44.0-0.3","SS1613140457374","","","null","","","","","<p><img src= images/blank.png width =""200"" height = ""200"" style = ""float:right""></p><p><img src=images/blank.png width =""800"" height = ""200""></p>","","","","","","","","","","","",""
"","225","sequential-stimulus-presentation","231","322302","0.0-44.0-1.3","SS1613140457374","trial","","40","800","1025","images/stimuli/spore_stims/complex_17_B_c.gif","images/stimuli/spore_stims/complex_15_A_b.gif","","","","","12","complex_dissimilar","images/stimuli/spore_stims/complex_17_B_c.gif","middle","","","","",""
"","null","html-keyboard-response","232","323415","0.0-44.0-0.4","SS1613140457374","","","null","","","","","<p><img src= images/blank.png width =""200"" height = ""200"" style = ""float:right""></p><p><img src=images/blank.png width =""800"" height = ""200""></p>","","","","","","","","","","","",""
"","299","sequential-stimulus-presentation","233","324532","0.0-44.0-1.4","SS1613140457374","trial","","40","800","1099","images/stimuli/spore_stims/complex_17_B_c.gif","images/stimuli/spore_stims/complex_15_A_b.gif","","","","","12","complex_dissimilar","images/stimuli/spore_stims/complex_15_A_b.gif","right","","","","",""
"","null","html-keyboard-response","234","325395","0.0-44.0-0.5","SS1613140457374","","","null","","","","","<p><img src= images/blank.png width =""200"" height = ""200"" style = ""float:right""></p><p><img src=images/blank.png width =""800"" height = ""200""></p>","","","","","","","","","","","",""
"","207","sequential-stimulus-presentation","235","326421","0.0-44.0-1.5","SS1613140457374","trial","","40","800","1007","images/stimuli/spore_stims/complex_17_B_c.gif","images/stimuli/spore_stims/complex_15_A_b.gif","","","","","12","complex_dissimilar","images/stimuli/spore_stims/complex_15_A_b.gif","right","","","","",""
"","null","html-keyboard-response","236","327676","0.0-44.0-0.6","SS1613140457374","","","null","","","","","<p><img src= images/blank.png width =""200"" height = ""200"" style = ""float:right""></p><p><img src=images/blank.png width =""800"" height = ""200""></p>","","","","","","","","","","","",""
"","12","sequential-stimulus-presentation","237","328519","0.0-44.0-1.6","SS1613140457374","trial","","40","800","812","images/stimuli/spore_stims/complex_17_B_c.gif","images/stimuli/spore_stims/complex_15_A_b.gif","","","","","12","complex_dissimilar","images/stimuli/spore_stims/complex_15_A_b.gif","right","","","","",""
"","null","html-keyboard-response","238","329804","0.0-44.0-0.7","SS1613140457374","","","null","","","","","<p><img src= images/blank.png width =""200"" height = ""200"" style = ""float:right""></p><p><img src=images/blank.png width =""800"" height = ""200""></p>","","","","","","","","","","","",""
"","315","sequential-stimulus-presentation","239","330941","0.0-44.0-1.7","SS1613140457374","trial","","40","800","1115","images/stimuli/spore_stims/complex_17_B_c.gif","images/stimuli/spore_stims/complex_15_A_b.gif","","","","","12","complex_dissimilar","images/stimuli/spore_stims/complex_15_A_b.gif","right","","","","",""
"","882","html-keyboard-response","240","331846","0.0-45.0","SS1613140457374","pref_question","","49","","","","","<video width ='960' height = '540' style='padding-top:8%' autoplay muted><source src='images/stimuli/wall_pref.mp4' type='video/mp4'></video>","1","left","25%","12","","","","","","","",""
"","177","sequential-stimulus-presentation","241","332852","0.0-46.0","SS1613140457374","pref_reveal","","40","800","977","null","null","","","","","12","","","","novel","","","",""
"","null","html-keyboard-response","242","333855","0.0-47.0-0.0","SS1613140457374","","","null","","","","","<p><img src= images/blank.png width =""200"" height = ""200"" style = ""float:right""></p><p><img src=images/blank.png width =""800"" height = ""200""></p>","","","","","","","","","","","",""
"","143","sequential-stimulus-presentation","243","334828","0.0-47.0-1.0","SS1613140457374","trial","","40","800","943","images/stimuli/spore_stims/complex_19_B_b.gif","images/stimuli/spore_stims/complex_14_B_c.gif","","","","","13","complex_dissimilar","images/stimuli/spore_stims/complex_14_B_c.gif","middle","","","","",""
"","null","html-keyboard-response","244","335766","0.0-47.0-0.1","SS1613140457374","","","null","","","","","<p><img src= images/blank.png width =""200"" height = ""200"" style = ""float:right""></p><p><img src=images/blank.png width =""800"" height = ""200""></p>","","","","","","","","","","","",""
"","106","sequential-stimulus-presentation","245","336699","0.0-47.0-1.1","SS1613140457374","trial","","40","800","906","images/stimuli/spore_stims/complex_19_B_b.gif","images/stimuli/spore_stims/complex_14_B_c.gif","","","","","13","complex_dissimilar","images/stimuli/spore_stims/complex_14_B_c.gif","middle","","","","",""
"","null","html-keyboard-response","246","337855","0.0-47.0-0.2","SS1613140457374","","","null","","","","","<p><img src= images/blank.png width =""200"" height = ""200"" style = ""float:right""></p><p><img src=images/blank.png width =""800"" height = ""200""></p>","","","","","","","","","","","",""
"","18","sequential-stimulus-presentation","247","338693","0.0-47.0-1.2","SS1613140457374","trial","","40","800","818","images/stimuli/spore_stims/complex_19_B_b.gif","images/stimuli/spore_stims/complex_14_B_c.gif","","","","","13","complex_dissimilar","images/stimuli/spore_stims/complex_14_B_c.gif","middle","","","","",""
"","null","html-keyboard-response","248","339595","0.0-47.0-0.3","SS1613140457374","","","null","","","","","<p><img src= images/blank.png width =""200"" height = ""200"" style = ""float:right""></p><p><img src=images/blank.png width =""800"" height = ""200""></p>","","","","","","","","","","","",""
"","148","sequential-stimulus-presentation","249","340573","0.0-47.0-1.3","SS1613140457374","trial","","40","800","948","images/stimuli/spore_stims/complex_19_B_b.gif","images/stimuli/spore_stims/complex_14_B_c.gif","","","","","13","complex_dissimilar","images/stimuli/spore_stims/complex_14_B_c.gif","middle","","","","",""
"","null","html-keyboard-response","250","341723","0.0-47.0-0.4","SS1613140457374","","","null","","","","","<p><img src= images/blank.png width =""200"" height = ""200"" style = ""float:right""></p><p><img src=images/blank.png width =""800"" height = ""200""></p>","","","","","","","","","","","",""
"","60","sequential-stimulus-presentation","251","342603","0.0-47.0-1.4","SS1613140457374","trial","","40","800","860","images/stimuli/spore_stims/complex_19_B_b.gif","images/stimuli/spore_stims/complex_14_B_c.gif","","","","","13","complex_dissimilar","images/stimuli/spore_stims/complex_19_B_b.gif","right","","","","",""
"","null","html-keyboard-response","252","343623","0.0-47.0-0.5","SS1613140457374","","","null","","","","","<p><img src= images/blank.png width =""200"" height = ""200"" style = ""float:right""></p><p><img src=images/blank.png width =""800"" height = ""200""></p>","","","","","","","","","","","",""
"","40","sequential-stimulus-presentation","253","344484","0.0-47.0-1.5","SS1613140457374","trial","","40","800","840","images/stimuli/spore_stims/complex_19_B_b.gif","images/stimuli/spore_stims/complex_14_B_c.gif","","","","","13","complex_dissimilar","images/stimuli/spore_stims/complex_14_B_c.gif","middle","","","","",""
"","null","html-keyboard-response","254","345685","0.0-47.0-0.6","SS1613140457374","","","null","","","","","<p><img src= images/blank.png width =""200"" height = ""200"" style = ""float:right""></p><p><img src=images/blank.png width =""800"" height = ""200""></p>","","","","","","","","","","","",""
"","77","sequential-stimulus-presentation","255","346581","0.0-47.0-1.6","SS1613140457374","trial","","40","800","877","images/stimuli/spore_stims/complex_19_B_b.gif","images/stimuli/spore_stims/complex_14_B_c.gif","","","","","13","complex_dissimilar","images/stimuli/spore_stims/complex_14_B_c.gif","middle","","","","",""
"","null","html-keyboard-response","256","347765","0.0-47.0-0.7","SS1613140457374","","","null","","","","","<p><img src= images/blank.png width =""200"" height = ""200"" style = ""float:right""></p><p><img src=images/blank.png width =""800"" height = ""200""></p>","","","","","","","","","","","",""
"","296","sequential-stimulus-presentation","257","348901","0.0-47.0-1.7","SS1613140457374","trial","","40","800","1096","images/stimuli/spore_stims/complex_19_B_b.gif","images/stimuli/spore_stims/complex_14_B_c.gif","","","","","13","complex_dissimilar","images/stimuli/spore_stims/complex_14_B_c.gif","middle","","","","",""
"","1045","html-keyboard-response","258","349965","0.0-48.0","SS1613140457374","pref_question","","49","","","","","<video width ='960' height = '540' style='padding-top:8%' autoplay muted><source src='images/stimuli/wall_pref.mp4' type='video/mp4'></video>","1","left","25%","13","","","","","","","",""
"","141","sequential-stimulus-presentation","259","350925","0.0-49.0","SS1613140457374","pref_reveal","","40","800","941","null","null","","","","","13","","","","novel","","","",""
"","null","html-keyboard-response","260","352114","0.0-50.0-0.0","SS1613140457374","","","null","","","","","<p><img src= images/blank.png width =""200"" height = ""200"" style = ""float:right""></p><p><img src=images/blank.png width =""800"" height = ""200""></p>","","","","","","","","","","","",""
"","22","sequential-stimulus-presentation","261","352957","0.0-50.0-1.0","SS1613140457374","trial","","40","800","822","images/stimuli/spore_stims/simple_09_B_a.gif","images/stimuli/spore_stims/simple_19_B_d.gif","","","","","14","simple_dissimilar","images/stimuli/spore_stims/simple_19_B_d.gif","middle","","","","",""
"","null","html-keyboard-response","262","353995","0.0-50.0-0.1","SS1613140457374","","","null","","","","","<p><img src= images/blank.png width =""200"" height = ""200"" style = ""float:right""></p><p><img src=images/blank.png width =""800"" height = ""200""></p>","","","","","","","","","","","",""
"","62","sequential-stimulus-presentation","263","354877","0.0-50.0-1.1","SS1613140457374","trial","","40","800","862","images/stimuli/spore_stims/simple_09_B_a.gif","images/stimuli/spore_stims/simple_19_B_d.gif","","","","","14","simple_dissimilar","images/stimuli/spore_stims/simple_19_B_d.gif","middle","","","","",""
"","null","html-keyboard-response","264","356075","0.0-50.0-0.2","SS1613140457374","","","null","","","","","<p><img src= images/blank.png width =""200"" height = ""200"" style = ""float:right""></p><p><img src=images/blank.png width =""800"" height = ""200""></p>","","","","","","","","","","","",""
"","10","sequential-stimulus-presentation","265","356926","0.0-50.0-1.2","SS1613140457374","trial","","40","800","810","images/stimuli/spore_stims/simple_09_B_a.gif","images/stimuli/spore_stims/simple_19_B_d.gif","","","","","14","simple_dissimilar","images/stimuli/spore_stims/simple_09_B_a.gif","left","","","","",""
"","null","html-keyboard-response","266","358144","0.0-50.0-0.3","SS1613140457374","","","null","","","","","<p><img src= images/blank.png width =""200"" height = ""200"" style = ""float:right""></p><p><img src=images/blank.png width =""800"" height = ""200""></p>","","","","","","","","","","","",""
"","297","sequential-stimulus-presentation","267","359261","0.0-50.0-1.3","SS1613140457374","trial","","40","800","1097","images/stimuli/spore_stims/simple_09_B_a.gif","images/stimuli/spore_stims/simple_19_B_d.gif","","","","","14","simple_dissimilar","images/stimuli/spore_stims/simple_19_B_d.gif","middle","","","","",""
"","null","html-keyboard-response","268","360524","0.0-50.0-0.4","SS1613140457374","","","null","","","","","<p><img src= images/blank.png width =""200"" height = ""200"" style = ""float:right""></p><p><img src=images/blank.png width =""800"" height = ""200""></p>","","","","","","","","","","","",""
"","291","sequential-stimulus-presentation","269","361636","0.0-50.0-1.4","SS1613140457374","trial","","40","800","1091","images/stimuli/spore_stims/simple_09_B_a.gif","images/stimuli/spore_stims/simple_19_B_d.gif","","","","","14","simple_dissimilar","images/stimuli/spore_stims/simple_19_B_d.gif","middle","","","","",""
"","null","html-keyboard-response","270","362493","0.0-50.0-0.5","SS1613140457374","","","null","","","","","<p><img src= images/blank.png width =""200"" height = ""200"" style = ""float:right""></p><p><img src=images/blank.png width =""800"" height = ""200""></p>","","","","","","","","","","","",""
"","177","sequential-stimulus-presentation","271","363493","0.0-50.0-1.5","SS1613140457374","trial","","40","800","977","images/stimuli/spore_stims/simple_09_B_a.gif","images/stimuli/spore_stims/simple_19_B_d.gif","","","","","14","simple_dissimilar","images/stimuli/spore_stims/simple_19_B_d.gif","middle","","","","",""
"","null","html-keyboard-response","272","364644","0.0-50.0-0.6","SS1613140457374","","","null","","","","","<p><img src= images/blank.png width =""200"" height = ""200"" style = ""float:right""></p><p><img src=images/blank.png width =""800"" height = ""200""></p>","","","","","","","","","","","",""
"","63","sequential-stimulus-presentation","273","365531","0.0-50.0-1.6","SS1613140457374","trial","","40","800","863","images/stimuli/spore_stims/simple_09_B_a.gif","images/stimuli/spore_stims/simple_19_B_d.gif","","","","","14","simple_dissimilar","images/stimuli/spore_stims/simple_19_B_d.gif","middle","","","","",""
"","null","html-keyboard-response","274","366715","0.0-50.0-0.7","SS1613140457374","","","null","","","","","<p><img src= images/blank.png width =""200"" height = ""200"" style = ""float:right""></p><p><img src=images/blank.png width =""800"" height = ""200""></p>","","","","","","","","","","","",""
"","15","sequential-stimulus-presentation","275","367548","0.0-50.0-1.7","SS1613140457374","trial","","40","800","815","images/stimuli/spore_stims/simple_09_B_a.gif","images/stimuli/spore_stims/simple_19_B_d.gif","","","","","14","simple_dissimilar","images/stimuli/spore_stims/simple_19_B_d.gif","middle","","","","",""
"","744","html-keyboard-response","276","368300","0.0-51.0","SS1613140457374","pref_question","","50","","","","","<video width ='960' height = '540' style='padding-top:8%' autoplay muted><source src='images/stimuli/wall_pref.mp4' type='video/mp4'></video>","2","middle","45%","14","","","","","","","",""
"","131","sequential-stimulus-presentation","277","369245","0.0-52.0","SS1613140457374","pref_reveal","","40","800","931","null","null","","","","","14","","","","background","","","",""
"","null","html-keyboard-response","278","370175","0.0-53.0-0.0","SS1613140457374","","","null","","","","","<p><img src= images/blank.png width =""200"" height = ""200"" style = ""float:right""></p><p><img src=images/blank.png width =""800"" height = ""200""></p>","","","","","","","","","","","",""
"","127","sequential-stimulus-presentation","279","371124","0.0-53.0-1.0","SS1613140457374","trial","","40","800","927","images/stimuli/spore_stims/simple_06_B_d.gif","images/stimuli/spore_stims/simple_04_B_c.gif","","","","","15","simple_dissimilar","images/stimuli/spore_stims/simple_04_B_c.gif","right","","","","",""
"","null","html-keyboard-response","280","372234","0.0-53.0-0.1","SS1613140457374","","","null","","","","","<p><img src= images/blank.png width =""200"" height = ""200"" style = ""float:right""></p><p><img src=images/blank.png width =""800"" height = ""200""></p>","","","","","","","","","","","",""
"","40","sequential-stimulus-presentation","281","373094","0.0-53.0-1.1","SS1613140457374","trial","","40","800","840","images/stimuli/spore_stims/simple_06_B_d.gif","images/stimuli/spore_stims/simple_04_B_c.gif","","","","","15","simple_dissimilar","images/stimuli/spore_stims/simple_04_B_c.gif","right","","","","",""
"","null","html-keyboard-response","282","374205","0.0-53.0-0.2","SS1613140457374","","","null","","","","","<p><img src= images/blank.png width =""200"" height = ""200"" style = ""float:right""></p><p><img src=images/blank.png width =""800"" height = ""200""></p>","","","","","","","","","","","",""
"","108","sequential-stimulus-presentation","283","375132","0.0-53.0-1.2","SS1613140457374","trial","","40","800","908","images/stimuli/spore_stims/simple_06_B_d.gif","images/stimuli/spore_stims/simple_04_B_c.gif","","","","","15","simple_dissimilar","images/stimuli/spore_stims/simple_06_B_d.gif","left","","","","",""
"","null","html-keyboard-response","284","376183","0.0-53.0-0.3","SS1613140457374","","","null","","","","","<p><img src= images/blank.png width =""200"" height = ""200"" style = ""float:right""></p><p><img src=images/blank.png width =""800"" height = ""200""></p>","","","","","","","","","","","",""
"","24","sequential-stimulus-presentation","285","377030","0.0-53.0-1.3","SS1613140457374","trial","","40","800","824","images/stimuli/spore_stims/simple_06_B_d.gif","images/stimuli/spore_stims/simple_04_B_c.gif","","","","","15","simple_dissimilar","images/stimuli/spore_stims/simple_04_B_c.gif","right","","","","",""
"","null","html-keyboard-response","286","377864","0.0-53.0-0.4","SS1613140457374","","","null","","","","","<p><img src= images/blank.png width =""200"" height = ""200"" style = ""float:right""></p><p><img src=images/blank.png width =""800"" height = ""200""></p>","","","","","","","","","","","",""
"","56","sequential-stimulus-presentation","287","378740","0.0-53.0-1.4","SS1613140457374","trial","","40","800","856","images/stimuli/spore_stims/simple_06_B_d.gif","images/stimuli/spore_stims/simple_04_B_c.gif","","","","","15","simple_dissimilar","images/stimuli/spore_stims/simple_04_B_c.gif","right","","","","",""
"","null","html-keyboard-response","288","379865","0.0-53.0-0.5","SS1613140457374","","","null","","","","","<p><img src= images/blank.png width =""200"" height = ""200"" style = ""float:right""></p><p><img src=images/blank.png width =""800"" height = ""200""></p>","","","","","","","","","","","",""
"","300","sequential-stimulus-presentation","289","381003","0.0-53.0-1.5","SS1613140457374","trial","","40","800","1100","images/stimuli/spore_stims/simple_06_B_d.gif","images/stimuli/spore_stims/simple_04_B_c.gif","","","","","15","simple_dissimilar","images/stimuli/spore_stims/simple_04_B_c.gif","right","","","","",""
"","null","html-keyboard-response","290","381864","0.0-53.0-0.6","SS1613140457374","","","null","","","","","<p><img src= images/blank.png width =""200"" height = ""200"" style = ""float:right""></p><p><img src=images/blank.png width =""800"" height = ""200""></p>","","","","","","","","","","","",""
"","129","sequential-stimulus-presentation","291","382812","0.0-53.0-1.6","SS1613140457374","trial","","40","800","929","images/stimuli/spore_stims/simple_06_B_d.gif","images/stimuli/spore_stims/simple_04_B_c.gif","","","","","15","simple_dissimilar","images/stimuli/spore_stims/simple_04_B_c.gif","right","","","","",""
"","null","html-keyboard-response","292","384015","0.0-53.0-0.7","SS1613140457374","","","null","","","","","<p><img src= images/blank.png width =""200"" height = ""200"" style = ""float:right""></p><p><img src=images/blank.png width =""800"" height = ""200""></p>","","","","","","","","","","","",""
"","315","sequential-stimulus-presentation","293","385149","0.0-53.0-1.7","SS1613140457374","trial","","40","800","1115","images/stimuli/spore_stims/simple_06_B_d.gif","images/stimuli/spore_stims/simple_04_B_c.gif","","","","","15","simple_dissimilar","images/stimuli/spore_stims/simple_04_B_c.gif","right","","","","",""
"","954","html-keyboard-response","294","386124","0.0-54.0","SS1613140457374","pref_question","","49","","","","","<video width ='960' height = '540' style='padding-top:8%' autoplay muted><source src='images/stimuli/wall_pref.mp4' type='video/mp4'></video>","1","left","25%","15","","","","","","","",""
"","28","sequential-stimulus-presentation","295","386971","0.0-55.0","SS1613140457374","pref_reveal","","40","800","828","null","null","","","","","15","","","","deviant","","","",""
"","null","html-keyboard-response","296","387806","0.0-56.0-0.0","SS1613140457374","","","null","","","","","<p><img src= images/blank.png width =""200"" height = ""200"" style = ""float:right""></p><p><img src=images/blank.png width =""800"" height = ""200""></p>","","","","","","","","","","","",""
"","255","sequential-stimulus-presentation","297","388900","0.0-56.0-1.0","SS1613140457374","trial","","40","800","1055","images/stimuli/spore_stims/complex_04_B_c.gif","images/stimuli/spore_stims/complex_04_A_c.gif","","","","","16","complex_similar","images/stimuli/spore_stims/complex_04_A_c.gif","right","","","","",""
"","null","html-keyboard-response","298","390084","0.0-56.0-0.1","SS1613140457374","","","null","","","","","<p><img src= images/blank.png width =""200"" height = ""200"" style = ""float:right""></p><p><img src=images/blank.png width =""800"" height = ""200""></p>","","","","","","","","","","","",""
"","337","sequential-stimulus-presentation","299","391243","0.0-56.0-1.1","SS1613140457374","trial","","40","800","1137","images/stimuli/spore_stims/complex_04_B_c.gif","images/stimuli/spore_stims/complex_04_A_c.gif","","","","","16","complex_similar","images/stimuli/spore_stims/complex_04_A_c.gif","right","","","","",""
"","null","html-keyboard-response","300","392334","0.0-56.0-0.2","SS1613140457374","","","null","","","","","<p><img src= images/blank.png width =""200"" height = ""200"" style = ""float:right""></p><p><img src=images/blank.png width =""800"" height = ""200""></p>","","","","","","","","","","","",""
"","178","sequential-stimulus-presentation","301","393332","0.0-56.0-1.2","SS1613140457374","trial","","40","800","978","images/stimuli/spore_stims/complex_04_B_c.gif","images/stimuli/spore_stims/complex_04_A_c.gif","","","","","16","complex_similar","images/stimuli/spore_stims/complex_04_A_c.gif","right","","","","",""
"","null","html-keyboard-response","302","394243","0.0-56.0-0.3","SS1613140457374","","","null","","","","","<p><img src= images/blank.png width =""200"" height = ""200"" style = ""float:right""></p><p><img src=images/blank.png width =""800"" height = ""200""></p>","","","","","","","","","","","",""
"","235","sequential-stimulus-presentation","303","395299","0.0-56.0-1.3","SS1613140457374","trial","","40","800","1035","images/stimuli/spore_stims/complex_04_B_c.gif","images/stimuli/spore_stims/complex_04_A_c.gif","","","","","16","complex_similar","images/stimuli/spore_stims/complex_04_A_c.gif","right","","","","",""
"","null","html-keyboard-response","304","396360","0.0-56.0-0.4","SS1613140457374","","","null","","","","","<p><img src= images/blank.png width =""200"" height = ""200"" style = ""float:right""></p><p><img src=images/blank.png width =""800"" height = ""200""></p>","","","","","","","","","","","",""
"","293","sequential-stimulus-presentation","305","397478","0.0-56.0-1.4","SS1613140457374","trial","","40","800","1093","images/stimuli/spore_stims/complex_04_B_c.gif","images/stimuli/spore_stims/complex_04_A_c.gif","","","","","16","complex_similar","images/stimuli/spore_stims/complex_04_A_c.gif","right","","","","",""
"","null","html-keyboard-response","306","398762","0.0-56.0-0.5","SS1613140457374","","","null","","","","","<p><img src= images/blank.png width =""200"" height = ""200"" style = ""float:right""></p><p><img src=images/blank.png width =""800"" height = ""200""></p>","","","","","","","","","","","",""
"","211","sequential-stimulus-presentation","307","399804","0.0-56.0-1.5","SS1613140457374","trial","","40","800","1011","images/stimuli/spore_stims/complex_04_B_c.gif","images/stimuli/spore_stims/complex_04_A_c.gif","","","","","16","complex_similar","images/stimuli/spore_stims/complex_04_B_c.gif","middle","","","","",""
"","null","html-keyboard-response","308","400635","0.0-56.0-0.6","SS1613140457374","","","null","","","","","<p><img src= images/blank.png width =""200"" height = ""200"" style = ""float:right""></p><p><img src=images/blank.png width =""800"" height = ""200""></p>","","","","","","","","","","","",""
"","26","sequential-stimulus-presentation","309","401491","0.0-56.0-1.6","SS1613140457374","trial","","40","800","826","images/stimuli/spore_stims/complex_04_B_c.gif","images/stimuli/spore_stims/complex_04_A_c.gif","","","","","16","complex_similar","images/stimuli/spore_stims/complex_04_A_c.gif","right","","","","",""
"","null","html-keyboard-response","310","402523","0.0-56.0-0.7","SS1613140457374","","","null","","","","","<p><img src= images/blank.png width =""200"" height = ""200"" style = ""float:right""></p><p><img src=images/blank.png width =""800"" height = ""200""></p>","","","","","","","","","","","",""
"","60","sequential-stimulus-presentation","311","403405","0.0-56.0-1.7","SS1613140457374","trial","","40","800","860","images/stimuli/spore_stims/complex_04_B_c.gif","images/stimuli/spore_stims/complex_04_A_c.gif","","","","","16","complex_similar","images/stimuli/spore_stims/complex_04_A_c.gif","right","","","","",""
"","803","html-keyboard-response","312","404220","0.0-57.0","SS1613140457374","pref_question","","49","","","","","<video width ='960' height = '540' style='padding-top:8%' autoplay muted><source src='images/stimuli/wall_pref.mp4' type='video/mp4'></video>","1","left","25%","16","","","","","","","",""
"","240","sequential-stimulus-presentation","313","405284","0.0-58.0","SS1613140457374","pref_reveal","","40","800","1040","null","null","","","","","16","","","","novel","","","",""
"","null","html-keyboard-response","314","406564","0.0-59.0-0.0","SS1613140457374","","","null","","","","","<p><img src= images/blank.png width =""200"" height = ""200"" style = ""float:right""></p><p><img src=images/blank.png width =""800"" height = ""200""></p>","","","","","","","","","","","",""
"","366","sequential-stimulus-presentation","315","407740","0.0-59.0-1.0","SS1613140457374","trial","","40","800","1166","images/stimuli/spore_stims/complex_08_B_c.gif","images/stimuli/spore_stims/complex_08_A_c.gif","","","","","17","complex_similar","images/stimuli/spore_stims/complex_08_A_c.gif","right","","","","",""
"","null","html-keyboard-response","316","408995","0.0-59.0-0.1","SS1613140457374","","","null","","","","","<p><img src= images/blank.png width =""200"" height = ""200"" style = ""float:right""></p><p><img src=images/blank.png width =""800"" height = ""200""></p>","","","","","","","","","","","",""
"","14","sequential-stimulus-presentation","317","409829","0.0-59.0-1.1","SS1613140457374","trial","","40","800","814","images/stimuli/spore_stims/complex_08_B_c.gif","images/stimuli/spore_stims/complex_08_A_c.gif","","","","","17","complex_similar","images/stimuli/spore_stims/complex_08_A_c.gif","right","","","","",""
"","null","html-keyboard-response","318","411054","0.0-59.0-0.2","SS1613140457374","","","null","","","","","<p><img src= images/blank.png width =""200"" height = ""200"" style = ""float:right""></p><p><img src=images/blank.png width =""800"" height = ""200""></p>","","","","","","","","","","","",""
"","1","sequential-stimulus-presentation","319","411877","0.0-59.0-1.2","SS1613140457374","trial","","40","800","801","images/stimuli/spore_stims/complex_08_B_c.gif","images/stimuli/spore_stims/complex_08_A_c.gif","","","","","17","complex_similar","images/stimuli/spore_stims/complex_08_A_c.gif","right","","","","",""
"","null","html-keyboard-response","320","412994","0.0-59.0-0.3","SS1613140457374","","","null","","","","","<p><img src= images/blank.png width =""200"" height = ""200"" style = ""float:right""></p><p><img src=images/blank.png width =""800"" height = ""200""></p>","","","","","","","","","","","",""
"","138","sequential-stimulus-presentation","321","413972","0.0-59.0-1.3","SS1613140457374","trial","","40","800","938","images/stimuli/spore_stims/complex_08_B_c.gif","images/stimuli/spore_stims/complex_08_A_c.gif","","","","","17","complex_similar","images/stimuli/spore_stims/complex_08_B_c.gif","left","","","","",""
"","null","html-keyboard-response","322","414864","0.0-59.0-0.4","SS1613140457374","","","null","","","","","<p><img src= images/blank.png width =""200"" height = ""200"" style = ""float:right""></p><p><img src=images/blank.png width =""800"" height = ""200""></p>","","","","","","","","","","","",""
"","25","sequential-stimulus-presentation","323","415723","0.0-59.0-1.4","SS1613140457374","trial","","40","800","825","images/stimuli/spore_stims/complex_08_B_c.gif","images/stimuli/spore_stims/complex_08_A_c.gif","","","","","17","complex_similar","images/stimuli/spore_stims/complex_08_A_c.gif","right","","","","",""
"","null","html-keyboard-response","324","416894","0.0-59.0-0.5","SS1613140457374","","","null","","","","","<p><img src= images/blank.png width =""200"" height = ""200"" style = ""float:right""></p><p><img src=images/blank.png width =""800"" height = ""200""></p>","","","","","","","","","","","",""
"","87","sequential-stimulus-presentation","325","417821","0.0-59.0-1.5","SS1613140457374","trial","","40","800","887","images/stimuli/spore_stims/complex_08_B_c.gif","images/stimuli/spore_stims/complex_08_A_c.gif","","","","","17","complex_similar","images/stimuli/spore_stims/complex_08_A_c.gif","right","","","","",""
"","null","html-keyboard-response","326","418855","0.0-59.0-0.6","SS1613140457374","","","null","","","","","<p><img src= images/blank.png width =""200"" height = ""200"" style = ""float:right""></p><p><img src=images/blank.png width =""800"" height = ""200""></p>","","","","","","","","","","","",""
"","150","sequential-stimulus-presentation","327","419829","0.0-59.0-1.6","SS1613140457374","trial","","40","800","950","images/stimuli/spore_stims/complex_08_B_c.gif","images/stimuli/spore_stims/complex_08_A_c.gif","","","","","17","complex_similar","images/stimuli/spore_stims/complex_08_A_c.gif","right","","","","",""
"","null","html-keyboard-response","328","420744","0.0-59.0-0.7","SS1613140457374","","","null","","","","","<p><img src= images/blank.png width =""200"" height = ""200"" style = ""float:right""></p><p><img src=images/blank.png width =""800"" height = ""200""></p>","","","","","","","","","","","",""
