"view_history","rt","trial_type","trial_index","time_elapsed","internal_node_id","subject","stimulus_type","trial_stimulus","key_press","minimum_viewing_duration","trial_looking_time","block_deviant","block_background","stimulus","wall_pref","location","location_percent","block_number","block_type","stimulus_displayed","position_displayed","stim_type_selected","responses","question_order","stimulus_left","stimulus_right"
"[{""page_index"":0,""viewing_time"":8661.854999998468}]","8662.994999998773","instructions","0","8665","0.0-0.0","SS1613175453447","","","","","","","","","","","","","","","","","","","",""
"[{""page_index"":0,""viewing_time"":10702.774999997928},{""page_index"":1,""viewing_time"":5373.030000002473}]","16076.170000000275","instructions","1","26745","0.0-1.0","SS1613175453447","instructions","","","","","","","","","","","","","","","","","","",""
"","4765.790000004927","sequential-stimulus-presentation","2","32322","0.0-2.0","SS1613175453447","","","40","800","5565.790000004927","null","null","","","","","","","","","","","","",""
"","3133.5499999986496","sequential-stimulus-presentation","3","36261","0.0-3.0","SS1613175453447","","","40","800","3933.5499999986496","null","null","","","","","","","","","","","","",""
"[{""page_index"":0,""viewing_time"":3152.0850000015344}]","3152.57500000007","instructions","4","39416","0.0-4.0","SS1613175453447","instructions","","","","","","","","","","","","","","","","","","",""
"","13067.019999994955","html-keyboard-response","5","52487","0.0-5.0","SS1613175453447","instructions","","50","","","","","<video width ='960' height = '540' autoplay muted><source src='images/stimuli/wall_pref.mp4' type='video/mp4'></video>","2","middle","45%","","","","","","","","",""
"","1054.6249999970314","sequential-stimulus-presentation","6","54345","0.0-6.0","SS1613175453447","pref_reveal","","40","800","1854.6249999970314","null","null","","","","","","","","","","","","",""
"[{""page_index"":0,""viewing_time"":5409.144999997807},{""page_index"":1,""viewing_time"":3187.4300000054063},{""page_index"":2,""viewing_time"":1253.3699999985402},{""page_index"":3,""viewing_time"":896.3949999961187}]","10746.695000001637","instructions","7","65093","0.0-7.0","SS1613175453447","instructions","","","","","","","","","","","","","","","","","","",""
"","null","html-keyboard-response","8","66008","0.0-8.0-0.0","SS1613175453447","","","null","","","","","<p><img src= images/blank.png width =""200"" height = ""200"" style = ""float:right""></p><p><img src=images/blank.png width =""800"" height = ""200""></p>","","","","","","","","","","","",""
"","2331.7600000009406","sequential-stimulus-presentation","9","69149","0.0-8.0-1.0","SS1613175453447","trial","","40","800","3131.7600000009406","images/stimuli/spore_stims/simple_02_A_b.gif","images/stimuli/spore_stims/simple_02_B_b.gif","","","","","0","simple_similar","images/stimuli/spore_stims/simple_02_B_b.gif","right","","","","",""
"","null","html-keyboard-response","10","70314","0.0-8.0-0.1","SS1613175453447","","","null","","","","","<p><img src= images/blank.png width =""200"" height = ""200"" style = ""float:right""></p><p><img src=images/blank.png width =""800"" height = ""200""></p>","","","","","","","","","","","",""
"","3625.574999998207","sequential-stimulus-presentation","11","74746","0.0-8.0-1.1","SS1613175453447","trial","","40","800","4425.574999998207","images/stimuli/spore_stims/simple_02_A_b.gif","images/stimuli/spore_stims/simple_02_B_b.gif","","","","","0","simple_similar","images/stimuli/spore_stims/simple_02_B_b.gif","right","","","","",""
"","null","html-keyboard-response","12","75901","0.0-8.0-0.2","SS1613175453447","","","null","","","","","<p><img src= images/blank.png width =""200"" height = ""200"" style = ""float:right""></p><p><img src=images/blank.png width =""800"" height = ""200""></p>","","","","","","","","","","","",""
"","4489.7300000011455","sequential-stimulus-presentation","13","81199","0.0-8.0-1.2","SS1613175453447","trial","","40","800","5289.7300000011455","images/stimuli/spore_stims/simple_02_A_b.gif","images/stimuli/spore_stims/simple_02_B_b.gif","","","","","0","simple_similar","images/stimuli/spore_stims/simple_02_B_b.gif","right","","","","",""
"","null","html-keyboard-response","14","82475","0.0-8.0-0.3","SS1613175453447","","","null","","","","","<p><img src= images/blank.png width =""200"" height = ""200"" style = ""float:right""></p><p><img src=images/blank.png width =""800"" height = ""200""></p>","","","","","","","","","","","",""
"","1541.5349999966566","sequential-stimulus-presentation","15","84824","0.0-8.0-1.3","SS1613175453447","trial","","40","800","2341.5349999966566","images/stimuli/spore_stims/simple_02_A_b.gif","images/stimuli/spore_stims/simple_02_B_b.gif","","","","","0","simple_similar","images/stimuli/spore_stims/simple_02_A_b.gif","left","","","","",""
"","null","html-keyboard-response","16","85939","0.0-8.0-0.4","SS1613175453447","","","null","","","","","<p><img src= images/blank.png width =""200"" height = ""200"" style = ""float:right""></p><p><img src=images/blank.png width =""800"" height = ""200""></p>","","","","","","","","","","","",""
"","762.589999998454","sequential-stimulus-presentation","17","87511","0.0-8.0-1.4","SS1613175453447","trial","","40","800","1562.589999998454","images/stimuli/spore_stims/simple_02_A_b.gif","images/stimuli/spore_stims/simple_02_B_b.gif","","","","","0","simple_similar","images/stimuli/spore_stims/simple_02_B_b.gif","right","","","","",""
"","null","html-keyboard-response","18","88387","0.0-8.0-0.5","SS1613175453447","","","null","","","","","<p><img src= images/blank.png width =""200"" height = ""200"" style = ""float:right""></p><p><img src=images/blank.png width =""800"" height = ""200""></p>","","","","","","","","","","","",""
"","3785.7399999993504","sequential-stimulus-presentation","19","92980","0.0-8.0-1.5","SS1613175453447","trial","","40","800","4585.73999999935","images/stimuli/spore_stims/simple_02_A_b.gif","images/stimuli/spore_stims/simple_02_B_b.gif","","","","","0","simple_similar","images/stimuli/spore_stims/simple_02_B_b.gif","right","","","","",""
"","null","html-keyboard-response","20","93905","0.0-8.0-0.6","SS1613175453447","","","null","","","","","<p><img src= images/blank.png width =""200"" height = ""200"" style = ""float:right""></p><p><img src=images/blank.png width =""800"" height = ""200""></p>","","","","","","","","","","","",""
"","2326.9149999978254","sequential-stimulus-presentation","21","97037","0.0-8.0-1.6","SS1613175453447","trial","","40","800","3126.9149999978254","images/stimuli/spore_stims/simple_02_A_b.gif","images/stimuli/spore_stims/simple_02_B_b.gif","","","","","0","simple_similar","images/stimuli/spore_stims/simple_02_B_b.gif","right","","","","",""
"","null","html-keyboard-response","22","98109","0.0-8.0-0.7","SS1613175453447","","","null","","","","","<p><img src= images/blank.png width =""200"" height = ""200"" style = ""float:right""></p><p><img src=images/blank.png width =""800"" height = ""200""></p>","","","","","","","","","","","",""
"","1150.8600000015576","sequential-stimulus-presentation","23","100068","0.0-8.0-1.7","SS1613175453447","trial","","40","800","1950.8600000015576","images/stimuli/spore_stims/simple_02_A_b.gif","images/stimuli/spore_stims/simple_02_B_b.gif","","","","","0","simple_similar","images/stimuli/spore_stims/simple_02_B_b.gif","right","","","","",""
"","7797.225000002072","html-keyboard-response","24","107879","0.0-9.0","SS1613175453447","pref_question","","50","","","","","<video width ='960' height = '540' style='padding-top:8%' autoplay muted><source src='images/stimuli/wall_pref.mp4' type='video/mp4'></video>","2","middle","45%","0","","","","","","","",""
"","4913.825000003271","sequential-stimulus-presentation","25","113600","0.0-10.0","SS1613175453447","pref_reveal","","40","800","5713.825000003271","null","null","","","","","0","","","","novel","","","",""
"","null","html-keyboard-response","26","114896","0.0-11.0-0.0","SS1613175453447","","","null","","","","","<p><img src= images/blank.png width =""200"" height = ""200"" style = ""float:right""></p><p><img src=images/blank.png width =""800"" height = ""200""></p>","","","","","","","","","","","",""
"","1514.8950000002515","sequential-stimulus-presentation","27","117216","0.0-11.0-1.0","SS1613175453447","trial","","40","800","2314.8950000002515","images/stimuli/spore_stims/simple_06_B_d.gif","images/stimuli/spore_stims/simple_06_A_d.gif","","","","","1","simple_similar","images/stimuli/spore_stims/simple_06_A_d.gif","left","","","","",""
"","null","html-keyboard-response","28","118385","0.0-11.0-0.1","SS1613175453447","","","null","","","","","<p><img src= images/blank.png width =""200"" height = ""200"" style = ""float:right""></p><p><img src=images/blank.png width =""800"" height = ""200""></p>","","","","","","","","","","","",""
"","997.5399999966612","sequential-stimulus-presentation","29","120188","0.0-11.0-1.1","SS1613175453447","trial","","40","800","1797.5399999966612","images/stimuli/spore_stims/simple_06_B_d.gif","images/stimuli/spore_stims/simple_06_A_d.gif","","","","","1","simple_similar","images/stimuli/spore_stims/simple_06_A_d.gif","left","","","","",""
"","null","html-keyboard-response","30","121377","0.0-11.0-0.2","SS1613175453447","","","null","","","","","<p><img src= images/blank.png width =""200"" height = ""200"" style = ""float:right""></p><p><img src=images/blank.png width =""800"" height = ""200""></p>","","","","","","","","","","","",""
"","3615.3750000012224","sequential-stimulus-presentation","31","125802","0.0-11.0-1.2","SS1613175453447","trial","","40","800","4415.375000001222","images/stimuli/spore_stims/simple_06_B_d.gif","images/stimuli/spore_stims/simple_06_A_d.gif","","","","","1","simple_similar","images/stimuli/spore_stims/simple_06_A_d.gif","left","","","","",""
"","null","html-keyboard-response","32","126735","0.0-11.0-0.3","SS1613175453447","","","null","","","","","<p><img src= images/blank.png width =""200"" height = ""200"" style = ""float:right""></p><p><img src=images/blank.png width =""800"" height = ""200""></p>","","","","","","","","","","","",""
"","4641.834999994899","sequential-stimulus-presentation","33","132184","0.0-11.0-1.3","SS1613175453447","trial","","40","800","5441.834999994899","images/stimuli/spore_stims/simple_06_B_d.gif","images/stimuli/spore_stims/simple_06_A_d.gif","","","","","1","simple_similar","images/stimuli/spore_stims/simple_06_A_d.gif","left","","","","",""
"","null","html-keyboard-response","34","133026","0.0-11.0-0.4","SS1613175453447","","","null","","","","","<p><img src= images/blank.png width =""200"" height = ""200"" style = ""float:right""></p><p><img src=images/blank.png width =""800"" height = ""200""></p>","","","","","","","","","","","",""
"","1767.1800000025542","sequential-stimulus-presentation","35","135598","0.0-11.0-1.4","SS1613175453447","trial","","40","800","2567.180000002554","images/stimuli/spore_stims/simple_06_B_d.gif","images/stimuli/spore_stims/simple_06_A_d.gif","","","","","1","simple_similar","images/stimuli/spore_stims/simple_06_B_d.gif","right","","","","",""
"","null","html-keyboard-response","36","136603","0.0-11.0-0.5","SS1613175453447","","","null","","","","","<p><img src= images/blank.png width =""200"" height = ""200"" style = ""float:right""></p><p><img src=images/blank.png width =""800"" height = ""200""></p>","","","","","","","","","","","",""
"","2757.7999999994063","sequential-stimulus-presentation","37","140166","0.0-11.0-1.5","SS1613175453447","trial","","40","800","3557.7999999994063","images/stimuli/spore_stims/simple_06_B_d.gif","images/stimuli/spore_stims/simple_06_A_d.gif","","","","","1","simple_similar","images/stimuli/spore_stims/simple_06_A_d.gif","left","","","","",""
"","null","html-keyboard-response","38","141398","0.0-11.0-0.6","SS1613175453447","","","null","","","","","<p><img src= images/blank.png width =""200"" height = ""200"" style = ""float:right""></p><p><img src=images/blank.png width =""800"" height = ""200""></p>","","","","","","","","","","","",""
"","4031.6249999959837","sequential-stimulus-presentation","39","146239","0.0-11.0-1.6","SS1613175453447","trial","","40","800","4831.624999995984","images/stimuli/spore_stims/simple_06_B_d.gif","images/stimuli/spore_stims/simple_06_A_d.gif","","","","","1","simple_similar","images/stimuli/spore_stims/simple_06_A_d.gif","left","","","","",""
"","null","html-keyboard-response","40","147199","0.0-11.0-0.7","SS1613175453447","","","null","","","","","<p><img src= images/blank.png width =""200"" height = ""200"" style = ""float:right""></p><p><img src=images/blank.png width =""800"" height = ""200""></p>","","","","","","","","","","","",""
"","4491.460000004736","sequential-stimulus-presentation","41","152498","0.0-11.0-1.7","SS1613175453447","trial","","40","800","5291.460000004736","images/stimuli/spore_stims/simple_06_B_d.gif","images/stimuli/spore_stims/simple_06_A_d.gif","","","","","1","simple_similar","images/stimuli/spore_stims/simple_06_A_d.gif","left","","","","",""
"","7321.55000000057","html-keyboard-response","42","159832","0.0-12.0","SS1613175453447","pref_question","","50","","","","","<video width ='960' height = '540' style='padding-top:8%' autoplay muted><source src='images/stimuli/wall_pref.mp4' type='video/mp4'></video>","2","middle","45%","1","","","","","","","",""
"","8263.729999998759","sequential-stimulus-presentation","43","168903","0.0-13.0","SS1613175453447","pref_reveal","","40","800","9063.729999998759","null","null","","","","","1","","","","novel","","","",""
"","null","html-keyboard-response","44","169943","0.0-14.0-0.0","SS1613175453447","","","null","","","","","<p><img src= images/blank.png width =""200"" height = ""200"" style = ""float:right""></p><p><img src=images/blank.png width =""800"" height = ""200""></p>","","","","","","","","","","","",""
"","6044.669999995676","sequential-stimulus-presentation","45","176795","0.0-14.0-1.0","SS1613175453447","trial","","40","800","6844.669999995676","images/stimuli/spore_stims/simple_13_A_a.gif","images/stimuli/spore_stims/simple_13_B_a.gif","","","","","2","simple_similar","images/stimuli/spore_stims/simple_13_B_a.gif","middle","","","","",""
"","null","html-keyboard-response","46","177999","0.0-14.0-0.1","SS1613175453447","","","null","","","","","<p><img src= images/blank.png width =""200"" height = ""200"" style = ""float:right""></p><p><img src=images/blank.png width =""800"" height = ""200""></p>","","","","","","","","","","","",""
"","2199.1649999981746","sequential-stimulus-presentation","47","181006","0.0-14.0-1.1","SS1613175453447","trial","","40","800","2999.1649999981746","images/stimuli/spore_stims/simple_13_A_a.gif","images/stimuli/spore_stims/simple_13_B_a.gif","","","","","2","simple_similar","images/stimuli/spore_stims/simple_13_B_a.gif","middle","","","","",""
"","null","html-keyboard-response","48","182043","0.0-14.0-0.2","SS1613175453447","","","null","","","","","<p><img src= images/blank.png width =""200"" height = ""200"" style = ""float:right""></p><p><img src=images/blank.png width =""800"" height = ""200""></p>","","","","","","","","","","","",""
"","3399.5100000029197","sequential-stimulus-presentation","49","186251","0.0-14.0-1.2","SS1613175453447","trial","","40","800","4199.51000000292","images/stimuli/spore_stims/simple_13_A_a.gif","images/stimuli/spore_stims/simple_13_B_a.gif","","","","","2","simple_similar","images/stimuli/spore_stims/simple_13_B_a.gif","middle","","","","",""
"","null","html-keyboard-response","50","187324","0.0-14.0-0.3","SS1613175453447","","","null","","","","","<p><img src= images/blank.png width =""200"" height = ""200"" style = ""float:right""></p><p><img src=images/blank.png width =""800"" height = ""200""></p>","","","","","","","","","","","",""
"","3004.5249999966472","sequential-stimulus-presentation","51","191137","0.0-14.0-1.3","SS1613175453447","trial","","40","800","3804.5249999966472","images/stimuli/spore_stims/simple_13_A_a.gif","images/stimuli/spore_stims/simple_13_B_a.gif","","","","","2","simple_similar","images/stimuli/spore_stims/simple_13_A_a.gif","left","","","","",""
"","null","html-keyboard-response","52","192343","0.0-14.0-0.4","SS1613175453447","","","null","","","","","<p><img src= images/blank.png width =""200"" height = ""200"" style = ""float:right""></p><p><img src=images/blank.png width =""800"" height = ""200""></p>","","","","","","","","","","","",""
"","2541.2300000025425","sequential-stimulus-presentation","53","195692","0.0-14.0-1.4","SS1613175453447","trial","","40","800","3341.2300000025425","images/stimuli/spore_stims/simple_13_A_a.gif","images/stimuli/spore_stims/simple_13_B_a.gif","","","","","2","simple_similar","images/stimuli/spore_stims/simple_13_B_a.gif","middle","","","","",""
"","null","html-keyboard-response","54","196560","0.0-14.0-0.5","SS1613175453447","","","null","","","","","<p><img src= images/blank.png width =""200"" height = ""200"" style = ""float:right""></p><p><img src=images/blank.png width =""800"" height = ""200""></p>","","","","","","","","","","","",""
"","2274.8199999987264","sequential-stimulus-presentation","55","199655","0.0-14.0-1.5","SS1613175453447","trial","","40","800","3074.8199999987264","images/stimuli/spore_stims/simple_13_A_a.gif","images/stimuli/spore_stims/simple_13_B_a.gif","","","","","2","simple_similar","images/stimuli/spore_stims/simple_13_B_a.gif","middle","","","","",""
"","null","html-keyboard-response","56","200532","0.0-14.0-0.6","SS1613175453447","","","null","","","","","<p><img src= images/blank.png width =""200"" height = ""200"" style = ""float:right""></p><p><img src=images/blank.png width =""800"" height = ""200""></p>","","","","","","","","","","","",""
"","1784.5700000034412","sequential-stimulus-presentation","57","203127","0.0-14.0-1.6","SS1613175453447","trial","","40","800","2584.5700000034412","images/stimuli/spore_stims/simple_13_A_a.gif","images/stimuli/spore_stims/simple_13_B_a.gif","","","","","2","simple_similar","images/stimuli/spore_stims/simple_13_B_a.gif","middle","","","","",""
"","null","html-keyboard-response","58","204192","0.0-14.0-0.7","SS1613175453447","","","null","","","","","<p><img src= images/blank.png width =""200"" height = ""200"" style = ""float:right""></p><p><img src=images/blank.png width =""800"" height = ""200""></p>","","","","","","","","","","","",""
"","970.6950000036159","sequential-stimulus-presentation","59","205969","0.0-14.0-1.7","SS1613175453447","trial","","40","800","1770.6950000036159","images/stimuli/spore_stims/simple_13_A_a.gif","images/stimuli/spore_stims/simple_13_B_a.gif","","","","","2","simple_similar","images/stimuli/spore_stims/simple_13_B_a.gif","middle","","","","",""
"","5137.090000003809","html-keyboard-response","60","211110","0.0-15.0","SS1613175453447","pref_question","","51","","","","","<video width ='960' height = '540' style='padding-top:8%' autoplay muted><source src='images/stimuli/wall_pref.mp4' type='video/mp4'></video>","3","right","66%","2","","","","","","","",""
"","3913.379999998142","sequential-stimulus-presentation","61","215841","0.0-16.0","SS1613175453447","pref_reveal","","40","800","4713.379999998142","null","null","","","","","2","","","","novel","","","",""
"","null","html-keyboard-response","62","216951","0.0-17.0-0.0","SS1613175453447","","","null","","","","","<p><img src= images/blank.png width =""200"" height = ""200"" style = ""float:right""></p><p><img src=images/blank.png width =""800"" height = ""200""></p>","","","","","","","","","","","",""
"","1251.0150000016438","sequential-stimulus-presentation","63","219011","0.0-17.0-1.0","SS1613175453447","trial","","40","800","2051.015000001644","images/stimuli/spore_stims/simple_11_B_a.gif","images/stimuli/spore_stims/simple_18_B_b.gif","","","","","3","simple_dissimilar","images/stimuli/spore_stims/simple_18_B_b.gif","right","","","","",""
"","null","html-keyboard-response","64","219848","0.0-17.0-0.1","SS1613175453447","","","null","","","","","<p><img src= images/blank.png width =""200"" height = ""200"" style = ""float:right""></p><p><img src=images/blank.png width =""800"" height = ""200""></p>","","","","","","","","","","","",""
"","649.4299999976647","sequential-stimulus-presentation","65","221306","0.0-17.0-1.1","SS1613175453447","trial","","40","800","1449.4299999976647","images/stimuli/spore_stims/simple_11_B_a.gif","images/stimuli/spore_stims/simple_18_B_b.gif","","","","","3","simple_dissimilar","images/stimuli/spore_stims/simple_18_B_b.gif","right","","","","",""
"","null","html-keyboard-response","66","222227","0.0-17.0-0.2","SS1613175453447","","","null","","","","","<p><img src= images/blank.png width =""200"" height = ""200"" style = ""float:right""></p><p><img src=images/blank.png width =""800"" height = ""200""></p>","","","","","","","","","","","",""
"","3722.2550000005867","sequential-stimulus-presentation","67","226755","0.0-17.0-1.2","SS1613175453447","trial","","40","800","4522.255000000587","images/stimuli/spore_stims/simple_11_B_a.gif","images/stimuli/spore_stims/simple_18_B_b.gif","","","","","3","simple_dissimilar","images/stimuli/spore_stims/simple_11_B_a.gif","middle","","","","",""
"","null","html-keyboard-response","68","227928","0.0-17.0-0.3","SS1613175453447","","","null","","","","","<p><img src= images/blank.png width =""200"" height = ""200"" style = ""float:right""></p><p><img src=images/blank.png width =""800"" height = ""200""></p>","","","","","","","","","","","",""
"","920.9049999990384","sequential-stimulus-presentation","69","229657","0.0-17.0-1.3","SS1613175453447","trial","","40","800","1720.9049999990384","images/stimuli/spore_stims/simple_11_B_a.gif","images/stimuli/spore_stims/simple_18_B_b.gif","","","","","3","simple_dissimilar","images/stimuli/spore_stims/simple_18_B_b.gif","right","","","","",""
"","null","html-keyboard-response","70","230840","0.0-17.0-0.4","SS1613175453447","","","null","","","","","<p><img src= images/blank.png width =""200"" height = ""200"" style = ""float:right""></p><p><img src=images/blank.png width =""800"" height = ""200""></p>","","","","","","","","","","","",""
"","539.069999998901","sequential-stimulus-presentation","71","232188","0.0-17.0-1.4","SS1613175453447","trial","","40","800","1339.069999998901","images/stimuli/spore_stims/simple_11_B_a.gif","images/stimuli/spore_stims/simple_18_B_b.gif","","","","","3","simple_dissimilar","images/stimuli/spore_stims/simple_18_B_b.gif","right","","","","",""
"","null","html-keyboard-response","72","233256","0.0-17.0-0.5","SS1613175453447","","","null","","","","","<p><img src= images/blank.png width =""200"" height = ""200"" style = ""float:right""></p><p><img src=images/blank.png width =""800"" height = ""200""></p>","","","","","","","","","","","",""
"","743.6150000066846","sequential-stimulus-presentation","73","234808","0.0-17.0-1.5","SS1613175453447","trial","","40","800","1543.6150000066846","images/stimuli/spore_stims/simple_11_B_a.gif","images/stimuli/spore_stims/simple_18_B_b.gif","","","","","3","simple_dissimilar","images/stimuli/spore_stims/simple_18_B_b.gif","right","","","","",""
"","null","html-keyboard-response","74","235865","0.0-17.0-0.6","SS1613175453447","","","null","","","","","<p><img src= images/blank.png width =""200"" height = ""200"" style = ""float:right""></p><p><img src=images/blank.png width =""800"" height = ""200""></p>","","","","","","","","","","","",""
"","413.8999999995576","sequential-stimulus-presentation","75","237087","0.0-17.0-1.6","SS1613175453447","trial","","40","800","1213.8999999995576","images/stimuli/spore_stims/simple_11_B_a.gif","images/stimuli/spore_stims/simple_18_B_b.gif","","","","","3","simple_dissimilar","images/stimuli/spore_stims/simple_18_B_b.gif","right","","","","",""
"","null","html-keyboard-response","76","238079","0.0-17.0-0.7","SS1613175453447","","","null","","","","","<p><img src= images/blank.png width =""200"" height = ""200"" style = ""float:right""></p><p><img src=images/blank.png width =""800"" height = ""200""></p>","","","","","","","","","","","",""
"","394.1599999961909","sequential-stimulus-presentation","77","239279","0.0-17.0-1.7","SS1613175453447","trial","","40","800","1194.159999996191","images/stimuli/spore_stims/simple_11_B_a.gif","images/stimuli/spore_stims/simple_18_B_b.gif","","","","","3","simple_dissimilar","images/stimuli/spore_stims/simple_18_B_b.gif","right","","","","",""
"","4445.459999995364","html-keyboard-response","78","243729","0.0-18.0","SS1613175453447","pref_question","","49","","","","","<video width ='960' height = '540' style='padding-top:8%' autoplay muted><source src='images/stimuli/wall_pref.mp4' type='video/mp4'></video>","1","left","25%","3","","","","","","","",""
"","1888.7600000016391","sequential-stimulus-presentation","79","246425","0.0-19.0","SS1613175453447","pref_reveal","","40","800","2688.760000001639","null","null","","","","","3","","","","novel","","","",""
"","null","html-keyboard-response","80","247536","0.0-20.0-0.0","SS1613175453447","","","null","","","","","<p><img src= images/blank.png width =""200"" height = ""200"" style = ""float:right""></p><p><img src=images/blank.png width =""800"" height = ""200""></p>","","","","","","","","","","","",""
"","2050.4450000007637","sequential-stimulus-presentation","81","250408","0.0-20.0-1.0","SS1613175453447","trial","","40","800","2850.4450000007637","images/stimuli/spore_stims/simple_08_B_b.gif","images/stimuli/spore_stims/simple_12_B_d.gif","","","","","4","simple_dissimilar","images/stimuli/spore_stims/simple_12_B_d.gif","left","","","","",""
"","null","html-keyboard-response","82","251707","0.0-20.0-0.1","SS1613175453447","","","null","","","","","<p><img src= images/blank.png width =""200"" height = ""200"" style = ""float:right""></p><p><img src=images/blank.png width =""800"" height = ""200""></p>","","","","","","","","","","","",""
"","973.8350000043283","sequential-stimulus-presentation","83","253487","0.0-20.0-1.1","SS1613175453447","trial","","40","800","1773.8350000043283","images/stimuli/spore_stims/simple_08_B_b.gif","images/stimuli/spore_stims/simple_12_B_d.gif","","","","","4","simple_dissimilar","images/stimuli/spore_stims/simple_12_B_d.gif","left","","","","",""
"","null","html-keyboard-response","84","254341","0.0-20.0-0.2","SS1613175453447","","","null","","","","","<p><img src= images/blank.png width =""200"" height = ""200"" style = ""float:right""></p><p><img src=images/blank.png width =""800"" height = ""200""></p>","","","","","","","","","","","",""
"","849.8449999970035","sequential-stimulus-presentation","85","255999","0.0-20.0-1.2","SS1613175453447","trial","","40","800","1649.8449999970035","images/stimuli/spore_stims/simple_08_B_b.gif","images/stimuli/spore_stims/simple_12_B_d.gif","","","","","4","simple_dissimilar","images/stimuli/spore_stims/simple_12_B_d.gif","left","","","","",""
"","null","html-keyboard-response","86","257184","0.0-20.0-0.3","SS1613175453447","","","null","","","","","<p><img src= images/blank.png width =""200"" height = ""200"" style = ""float:right""></p><p><img src=images/blank.png width =""800"" height = ""200""></p>","","","","","","","","","","","",""
"","421.15999999805354","sequential-stimulus-presentation","87","258427","0.0-20.0-1.3","SS1613175453447","trial","","40","800","1221.1599999980535","images/stimuli/spore_stims/simple_08_B_b.gif","images/stimuli/spore_stims/simple_12_B_d.gif","","","","","4","simple_dissimilar","images/stimuli/spore_stims/simple_08_B_b.gif","right","","","","",""
"","null","html-keyboard-response","88","259592","0.0-20.0-0.4","SS1613175453447","","","null","","","","","<p><img src= images/blank.png width =""200"" height = ""200"" style = ""float:right""></p><p><img src=images/blank.png width =""800"" height = ""200""></p>","","","","","","","","","","","",""
"","1130.539999998291","sequential-stimulus-presentation","89","261532","0.0-20.0-1.4","SS1613175453447","trial","","40","800","1930.539999998291","images/stimuli/spore_stims/simple_08_B_b.gif","images/stimuli/spore_stims/simple_12_B_d.gif","","","","","4","simple_dissimilar","images/stimuli/spore_stims/simple_12_B_d.gif","left","","","","",""
"","null","html-keyboard-response","90","262473","0.0-20.0-0.5","SS1613175453447","","","null","","","","","<p><img src= images/blank.png width =""200"" height = ""200"" style = ""float:right""></p><p><img src=images/blank.png width =""800"" height = ""200""></p>","","","","","","","","","","","",""
"","1034.8450000019511","sequential-stimulus-presentation","91","264315","0.0-20.0-1.5","SS1613175453447","trial","","40","800","1834.8450000019511","images/stimuli/spore_stims/simple_08_B_b.gif","images/stimuli/spore_stims/simple_12_B_d.gif","","","","","4","simple_dissimilar","images/stimuli/spore_stims/simple_12_B_d.gif","left","","","","",""
"","null","html-keyboard-response","92","265520","0.0-20.0-0.6","SS1613175453447","","","null","","","","","<p><img src= images/blank.png width =""200"" height = ""200"" style = ""float:right""></p><p><img src=images/blank.png width =""800"" height = ""200""></p>","","","","","","","","","","","",""
"","1283.3949999985634","sequential-stimulus-presentation","93","267614","0.0-20.0-1.6","SS1613175453447","trial","","40","800","2083.3949999985634","images/stimuli/spore_stims/simple_08_B_b.gif","images/stimuli/spore_stims/simple_12_B_d.gif","","","","","4","simple_dissimilar","images/stimuli/spore_stims/simple_12_B_d.gif","left","","","","",""
"","null","html-keyboard-response","94","268841","0.0-20.0-0.7","SS1613175453447","","","null","","","","","<p><img src= images/blank.png width =""200"" height = ""200"" style = ""float:right""></p><p><img src=images/blank.png width =""800"" height = ""200""></p>","","","","","","","","","","","",""
"","723.9150000023074","sequential-stimulus-presentation","95","270373","0.0-20.0-1.7","SS1613175453447","trial","","40","800","1523.9150000023074","images/stimuli/spore_stims/simple_08_B_b.gif","images/stimuli/spore_stims/simple_12_B_d.gif","","","","","4","simple_dissimilar","images/stimuli/spore_stims/simple_12_B_d.gif","left","","","","",""
"","4608.359999998356","html-keyboard-response","96","274984","0.0-21.0","SS1613175453447","pref_question","","50","","","","","<video width ='960' height = '540' style='padding-top:8%' autoplay muted><source src='images/stimuli/wall_pref.mp4' type='video/mp4'></video>","2","middle","45%","4","","","","","","","",""
"","2962.7650000038557","sequential-stimulus-presentation","97","278764","0.0-22.0","SS1613175453447","pref_reveal","","40","800","3762.7650000038557","null","null","","","","","4","","","","novel","","","",""
"","null","html-keyboard-response","98","279641","0.0-23.0-0.0","SS1613175453447","","","null","","","","","<p><img src= images/blank.png width =""200"" height = ""200"" style = ""float:right""></p><p><img src=images/blank.png width =""800"" height = ""200""></p>","","","","","","","","","","","",""
"","1290.674999996554","sequential-stimulus-presentation","99","281740","0.0-23.0-1.0","SS1613175453447","trial","","40","800","2090.674999996554","images/stimuli/spore_stims/complex_10_B_c.gif","images/stimuli/spore_stims/complex_10_A_c.gif","","","","","5","complex_similar","images/stimuli/spore_stims/complex_10_A_c.gif","middle","","","","",""
"","null","html-keyboard-response","100","282857","0.0-23.0-0.1","SS1613175453447","","","null","","","","","<p><img src= images/blank.png width =""200"" height = ""200"" style = ""float:right""></p><p><img src=images/blank.png width =""800"" height = ""200""></p>","","","","","","","","","","","",""
"","861.124999995809","sequential-stimulus-presentation","101","284528","0.0-23.0-1.1","SS1613175453447","trial","","40","800","1661.124999995809","images/stimuli/spore_stims/complex_10_B_c.gif","images/stimuli/spore_stims/complex_10_A_c.gif","","","","","5","complex_similar","images/stimuli/spore_stims/complex_10_A_c.gif","middle","","","","",""
"","null","html-keyboard-response","102","285405","0.0-23.0-0.2","SS1613175453447","","","null","","","","","<p><img src= images/blank.png width =""200"" height = ""200"" style = ""float:right""></p><p><img src=images/blank.png width =""800"" height = ""200""></p>","","","","","","","","","","","",""
"","1435.2700000017649","sequential-stimulus-presentation","103","287651","0.0-23.0-1.2","SS1613175453447","trial","","40","800","2235.270000001765","images/stimuli/spore_stims/complex_10_B_c.gif","images/stimuli/spore_stims/complex_10_A_c.gif","","","","","5","complex_similar","images/stimuli/spore_stims/complex_10_A_c.gif","middle","","","","",""
"","null","html-keyboard-response","104","288566","0.0-23.0-0.3","SS1613175453447","","","null","","","","","<p><img src= images/blank.png width =""200"" height = ""200"" style = ""float:right""></p><p><img src=images/blank.png width =""800"" height = ""200""></p>","","","","","","","","","","","",""
"","3252.840000001015","sequential-stimulus-presentation","105","292627","0.0-23.0-1.3","SS1613175453447","trial","","40","800","4052.840000001015","images/stimuli/spore_stims/complex_10_B_c.gif","images/stimuli/spore_stims/complex_10_A_c.gif","","","","","5","complex_similar","images/stimuli/spore_stims/complex_10_A_c.gif","middle","","","","",""
"","null","html-keyboard-response","106","293739","0.0-23.0-0.4","SS1613175453447","","","null","","","","","<p><img src= images/blank.png width =""200"" height = ""200"" style = ""float:right""></p><p><img src=images/blank.png width =""800"" height = ""200""></p>","","","","","","","","","","","",""
"","922.9049999994459","sequential-stimulus-presentation","107","295469","0.0-23.0-1.4","SS1613175453447","trial","","40","800","1722.9049999994459","images/stimuli/spore_stims/complex_10_B_c.gif","images/stimuli/spore_stims/complex_10_A_c.gif","","","","","5","complex_similar","images/stimuli/spore_stims/complex_10_A_c.gif","middle","","","","",""
"","null","html-keyboard-response","108","296725","0.0-23.0-0.5","SS1613175453447","","","null","","","","","<p><img src= images/blank.png width =""200"" height = ""200"" style = ""float:right""></p><p><img src=images/blank.png width =""800"" height = ""200""></p>","","","","","","","","","","","",""
"","909.0050000013434","sequential-stimulus-presentation","109","298443","0.0-23.0-1.5","SS1613175453447","trial","","40","800","1709.0050000013434","images/stimuli/spore_stims/complex_10_B_c.gif","images/stimuli/spore_stims/complex_10_A_c.gif","","","","","5","complex_similar","images/stimuli/spore_stims/complex_10_B_c.gif","right","","","","",""
"","null","html-keyboard-response","110","299317","0.0-23.0-0.6","SS1613175453447","","","null","","","","","<p><img src= images/blank.png width =""200"" height = ""200"" style = ""float:right""></p><p><img src=images/blank.png width =""800"" height = ""200""></p>","","","","","","","","","","","",""
"","3362.4950000012177","sequential-stimulus-presentation","111","303489","0.0-23.0-1.6","SS1613175453447","trial","","40","800","4162.495000001218","images/stimuli/spore_stims/complex_10_B_c.gif","images/stimuli/spore_stims/complex_10_A_c.gif","","","","","5","complex_similar","images/stimuli/spore_stims/complex_10_A_c.gif","middle","","","","",""
"","null","html-keyboard-response","112","304626","0.0-23.0-0.7","SS1613175453447","","","null","","","","","<p><img src= images/blank.png width =""200"" height = ""200"" style = ""float:right""></p><p><img src=images/blank.png width =""800"" height = ""200""></p>","","","","","","","","","","","",""
"","740.8100000029663","sequential-stimulus-presentation","113","306175","0.0-23.0-1.7","SS1613175453447","trial","","40","800","1540.8100000029663","images/stimuli/spore_stims/complex_10_B_c.gif","images/stimuli/spore_stims/complex_10_A_c.gif","","","","","5","complex_similar","images/stimuli/spore_stims/complex_10_A_c.gif","middle","","","","",""
"","6256.964999993215","html-keyboard-response","114","312438","0.0-24.0","SS1613175453447","pref_question","","50","","","","","<video width ='960' height = '540' style='padding-top:8%' autoplay muted><source src='images/stimuli/wall_pref.mp4' type='video/mp4'></video>","2","middle","45%","5","","","","","","","",""
"","3662.5550000026124","sequential-stimulus-presentation","115","316909","0.0-25.0","SS1613175453447","pref_reveal","","40","800","4462.555000002612","null","null","","","","","5","","","","background","","","",""
"","null","html-keyboard-response","116","317869","0.0-26.0-0.0","SS1613175453447","","","null","","","","","<p><img src= images/blank.png width =""200"" height = ""200"" style = ""float:right""></p><p><img src=images/blank.png width =""800"" height = ""200""></p>","","","","","","","","","","","",""
"","1318.1499999991502","sequential-stimulus-presentation","117","319996","0.0-26.0-1.0","SS1613175453447","trial","","40","800","2118.14999999915","images/stimuli/spore_stims/complex_13_B_b.gif","images/stimuli/spore_stims/complex_20_B_d.gif","","","","","6","complex_dissimilar","images/stimuli/spore_stims/complex_20_B_d.gif","middle","","","","",""
"","null","html-keyboard-response","118","320986","0.0-26.0-0.1","SS1613175453447","","","null","","","","","<p><img src= images/blank.png width =""200"" height = ""200"" style = ""float:right""></p><p><img src=images/blank.png width =""800"" height = ""200""></p>","","","","","","","","","","","",""
"","622.0899999971152","sequential-stimulus-presentation","119","322417","0.0-26.0-1.1","SS1613175453447","trial","","40","800","1422.0899999971152","images/stimuli/spore_stims/complex_13_B_b.gif","images/stimuli/spore_stims/complex_20_B_d.gif","","","","","6","complex_dissimilar","images/stimuli/spore_stims/complex_20_B_d.gif","middle","","","","",""
"","null","html-keyboard-response","120","323430","0.0-26.0-0.2","SS1613175453447","","","null","","","","","<p><img src= images/blank.png width =""200"" height = ""200"" style = ""float:right""></p><p><img src=images/blank.png width =""800"" height = ""200""></p>","","","","","","","","","","","",""
"","723.599999997532","sequential-stimulus-presentation","121","324962","0.0-26.0-1.2","SS1613175453447","trial","","40","800","1523.599999997532","images/stimuli/spore_stims/complex_13_B_b.gif","images/stimuli/spore_stims/complex_20_B_d.gif","","","","","6","complex_dissimilar","images/stimuli/spore_stims/complex_20_B_d.gif","middle","","","","",""
"","null","html-keyboard-response","122","325954","0.0-26.0-0.3","SS1613175453447","","","null","","","","","<p><img src= images/blank.png width =""200"" height = ""200"" style = ""float:right""></p><p><img src=images/blank.png width =""800"" height = ""200""></p>","","","","","","","","","","","",""
"","502.93999999848893","sequential-stimulus-presentation","123","327265","0.0-26.0-1.3","SS1613175453447","trial","","40","800","1302.939999998489","images/stimuli/spore_stims/complex_13_B_b.gif","images/stimuli/spore_stims/complex_20_B_d.gif","","","","","6","complex_dissimilar","images/stimuli/spore_stims/complex_20_B_d.gif","middle","","","","",""
"","null","html-keyboard-response","124","328436","0.0-26.0-0.4","SS1613175453447","","","null","","","","","<p><img src= images/blank.png width =""200"" height = ""200"" style = ""float:right""></p><p><img src=images/blank.png width =""800"" height = ""200""></p>","","","","","","","","","","","",""
"","856.644999999844","sequential-stimulus-presentation","125","330103","0.0-26.0-1.4","SS1613175453447","trial","","40","800","1656.644999999844","images/stimuli/spore_stims/complex_13_B_b.gif","images/stimuli/spore_stims/complex_20_B_d.gif","","","","","6","complex_dissimilar","images/stimuli/spore_stims/complex_20_B_d.gif","middle","","","","",""
"","null","html-keyboard-response","126","331290","0.0-26.0-0.5","SS1613175453447","","","null","","","","","<p><img src= images/blank.png width =""200"" height = ""200"" style = ""float:right""></p><p><img src=images/blank.png width =""800"" height = ""200""></p>","","","","","","","","","","","",""
"","585.4749999998603","sequential-stimulus-presentation","127","332684","0.0-26.0-1.5","SS1613175453447","trial","","40","800","1385.4749999998603","images/stimuli/spore_stims/complex_13_B_b.gif","images/stimuli/spore_stims/complex_20_B_d.gif","","","","","6","complex_dissimilar","images/stimuli/spore_stims/complex_20_B_d.gif","middle","","","","",""
"","null","html-keyboard-response","128","333545","0.0-26.0-0.6","SS1613175453447","","","null","","","","","<p><img src= images/blank.png width =""200"" height = ""200"" style = ""float:right""></p><p><img src=images/blank.png width =""800"" height = ""200""></p>","","","","","","","","","","","",""
"","3431.459999999788","sequential-stimulus-presentation","129","337785","0.0-26.0-1.6","SS1613175453447","trial","","40","800","4231.459999999788","images/stimuli/spore_stims/complex_13_B_b.gif","images/stimuli/spore_stims/complex_20_B_d.gif","","","","","6","complex_dissimilar","images/stimuli/spore_stims/complex_13_B_b.gif","left","","","","",""
"","null","html-keyboard-response","130","339010","0.0-26.0-0.7","SS1613175453447","","","null","","","","","<p><img src= images/blank.png width =""200"" height = ""200"" style = ""float:right""></p><p><img src=images/blank.png width =""800"" height = ""200""></p>","","","","","","","","","","","",""
"","2134.97500000085","sequential-stimulus-presentation","131","341956","0.0-26.0-1.7","SS1613175453447","trial","","40","800","2934.97500000085","images/stimuli/spore_stims/complex_13_B_b.gif","images/stimuli/spore_stims/complex_20_B_d.gif","","","","","6","complex_dissimilar","images/stimuli/spore_stims/complex_20_B_d.gif","middle","","","","",""
"","5415.495000001101","html-keyboard-response","132","347378","0.0-27.0","SS1613175453447","pref_question","","51","","","","","<video width ='960' height = '540' style='padding-top:8%' autoplay muted><source src='images/stimuli/wall_pref.mp4' type='video/mp4'></video>","3","right","66%","6","","","","","","","",""
"","2975.5500000028405","sequential-stimulus-presentation","133","351164","0.0-28.0","SS1613175453447","pref_reveal","","40","800","3775.5500000028405","null","null","","","","","6","","","","novel","","","",""
"","null","html-keyboard-response","134","352077","0.0-29.0-0.0","SS1613175453447","","","null","","","","","<p><img src= images/blank.png width =""200"" height = ""200"" style = ""float:right""></p><p><img src=images/blank.png width =""800"" height = ""200""></p>","","","","","","","","","","","",""
"","1860.6799999979557","sequential-stimulus-presentation","135","354750","0.0-29.0-1.0","SS1613175453447","trial","","40","800","2660.6799999979557","images/stimuli/spore_stims/complex_17_A_a.gif","images/stimuli/spore_stims/complex_08_A_d.gif","","","","","7","complex_dissimilar","images/stimuli/spore_stims/complex_08_A_d.gif","right","","","","",""
"","null","html-keyboard-response","136","355782","0.0-29.0-0.1","SS1613175453447","","","null","","","","","<p><img src= images/blank.png width =""200"" height = ""200"" style = ""float:right""></p><p><img src=images/blank.png width =""800"" height = ""200""></p>","","","","","","","","","","","",""
"","924.7600000016973","sequential-stimulus-presentation","137","357515","0.0-29.0-1.1","SS1613175453447","trial","","40","800","1724.7600000016973","images/stimuli/spore_stims/complex_17_A_a.gif","images/stimuli/spore_stims/complex_08_A_d.gif","","","","","7","complex_dissimilar","images/stimuli/spore_stims/complex_08_A_d.gif","right","","","","",""
"","null","html-keyboard-response","138","358345","0.0-29.0-0.2","SS1613175453447","","","null","","","","","<p><img src= images/blank.png width =""200"" height = ""200"" style = ""float:right""></p><p><img src=images/blank.png width =""800"" height = ""200""></p>","","","","","","","","","","","",""
"","743.9599999997881","sequential-stimulus-presentation","139","359900","0.0-29.0-1.2","SS1613175453447","trial","","40","800","1543.9599999997881","images/stimuli/spore_stims/complex_17_A_a.gif","images/stimuli/spore_stims/complex_08_A_d.gif","","","","","7","complex_dissimilar","images/stimuli/spore_stims/complex_08_A_d.gif","right","","","","",""
"","null","html-keyboard-response","140","361095","0.0-29.0-0.3","SS1613175453447","","","null","","","","","<p><img src= images/blank.png width =""200"" height = ""200"" style = ""float:right""></p><p><img src=images/blank.png width =""800"" height = ""200""></p>","","","","","","","","","","","",""
"","561.4849999983562","sequential-stimulus-presentation","141","362468","0.0-29.0-1.3","SS1613175453447","trial","","40","800","1361.4849999983562","images/stimuli/spore_stims/complex_17_A_a.gif","images/stimuli/spore_stims/complex_08_A_d.gif","","","","","7","complex_dissimilar","images/stimuli/spore_stims/complex_08_A_d.gif","right","","","","",""
"","null","html-keyboard-response","142","363283","0.0-29.0-0.4","SS1613175453447","","","null","","","","","<p><img src= images/blank.png width =""200"" height = ""200"" style = ""float:right""></p><p><img src=images/blank.png width =""800"" height = ""200""></p>","","","","","","","","","","","",""
"","1206.1200000025565","sequential-stimulus-presentation","143","365297","0.0-29.0-1.4","SS1613175453447","trial","","40","800","2006.1200000025565","images/stimuli/spore_stims/complex_17_A_a.gif","images/stimuli/spore_stims/complex_08_A_d.gif","","","","","7","complex_dissimilar","images/stimuli/spore_stims/complex_08_A_d.gif","right","","","","",""
"","null","html-keyboard-response","144","366443","0.0-29.0-0.5","SS1613175453447","","","null","","","","","<p><img src= images/blank.png width =""200"" height = ""200"" style = ""float:right""></p><p><img src=images/blank.png width =""800"" height = ""200""></p>","","","","","","","","","","","",""
"","695.1200000039535","sequential-stimulus-presentation","145","367947","0.0-29.0-1.5","SS1613175453447","trial","","40","800","1495.1200000039535","images/stimuli/spore_stims/complex_17_A_a.gif","images/stimuli/spore_stims/complex_08_A_d.gif","","","","","7","complex_dissimilar","images/stimuli/spore_stims/complex_08_A_d.gif","right","","","","",""
"","null","html-keyboard-response","146","369173","0.0-29.0-0.6","SS1613175453447","","","null","","","","","<p><img src= images/blank.png width =""200"" height = ""200"" style = ""float:right""></p><p><img src=images/blank.png width =""800"" height = ""200""></p>","","","","","","","","","","","",""
"","4823.070000005828","sequential-stimulus-presentation","147","374807","0.0-29.0-1.6","SS1613175453447","trial","","40","800","5623.070000005828","images/stimuli/spore_stims/complex_17_A_a.gif","images/stimuli/spore_stims/complex_08_A_d.gif","","","","","7","complex_dissimilar","images/stimuli/spore_stims/complex_17_A_a.gif","left","","","","",""
"","null","html-keyboard-response","148","375674","0.0-29.0-0.7","SS1613175453447","","","null","","","","","<p><img src= images/blank.png width =""200"" height = ""200"" style = ""float:right""></p><p><img src=images/blank.png width =""800"" height = ""200""></p>","","","","","","","","","","","",""
"","1103.1899999943562","sequential-stimulus-presentation","149","377599","0.0-29.0-1.7","SS1613175453447","trial","","40","800","1903.1899999943562","images/stimuli/spore_stims/complex_17_A_a.gif","images/stimuli/spore_stims/complex_08_A_d.gif","","","","","7","complex_dissimilar","images/stimuli/spore_stims/complex_08_A_d.gif","right","","","","",""
"","5544.689999995171","html-keyboard-response","150","383149","0.0-30.0","SS1613175453447","pref_question","","49","","","","","<video width ='960' height = '540' style='padding-top:8%' autoplay muted><source src='images/stimuli/wall_pref.mp4' type='video/mp4'></video>","1","left","25%","7","","","","","","","",""
"","2378.1899999958114","sequential-stimulus-presentation","151","386338","0.0-31.0","SS1613175453447","pref_reveal","","40","800","3178.1899999958114","null","null","","","","","7","","","","deviant","","","",""
"","null","html-keyboard-response","152","387563","0.0-32.0-0.0","SS1613175453447","","","null","","","","","<p><img src= images/blank.png width =""200"" height = ""200"" style = ""float:right""></p><p><img src=images/blank.png width =""800"" height = ""200""></p>","","","","","","","","","","","",""
"","1095.709999994142","sequential-stimulus-presentation","153","389471","0.0-32.0-1.0","SS1613175453447","trial","","40","800","1895.709999994142","images/stimuli/spore_stims/complex_14_A_a.gif","images/stimuli/spore_stims/complex_14_B_a.gif","","","","","8","complex_similar","images/stimuli/spore_stims/complex_14_B_a.gif","left","","","","",""
"","null","html-keyboard-response","154","390369","0.0-32.0-0.1","SS1613175453447","","","null","","","","","<p><img src= images/blank.png width =""200"" height = ""200"" style = ""float:right""></p><p><img src=images/blank.png width =""800"" height = ""200""></p>","","","","","","","","","","","",""
"","929.3499999985215","sequential-stimulus-presentation","155","392109","0.0-32.0-1.1","SS1613175453447","trial","","40","800","1729.3499999985215","images/stimuli/spore_stims/complex_14_A_a.gif","images/stimuli/spore_stims/complex_14_B_a.gif","","","","","8","complex_similar","images/stimuli/spore_stims/complex_14_B_a.gif","left","","","","",""
"","null","html-keyboard-response","156","393248","0.0-32.0-0.2","SS1613175453447","","","null","","","","","<p><img src= images/blank.png width =""200"" height = ""200"" style = ""float:right""></p><p><img src=images/blank.png width =""800"" height = ""200""></p>","","","","","","","","","","","",""
"","770.7999999984168","sequential-stimulus-presentation","157","394838","0.0-32.0-1.2","SS1613175453447","trial","","40","800","1570.7999999984168","images/stimuli/spore_stims/complex_14_A_a.gif","images/stimuli/spore_stims/complex_14_B_a.gif","","","","","8","complex_similar","images/stimuli/spore_stims/complex_14_B_a.gif","left","","","","",""
"","null","html-keyboard-response","158","395736","0.0-32.0-0.3","SS1613175453447","","","null","","","","","<p><img src= images/blank.png width =""200"" height = ""200"" style = ""float:right""></p><p><img src=images/blank.png width =""800"" height = ""200""></p>","","","","","","","","","","","",""
"","1038.829999997688","sequential-stimulus-presentation","159","397583","0.0-32.0-1.3","SS1613175453447","trial","","40","800","1838.829999997688","images/stimuli/spore_stims/complex_14_A_a.gif","images/stimuli/spore_stims/complex_14_B_a.gif","","","","","8","complex_similar","images/stimuli/spore_stims/complex_14_B_a.gif","left","","","","",""
"","null","html-keyboard-response","160","398720","0.0-32.0-0.4","SS1613175453447","","","null","","","","","<p><img src= images/blank.png width =""200"" height = ""200"" style = ""float:right""></p><p><img src=images/blank.png width =""800"" height = ""200""></p>","","","","","","","","","","","",""
"","933.4749999979977","sequential-stimulus-presentation","161","400460","0.0-32.0-1.4","SS1613175453447","trial","","40","800","1733.4749999979977","images/stimuli/spore_stims/complex_14_A_a.gif","images/stimuli/spore_stims/complex_14_B_a.gif","","","","","8","complex_similar","images/stimuli/spore_stims/complex_14_B_a.gif","left","","","","",""
"","null","html-keyboard-response","162","401511","0.0-32.0-0.5","SS1613175453447","","","null","","","","","<p><img src= images/blank.png width =""200"" height = ""200"" style = ""float:right""></p><p><img src=images/blank.png width =""800"" height = ""200""></p>","","","","","","","","","","","",""
"","1120.1799999980722","sequential-stimulus-presentation","163","403452","0.0-32.0-1.5","SS1613175453447","trial","","40","800","1920.1799999980722","images/stimuli/spore_stims/complex_14_A_a.gif","images/stimuli/spore_stims/complex_14_B_a.gif","","","","","8","complex_similar","images/stimuli/spore_stims/complex_14_B_a.gif","left","","","","",""
"","null","html-keyboard-response","164","404326","0.0-32.0-0.6","SS1613175453447","","","null","","","","","<p><img src= images/blank.png width =""200"" height = ""200"" style = ""float:right""></p><p><img src=images/blank.png width =""800"" height = ""200""></p>","","","","","","","","","","","",""
"","790.2550000071642","sequential-stimulus-presentation","165","405926","0.0-32.0-1.6","SS1613175453447","trial","","40","800","1590.2550000071642","images/stimuli/spore_stims/complex_14_A_a.gif","images/stimuli/spore_stims/complex_14_B_a.gif","","","","","8","complex_similar","images/stimuli/spore_stims/complex_14_B_a.gif","left","","","","",""
"","null","html-keyboard-response","166","407228","0.0-32.0-0.7","SS1613175453447","","","null","","","","","<p><img src= images/blank.png width =""200"" height = ""200"" style = ""float:right""></p><p><img src=images/blank.png width =""800"" height = ""200""></p>","","","","","","","","","","","",""
"","984.8399999973481","sequential-stimulus-presentation","167","409021","0.0-32.0-1.7","SS1613175453447","trial","","40","800","1784.839999997348","images/stimuli/spore_stims/complex_14_A_a.gif","images/stimuli/spore_stims/complex_14_B_a.gif","","","","","8","complex_similar","images/stimuli/spore_stims/complex_14_A_a.gif","middle","","","","",""
"","5461.494999995921","html-keyboard-response","168","414488","0.0-33.0","SS1613175453447","pref_question","","51","","","","","<video width ='960' height = '540' style='padding-top:8%' autoplay muted><source src='images/stimuli/wall_pref.mp4' type='video/mp4'></video>","3","right","66%","8","","","","","","","",""
"","1102.7400000020862","sequential-stimulus-presentation","169","416399","0.0-34.0","SS1613175453447","pref_reveal","","40","800","1902.7400000020862","null","null","","","","","8","","","","novel","","","",""
"","null","html-keyboard-response","170","417448","0.0-35.0-0.0","SS1613175453447","","","null","","","","","<p><img src= images/blank.png width =""200"" height = ""200"" style = ""float:right""></p><p><img src=images/blank.png width =""800"" height = ""200""></p>","","","","","","","","","","","",""
"","2710.830000003625","sequential-stimulus-presentation","171","420970","0.0-35.0-1.0","SS1613175453447","trial","","40","800","3510.830000003625","images/stimuli/spore_stims/simple_14_B_d.gif","images/stimuli/spore_stims/simple_15_A_d.gif","","","","","9","simple_dissimilar","images/stimuli/spore_stims/simple_15_A_d.gif","middle","","","","",""
"","null","html-keyboard-response","172","422152","0.0-35.0-0.1","SS1613175453447","","","null","","","","","<p><img src= images/blank.png width =""200"" height = ""200"" style = ""float:right""></p><p><img src=images/blank.png width =""800"" height = ""200""></p>","","","","","","","","","","","",""
"","1955.8250000045518","sequential-stimulus-presentation","173","424918","0.0-35.0-1.1","SS1613175453447","trial","","40","800","2755.825000004552","images/stimuli/spore_stims/simple_14_B_d.gif","images/stimuli/spore_stims/simple_15_A_d.gif","","","","","9","simple_dissimilar","images/stimuli/spore_stims/simple_15_A_d.gif","middle","","","","",""
"","null","html-keyboard-response","174","426034","0.0-35.0-0.2","SS1613175453447","","","null","","","","","<p><img src= images/blank.png width =""200"" height = ""200"" style = ""float:right""></p><p><img src=images/blank.png width =""800"" height = ""200""></p>","","","","","","","","","","","",""
"","913.300000000163","sequential-stimulus-presentation","175","427759","0.0-35.0-1.2","SS1613175453447","trial","","40","800","1713.300000000163","images/stimuli/spore_stims/simple_14_B_d.gif","images/stimuli/spore_stims/simple_15_A_d.gif","","","","","9","simple_dissimilar","images/stimuli/spore_stims/simple_15_A_d.gif","middle","","","","",""
"","null","html-keyboard-response","176","428892","0.0-35.0-0.3","SS1613175453447","","","null","","","","","<p><img src= images/blank.png width =""200"" height = ""200"" style = ""float:right""></p><p><img src=images/blank.png width =""800"" height = ""200""></p>","","","","","","","","","","","",""
"","2051.434999993944","sequential-stimulus-presentation","177","431752","0.0-35.0-1.3","SS1613175453447","trial","","40","800","2851.434999993944","images/stimuli/spore_stims/simple_14_B_d.gif","images/stimuli/spore_stims/simple_15_A_d.gif","","","","","9","simple_dissimilar","images/stimuli/spore_stims/simple_15_A_d.gif","middle","","","","",""
"","null","html-keyboard-response","178","433023","0.0-35.0-0.4","SS1613175453447","","","null","","","","","<p><img src= images/blank.png width =""200"" height = ""200"" style = ""float:right""></p><p><img src=images/blank.png width =""800"" height = ""200""></p>","","","","","","","","","","","",""
"","742.3150000031455","sequential-stimulus-presentation","179","434575","0.0-35.0-1.4","SS1613175453447","trial","","40","800","1542.3150000031455","images/stimuli/spore_stims/simple_14_B_d.gif","images/stimuli/spore_stims/simple_15_A_d.gif","","","","","9","simple_dissimilar","images/stimuli/spore_stims/simple_15_A_d.gif","middle","","","","",""
"","null","html-keyboard-response","180","435624","0.0-35.0-0.5","SS1613175453447","","","null","","","","","<p><img src= images/blank.png width =""200"" height = ""200"" style = ""float:right""></p><p><img src=images/blank.png width =""800"" height = ""200""></p>","","","","","","","","","","","",""
"","882.4850000019069","sequential-stimulus-presentation","181","437319","0.0-35.0-1.5","SS1613175453447","trial","","40","800","1682.4850000019069","images/stimuli/spore_stims/simple_14_B_d.gif","images/stimuli/spore_stims/simple_15_A_d.gif","","","","","9","simple_dissimilar","images/stimuli/spore_stims/simple_15_A_d.gif","middle","","","","",""
"","null","html-keyboard-response","182","438586","0.0-35.0-0.6","SS1613175453447","","","null","","","","","<p><img src= images/blank.png width =""200"" height = ""200"" style = ""float:right""></p><p><img src=images/blank.png width =""800"" height = ""200""></p>","","","","","","","","","","","",""
"","458.0599999972037","sequential-stimulus-presentation","183","439854","0.0-35.0-1.6","SS1613175453447","trial","","40","800","1258.0599999972037","images/stimuli/spore_stims/simple_14_B_d.gif","images/stimuli/spore_stims/simple_15_A_d.gif","","","","","9","simple_dissimilar","images/stimuli/spore_stims/simple_15_A_d.gif","middle","","","","",""
"","null","html-keyboard-response","184","441129","0.0-35.0-0.7","SS1613175453447","","","null","","","","","<p><img src= images/blank.png width =""200"" height = ""200"" style = ""float:right""></p><p><img src=images/blank.png width =""800"" height = ""200""></p>","","","","","","","","","","","",""
"","1332.4199999988195","sequential-stimulus-presentation","185","443273","0.0-35.0-1.7","SS1613175453447","trial","","40","800","2132.4199999988195","images/stimuli/spore_stims/simple_14_B_d.gif","images/stimuli/spore_stims/simple_15_A_d.gif","","","","","9","simple_dissimilar","images/stimuli/spore_stims/simple_14_B_d.gif","right","","","","",""
"","4403.500000000349","html-keyboard-response","186","447684","0.0-36.0","SS1613175453447","pref_question","","49","","","","","<video width ='960' height = '540' style='padding-top:8%' autoplay muted><source src='images/stimuli/wall_pref.mp4' type='video/mp4'></video>","1","left","25%","9","","","","","","","",""
"","3767.534999999043","sequential-stimulus-presentation","187","452261","0.0-37.0","SS1613175453447","pref_reveal","","40","800","4567.534999999043","null","null","","","","","9","","","","novel","","","",""
"","null","html-keyboard-response","188","453497","0.0-38.0-0.0","SS1613175453447","","","null","","","","","<p><img src= images/blank.png width =""200"" height = ""200"" style = ""float:right""></p><p><img src=images/blank.png width =""800"" height = ""200""></p>","","","","","","","","","","","",""
"","1281.8649999971967","sequential-stimulus-presentation","189","455587","0.0-38.0-1.0","SS1613175453447","trial","","40","800","2081.8649999971967","images/stimuli/spore_stims/simple_16_B_a.gif","images/stimuli/spore_stims/simple_02_A_d.gif","","","","","10","simple_dissimilar","images/stimuli/spore_stims/simple_02_A_d.gif","left","","","","",""
"","null","html-keyboard-response","190","456521","0.0-38.0-0.1","SS1613175453447","","","null","","","","","<p><img src= images/blank.png width =""200"" height = ""200"" style = ""float:right""></p><p><img src=images/blank.png width =""800"" height = ""200""></p>","","","","","","","","","","","",""
"","1028.0150000035064","sequential-stimulus-presentation","191","458359","0.0-38.0-1.1","SS1613175453447","trial","","40","800","1828.0150000035064","images/stimuli/spore_stims/simple_16_B_a.gif","images/stimuli/spore_stims/simple_02_A_d.gif","","","","","10","simple_dissimilar","images/stimuli/spore_stims/simple_02_A_d.gif","left","","","","",""
"","null","html-keyboard-response","192","459172","0.0-38.0-0.2","SS1613175453447","","","null","","","","","<p><img src= images/blank.png width =""200"" height = ""200"" style = ""float:right""></p><p><img src=images/blank.png width =""800"" height = ""200""></p>","","","","","","","","","","","",""
"","909.590000002936","sequential-stimulus-presentation","193","460891","0.0-38.0-1.2","SS1613175453447","trial","","40","800","1709.590000002936","images/stimuli/spore_stims/simple_16_B_a.gif","images/stimuli/spore_stims/simple_02_A_d.gif","","","","","10","simple_dissimilar","images/stimuli/spore_stims/simple_02_A_d.gif","left","","","","",""
"","null","html-keyboard-response","194","461985","0.0-38.0-0.3","SS1613175453447","","","null","","","","","<p><img src= images/blank.png width =""200"" height = ""200"" style = ""float:right""></p><p><img src=images/blank.png width =""800"" height = ""200""></p>","","","","","","","","","","","",""
"","3325.604999998177","sequential-stimulus-presentation","195","466135","0.0-38.0-1.3","SS1613175453447","trial","","40","800","4125.604999998177","images/stimuli/spore_stims/simple_16_B_a.gif","images/stimuli/spore_stims/simple_02_A_d.gif","","","","","10","simple_dissimilar","images/stimuli/spore_stims/simple_16_B_a.gif","right","","","","",""
"","null","html-keyboard-response","196","467353","0.0-38.0-0.4","SS1613175453447","","","null","","","","","<p><img src= images/blank.png width =""200"" height = ""200"" style = ""float:right""></p><p><img src=images/blank.png width =""800"" height = ""200""></p>","","","","","","","","","","","",""
"","1558.229999995092","sequential-stimulus-presentation","197","469720","0.0-38.0-1.4","SS1613175453447","trial","","40","800","2358.229999995092","images/stimuli/spore_stims/simple_16_B_a.gif","images/stimuli/spore_stims/simple_02_A_d.gif","","","","","10","simple_dissimilar","images/stimuli/spore_stims/simple_02_A_d.gif","left","","","","",""
"","null","html-keyboard-response","198","470671","0.0-38.0-0.5","SS1613175453447","","","null","","","","","<p><img src= images/blank.png width =""200"" height = ""200"" style = ""float:right""></p><p><img src=images/blank.png width =""800"" height = ""200""></p>","","","","","","","","","","","",""
"","902.2249999979977","sequential-stimulus-presentation","199","472385","0.0-38.0-1.5","SS1613175453447","trial","","40","800","1702.2249999979977","images/stimuli/spore_stims/simple_16_B_a.gif","images/stimuli/spore_stims/simple_02_A_d.gif","","","","","10","simple_dissimilar","images/stimuli/spore_stims/simple_02_A_d.gif","left","","","","",""
"","null","html-keyboard-response","200","473232","0.0-38.0-0.6","SS1613175453447","","","null","","","","","<p><img src= images/blank.png width =""200"" height = ""200"" style = ""float:right""></p><p><img src=images/blank.png width =""800"" height = ""200""></p>","","","","","","","","","","","",""
"","464.60999999544583","sequential-stimulus-presentation","201","474506","0.0-38.0-1.6","SS1613175453447","trial","","40","800","1264.6099999954458","images/stimuli/spore_stims/simple_16_B_a.gif","images/stimuli/spore_stims/simple_02_A_d.gif","","","","","10","simple_dissimilar","images/stimuli/spore_stims/simple_02_A_d.gif","left","","","","",""
"","null","html-keyboard-response","202","475766","0.0-38.0-0.7","SS1613175453447","","","null","","","","","<p><img src= images/blank.png width =""200"" height = ""200"" style = ""float:right""></p><p><img src=images/blank.png width =""800"" height = ""200""></p>","","","","","","","","","","","",""
"","803.9949999947567","sequential-stimulus-presentation","203","477382","0.0-38.0-1.7","SS1613175453447","trial","","40","800","1603.9949999947567","images/stimuli/spore_stims/simple_16_B_a.gif","images/stimuli/spore_stims/simple_02_A_d.gif","","","","","10","simple_dissimilar","images/stimuli/spore_stims/simple_02_A_d.gif","left","","","","",""
"","5392.794999999751","html-keyboard-response","204","482780","0.0-39.0","SS1613175453447","pref_question","","50","","","","","<video width ='960' height = '540' style='padding-top:8%' autoplay muted><source src='images/stimuli/wall_pref.mp4' type='video/mp4'></video>","2","middle","45%","10","","","","","","","",""
"","465.64999999827705","sequential-stimulus-presentation","205","484054","0.0-40.0","SS1613175453447","pref_reveal","","40","800","1265.649999998277","null","null","","","","","10","","","","novel","","","",""
"","null","html-keyboard-response","206","485269","0.0-41.0-0.0","SS1613175453447","","","null","","","","","<p><img src= images/blank.png width =""200"" height = ""200"" style = ""float:right""></p><p><img src=images/blank.png width =""800"" height = ""200""></p>","","","","","","","","","","","",""
"","1138.2850000009057","sequential-stimulus-presentation","207","487220","0.0-41.0-1.0","SS1613175453447","trial","","40","800","1938.2850000009057","images/stimuli/spore_stims/complex_11_B_b.gif","images/stimuli/spore_stims/complex_11_A_b.gif","","","","","11","complex_similar","images/stimuli/spore_stims/complex_11_A_b.gif","middle","","","","",""
"","null","html-keyboard-response","208","488067","0.0-41.0-0.1","SS1613175453447","","","null","","","","","<p><img src= images/blank.png width =""200"" height = ""200"" style = ""float:right""></p><p><img src=images/blank.png width =""800"" height = ""200""></p>","","","","","","","","","","","",""
"","325.63500000105705","sequential-stimulus-presentation","209","489203","0.0-41.0-1.1","SS1613175453447","trial","","40","800","1125.635000001057","images/stimuli/spore_stims/complex_11_B_b.gif","images/stimuli/spore_stims/complex_11_A_b.gif","","","","","11","complex_similar","images/stimuli/spore_stims/complex_11_A_b.gif","middle","","","","",""
"","null","html-keyboard-response","210","490009","0.0-41.0-0.2","SS1613175453447","","","null","","","","","<p><img src= images/blank.png width =""200"" height = ""200"" style = ""float:right""></p><p><img src=images/blank.png width =""800"" height = ""200""></p>","","","","","","","","","","","",""
"","542.025000002468","sequential-stimulus-presentation","211","491361","0.0-41.0-1.2","SS1613175453447","trial","","40","800","1342.025000002468","images/stimuli/spore_stims/complex_11_B_b.gif","images/stimuli/spore_stims/complex_11_A_b.gif","","","","","11","complex_similar","images/stimuli/spore_stims/complex_11_A_b.gif","middle","","","","",""
"","null","html-keyboard-response","212","492526","0.0-41.0-0.3","SS1613175453447","","","null","","","","","<p><img src= images/blank.png width =""200"" height = ""200"" style = ""float:right""></p><p><img src=images/blank.png width =""800"" height = ""200""></p>","","","","","","","","","","","",""
"","412.9499999980908","sequential-stimulus-presentation","213","493747","0.0-41.0-1.3","SS1613175453447","trial","","40","800","1212.9499999980908","images/stimuli/spore_stims/complex_11_B_b.gif","images/stimuli/spore_stims/complex_11_A_b.gif","","","","","11","complex_similar","images/stimuli/spore_stims/complex_11_A_b.gif","middle","","","","",""
"","null","html-keyboard-response","214","494634","0.0-41.0-0.4","SS1613175453447","","","null","","","","","<p><img src= images/blank.png width =""200"" height = ""200"" style = ""float:right""></p><p><img src=images/blank.png width =""800"" height = ""200""></p>","","","","","","","","","","","",""
"","394.20000000245636","sequential-stimulus-presentation","215","495838","0.0-41.0-1.4","SS1613175453447","trial","","40","800","1194.2000000024564","images/stimuli/spore_stims/complex_11_B_b.gif","images/stimuli/spore_stims/complex_11_A_b.gif","","","","","11","complex_similar","images/stimuli/spore_stims/complex_11_A_b.gif","middle","","","","",""
"","null","html-keyboard-response","216","497114","0.0-41.0-0.5","SS1613175453447","","","null","","","","","<p><img src= images/blank.png width =""200"" height = ""200"" style = ""float:right""></p><p><img src=images/blank.png width =""800"" height = ""200""></p>","","","","","","","","","","","",""
"","468.64500000083353","sequential-stimulus-presentation","217","498395","0.0-41.0-1.5","SS1613175453447","trial","","40","800","1268.6450000008335","images/stimuli/spore_stims/complex_11_B_b.gif","images/stimuli/spore_stims/complex_11_A_b.gif","","","","","11","complex_similar","images/stimuli/spore_stims/complex_11_B_b.gif","left","","","","",""
"","null","html-keyboard-response","218","499462","0.0-41.0-0.6","SS1613175453447","","","null","","","","","<p><img src= images/blank.png width =""200"" height = ""200"" style = ""float:right""></p><p><img src=images/blank.png width =""800"" height = ""200""></p>","","","","","","","","","","","",""
"","625.6149999971967","sequential-stimulus-presentation","219","500900","0.0-41.0-1.6","SS1613175453447","trial","","40","800","1425.6149999971967","images/stimuli/spore_stims/complex_11_B_b.gif","images/stimuli/spore_stims/complex_11_A_b.gif","","","","","11","complex_similar","images/stimuli/spore_stims/complex_11_A_b.gif","middle","","","","",""
"","null","html-keyboard-response","220","501822","0.0-41.0-0.7","SS1613175453447","","","null","","","","","<p><img src= images/blank.png width =""200"" height = ""200"" style = ""float:right""></p><p><img src=images/blank.png width =""800"" height = ""200""></p>","","","","","","","","","","","",""
"","444.6650000027148","sequential-stimulus-presentation","221","503080","0.0-41.0-1.7","SS1613175453447","trial","","40","800","1244.6650000027148","images/stimuli/spore_stims/complex_11_B_b.gif","images/stimuli/spore_stims/complex_11_A_b.gif","","","","","11","complex_similar","images/stimuli/spore_stims/complex_11_A_b.gif","middle","","","","",""
"","5590.360000002023","html-keyboard-response","222","508677","0.0-42.0","SS1613175453447","pref_question","","51","","","","","<video width ='960' height = '540' style='padding-top:8%' autoplay muted><source src='images/stimuli/wall_pref.mp4' type='video/mp4'></video>","3","right","66%","11","","","","","","","",""
"","3458.9000000051456","sequential-stimulus-presentation","223","512945","0.0-43.0","SS1613175453447","pref_reveal","","40","800","4258.900000005146","null","null","","","","","11","","","","novel","","","",""
"","null","html-keyboard-response","224","514130","0.0-44.0-0.0","SS1613175453447","","","null","","","","","<p><img src= images/blank.png width =""200"" height = ""200"" style = ""float:right""></p><p><img src=images/blank.png width =""800"" height = ""200""></p>","","","","","","","","","","","",""
"","760.0500000043539","sequential-stimulus-presentation","225","515703","0.0-44.0-1.0","SS1613175453447","trial","","40","800","1560.050000004354","images/stimuli/spore_stims/complex_19_A_b.gif","images/stimuli/spore_stims/complex_19_B_b.gif","","","","","12","complex_similar","images/stimuli/spore_stims/complex_19_B_b.gif","left","","","","",""
"","null","html-keyboard-response","226","516992","0.0-44.0-0.1","SS1613175453447","","","null","","","","","<p><img src= images/blank.png width =""200"" height = ""200"" style = ""float:right""></p><p><img src=images/blank.png width =""800"" height = ""200""></p>","","","","","","","","","","","",""
"","374.23999999742955","sequential-stimulus-presentation","227","518178","0.0-44.0-1.1","SS1613175453447","trial","","40","800","1174.2399999974295","images/stimuli/spore_stims/complex_19_A_b.gif","images/stimuli/spore_stims/complex_19_B_b.gif","","","","","12","complex_similar","images/stimuli/spore_stims/complex_19_B_b.gif","left","","","","",""
"","null","html-keyboard-response","228","519402","0.0-44.0-0.2","SS1613175453447","","","null","","","","","<p><img src= images/blank.png width =""200"" height = ""200"" style = ""float:right""></p><p><img src=images/blank.png width =""800"" height = ""200""></p>","","","","","","","","","","","",""
"","413.50499999686144","sequential-stimulus-presentation","229","520624","0.0-44.0-1.2","SS1613175453447","trial","","40","800","1213.5049999968614","images/stimuli/spore_stims/complex_19_A_b.gif","images/stimuli/spore_stims/complex_19_B_b.gif","","","","","12","complex_similar","images/stimuli/spore_stims/complex_19_B_b.gif","left","","","","",""
"","null","html-keyboard-response","230","521706","0.0-44.0-0.3","SS1613175453447","","","null","","","","","<p><img src= images/blank.png width =""200"" height = ""200"" style = ""float:right""></p><p><img src=images/blank.png width =""800"" height = ""200""></p>","","","","","","","","","","","",""
"","1001.2199999983422","sequential-stimulus-presentation","231","523522","0.0-44.0-1.3","SS1613175453447","trial","","40","800","1801.2199999983422","images/stimuli/spore_stims/complex_19_A_b.gif","images/stimuli/spore_stims/complex_19_B_b.gif","","","","","12","complex_similar","images/stimuli/spore_stims/complex_19_B_b.gif","left","","","","",""
"","null","html-keyboard-response","232","524387","0.0-44.0-0.4","SS1613175453447","","","null","","","","","<p><img src= images/blank.png width =""200"" height = ""200"" style = ""float:right""></p><p><img src=images/blank.png width =""800"" height = ""200""></p>","","","","","","","","","","","",""
"","911.2600000008242","sequential-stimulus-presentation","233","526120","0.0-44.0-1.4","SS1613175453447","trial","","40","800","1711.2600000008242","images/stimuli/spore_stims/complex_19_A_b.gif","images/stimuli/spore_stims/complex_19_B_b.gif","","","","","12","complex_similar","images/stimuli/spore_stims/complex_19_B_b.gif","left","","","","",""
"","null","html-keyboard-response","234","527122","0.0-44.0-0.5","SS1613175453447","","","null","","","","","<p><img src= images/blank.png width =""200"" height = ""200"" style = ""float:right""></p><p><img src=images/blank.png width =""800"" height = ""200""></p>","","","","","","","","","","","",""
"","740.7000000020489","sequential-stimulus-presentation","235","528675","0.0-44.0-1.5","SS1613175453447","trial","","40","800","1540.700000002049","images/stimuli/spore_stims/complex_19_A_b.gif","images/stimuli/spore_stims/complex_19_B_b.gif","","","","","12","complex_similar","images/stimuli/spore_stims/complex_19_B_b.gif","left","","","","",""
"","null","html-keyboard-response","236","529976","0.0-44.0-0.6","SS1613175453447","","","null","","","","","<p><img src= images/blank.png width =""200"" height = ""200"" style = ""float:right""></p><p><img src=images/blank.png width =""800"" height = ""200""></p>","","","","","","","","","","","",""
"","418.9399999958696","sequential-stimulus-presentation","237","531207","0.0-44.0-1.6","SS1613175453447","trial","","40","800","1218.9399999958696","images/stimuli/spore_stims/complex_19_A_b.gif","images/stimuli/spore_stims/complex_19_B_b.gif","","","","","12","complex_similar","images/stimuli/spore_stims/complex_19_B_b.gif","left","","","","",""
"","null","html-keyboard-response","238","532131","0.0-44.0-0.7","SS1613175453447","","","null","","","","","<p><img src= images/blank.png width =""200"" height = ""200"" style = ""float:right""></p><p><img src=images/blank.png width =""800"" height = ""200""></p>","","","","","","","","","","","",""
"","3733.4799999953248","sequential-stimulus-presentation","239","536674","0.0-44.0-1.7","SS1613175453447","trial","","40","800","4533.479999995325","images/stimuli/spore_stims/complex_19_A_b.gif","images/stimuli/spore_stims/complex_19_B_b.gif","","","","","12","complex_similar","images/stimuli/spore_stims/complex_19_A_b.gif","middle","","","","",""
"","5396.889999996405","html-keyboard-response","240","542077","0.0-45.0","SS1613175453447","pref_question","","51","","","","","<video width ='960' height = '540' style='padding-top:8%' autoplay muted><source src='images/stimuli/wall_pref.mp4' type='video/mp4'></video>","3","right","66%","12","","","","","","","",""
"","3691.8250000015832","sequential-stimulus-presentation","241","546581","0.0-46.0","SS1613175453447","pref_reveal","","40","800","4491.825000001583","null","null","","","","","12","","","","novel","","","",""
"","null","html-keyboard-response","242","547455","0.0-47.0-0.0","SS1613175453447","","","null","","","","","<p><img src= images/blank.png width =""200"" height = ""200"" style = ""float:right""></p><p><img src=images/blank.png width =""800"" height = ""200""></p>","","","","","","","","","","","",""
"","3183.8449999995064","sequential-stimulus-presentation","243","551451","0.0-47.0-1.0","SS1613175453447","trial","","40","800","3983.8449999995064","images/stimuli/spore_stims/simple_01_A_a.gif","images/stimuli/spore_stims/simple_01_B_a.gif","","","","","13","simple_similar","images/stimuli/spore_stims/simple_01_B_a.gif","left","","","","",""
"","null","html-keyboard-response","244","552263","0.0-47.0-0.1","SS1613175453447","","","null","","","","","<p><img src= images/blank.png width =""200"" height = ""200"" style = ""float:right""></p><p><img src=images/blank.png width =""800"" height = ""200""></p>","","","","","","","","","","","",""
"","327.93999999563675","sequential-stimulus-presentation","245","553401","0.0-47.0-1.1","SS1613175453447","trial","","40","800","1127.9399999956368","images/stimuli/spore_stims/simple_01_A_a.gif","images/stimuli/spore_stims/simple_01_B_a.gif","","","","","13","simple_similar","images/stimuli/spore_stims/simple_01_B_a.gif","left","","","","",""
"","null","html-keyboard-response","246","554398","0.0-47.0-0.2","SS1613175453447","","","null","","","","","<p><img src= images/blank.png width =""200"" height = ""200"" style = ""float:right""></p><p><img src=images/blank.png width =""800"" height = ""200""></p>","","","","","","","","","","","",""
"","269.719999996596","sequential-stimulus-presentation","247","555493","0.0-47.0-1.2","SS1613175453447","trial","","40","800","1069.719999996596","images/stimuli/spore_stims/simple_01_A_a.gif","images/stimuli/spore_stims/simple_01_B_a.gif","","","","","13","simple_similar","images/stimuli/spore_stims/simple_01_B_a.gif","left","","","","",""
"","null","html-keyboard-response","248","556623","0.0-47.0-0.3","SS1613175453447","","","null","","","","","<p><img src= images/blank.png width =""200"" height = ""200"" style = ""float:right""></p><p><img src=images/blank.png width =""800"" height = ""200""></p>","","","","","","","","","","","",""
"","457.2550000011688","sequential-stimulus-presentation","249","557892","0.0-47.0-1.3","SS1613175453447","trial","","40","800","1257.2550000011688","images/stimuli/spore_stims/simple_01_A_a.gif","images/stimuli/spore_stims/simple_01_B_a.gif","","","","","13","simple_similar","images/stimuli/spore_stims/simple_01_B_a.gif","left","","","","",""
"","null","html-keyboard-response","250","558840","0.0-47.0-0.4","SS1613175453447","","","null","","","","","<p><img src= images/blank.png width =""200"" height = ""200"" style = ""float:right""></p><p><img src=images/blank.png width =""800"" height = ""200""></p>","","","","","","","","","","","",""
"","998.444999997504","sequential-stimulus-presentation","251","560650","0.0-47.0-1.4","SS1613175453447","trial","","40","800","1798.444999997504","images/stimuli/spore_stims/simple_01_A_a.gif","images/stimuli/spore_stims/simple_01_B_a.gif","","","","","13","simple_similar","images/stimuli/spore_stims/simple_01_B_a.gif","left","","","","",""
"","null","html-keyboard-response","252","561559","0.0-47.0-0.5","SS1613175453447","","","null","","","","","<p><img src= images/blank.png width =""200"" height = ""200"" style = ""float:right""></p><p><img src=images/blank.png width =""800"" height = ""200""></p>","","","","","","","","","","","",""
"","891.9099999984028","sequential-stimulus-presentation","253","563260","0.0-47.0-1.5","SS1613175453447","trial","","40","800","1691.9099999984028","images/stimuli/spore_stims/simple_01_A_a.gif","images/stimuli/spore_stims/simple_01_B_a.gif","","","","","13","simple_similar","images/stimuli/spore_stims/simple_01_A_a.gif","middle","","","","",""
"","null","html-keyboard-response","254","564190","0.0-47.0-0.6","SS1613175453447","","","null","","","","","<p><img src= images/blank.png width =""200"" height = ""200"" style = ""float:right""></p><p><img src=images/blank.png width =""800"" height = ""200""></p>","","","","","","","","","","","",""
"","703.8299999985611","sequential-stimulus-presentation","255","565705","0.0-47.0-1.6","SS1613175453447","trial","","40","800","1503.829999998561","images/stimuli/spore_stims/simple_01_A_a.gif","images/stimuli/spore_stims/simple_01_B_a.gif","","","","","13","simple_similar","images/stimuli/spore_stims/simple_01_B_a.gif","left","","","","",""
"","null","html-keyboard-response","256","566975","0.0-47.0-0.7","SS1613175453447","","","null","","","","","<p><img src= images/blank.png width =""200"" height = ""200"" style = ""float:right""></p><p><img src=images/blank.png width =""800"" height = ""200""></p>","","","","","","","","","","","",""
"","350.2500000031432","sequential-stimulus-presentation","257","568136","0.0-47.0-1.7","SS1613175453447","trial","","40","800","1150.2500000031432","images/stimuli/spore_stims/simple_01_A_a.gif","images/stimuli/spore_stims/simple_01_B_a.gif","","","","","13","simple_similar","images/stimuli/spore_stims/simple_01_B_a.gif","left","","","","",""
"","5862.930000002962","html-keyboard-response","258","574004","0.0-48.0","SS1613175453447","pref_question","","50","","","","","<video width ='960' height = '540' style='padding-top:8%' autoplay muted><source src='images/stimuli/wall_pref.mp4' type='video/mp4'></video>","2","middle","45%","13","","","","","","","",""
"","1481.3999999969965","sequential-stimulus-presentation","259","576293","0.0-49.0","SS1613175453447","pref_reveal","","40","800","2281.3999999969965","null","null","","","","","13","","","","deviant","","","",""
"","null","html-keyboard-response","260","577383","0.0-50.0-0.0","SS1613175453447","","","null","","","","","<p><img src= images/blank.png width =""200"" height = ""200"" style = ""float:right""></p><p><img src=images/blank.png width =""800"" height = ""200""></p>","","","","","","","","","","","",""
"","446.71000000380445","sequential-stimulus-presentation","261","578640","0.0-50.0-1.0","SS1613175453447","trial","","40","800","1246.7100000038045","images/stimuli/spore_stims/complex_12_A_c.gif","images/stimuli/spore_stims/complex_12_B_c.gif","","","","","14","complex_similar","images/stimuli/spore_stims/complex_12_B_c.gif","left","","","","",""
"","null","html-keyboard-response","262","579503","0.0-50.0-0.1","SS1613175453447","","","null","","","","","<p><img src= images/blank.png width =""200"" height = ""200"" style = ""float:right""></p><p><img src=images/blank.png width =""800"" height = ""200""></p>","","","","","","","","","","","",""
"","2656.155000004219","sequential-stimulus-presentation","263","582971","0.0-50.0-1.1","SS1613175453447","trial","","40","800","3456.155000004219","images/stimuli/spore_stims/complex_12_A_c.gif","images/stimuli/spore_stims/complex_12_B_c.gif","","","","","14","complex_similar","images/stimuli/spore_stims/complex_12_B_c.gif","left","","","","",""
"","null","html-keyboard-response","264","583883","0.0-50.0-0.2","SS1613175453447","","","null","","","","","<p><img src= images/blank.png width =""200"" height = ""200"" style = ""float:right""></p><p><img src=images/blank.png width =""800"" height = ""200""></p>","","","","","","","","","","","",""
"","806.5500000010943","sequential-stimulus-presentation","265","585502","0.0-50.0-1.2","SS1613175453447","trial","","40","800","1606.5500000010943","images/stimuli/spore_stims/complex_12_A_c.gif","images/stimuli/spore_stims/complex_12_B_c.gif","","","","","14","complex_similar","images/stimuli/spore_stims/complex_12_B_c.gif","left","","","","",""
"","null","html-keyboard-response","266","586723","0.0-50.0-0.3","SS1613175453447","","","null","","","","","<p><img src= images/blank.png width =""200"" height = ""200"" style = ""float:right""></p><p><img src=images/blank.png width =""800"" height = ""200""></p>","","","","","","","","","","","",""
"","306.04999999923166","sequential-stimulus-presentation","267","587839","0.0-50.0-1.3","SS1613175453447","trial","","40","800","1106.0499999992317","images/stimuli/spore_stims/complex_12_A_c.gif","images/stimuli/spore_stims/complex_12_B_c.gif","","","","","14","complex_similar","images/stimuli/spore_stims/complex_12_B_c.gif","left","","","","",""
"","null","html-keyboard-response","268","588815","0.0-50.0-0.4","SS1613175453447","","","null","","","","","<p><img src= images/blank.png width =""200"" height = ""200"" style = ""float:right""></p><p><img src=images/blank.png width =""800"" height = ""200""></p>","","","","","","","","","","","",""
"","827.8700000010431","sequential-stimulus-presentation","269","590456","0.0-50.0-1.4","SS1613175453447","trial","","40","800","1627.870000001043","images/stimuli/spore_stims/complex_12_A_c.gif","images/stimuli/spore_stims/complex_12_B_c.gif","","","","","14","complex_similar","images/stimuli/spore_stims/complex_12_B_c.gif","left","","","","",""
"","null","html-keyboard-response","270","591526","0.0-50.0-0.5","SS1613175453447","","","null","","","","","<p><img src= images/blank.png width =""200"" height = ""200"" style = ""float:right""></p><p><img src=images/blank.png width =""800"" height = ""200""></p>","","","","","","","","","","","",""
"","575.5449999996927","sequential-stimulus-presentation","271","592923","0.0-50.0-1.5","SS1613175453447","trial","","40","800","1375.5449999996927","images/stimuli/spore_stims/complex_12_A_c.gif","images/stimuli/spore_stims/complex_12_B_c.gif","","","","","14","complex_similar","images/stimuli/spore_stims/complex_12_A_c.gif","right","","","","",""
"","null","html-keyboard-response","272","593954","0.0-50.0-0.6","SS1613175453447","","","null","","","","","<p><img src= images/blank.png width =""200"" height = ""200"" style = ""float:right""></p><p><img src=images/blank.png width =""800"" height = ""200""></p>","","","","","","","","","","","",""
"","666.0100000009406","sequential-stimulus-presentation","273","595434","0.0-50.0-1.6","SS1613175453447","trial","","40","800","1466.0100000009406","images/stimuli/spore_stims/complex_12_A_c.gif","images/stimuli/spore_stims/complex_12_B_c.gif","","","","","14","complex_similar","images/stimuli/spore_stims/complex_12_B_c.gif","left","","","","",""
"","null","html-keyboard-response","274","596412","0.0-50.0-0.7","SS1613175453447","","","null","","","","","<p><img src= images/blank.png width =""200"" height = ""200"" style = ""float:right""></p><p><img src=images/blank.png width =""800"" height = ""200""></p>","","","","","","","","","","","",""
"","1048.0299999981653","sequential-stimulus-presentation","275","598270","0.0-50.0-1.7","SS1613175453447","trial","","40","800","1848.0299999981653","images/stimuli/spore_stims/complex_12_A_c.gif","images/stimuli/spore_stims/complex_12_B_c.gif","","","","","14","complex_similar","images/stimuli/spore_stims/complex_12_B_c.gif","left","","","","",""
"","5694.765000000247","html-keyboard-response","276","603971","0.0-51.0","SS1613175453447","pref_question","","50","","","","","<video width ='960' height = '540' style='padding-top:8%' autoplay muted><source src='images/stimuli/wall_pref.mp4' type='video/mp4'></video>","2","middle","45%","14","","","","","","","",""
"","1193.7899999974761","sequential-stimulus-presentation","277","605974","0.0-52.0","SS1613175453447","pref_reveal","","40","800","1993.7899999974761","null","null","","","","","14","","","","novel","","","",""
"","null","html-keyboard-response","278","607008","0.0-53.0-0.0","SS1613175453447","","","null","","","","","<p><img src= images/blank.png width =""200"" height = ""200"" style = ""float:right""></p><p><img src=images/blank.png width =""800"" height = ""200""></p>","","","","","","","","","","","",""
"","540.0749999971595","sequential-stimulus-presentation","279","608360","0.0-53.0-1.0","SS1613175453447","trial","","40","800","1340.0749999971595","images/stimuli/spore_stims/complex_15_B_d.gif","images/stimuli/spore_stims/complex_11_B_d.gif","","","","","15","complex_dissimilar","images/stimuli/spore_stims/complex_11_B_d.gif","right","","","","",""
"","null","html-keyboard-response","280","609200","0.0-53.0-0.1","SS1613175453447","","","null","","","","","<p><img src= images/blank.png width =""200"" height = ""200"" style = ""float:right""></p><p><img src=images/blank.png width =""800"" height = ""200""></p>","","","","","","","","","","","",""
"","693.5650000014575","sequential-stimulus-presentation","281","610705","0.0-53.0-1.1","SS1613175453447","trial","","40","800","1493.5650000014575","images/stimuli/spore_stims/complex_15_B_d.gif","images/stimuli/spore_stims/complex_11_B_d.gif","","","","","15","complex_dissimilar","images/stimuli/spore_stims/complex_11_B_d.gif","right","","","","",""
"","null","html-keyboard-response","282","611556","0.0-53.0-0.2","SS1613175453447","","","null","","","","","<p><img src= images/blank.png width =""200"" height = ""200"" style = ""float:right""></p><p><img src=images/blank.png width =""800"" height = ""200""></p>","","","","","","","","","","","",""
"","695.9449999993667","sequential-stimulus-presentation","283","613062","0.0-53.0-1.2","SS1613175453447","trial","","40","800","1495.9449999993667","images/stimuli/spore_stims/complex_15_B_d.gif","images/stimuli/spore_stims/complex_11_B_d.gif","","","","","15","complex_dissimilar","images/stimuli/spore_stims/complex_11_B_d.gif","right","","","","",""
"","null","html-keyboard-response","284","613884","0.0-53.0-0.3","SS1613175453447","","","null","","","","","<p><img src= images/blank.png width =""200"" height = ""200"" style = ""float:right""></p><p><img src=images/blank.png width =""800"" height = ""200""></p>","","","","","","","","","","","",""
"","420.509999996284","sequential-stimulus-presentation","285","615117","0.0-53.0-1.3","SS1613175453447","trial","","40","800","1220.509999996284","images/stimuli/spore_stims/complex_15_B_d.gif","images/stimuli/spore_stims/complex_11_B_d.gif","","","","","15","complex_dissimilar","images/stimuli/spore_stims/complex_11_B_d.gif","right","","","","",""
"","null","html-keyboard-response","286","616312","0.0-53.0-0.4","SS1613175453447","","","null","","","","","<p><img src= images/blank.png width =""200"" height = ""200"" style = ""float:right""></p><p><img src=images/blank.png width =""800"" height = ""200""></p>","","","","","","","","","","","",""
"","994.1949999992503","sequential-stimulus-presentation","287","618118","0.0-53.0-1.4","SS1613175453447","trial","","40","800","1794.1949999992503","images/stimuli/spore_stims/complex_15_B_d.gif","images/stimuli/spore_stims/complex_11_B_d.gif","","","","","15","complex_dissimilar","images/stimuli/spore_stims/complex_15_B_d.gif","left","","","","",""
"","null","html-keyboard-response","288","618963","0.0-53.0-0.5","SS1613175453447","","","null","","","","","<p><img src= images/blank.png width =""200"" height = ""200"" style = ""float:right""></p><p><img src=images/blank.png width =""800"" height = ""200""></p>","","","","","","","","","","","",""
"","803.655000003404","sequential-stimulus-presentation","289","620583","0.0-53.0-1.5","SS1613175453447","trial","","40","800","1603.655000003404","images/stimuli/spore_stims/complex_15_B_d.gif","images/stimuli/spore_stims/complex_11_B_d.gif","","","","","15","complex_dissimilar","images/stimuli/spore_stims/complex_11_B_d.gif","right","","","","",""
"","null","html-keyboard-response","290","621668","0.0-53.0-0.6","SS1613175453447","","","null","","","","","<p><img src= images/blank.png width =""200"" height = ""200"" style = ""float:right""></p><p><img src=images/blank.png width =""800"" height = ""200""></p>","","","","","","","","","","","",""
"","1086.3049999970244","sequential-stimulus-presentation","291","623567","0.0-53.0-1.6","SS1613175453447","trial","","40","800","1886.3049999970244","images/stimuli/spore_stims/complex_15_B_d.gif","images/stimuli/spore_stims/complex_11_B_d.gif","","","","","15","complex_dissimilar","images/stimuli/spore_stims/complex_11_B_d.gif","right","","","","",""
"","null","html-keyboard-response","292","624524","0.0-53.0-0.7","SS1613175453447","","","null","","","","","<p><img src= images/blank.png width =""200"" height = ""200"" style = ""float:right""></p><p><img src=images/blank.png width =""800"" height = ""200""></p>","","","","","","","","","","","",""
"","742.1000000031199","sequential-stimulus-presentation","293","626077","0.0-53.0-1.7","SS1613175453447","trial","","40","800","1542.10000000312","images/stimuli/spore_stims/complex_15_B_d.gif","images/stimuli/spore_stims/complex_11_B_d.gif","","","","","15","complex_dissimilar","images/stimuli/spore_stims/complex_11_B_d.gif","right","","","","",""
"","5469.705000003218","html-keyboard-response","294","631555","0.0-54.0","SS1613175453447","pref_question","","50","","","","","<video width ='960' height = '540' style='padding-top:8%' autoplay muted><source src='images/stimuli/wall_pref.mp4' type='video/mp4'></video>","2","middle","45%","15","","","","","","","",""
"","2611.174999998184","sequential-stimulus-presentation","295","634978","0.0-55.0","SS1613175453447","pref_reveal","","40","800","3411.174999998184","null","null","","","","","15","","","","novel","","","",""
"","null","html-keyboard-response","296","635804","0.0-56.0-0.0","SS1613175453447","","","null","","","","","<p><img src= images/blank.png width =""200"" height = ""200"" style = ""float:right""></p><p><img src=images/blank.png width =""800"" height = ""200""></p>","","","","","","","","","","","",""
"","1912.355000000447","sequential-stimulus-presentation","297","638527","0.0-56.0-1.0","SS1613175453447","trial","","40","800","2712.355000000447","images/stimuli/spore_stims/simple_18_A_c.gif","images/stimuli/spore_stims/simple_03_B_b.gif","","","","","16","simple_dissimilar","images/stimuli/spore_stims/simple_03_B_b.gif","left","","","","",""
"","null","html-keyboard-response","298","639447","0.0-56.0-0.1","SS1613175453447","","","null","","","","","<p><img src= images/blank.png width =""200"" height = ""200"" style = ""float:right""></p><p><img src=images/blank.png width =""800"" height = ""200""></p>","","","","","","","","","","","",""
"","1185.9299999995856","sequential-stimulus-presentation","299","641443","0.0-56.0-1.1","SS1613175453447","trial","","40","800","1985.9299999995856","images/stimuli/spore_stims/simple_18_A_c.gif","images/stimuli/spore_stims/simple_03_B_b.gif","","","","","16","simple_dissimilar","images/stimuli/spore_stims/simple_03_B_b.gif","left","","","","",""
"","null","html-keyboard-response","300","642456","0.0-56.0-0.2","SS1613175453447","","","null","","","","","<p><img src= images/blank.png width =""200"" height = ""200"" style = ""float:right""></p><p><img src=images/blank.png width =""800"" height = ""200""></p>","","","","","","","","","","","",""
"","1054.1299999968614","sequential-stimulus-presentation","301","644323","0.0-56.0-1.2","SS1613175453447","trial","","40","800","1854.1299999968614","images/stimuli/spore_stims/simple_18_A_c.gif","images/stimuli/spore_stims/simple_03_B_b.gif","","","","","16","simple_dissimilar","images/stimuli/spore_stims/simple_03_B_b.gif","left","","","","",""
"","null","html-keyboard-response","302","645381","0.0-56.0-0.3","SS1613175453447","","","null","","","","","<p><img src= images/blank.png width =""200"" height = ""200"" style = ""float:right""></p><p><img src=images/blank.png width =""800"" height = ""200""></p>","","","","","","","","","","","",""
"","384.2399999992922","sequential-stimulus-presentation","303","646577","0.0-56.0-1.3","SS1613175453447","trial","","40","800","1184.2399999992922","images/stimuli/spore_stims/simple_18_A_c.gif","images/stimuli/spore_stims/simple_03_B_b.gif","","","","","16","simple_dissimilar","images/stimuli/spore_stims/simple_03_B_b.gif","left","","","","",""
"","null","html-keyboard-response","304","647790","0.0-56.0-0.4","SS1613175453447","","","null","","","","","<p><img src= images/blank.png width =""200"" height = ""200"" style = ""float:right""></p><p><img src=images/blank.png width =""800"" height = ""200""></p>","","","","","","","","","","","",""
"","398.80499999714084","sequential-stimulus-presentation","305","649004","0.0-56.0-1.4","SS1613175453447","trial","","40","800","1198.8049999971408","images/stimuli/spore_stims/simple_18_A_c.gif","images/stimuli/spore_stims/simple_03_B_b.gif","","","","","16","simple_dissimilar","images/stimuli/spore_stims/simple_03_B_b.gif","left","","","","",""
"","null","html-keyboard-response","306","649841","0.0-56.0-0.5","SS1613175453447","","","null","","","","","<p><img src= images/blank.png width =""200"" height = ""200"" style = ""float:right""></p><p><img src=images/blank.png width =""800"" height = ""200""></p>","","","","","","","","","","","",""
"","987.9050000018906","sequential-stimulus-presentation","307","651639","0.0-56.0-1.5","SS1613175453447","trial","","40","800","1787.9050000018906","images/stimuli/spore_stims/simple_18_A_c.gif","images/stimuli/spore_stims/simple_03_B_b.gif","","","","","16","simple_dissimilar","images/stimuli/spore_stims/simple_18_A_c.gif","middle","","","","",""
"","null","html-keyboard-response","308","652537","0.0-56.0-0.6","SS1613175453447","","","null","","","","","<p><img src= images/blank.png width =""200"" height = ""200"" style = ""float:right""></p><p><img src=images/blank.png width =""800"" height = ""200""></p>","","","","","","","","","","","",""
"","2219.0199999968754","sequential-stimulus-presentation","309","655567","0.0-56.0-1.6","SS1613175453447","trial","","40","800","3019.0199999968754","images/stimuli/spore_stims/simple_18_A_c.gif","images/stimuli/spore_stims/simple_03_B_b.gif","","","","","16","simple_dissimilar","images/stimuli/spore_stims/simple_03_B_b.gif","left","","","","",""
"","null","html-keyboard-response","310","656789","0.0-56.0-0.7","SS1613175453447","","","null","","","","","<p><img src= images/blank.png width =""200"" height = ""200"" style = ""float:right""></p><p><img src=images/blank.png width =""800"" height = ""200""></p>","","","","","","","","","","","",""
"","756.4700000003213","sequential-stimulus-presentation","311","658358","0.0-56.0-1.7","SS1613175453447","trial","","40","800","1556.4700000003213","images/stimuli/spore_stims/simple_18_A_c.gif","images/stimuli/spore_stims/simple_03_B_b.gif","","","","","16","simple_dissimilar","images/stimuli/spore_stims/simple_03_B_b.gif","left","","","","",""
"","4355.670000004349","html-keyboard-response","312","662722","0.0-57.0","SS1613175453447","pref_question","","50","","","","","<video width ='960' height = '540' style='padding-top:8%' autoplay muted><source src='images/stimuli/wall_pref.mp4' type='video/mp4'></video>","2","middle","45%","16","","","","","","","",""
