"view_history","rt","trial_type","trial_index","time_elapsed","internal_node_id","subject","stimulus_type","trial_stimulus","key_press","minimum_viewing_duration","trial_looking_time","block_deviant","block_background","stimulus","wall_pref","location","location_percent","block_number","block_type","stimulus_displayed","position_displayed","stim_type_selected","responses","question_order","stimulus_left","stimulus_right"
"[{""page_index"":0,""viewing_time"":9214.685000000827}]","9215.52999999949","instructions","0","9217","0.0-0.0","SS1613080648391","","","","","","","","","","","","","","","","","","","",""
"[{""page_index"":0,""viewing_time"":14986.92999999912},{""page_index"":1,""viewing_time"":6622.6800000004005}]","21609.91499999909","instructions","1","32832","0.0-1.0","SS1613080648391","instructions","","","","","","","","","","","","","","","","","","",""
"","10103.994999999486","sequential-stimulus-presentation","2","43743","0.0-2.0","SS1613080648391","","","40","800","10903.994999999486","null","null","","","","","","","","","","","","",""
"","5794.739999999365","sequential-stimulus-presentation","3","50346","0.0-3.0","SS1613080648391","","","40","800","6594.739999999365","null","null","","","","","","","","","","","","",""
"[{""page_index"":0,""viewing_time"":6893.889999999374}]","6894.099999999526","instructions","4","57241","0.0-4.0","SS1613080648391","instructions","","","","","","","","","","","","","","","","","","",""
"","22105.024999998932","html-keyboard-response","5","79350","0.0-5.0","SS1613080648391","instructions","","98","","","","","<video width ='960' height = '540' autoplay muted><source src='images/stimuli/wall_pref.mp4' type='video/mp4'></video>","2","middle","45%","","","","","","","","",""
"","1232.415000000401","sequential-stimulus-presentation","6","81411","0.0-6.0","SS1613080648391","pref_reveal","","40","800","2032.415000000401","null","null","","","","","","","","","","","","",""
"[{""page_index"":0,""viewing_time"":14958.199999999124},{""page_index"":1,""viewing_time"":8304.855000000316},{""page_index"":2,""viewing_time"":2386.3550000005635},{""page_index"":3,""viewing_time"":1441.9049999996787}]","27091.52499999982","instructions","7","108503","0.0-7.0","SS1613080648391","instructions","","","","","","","","","","","","","","","","","","",""
"","null","html-keyboard-response","8","109357","0.0-8.0-0.0","SS1613080648391","","","null","","","","","<p><img src= images/blank.png width =""200"" height = ""200"" style = ""float:right""></p><p><img src=images/blank.png width =""800"" height = ""200""></p>","","","","","","","","","","","",""
"","6037.844999998924","sequential-stimulus-presentation","9","116204","0.0-8.0-1.0","SS1613080648391","trial","","40","800","6837.844999998924","images/stimuli/spore_stims/simple_20_B_a.gif","images/stimuli/spore_stims/simple_03_A_d.gif","","","","","0","simple_dissimilar","images/stimuli/spore_stims/simple_03_A_d.gif","middle","","","","",""
"","null","html-keyboard-response","10","117032","0.0-8.0-0.1","SS1613080648391","","","null","","","","","<p><img src= images/blank.png width =""200"" height = ""200"" style = ""float:right""></p><p><img src=images/blank.png width =""800"" height = ""200""></p>","","","","","","","","","","","",""
"","1417.370000001043","sequential-stimulus-presentation","11","119258","0.0-8.0-1.1","SS1613080648391","trial","","40","800","2217.370000001043","images/stimuli/spore_stims/simple_20_B_a.gif","images/stimuli/spore_stims/simple_03_A_d.gif","","","","","0","simple_dissimilar","images/stimuli/spore_stims/simple_03_A_d.gif","middle","","","","",""
"","null","html-keyboard-response","12","120257","0.0-8.0-0.2","SS1613080648391","","","null","","","","","<p><img src= images/blank.png width =""200"" height = ""200"" style = ""float:right""></p><p><img src=images/blank.png width =""800"" height = ""200""></p>","","","","","","","","","","","",""
"","851.4500000001281","sequential-stimulus-presentation","13","121914","0.0-8.0-1.2","SS1613080648391","trial","","40","800","1651.450000000128","images/stimuli/spore_stims/simple_20_B_a.gif","images/stimuli/spore_stims/simple_03_A_d.gif","","","","","0","simple_dissimilar","images/stimuli/spore_stims/simple_03_A_d.gif","middle","","","","",""
"","null","html-keyboard-response","14","123069","0.0-8.0-0.3","SS1613080648391","","","null","","","","","<p><img src= images/blank.png width =""200"" height = ""200"" style = ""float:right""></p><p><img src=images/blank.png width =""800"" height = ""200""></p>","","","","","","","","","","","",""
"","2670.9449999998615","sequential-stimulus-presentation","15","126554","0.0-8.0-1.3","SS1613080648391","trial","","40","800","3470.9449999998615","images/stimuli/spore_stims/simple_20_B_a.gif","images/stimuli/spore_stims/simple_03_A_d.gif","","","","","0","simple_dissimilar","images/stimuli/spore_stims/simple_03_A_d.gif","middle","","","","",""
"","null","html-keyboard-response","16","127476","0.0-8.0-0.4","SS1613080648391","","","null","","","","","<p><img src= images/blank.png width =""200"" height = ""200"" style = ""float:right""></p><p><img src=images/blank.png width =""800"" height = ""200""></p>","","","","","","","","","","","",""
"","6721.849999999889","sequential-stimulus-presentation","17","135002","0.0-8.0-1.4","SS1613080648391","trial","","40","800","7521.849999999889","images/stimuli/spore_stims/simple_20_B_a.gif","images/stimuli/spore_stims/simple_03_A_d.gif","","","","","0","simple_dissimilar","images/stimuli/spore_stims/simple_03_A_d.gif","middle","","","","",""
"","null","html-keyboard-response","18","136264","0.0-8.0-0.5","SS1613080648391","","","null","","","","","<p><img src= images/blank.png width =""200"" height = ""200"" style = ""float:right""></p><p><img src=images/blank.png width =""800"" height = ""200""></p>","","","","","","","","","","","",""
"","2445.7549999988114","sequential-stimulus-presentation","19","139514","0.0-8.0-1.5","SS1613080648391","trial","","40","800","3245.7549999988114","images/stimuli/spore_stims/simple_20_B_a.gif","images/stimuli/spore_stims/simple_03_A_d.gif","","","","","0","simple_dissimilar","images/stimuli/spore_stims/simple_20_B_a.gif","right","","","","",""
"","null","html-keyboard-response","20","140503","0.0-8.0-0.6","SS1613080648391","","","null","","","","","<p><img src= images/blank.png width =""200"" height = ""200"" style = ""float:right""></p><p><img src=images/blank.png width =""800"" height = ""200""></p>","","","","","","","","","","","",""
"","1469.0350000000617","sequential-stimulus-presentation","21","142786","0.0-8.0-1.6","SS1613080648391","trial","","40","800","2269.0350000000617","images/stimuli/spore_stims/simple_20_B_a.gif","images/stimuli/spore_stims/simple_03_A_d.gif","","","","","0","simple_dissimilar","images/stimuli/spore_stims/simple_03_A_d.gif","middle","","","","",""
"","null","html-keyboard-response","22","143910","0.0-8.0-0.7","SS1613080648391","","","null","","","","","<p><img src= images/blank.png width =""200"" height = ""200"" style = ""float:right""></p><p><img src=images/blank.png width =""800"" height = ""200""></p>","","","","","","","","","","","",""
"","853.1299999995099","sequential-stimulus-presentation","23","145570","0.0-8.0-1.7","SS1613080648391","trial","","40","800","1653.12999999951","images/stimuli/spore_stims/simple_20_B_a.gif","images/stimuli/spore_stims/simple_03_A_d.gif","","","","","0","simple_dissimilar","images/stimuli/spore_stims/simple_03_A_d.gif","middle","","","","",""
"","1970.499999999447","html-keyboard-response","24","147544","0.0-9.0","SS1613080648391","pref_question","","97","","","","","<video width ='960' height = '540' style='padding-top:8%' autoplay muted><source src='images/stimuli/wall_pref.mp4' type='video/mp4'></video>","1","left","25%","0","","","","","","","",""
"","260.53999999928055","sequential-stimulus-presentation","25","148610","0.0-10.0","SS1613080648391","pref_reveal","","40","800","1060.5399999992806","null","null","","","","","0","","","","novel","","","",""
"","null","html-keyboard-response","26","149753","0.0-11.0-0.0","SS1613080648391","","","null","","","","","<p><img src= images/blank.png width =""200"" height = ""200"" style = ""float:right""></p><p><img src=images/blank.png width =""800"" height = ""200""></p>","","","","","","","","","","","",""
"","2230.090000000928","sequential-stimulus-presentation","27","152802","0.0-11.0-1.0","SS1613080648391","trial","","40","800","3030.090000000928","images/stimuli/spore_stims/complex_05_B_a.gif","images/stimuli/spore_stims/complex_15_B_d.gif","","","","","1","complex_dissimilar","images/stimuli/spore_stims/complex_15_B_d.gif","middle","","","","",""
"","null","html-keyboard-response","28","153806","0.0-11.0-0.1","SS1613080648391","","","null","","","","","<p><img src= images/blank.png width =""200"" height = ""200"" style = ""float:right""></p><p><img src=images/blank.png width =""800"" height = ""200""></p>","","","","","","","","","","","",""
"","1161.395000000979","sequential-stimulus-presentation","29","155780","0.0-11.0-1.1","SS1613080648391","trial","","40","800","1961.395000000979","images/stimuli/spore_stims/complex_05_B_a.gif","images/stimuli/spore_stims/complex_15_B_d.gif","","","","","1","complex_dissimilar","images/stimuli/spore_stims/complex_15_B_d.gif","middle","","","","",""
"","null","html-keyboard-response","30","156998","0.0-11.0-0.2","SS1613080648391","","","null","","","","","<p><img src= images/blank.png width =""200"" height = ""200"" style = ""float:right""></p><p><img src=images/blank.png width =""800"" height = ""200""></p>","","","","","","","","","","","",""
"","1200.1650000002119","sequential-stimulus-presentation","31","159026","0.0-11.0-1.2","SS1613080648391","trial","","40","800","2000.1650000002119","images/stimuli/spore_stims/complex_05_B_a.gif","images/stimuli/spore_stims/complex_15_B_d.gif","","","","","1","complex_dissimilar","images/stimuli/spore_stims/complex_15_B_d.gif","middle","","","","",""
"","null","html-keyboard-response","32","159926","0.0-11.0-0.3","SS1613080648391","","","null","","","","","<p><img src= images/blank.png width =""200"" height = ""200"" style = ""float:right""></p><p><img src=images/blank.png width =""800"" height = ""200""></p>","","","","","","","","","","","",""
"","1471.7199999995355","sequential-stimulus-presentation","33","162202","0.0-11.0-1.3","SS1613080648391","trial","","40","800","2271.7199999995355","images/stimuli/spore_stims/complex_05_B_a.gif","images/stimuli/spore_stims/complex_15_B_d.gif","","","","","1","complex_dissimilar","images/stimuli/spore_stims/complex_15_B_d.gif","middle","","","","",""
"","null","html-keyboard-response","34","163378","0.0-11.0-0.4","SS1613080648391","","","null","","","","","<p><img src= images/blank.png width =""200"" height = ""200"" style = ""float:right""></p><p><img src=images/blank.png width =""800"" height = ""200""></p>","","","","","","","","","","","",""
"","3253.9550000001327","sequential-stimulus-presentation","35","167445","0.0-11.0-1.4","SS1613080648391","trial","","40","800","4053.9550000001327","images/stimuli/spore_stims/complex_05_B_a.gif","images/stimuli/spore_stims/complex_15_B_d.gif","","","","","1","complex_dissimilar","images/stimuli/spore_stims/complex_05_B_a.gif","right","","","","",""
"","null","html-keyboard-response","36","168732","0.0-11.0-0.5","SS1613080648391","","","null","","","","","<p><img src= images/blank.png width =""200"" height = ""200"" style = ""float:right""></p><p><img src=images/blank.png width =""800"" height = ""200""></p>","","","","","","","","","","","",""
"","867.9300000003423","sequential-stimulus-presentation","37","170410","0.0-11.0-1.5","SS1613080648391","trial","","40","800","1667.9300000003423","images/stimuli/spore_stims/complex_05_B_a.gif","images/stimuli/spore_stims/complex_15_B_d.gif","","","","","1","complex_dissimilar","images/stimuli/spore_stims/complex_15_B_d.gif","middle","","","","",""
"","null","html-keyboard-response","38","171510","0.0-11.0-0.6","SS1613080648391","","","null","","","","","<p><img src= images/blank.png width =""200"" height = ""200"" style = ""float:right""></p><p><img src=images/blank.png width =""800"" height = ""200""></p>","","","","","","","","","","","",""
"","823.4499999998952","sequential-stimulus-presentation","39","173139","0.0-11.0-1.6","SS1613080648391","trial","","40","800","1623.4499999998952","images/stimuli/spore_stims/complex_05_B_a.gif","images/stimuli/spore_stims/complex_15_B_d.gif","","","","","1","complex_dissimilar","images/stimuli/spore_stims/complex_15_B_d.gif","middle","","","","",""
"","null","html-keyboard-response","40","174427","0.0-11.0-0.7","SS1613080648391","","","null","","","","","<p><img src= images/blank.png width =""200"" height = ""200"" style = ""float:right""></p><p><img src=images/blank.png width =""800"" height = ""200""></p>","","","","","","","","","","","",""
"","818.5499999999884","sequential-stimulus-presentation","41","176051","0.0-11.0-1.7","SS1613080648391","trial","","40","800","1618.5499999999884","images/stimuli/spore_stims/complex_05_B_a.gif","images/stimuli/spore_stims/complex_15_B_d.gif","","","","","1","complex_dissimilar","images/stimuli/spore_stims/complex_15_B_d.gif","middle","","","","",""
"","5900.175000000687","html-keyboard-response","42","181955","0.0-12.0","SS1613080648391","pref_question","","99","","","","","<video width ='960' height = '540' style='padding-top:8%' autoplay muted><source src='images/stimuli/wall_pref.mp4' type='video/mp4'></video>","3","right","66%","1","","","","","","","",""
"","2731.1899999986053","sequential-stimulus-presentation","43","185491","0.0-13.0","SS1613080648391","pref_reveal","","40","800","3531.1899999986053","null","null","","","","","1","","","","deviant","","","",""
"","null","html-keyboard-response","44","186771","0.0-14.0-0.0","SS1613080648391","","","null","","","","","<p><img src= images/blank.png width =""200"" height = ""200"" style = ""float:right""></p><p><img src=images/blank.png width =""800"" height = ""200""></p>","","","","","","","","","","","",""
"","2506.489999999758","sequential-stimulus-presentation","45","190123","0.0-14.0-1.0","SS1613080648391","trial","","40","800","3306.489999999758","images/stimuli/spore_stims/simple_11_A_b.gif","images/stimuli/spore_stims/simple_05_A_b.gif","","","","","2","simple_dissimilar","images/stimuli/spore_stims/simple_05_A_b.gif","middle","","","","",""
"","null","html-keyboard-response","46","191370","0.0-14.0-0.1","SS1613080648391","","","null","","","","","<p><img src= images/blank.png width =""200"" height = ""200"" style = ""float:right""></p><p><img src=images/blank.png width =""800"" height = ""200""></p>","","","","","","","","","","","",""
"","956.8500000004715","sequential-stimulus-presentation","47","193139","0.0-14.0-1.1","SS1613080648391","trial","","40","800","1756.8500000004715","images/stimuli/spore_stims/simple_11_A_b.gif","images/stimuli/spore_stims/simple_05_A_b.gif","","","","","2","simple_dissimilar","images/stimuli/spore_stims/simple_05_A_b.gif","middle","","","","",""
"","null","html-keyboard-response","48","194362","0.0-14.0-0.2","SS1613080648391","","","null","","","","","<p><img src= images/blank.png width =""200"" height = ""200"" style = ""float:right""></p><p><img src=images/blank.png width =""800"" height = ""200""></p>","","","","","","","","","","","",""
"","716.0499999990861","sequential-stimulus-presentation","49","195893","0.0-14.0-1.2","SS1613080648391","trial","","40","800","1516.0499999990861","images/stimuli/spore_stims/simple_11_A_b.gif","images/stimuli/spore_stims/simple_05_A_b.gif","","","","","2","simple_dissimilar","images/stimuli/spore_stims/simple_05_A_b.gif","middle","","","","",""
"","null","html-keyboard-response","50","197133","0.0-14.0-0.3","SS1613080648391","","","null","","","","","<p><img src= images/blank.png width =""200"" height = ""200"" style = ""float:right""></p><p><img src=images/blank.png width =""800"" height = ""200""></p>","","","","","","","","","","","",""
"","595.7449999987148","sequential-stimulus-presentation","51","198535","0.0-14.0-1.3","SS1613080648391","trial","","40","800","1395.7449999987148","images/stimuli/spore_stims/simple_11_A_b.gif","images/stimuli/spore_stims/simple_05_A_b.gif","","","","","2","simple_dissimilar","images/stimuli/spore_stims/simple_05_A_b.gif","middle","","","","",""
"","null","html-keyboard-response","52","199459","0.0-14.0-0.4","SS1613080648391","","","null","","","","","<p><img src= images/blank.png width =""200"" height = ""200"" style = ""float:right""></p><p><img src=images/blank.png width =""800"" height = ""200""></p>","","","","","","","","","","","",""
"","406.6299999995099","sequential-stimulus-presentation","53","200676","0.0-14.0-1.4","SS1613080648391","trial","","40","800","1206.62999999951","images/stimuli/spore_stims/simple_11_A_b.gif","images/stimuli/spore_stims/simple_05_A_b.gif","","","","","2","simple_dissimilar","images/stimuli/spore_stims/simple_05_A_b.gif","middle","","","","",""
"","null","html-keyboard-response","54","201790","0.0-14.0-0.5","SS1613080648391","","","null","","","","","<p><img src= images/blank.png width =""200"" height = ""200"" style = ""float:right""></p><p><img src=images/blank.png width =""800"" height = ""200""></p>","","","","","","","","","","","",""
"","3837.845000000001","sequential-stimulus-presentation","55","206435","0.0-14.0-1.5","SS1613080648391","trial","","40","800","4637.845000000001","images/stimuli/spore_stims/simple_11_A_b.gif","images/stimuli/spore_stims/simple_05_A_b.gif","","","","","2","simple_dissimilar","images/stimuli/spore_stims/simple_11_A_b.gif","right","","","","",""
"","null","html-keyboard-response","56","207317","0.0-14.0-0.6","SS1613080648391","","","null","","","","","<p><img src= images/blank.png width =""200"" height = ""200"" style = ""float:right""></p><p><img src=images/blank.png width =""800"" height = ""200""></p>","","","","","","","","","","","",""
"","993.1999999989639","sequential-stimulus-presentation","57","209123","0.0-14.0-1.6","SS1613080648391","trial","","40","800","1793.199999998964","images/stimuli/spore_stims/simple_11_A_b.gif","images/stimuli/spore_stims/simple_05_A_b.gif","","","","","2","simple_dissimilar","images/stimuli/spore_stims/simple_05_A_b.gif","middle","","","","",""
"","null","html-keyboard-response","58","209974","0.0-14.0-0.7","SS1613080648391","","","null","","","","","<p><img src= images/blank.png width =""200"" height = ""200"" style = ""float:right""></p><p><img src=images/blank.png width =""800"" height = ""200""></p>","","","","","","","","","","","",""
"","535.1300000001793","sequential-stimulus-presentation","59","211316","0.0-14.0-1.7","SS1613080648391","trial","","40","800","1335.1300000001793","images/stimuli/spore_stims/simple_11_A_b.gif","images/stimuli/spore_stims/simple_05_A_b.gif","","","","","2","simple_dissimilar","images/stimuli/spore_stims/simple_05_A_b.gif","middle","","","","",""
"","2465.4850000006263","html-keyboard-response","60","213788","0.0-15.0","SS1613080648391","pref_question","","98","","","","","<video width ='960' height = '540' style='padding-top:8%' autoplay muted><source src='images/stimuli/wall_pref.mp4' type='video/mp4'></video>","2","middle","45%","2","","","","","","","",""
"","3416.7199999992736","sequential-stimulus-presentation","61","218037","0.0-16.0","SS1613080648391","pref_reveal","","40","800","4216.719999999274","null","null","","","","","2","","","","background","","","",""
"","null","html-keyboard-response","62","219162","0.0-17.0-0.0","SS1613080648391","","","null","","","","","<p><img src= images/blank.png width =""200"" height = ""200"" style = ""float:right""></p><p><img src=images/blank.png width =""800"" height = ""200""></p>","","","","","","","","","","","",""
"","211.8150000005844","sequential-stimulus-presentation","63","220187","0.0-17.0-1.0","SS1613080648391","trial","","40","800","1011.8150000005844","images/stimuli/spore_stims/simple_18_A_c.gif","images/stimuli/spore_stims/simple_18_B_c.gif","","","","","3","simple_similar","images/stimuli/spore_stims/simple_18_B_c.gif","middle","","","","",""
"","null","html-keyboard-response","64","221478","0.0-17.0-0.1","SS1613080648391","","","null","","","","","<p><img src= images/blank.png width =""200"" height = ""200"" style = ""float:right""></p><p><img src=images/blank.png width =""800"" height = ""200""></p>","","","","","","","","","","","",""
"","963.2500000006985","sequential-stimulus-presentation","65","223253","0.0-17.0-1.1","SS1613080648391","trial","","40","800","1763.2500000006985","images/stimuli/spore_stims/simple_18_A_c.gif","images/stimuli/spore_stims/simple_18_B_c.gif","","","","","3","simple_similar","images/stimuli/spore_stims/simple_18_B_c.gif","middle","","","","",""
"","null","html-keyboard-response","66","224301","0.0-17.0-0.2","SS1613080648391","","","null","","","","","<p><img src= images/blank.png width =""200"" height = ""200"" style = ""float:right""></p><p><img src=images/blank.png width =""800"" height = ""200""></p>","","","","","","","","","","","",""
"","836.8399999999674","sequential-stimulus-presentation","67","225963","0.0-17.0-1.2","SS1613080648391","trial","","40","800","1636.8399999999674","images/stimuli/spore_stims/simple_18_A_c.gif","images/stimuli/spore_stims/simple_18_B_c.gif","","","","","3","simple_similar","images/stimuli/spore_stims/simple_18_B_c.gif","middle","","","","",""
"","null","html-keyboard-response","68","226840","0.0-17.0-0.3","SS1613080648391","","","null","","","","","<p><img src= images/blank.png width =""200"" height = ""200"" style = ""float:right""></p><p><img src=images/blank.png width =""800"" height = ""200""></p>","","","","","","","","","","","",""
"","590.9849999989092","sequential-stimulus-presentation","69","228253","0.0-17.0-1.3","SS1613080648391","trial","","40","800","1390.9849999989092","images/stimuli/spore_stims/simple_18_A_c.gif","images/stimuli/spore_stims/simple_18_B_c.gif","","","","","3","simple_similar","images/stimuli/spore_stims/simple_18_B_c.gif","middle","","","","",""
"","null","html-keyboard-response","70","229414","0.0-17.0-0.4","SS1613080648391","","","null","","","","","<p><img src= images/blank.png width =""200"" height = ""200"" style = ""float:right""></p><p><img src=images/blank.png width =""800"" height = ""200""></p>","","","","","","","","","","","",""
"","504.37500000046566","sequential-stimulus-presentation","71","230756","0.0-17.0-1.4","SS1613080648391","trial","","40","800","1304.3750000004657","images/stimuli/spore_stims/simple_18_A_c.gif","images/stimuli/spore_stims/simple_18_B_c.gif","","","","","3","simple_similar","images/stimuli/spore_stims/simple_18_B_c.gif","middle","","","","",""
"","null","html-keyboard-response","72","231752","0.0-17.0-0.5","SS1613080648391","","","null","","","","","<p><img src= images/blank.png width =""200"" height = ""200"" style = ""float:right""></p><p><img src=images/blank.png width =""800"" height = ""200""></p>","","","","","","","","","","","",""
"","1335.7299999988754","sequential-stimulus-presentation","73","233892","0.0-17.0-1.5","SS1613080648391","trial","","40","800","2135.7299999988754","images/stimuli/spore_stims/simple_18_A_c.gif","images/stimuli/spore_stims/simple_18_B_c.gif","","","","","3","simple_similar","images/stimuli/spore_stims/simple_18_A_c.gif","right","","","","",""
"","null","html-keyboard-response","74","235182","0.0-17.0-0.6","SS1613080648391","","","null","","","","","<p><img src= images/blank.png width =""200"" height = ""200"" style = ""float:right""></p><p><img src=images/blank.png width =""800"" height = ""200""></p>","","","","","","","","","","","",""
"","498.3350000002538","sequential-stimulus-presentation","75","236493","0.0-17.0-1.6","SS1613080648391","trial","","40","800","1298.3350000002538","images/stimuli/spore_stims/simple_18_A_c.gif","images/stimuli/spore_stims/simple_18_B_c.gif","","","","","3","simple_similar","images/stimuli/spore_stims/simple_18_B_c.gif","middle","","","","",""
"","null","html-keyboard-response","76","237687","0.0-17.0-0.7","SS1613080648391","","","null","","","","","<p><img src= images/blank.png width =""200"" height = ""200"" style = ""float:right""></p><p><img src=images/blank.png width =""800"" height = ""200""></p>","","","","","","","","","","","",""
"","619.7350000002189","sequential-stimulus-presentation","77","239124","0.0-17.0-1.7","SS1613080648391","trial","","40","800","1419.7350000002189","images/stimuli/spore_stims/simple_18_A_c.gif","images/stimuli/spore_stims/simple_18_B_c.gif","","","","","3","simple_similar","images/stimuli/spore_stims/simple_18_B_c.gif","middle","","","","",""
"","1747.0400000002119","html-keyboard-response","78","240899","0.0-18.0","SS1613080648391","pref_question","","97","","","","","<video width ='960' height = '540' style='padding-top:8%' autoplay muted><source src='images/stimuli/wall_pref.mp4' type='video/mp4'></video>","1","left","25%","3","","","","","","","",""
"","7807.010000000417","sequential-stimulus-presentation","79","249517","0.0-19.0","SS1613080648391","pref_reveal","","40","800","8607.010000000417","null","null","","","","","3","","","","novel","","","",""
"","null","html-keyboard-response","80","250458","0.0-20.0-0.0","SS1613080648391","","","null","","","","","<p><img src= images/blank.png width =""200"" height = ""200"" style = ""float:right""></p><p><img src=images/blank.png width =""800"" height = ""200""></p>","","","","","","","","","","","",""
"","4166.850000001374","sequential-stimulus-presentation","81","255431","0.0-20.0-1.0","SS1613080648391","trial","","40","800","4966.850000001374","images/stimuli/spore_stims/simple_10_B_b.gif","images/stimuli/spore_stims/simple_10_A_b.gif","","","","","4","simple_similar","images/stimuli/spore_stims/simple_10_A_b.gif","right","","","","",""
"","null","html-keyboard-response","82","256274","0.0-20.0-0.1","SS1613080648391","","","null","","","","","<p><img src= images/blank.png width =""200"" height = ""200"" style = ""float:right""></p><p><img src=images/blank.png width =""800"" height = ""200""></p>","","","","","","","","","","","",""
"","733.7399999996996","sequential-stimulus-presentation","83","257820","0.0-20.0-1.1","SS1613080648391","trial","","40","800","1533.7399999996996","images/stimuli/spore_stims/simple_10_B_b.gif","images/stimuli/spore_stims/simple_10_A_b.gif","","","","","4","simple_similar","images/stimuli/spore_stims/simple_10_A_b.gif","right","","","","",""
"","null","html-keyboard-response","84","259064","0.0-20.0-0.2","SS1613080648391","","","null","","","","","<p><img src= images/blank.png width =""200"" height = ""200"" style = ""float:right""></p><p><img src=images/blank.png width =""800"" height = ""200""></p>","","","","","","","","","","","",""
"","1516.0200000008917","sequential-stimulus-presentation","85","261387","0.0-20.0-1.2","SS1613080648391","trial","","40","800","2316.0200000008917","images/stimuli/spore_stims/simple_10_B_b.gif","images/stimuli/spore_stims/simple_10_A_b.gif","","","","","4","simple_similar","images/stimuli/spore_stims/simple_10_A_b.gif","right","","","","",""
"","null","html-keyboard-response","86","262449","0.0-20.0-0.3","SS1613080648391","","","null","","","","","<p><img src= images/blank.png width =""200"" height = ""200"" style = ""float:right""></p><p><img src=images/blank.png width =""800"" height = ""200""></p>","","","","","","","","","","","",""
"","515.8549999996321","sequential-stimulus-presentation","87","263771","0.0-20.0-1.3","SS1613080648391","trial","","40","800","1315.8549999996321","images/stimuli/spore_stims/simple_10_B_b.gif","images/stimuli/spore_stims/simple_10_A_b.gif","","","","","4","simple_similar","images/stimuli/spore_stims/simple_10_A_b.gif","right","","","","",""
"","null","html-keyboard-response","88","265054","0.0-20.0-0.4","SS1613080648391","","","null","","","","","<p><img src= images/blank.png width =""200"" height = ""200"" style = ""float:right""></p><p><img src=images/blank.png width =""800"" height = ""200""></p>","","","","","","","","","","","",""
"","2282.1100000001024","sequential-stimulus-presentation","89","268147","0.0-20.0-1.4","SS1613080648391","trial","","40","800","3082.1100000001024","images/stimuli/spore_stims/simple_10_B_b.gif","images/stimuli/spore_stims/simple_10_A_b.gif","","","","","4","simple_similar","images/stimuli/spore_stims/simple_10_A_b.gif","right","","","","",""
"","null","html-keyboard-response","90","269437","0.0-20.0-0.5","SS1613080648391","","","null","","","","","<p><img src= images/blank.png width =""200"" height = ""200"" style = ""float:right""></p><p><img src=images/blank.png width =""800"" height = ""200""></p>","","","","","","","","","","","",""
"","500.27500000037253","sequential-stimulus-presentation","91","270755","0.0-20.0-1.5","SS1613080648391","trial","","40","800","1300.2750000003725","images/stimuli/spore_stims/simple_10_B_b.gif","images/stimuli/spore_stims/simple_10_A_b.gif","","","","","4","simple_similar","images/stimuli/spore_stims/simple_10_A_b.gif","right","","","","",""
"","null","html-keyboard-response","92","271724","0.0-20.0-0.6","SS1613080648391","","","null","","","","","<p><img src= images/blank.png width =""200"" height = ""200"" style = ""float:right""></p><p><img src=images/blank.png width =""800"" height = ""200""></p>","","","","","","","","","","","",""
"","2580.240000001155","sequential-stimulus-presentation","93","275109","0.0-20.0-1.6","SS1613080648391","trial","","40","800","3380.240000001155","images/stimuli/spore_stims/simple_10_B_b.gif","images/stimuli/spore_stims/simple_10_A_b.gif","","","","","4","simple_similar","images/stimuli/spore_stims/simple_10_B_b.gif","middle","","","","",""
"","null","html-keyboard-response","94","275939","0.0-20.0-0.7","SS1613080648391","","","null","","","","","<p><img src= images/blank.png width =""200"" height = ""200"" style = ""float:right""></p><p><img src=images/blank.png width =""800"" height = ""200""></p>","","","","","","","","","","","",""
"","768.0999999993364","sequential-stimulus-presentation","95","277523","0.0-20.0-1.7","SS1613080648391","trial","","40","800","1568.0999999993364","images/stimuli/spore_stims/simple_10_B_b.gif","images/stimuli/spore_stims/simple_10_A_b.gif","","","","","4","simple_similar","images/stimuli/spore_stims/simple_10_A_b.gif","right","","","","",""
"","3849.0499999988824","html-keyboard-response","96","281378","0.0-21.0","SS1613080648391","pref_question","","97","","","","","<video width ='960' height = '540' style='padding-top:8%' autoplay muted><source src='images/stimuli/wall_pref.mp4' type='video/mp4'></video>","1","left","25%","4","","","","","","","",""
"","3931.3300000012387","sequential-stimulus-presentation","97","286115","0.0-22.0","SS1613080648391","pref_reveal","","40","800","4731.330000001239","null","null","","","","","4","","","","novel","","","",""
"","null","html-keyboard-response","98","287052","0.0-23.0-0.0","SS1613080648391","","","null","","","","","<p><img src= images/blank.png width =""200"" height = ""200"" style = ""float:right""></p><p><img src=images/blank.png width =""800"" height = ""200""></p>","","","","","","","","","","","",""
"","1527.509999999893","sequential-stimulus-presentation","99","289396","0.0-23.0-1.0","SS1613080648391","trial","","40","800","2327.509999999893","images/stimuli/spore_stims/simple_02_B_b.gif","images/stimuli/spore_stims/simple_02_A_b.gif","","","","","5","simple_similar","images/stimuli/spore_stims/simple_02_A_b.gif","middle","","","","",""
"","null","html-keyboard-response","100","290520","0.0-23.0-0.1","SS1613080648391","","","null","","","","","<p><img src= images/blank.png width =""200"" height = ""200"" style = ""float:right""></p><p><img src=images/blank.png width =""800"" height = ""200""></p>","","","","","","","","","","","",""
"","615.6300000002375","sequential-stimulus-presentation","101","291948","0.0-23.0-1.1","SS1613080648391","trial","","40","800","1415.6300000002375","images/stimuli/spore_stims/simple_02_B_b.gif","images/stimuli/spore_stims/simple_02_A_b.gif","","","","","5","simple_similar","images/stimuli/spore_stims/simple_02_A_b.gif","middle","","","","",""
"","null","html-keyboard-response","102","293176","0.0-23.0-0.2","SS1613080648391","","","null","","","","","<p><img src= images/blank.png width =""200"" height = ""200"" style = ""float:right""></p><p><img src=images/blank.png width =""800"" height = ""200""></p>","","","","","","","","","","","",""
"","730.8249999987311","sequential-stimulus-presentation","103","294715","0.0-23.0-1.2","SS1613080648391","trial","","40","800","1530.824999998731","images/stimuli/spore_stims/simple_02_B_b.gif","images/stimuli/spore_stims/simple_02_A_b.gif","","","","","5","simple_similar","images/stimuli/spore_stims/simple_02_B_b.gif","right","","","","",""
"","null","html-keyboard-response","104","296013","0.0-23.0-0.3","SS1613080648391","","","null","","","","","<p><img src= images/blank.png width =""200"" height = ""200"" style = ""float:right""></p><p><img src=images/blank.png width =""800"" height = ""200""></p>","","","","","","","","","","","",""
"","489.48500000004424","sequential-stimulus-presentation","105","297310","0.0-23.0-1.3","SS1613080648391","trial","","40","800","1289.4850000000442","images/stimuli/spore_stims/simple_02_B_b.gif","images/stimuli/spore_stims/simple_02_A_b.gif","","","","","5","simple_similar","images/stimuli/spore_stims/simple_02_A_b.gif","middle","","","","",""
"","null","html-keyboard-response","106","298323","0.0-23.0-0.4","SS1613080648391","","","null","","","","","<p><img src= images/blank.png width =""200"" height = ""200"" style = ""float:right""></p><p><img src=images/blank.png width =""800"" height = ""200""></p>","","","","","","","","","","","",""
"","531.3349999996717","sequential-stimulus-presentation","107","299659","0.0-23.0-1.4","SS1613080648391","trial","","40","800","1331.3349999996717","images/stimuli/spore_stims/simple_02_B_b.gif","images/stimuli/spore_stims/simple_02_A_b.gif","","","","","5","simple_similar","images/stimuli/spore_stims/simple_02_A_b.gif","middle","","","","",""
"","null","html-keyboard-response","108","300813","0.0-23.0-0.5","SS1613080648391","","","null","","","","","<p><img src= images/blank.png width =""200"" height = ""200"" style = ""float:right""></p><p><img src=images/blank.png width =""800"" height = ""200""></p>","","","","","","","","","","","",""
"","493.20000000076834","sequential-stimulus-presentation","109","302146","0.0-23.0-1.5","SS1613080648391","trial","","40","800","1293.2000000007683","images/stimuli/spore_stims/simple_02_B_b.gif","images/stimuli/spore_stims/simple_02_A_b.gif","","","","","5","simple_similar","images/stimuli/spore_stims/simple_02_A_b.gif","middle","","","","",""
"","null","html-keyboard-response","110","303258","0.0-23.0-0.6","SS1613080648391","","","null","","","","","<p><img src= images/blank.png width =""200"" height = ""200"" style = ""float:right""></p><p><img src=images/blank.png width =""800"" height = ""200""></p>","","","","","","","","","","","",""
"","418.4199999999837","sequential-stimulus-presentation","111","304483","0.0-23.0-1.6","SS1613080648391","trial","","40","800","1218.4199999999837","images/stimuli/spore_stims/simple_02_B_b.gif","images/stimuli/spore_stims/simple_02_A_b.gif","","","","","5","simple_similar","images/stimuli/spore_stims/simple_02_A_b.gif","middle","","","","",""
"","null","html-keyboard-response","112","305727","0.0-23.0-0.7","SS1613080648391","","","null","","","","","<p><img src= images/blank.png width =""200"" height = ""200"" style = ""float:right""></p><p><img src=images/blank.png width =""800"" height = ""200""></p>","","","","","","","","","","","",""
"","411.92499999853317","sequential-stimulus-presentation","113","306947","0.0-23.0-1.7","SS1613080648391","trial","","40","800","1211.9249999985332","images/stimuli/spore_stims/simple_02_B_b.gif","images/stimuli/spore_stims/simple_02_A_b.gif","","","","","5","simple_similar","images/stimuli/spore_stims/simple_02_A_b.gif","middle","","","","",""
"","1507.410000000149","html-keyboard-response","114","308459","0.0-24.0","SS1613080648391","pref_question","","97","","","","","<video width ='960' height = '540' style='padding-top:8%' autoplay muted><source src='images/stimuli/wall_pref.mp4' type='video/mp4'></video>","1","left","25%","5","","","","","","","",""
"","2433.7050000012387","sequential-stimulus-presentation","115","311715","0.0-25.0","SS1613080648391","pref_reveal","","40","800","3233.7050000012387","null","null","","","","","5","","","","novel","","","",""
"","null","html-keyboard-response","116","312818","0.0-26.0-0.0","SS1613080648391","","","null","","","","","<p><img src= images/blank.png width =""200"" height = ""200"" style = ""float:right""></p><p><img src=images/blank.png width =""800"" height = ""200""></p>","","","","","","","","","","","",""
"","1592.3300000012969","sequential-stimulus-presentation","117","315226","0.0-26.0-1.0","SS1613080648391","trial","","40","800","2392.330000001297","images/stimuli/spore_stims/complex_11_B_b.gif","images/stimuli/spore_stims/complex_11_A_b.gif","","","","","6","complex_similar","images/stimuli/spore_stims/complex_11_A_b.gif","left","","","","",""
"","null","html-keyboard-response","118","316339","0.0-26.0-0.1","SS1613080648391","","","null","","","","","<p><img src= images/blank.png width =""200"" height = ""200"" style = ""float:right""></p><p><img src=images/blank.png width =""800"" height = ""200""></p>","","","","","","","","","","","",""
"","969.0900000004913","sequential-stimulus-presentation","119","318114","0.0-26.0-1.1","SS1613080648391","trial","","40","800","1769.0900000004913","images/stimuli/spore_stims/complex_11_B_b.gif","images/stimuli/spore_stims/complex_11_A_b.gif","","","","","6","complex_similar","images/stimuli/spore_stims/complex_11_A_b.gif","left","","","","",""
"","null","html-keyboard-response","120","319230","0.0-26.0-0.2","SS1613080648391","","","null","","","","","<p><img src= images/blank.png width =""200"" height = ""200"" style = ""float:right""></p><p><img src=images/blank.png width =""800"" height = ""200""></p>","","","","","","","","","","","",""
"","476.61499999958323","sequential-stimulus-presentation","121","320516","0.0-26.0-1.2","SS1613080648391","trial","","40","800","1276.6149999995832","images/stimuli/spore_stims/complex_11_B_b.gif","images/stimuli/spore_stims/complex_11_A_b.gif","","","","","6","complex_similar","images/stimuli/spore_stims/complex_11_A_b.gif","left","","","","",""
"","null","html-keyboard-response","122","321519","0.0-26.0-0.3","SS1613080648391","","","null","","","","","<p><img src= images/blank.png width =""200"" height = ""200"" style = ""float:right""></p><p><img src=images/blank.png width =""800"" height = ""200""></p>","","","","","","","","","","","",""
"","992.8499999987544","sequential-stimulus-presentation","123","323347","0.0-26.0-1.3","SS1613080648391","trial","","40","800","1792.8499999987544","images/stimuli/spore_stims/complex_11_B_b.gif","images/stimuli/spore_stims/complex_11_A_b.gif","","","","","6","complex_similar","images/stimuli/spore_stims/complex_11_B_b.gif","middle","","","","",""
"","null","html-keyboard-response","124","324331","0.0-26.0-0.4","SS1613080648391","","","null","","","","","<p><img src= images/blank.png width =""200"" height = ""200"" style = ""float:right""></p><p><img src=images/blank.png width =""800"" height = ""200""></p>","","","","","","","","","","","",""
"","749.9900000002235","sequential-stimulus-presentation","125","325892","0.0-26.0-1.4","SS1613080648391","trial","","40","800","1549.9900000002235","images/stimuli/spore_stims/complex_11_B_b.gif","images/stimuli/spore_stims/complex_11_A_b.gif","","","","","6","complex_similar","images/stimuli/spore_stims/complex_11_A_b.gif","left","","","","",""
"","null","html-keyboard-response","126","326906","0.0-26.0-0.5","SS1613080648391","","","null","","","","","<p><img src= images/blank.png width =""200"" height = ""200"" style = ""float:right""></p><p><img src=images/blank.png width =""800"" height = ""200""></p>","","","","","","","","","","","",""
"","388.76999999955297","sequential-stimulus-presentation","127","328115","0.0-26.0-1.5","SS1613080648391","trial","","40","800","1188.769999999553","images/stimuli/spore_stims/complex_11_B_b.gif","images/stimuli/spore_stims/complex_11_A_b.gif","","","","","6","complex_similar","images/stimuli/spore_stims/complex_11_A_b.gif","left","","","","",""
"","null","html-keyboard-response","128","329408","0.0-26.0-0.6","SS1613080648391","","","null","","","","","<p><img src= images/blank.png width =""200"" height = ""200"" style = ""float:right""></p><p><img src=images/blank.png width =""800"" height = ""200""></p>","","","","","","","","","","","",""
"","460.36499999900116","sequential-stimulus-presentation","129","330676","0.0-26.0-1.6","SS1613080648391","trial","","40","800","1260.3649999990012","images/stimuli/spore_stims/complex_11_B_b.gif","images/stimuli/spore_stims/complex_11_A_b.gif","","","","","6","complex_similar","images/stimuli/spore_stims/complex_11_A_b.gif","left","","","","",""
"","null","html-keyboard-response","130","331944","0.0-26.0-0.7","SS1613080648391","","","null","","","","","<p><img src= images/blank.png width =""200"" height = ""200"" style = ""float:right""></p><p><img src=images/blank.png width =""800"" height = ""200""></p>","","","","","","","","","","","",""
"","502.30999999988126","sequential-stimulus-presentation","131","333284","0.0-26.0-1.7","SS1613080648391","trial","","40","800","1302.3099999998813","images/stimuli/spore_stims/complex_11_B_b.gif","images/stimuli/spore_stims/complex_11_A_b.gif","","","","","6","complex_similar","images/stimuli/spore_stims/complex_11_A_b.gif","left","","","","",""
"","1426.4650000004913","html-keyboard-response","132","334723","0.0-27.0","SS1613080648391","pref_question","","99","","","","","<video width ='960' height = '540' style='padding-top:8%' autoplay muted><source src='images/stimuli/wall_pref.mp4' type='video/mp4'></video>","3","right","66%","6","","","","","","","",""
"","4780.305000000226","sequential-stimulus-presentation","133","340308","0.0-28.0","SS1613080648391","pref_reveal","","40","800","5580.305000000226","null","null","","","","","6","","","","novel","","","",""
"","null","html-keyboard-response","134","341616","0.0-29.0-0.0","SS1613080648391","","","null","","","","","<p><img src= images/blank.png width =""200"" height = ""200"" style = ""float:right""></p><p><img src=images/blank.png width =""800"" height = ""200""></p>","","","","","","","","","","","",""
"","1370.2199999988661","sequential-stimulus-presentation","135","343795","0.0-29.0-1.0","SS1613080648391","trial","","40","800","2170.219999998866","images/stimuli/spore_stims/complex_14_B_d.gif","images/stimuli/spore_stims/complex_14_A_d.gif","","","","","7","complex_similar","images/stimuli/spore_stims/complex_14_A_d.gif","right","","","","",""
"","null","html-keyboard-response","136","344937","0.0-29.0-0.1","SS1613080648391","","","null","","","","","<p><img src= images/blank.png width =""200"" height = ""200"" style = ""float:right""></p><p><img src=images/blank.png width =""800"" height = ""200""></p>","","","","","","","","","","","",""
"","642.8049999994691","sequential-stimulus-presentation","137","346395","0.0-29.0-1.1","SS1613080648391","trial","","40","800","1442.8049999994691","images/stimuli/spore_stims/complex_14_B_d.gif","images/stimuli/spore_stims/complex_14_A_d.gif","","","","","7","complex_similar","images/stimuli/spore_stims/complex_14_A_d.gif","right","","","","",""
"","null","html-keyboard-response","138","347482","0.0-29.0-0.2","SS1613080648391","","","null","","","","","<p><img src= images/blank.png width =""200"" height = ""200"" style = ""float:right""></p><p><img src=images/blank.png width =""800"" height = ""200""></p>","","","","","","","","","","","",""
"","437.0849999996135","sequential-stimulus-presentation","139","348739","0.0-29.0-1.2","SS1613080648391","trial","","40","800","1237.0849999996135","images/stimuli/spore_stims/complex_14_B_d.gif","images/stimuli/spore_stims/complex_14_A_d.gif","","","","","7","complex_similar","images/stimuli/spore_stims/complex_14_A_d.gif","right","","","","",""
"","null","html-keyboard-response","140","349774","0.0-29.0-0.3","SS1613080648391","","","null","","","","","<p><img src= images/blank.png width =""200"" height = ""200"" style = ""float:right""></p><p><img src=images/blank.png width =""800"" height = ""200""></p>","","","","","","","","","","","",""
"","449.4450000001816","sequential-stimulus-presentation","141","351034","0.0-29.0-1.3","SS1613080648391","trial","","40","800","1249.4450000001816","images/stimuli/spore_stims/complex_14_B_d.gif","images/stimuli/spore_stims/complex_14_A_d.gif","","","","","7","complex_similar","images/stimuli/spore_stims/complex_14_A_d.gif","right","","","","",""
"","null","html-keyboard-response","142","352257","0.0-29.0-0.4","SS1613080648391","","","null","","","","","<p><img src= images/blank.png width =""200"" height = ""200"" style = ""float:right""></p><p><img src=images/blank.png width =""800"" height = ""200""></p>","","","","","","","","","","","",""
"","398.15500000078464","sequential-stimulus-presentation","143","353468","0.0-29.0-1.4","SS1613080648391","trial","","40","800","1198.1550000007846","images/stimuli/spore_stims/complex_14_B_d.gif","images/stimuli/spore_stims/complex_14_A_d.gif","","","","","7","complex_similar","images/stimuli/spore_stims/complex_14_A_d.gif","right","","","","",""
"","null","html-keyboard-response","144","354504","0.0-29.0-0.5","SS1613080648391","","","null","","","","","<p><img src= images/blank.png width =""200"" height = ""200"" style = ""float:right""></p><p><img src=images/blank.png width =""800"" height = ""200""></p>","","","","","","","","","","","",""
"","585.930000001099","sequential-stimulus-presentation","145","355901","0.0-29.0-1.5","SS1613080648391","trial","","40","800","1385.930000001099","images/stimuli/spore_stims/complex_14_B_d.gif","images/stimuli/spore_stims/complex_14_A_d.gif","","","","","7","complex_similar","images/stimuli/spore_stims/complex_14_A_d.gif","right","","","","",""
"","null","html-keyboard-response","146","357080","0.0-29.0-0.6","SS1613080648391","","","null","","","","","<p><img src= images/blank.png width =""200"" height = ""200"" style = ""float:right""></p><p><img src=images/blank.png width =""800"" height = ""200""></p>","","","","","","","","","","","",""
"","394.66999999963446","sequential-stimulus-presentation","147","358284","0.0-29.0-1.6","SS1613080648391","trial","","40","800","1194.6699999996345","images/stimuli/spore_stims/complex_14_B_d.gif","images/stimuli/spore_stims/complex_14_A_d.gif","","","","","7","complex_similar","images/stimuli/spore_stims/complex_14_A_d.gif","right","","","","",""
"","null","html-keyboard-response","148","359557","0.0-29.0-0.7","SS1613080648391","","","null","","","","","<p><img src= images/blank.png width =""200"" height = ""200"" style = ""float:right""></p><p><img src=images/blank.png width =""800"" height = ""200""></p>","","","","","","","","","","","",""
"","719.2050000012387","sequential-stimulus-presentation","149","361091","0.0-29.0-1.7","SS1613080648391","trial","","40","800","1519.2050000012387","images/stimuli/spore_stims/complex_14_B_d.gif","images/stimuli/spore_stims/complex_14_A_d.gif","","","","","7","complex_similar","images/stimuli/spore_stims/complex_14_B_d.gif","left","","","","",""
"","1706.8600000002189","html-keyboard-response","150","362804","0.0-30.0","SS1613080648391","pref_question","","98","","","","","<video width ='960' height = '540' style='padding-top:8%' autoplay muted><source src='images/stimuli/wall_pref.mp4' type='video/mp4'></video>","2","middle","45%","7","","","","","","","",""
"","2065.000000000524","sequential-stimulus-presentation","151","365683","0.0-31.0","SS1613080648391","pref_reveal","","40","800","2865.000000000524","null","null","","","","","7","","","","novel","","","",""
"","null","html-keyboard-response","152","366850","0.0-32.0-0.0","SS1613080648391","","","null","","","","","<p><img src= images/blank.png width =""200"" height = ""200"" style = ""float:right""></p><p><img src=images/blank.png width =""800"" height = ""200""></p>","","","","","","","","","","","",""
"","740.6099999988801","sequential-stimulus-presentation","153","368419","0.0-32.0-1.0","SS1613080648391","trial","","40","800","1540.60999999888","images/stimuli/spore_stims/simple_09_A_d.gif","images/stimuli/spore_stims/simple_17_B_a.gif","","","","","8","simple_dissimilar","images/stimuli/spore_stims/simple_17_B_a.gif","middle","","","","",""
"","null","html-keyboard-response","154","369375","0.0-32.0-0.1","SS1613080648391","","","null","","","","","<p><img src= images/blank.png width =""200"" height = ""200"" style = ""float:right""></p><p><img src=images/blank.png width =""800"" height = ""200""></p>","","","","","","","","","","","",""
"","466.4149999989895","sequential-stimulus-presentation","155","370659","0.0-32.0-1.1","SS1613080648391","trial","","40","800","1266.4149999989895","images/stimuli/spore_stims/simple_09_A_d.gif","images/stimuli/spore_stims/simple_17_B_a.gif","","","","","8","simple_dissimilar","images/stimuli/spore_stims/simple_17_B_a.gif","middle","","","","",""
"","null","html-keyboard-response","156","371837","0.0-32.0-0.2","SS1613080648391","","","null","","","","","<p><img src= images/blank.png width =""200"" height = ""200"" style = ""float:right""></p><p><img src=images/blank.png width =""800"" height = ""200""></p>","","","","","","","","","","","",""
"","423.5749999989057","sequential-stimulus-presentation","157","373067","0.0-32.0-1.2","SS1613080648391","trial","","40","800","1223.5749999989057","images/stimuli/spore_stims/simple_09_A_d.gif","images/stimuli/spore_stims/simple_17_B_a.gif","","","","","8","simple_dissimilar","images/stimuli/spore_stims/simple_17_B_a.gif","middle","","","","",""
"","null","html-keyboard-response","158","374143","0.0-32.0-0.3","SS1613080648391","","","null","","","","","<p><img src= images/blank.png width =""200"" height = ""200"" style = ""float:right""></p><p><img src=images/blank.png width =""800"" height = ""200""></p>","","","","","","","","","","","",""
"","389.02500000037253","sequential-stimulus-presentation","159","375348","0.0-32.0-1.3","SS1613080648391","trial","","40","800","1189.0250000003725","images/stimuli/spore_stims/simple_09_A_d.gif","images/stimuli/spore_stims/simple_17_B_a.gif","","","","","8","simple_dissimilar","images/stimuli/spore_stims/simple_17_B_a.gif","middle","","","","",""
"","null","html-keyboard-response","160","376464","0.0-32.0-0.4","SS1613080648391","","","null","","","","","<p><img src= images/blank.png width =""200"" height = ""200"" style = ""float:right""></p><p><img src=images/blank.png width =""800"" height = ""200""></p>","","","","","","","","","","","",""
"","532.8750000007567","sequential-stimulus-presentation","161","377819","0.0-32.0-1.4","SS1613080648391","trial","","40","800","1332.8750000007567","images/stimuli/spore_stims/simple_09_A_d.gif","images/stimuli/spore_stims/simple_17_B_a.gif","","","","","8","simple_dissimilar","images/stimuli/spore_stims/simple_17_B_a.gif","middle","","","","",""
"","null","html-keyboard-response","162","378729","0.0-32.0-0.5","SS1613080648391","","","null","","","","","<p><img src= images/blank.png width =""200"" height = ""200"" style = ""float:right""></p><p><img src=images/blank.png width =""800"" height = ""200""></p>","","","","","","","","","","","",""
"","1140.5500000001048","sequential-stimulus-presentation","163","380695","0.0-32.0-1.5","SS1613080648391","trial","","40","800","1940.5500000001048","images/stimuli/spore_stims/simple_09_A_d.gif","images/stimuli/spore_stims/simple_17_B_a.gif","","","","","8","simple_dissimilar","images/stimuli/spore_stims/simple_09_A_d.gif","left","","","","",""
"","null","html-keyboard-response","164","381801","0.0-32.0-0.6","SS1613080648391","","","null","","","","","<p><img src= images/blank.png width =""200"" height = ""200"" style = ""float:right""></p><p><img src=images/blank.png width =""800"" height = ""200""></p>","","","","","","","","","","","",""
"","327.19499999989057","sequential-stimulus-presentation","165","382948","0.0-32.0-1.6","SS1613080648391","trial","","40","800","1127.1949999998906","images/stimuli/spore_stims/simple_09_A_d.gif","images/stimuli/spore_stims/simple_17_B_a.gif","","","","","8","simple_dissimilar","images/stimuli/spore_stims/simple_17_B_a.gif","middle","","","","",""
"","null","html-keyboard-response","166","383931","0.0-32.0-0.7","SS1613080648391","","","null","","","","","<p><img src= images/blank.png width =""200"" height = ""200"" style = ""float:right""></p><p><img src=images/blank.png width =""800"" height = ""200""></p>","","","","","","","","","","","",""
"","370.81500000023516","sequential-stimulus-presentation","167","385147","0.0-32.0-1.7","SS1613080648391","trial","","40","800","1170.8150000002352","images/stimuli/spore_stims/simple_09_A_d.gif","images/stimuli/spore_stims/simple_17_B_a.gif","","","","","8","simple_dissimilar","images/stimuli/spore_stims/simple_17_B_a.gif","middle","","","","",""
"","2116.4399999997695","html-keyboard-response","168","387270","0.0-33.0","SS1613080648391","pref_question","","99","","","","","<video width ='960' height = '540' style='padding-top:8%' autoplay muted><source src='images/stimuli/wall_pref.mp4' type='video/mp4'></video>","3","right","66%","8","","","","","","","",""
"","1505.100000000326","sequential-stimulus-presentation","169","389595","0.0-34.0","SS1613080648391","pref_reveal","","40","800","2305.100000000326","null","null","","","","","8","","","","novel","","","",""
"","null","html-keyboard-response","170","390858","0.0-35.0-0.0","SS1613080648391","","","null","","","","","<p><img src= images/blank.png width =""200"" height = ""200"" style = ""float:right""></p><p><img src=images/blank.png width =""800"" height = ""200""></p>","","","","","","","","","","","",""
"","394.0650000004098","sequential-stimulus-presentation","171","392059","0.0-35.0-1.0","SS1613080648391","trial","","40","800","1194.0650000004098","images/stimuli/spore_stims/complex_01_A_b.gif","images/stimuli/spore_stims/complex_06_B_c.gif","","","","","9","complex_dissimilar","images/stimuli/spore_stims/complex_06_B_c.gif","middle","","","","",""
"","null","html-keyboard-response","172","392935","0.0-35.0-0.1","SS1613080648391","","","null","","","","","<p><img src= images/blank.png width =""200"" height = ""200"" style = ""float:right""></p><p><img src=images/blank.png width =""800"" height = ""200""></p>","","","","","","","","","","","",""
"","4598.125000000407","sequential-stimulus-presentation","173","398348","0.0-35.0-1.1","SS1613080648391","trial","","40","800","5398.125000000407","images/stimuli/spore_stims/complex_01_A_b.gif","images/stimuli/spore_stims/complex_06_B_c.gif","","","","","9","complex_dissimilar","images/stimuli/spore_stims/complex_06_B_c.gif","middle","","","","",""
"","null","html-keyboard-response","174","399455","0.0-35.0-0.2","SS1613080648391","","","null","","","","","<p><img src= images/blank.png width =""200"" height = ""200"" style = ""float:right""></p><p><img src=images/blank.png width =""800"" height = ""200""></p>","","","","","","","","","","","",""
"","705.2800000001444","sequential-stimulus-presentation","175","400979","0.0-35.0-1.2","SS1613080648391","trial","","40","800","1505.2800000001444","images/stimuli/spore_stims/complex_01_A_b.gif","images/stimuli/spore_stims/complex_06_B_c.gif","","","","","9","complex_dissimilar","images/stimuli/spore_stims/complex_06_B_c.gif","middle","","","","",""
"","null","html-keyboard-response","176","402005","0.0-35.0-0.3","SS1613080648391","","","null","","","","","<p><img src= images/blank.png width =""200"" height = ""200"" style = ""float:right""></p><p><img src=images/blank.png width =""800"" height = ""200""></p>","","","","","","","","","","","",""
"","384.0600000002887","sequential-stimulus-presentation","177","403195","0.0-35.0-1.3","SS1613080648391","trial","","40","800","1184.0600000002887","images/stimuli/spore_stims/complex_01_A_b.gif","images/stimuli/spore_stims/complex_06_B_c.gif","","","","","9","complex_dissimilar","images/stimuli/spore_stims/complex_06_B_c.gif","middle","","","","",""
"","null","html-keyboard-response","178","404247","0.0-35.0-0.4","SS1613080648391","","","null","","","","","<p><img src= images/blank.png width =""200"" height = ""200"" style = ""float:right""></p><p><img src=images/blank.png width =""800"" height = ""200""></p>","","","","","","","","","","","",""
"","341.51000000018394","sequential-stimulus-presentation","179","405403","0.0-35.0-1.4","SS1613080648391","trial","","40","800","1141.510000000184","images/stimuli/spore_stims/complex_01_A_b.gif","images/stimuli/spore_stims/complex_06_B_c.gif","","","","","9","complex_dissimilar","images/stimuli/spore_stims/complex_06_B_c.gif","middle","","","","",""
"","null","html-keyboard-response","180","406457","0.0-35.0-0.5","SS1613080648391","","","null","","","","","<p><img src= images/blank.png width =""200"" height = ""200"" style = ""float:right""></p><p><img src=images/blank.png width =""800"" height = ""200""></p>","","","","","","","","","","","",""
"","345.33499999996275","sequential-stimulus-presentation","181","407619","0.0-35.0-1.5","SS1613080648391","trial","","40","800","1145.3349999999627","images/stimuli/spore_stims/complex_01_A_b.gif","images/stimuli/spore_stims/complex_06_B_c.gif","","","","","9","complex_dissimilar","images/stimuli/spore_stims/complex_06_B_c.gif","middle","","","","",""
"","null","html-keyboard-response","182","408626","0.0-35.0-0.6","SS1613080648391","","","null","","","","","<p><img src= images/blank.png width =""200"" height = ""200"" style = ""float:right""></p><p><img src=images/blank.png width =""800"" height = ""200""></p>","","","","","","","","","","","",""
"","2578.4700000004377","sequential-stimulus-presentation","183","412011","0.0-35.0-1.6","SS1613080648391","trial","","40","800","3378.4700000004377","images/stimuli/spore_stims/complex_01_A_b.gif","images/stimuli/spore_stims/complex_06_B_c.gif","","","","","9","complex_dissimilar","images/stimuli/spore_stims/complex_01_A_b.gif","right","","","","",""
"","null","html-keyboard-response","184","412872","0.0-35.0-0.7","SS1613080648391","","","null","","","","","<p><img src= images/blank.png width =""200"" height = ""200"" style = ""float:right""></p><p><img src=images/blank.png width =""800"" height = ""200""></p>","","","","","","","","","","","",""
"","353.60000000032596","sequential-stimulus-presentation","185","414043","0.0-35.0-1.7","SS1613080648391","trial","","40","800","1153.600000000326","images/stimuli/spore_stims/complex_01_A_b.gif","images/stimuli/spore_stims/complex_06_B_c.gif","","","","","9","complex_dissimilar","images/stimuli/spore_stims/complex_06_B_c.gif","middle","","","","",""
"","1344.6000000003842","html-keyboard-response","186","415395","0.0-36.0","SS1613080648391","pref_question","","97","","","","","<video width ='960' height = '540' style='padding-top:8%' autoplay muted><source src='images/stimuli/wall_pref.mp4' type='video/mp4'></video>","1","left","25%","9","","","","","","","",""
"","5290.175000000105","sequential-stimulus-presentation","187","421492","0.0-37.0","SS1613080648391","pref_reveal","","40","800","6090.175000000105","null","null","","","","","9","","","","novel","","","",""
"","null","html-keyboard-response","188","422311","0.0-38.0-0.0","SS1613080648391","","","null","","","","","<p><img src= images/blank.png width =""200"" height = ""200"" style = ""float:right""></p><p><img src=images/blank.png width =""800"" height = ""200""></p>","","","","","","","","","","","",""
"","1888.0349999999162","sequential-stimulus-presentation","189","425019","0.0-38.0-1.0","SS1613080648391","trial","","40","800","2688.034999999916","images/stimuli/spore_stims/simple_01_A_d.gif","images/stimuli/spore_stims/simple_01_B_d.gif","","","","","10","simple_similar","images/stimuli/spore_stims/simple_01_B_d.gif","left","","","","",""
"","null","html-keyboard-response","190","426313","0.0-38.0-0.1","SS1613080648391","","","null","","","","","<p><img src= images/blank.png width =""200"" height = ""200"" style = ""float:right""></p><p><img src=images/blank.png width =""800"" height = ""200""></p>","","","","","","","","","","","",""
"","362.6850000000559","sequential-stimulus-presentation","191","427484","0.0-38.0-1.1","SS1613080648391","trial","","40","800","1162.6850000000559","images/stimuli/spore_stims/simple_01_A_d.gif","images/stimuli/spore_stims/simple_01_B_d.gif","","","","","10","simple_similar","images/stimuli/spore_stims/simple_01_B_d.gif","left","","","","",""
"","null","html-keyboard-response","192","428549","0.0-38.0-0.2","SS1613080648391","","","null","","","","","<p><img src= images/blank.png width =""200"" height = ""200"" style = ""float:right""></p><p><img src=images/blank.png width =""800"" height = ""200""></p>","","","","","","","","","","","",""
"","518.7000000005355","sequential-stimulus-presentation","193","429883","0.0-38.0-1.2","SS1613080648391","trial","","40","800","1318.7000000005355","images/stimuli/spore_stims/simple_01_A_d.gif","images/stimuli/spore_stims/simple_01_B_d.gif","","","","","10","simple_similar","images/stimuli/spore_stims/simple_01_B_d.gif","left","","","","",""
"","null","html-keyboard-response","194","430781","0.0-38.0-0.3","SS1613080648391","","","null","","","","","<p><img src= images/blank.png width =""200"" height = ""200"" style = ""float:right""></p><p><img src=images/blank.png width =""800"" height = ""200""></p>","","","","","","","","","","","",""
"","540.9099999996834","sequential-stimulus-presentation","195","432147","0.0-38.0-1.3","SS1613080648391","trial","","40","800","1340.9099999996834","images/stimuli/spore_stims/simple_01_A_d.gif","images/stimuli/spore_stims/simple_01_B_d.gif","","","","","10","simple_similar","images/stimuli/spore_stims/simple_01_B_d.gif","left","","","","",""
"","null","html-keyboard-response","196","433172","0.0-38.0-0.4","SS1613080648391","","","null","","","","","<p><img src= images/blank.png width =""200"" height = ""200"" style = ""float:right""></p><p><img src=images/blank.png width =""800"" height = ""200""></p>","","","","","","","","","","","",""
"","809.655000000901","sequential-stimulus-presentation","197","434788","0.0-38.0-1.4","SS1613080648391","trial","","40","800","1609.655000000901","images/stimuli/spore_stims/simple_01_A_d.gif","images/stimuli/spore_stims/simple_01_B_d.gif","","","","","10","simple_similar","images/stimuli/spore_stims/simple_01_A_d.gif","middle","","","","",""
"","null","html-keyboard-response","198","435773","0.0-38.0-0.5","SS1613080648391","","","null","","","","","<p><img src= images/blank.png width =""200"" height = ""200"" style = ""float:right""></p><p><img src=images/blank.png width =""800"" height = ""200""></p>","","","","","","","","","","","",""
"","375.6899999988964","sequential-stimulus-presentation","199","436957","0.0-38.0-1.5","SS1613080648391","trial","","40","800","1175.6899999988964","images/stimuli/spore_stims/simple_01_A_d.gif","images/stimuli/spore_stims/simple_01_B_d.gif","","","","","10","simple_similar","images/stimuli/spore_stims/simple_01_B_d.gif","left","","","","",""
"","null","html-keyboard-response","200","437864","0.0-38.0-0.6","SS1613080648391","","","null","","","","","<p><img src= images/blank.png width =""200"" height = ""200"" style = ""float:right""></p><p><img src=images/blank.png width =""800"" height = ""200""></p>","","","","","","","","","","","",""
"","377.50000000046566","sequential-stimulus-presentation","201","439068","0.0-38.0-1.6","SS1613080648391","trial","","40","800","1177.5000000004657","images/stimuli/spore_stims/simple_01_A_d.gif","images/stimuli/spore_stims/simple_01_B_d.gif","","","","","10","simple_similar","images/stimuli/spore_stims/simple_01_B_d.gif","left","","","","",""
"","null","html-keyboard-response","202","440131","0.0-38.0-0.7","SS1613080648391","","","null","","","","","<p><img src= images/blank.png width =""200"" height = ""200"" style = ""float:right""></p><p><img src=images/blank.png width =""800"" height = ""200""></p>","","","","","","","","","","","",""
"","480.35499999969034","sequential-stimulus-presentation","203","441419","0.0-38.0-1.7","SS1613080648391","trial","","40","800","1280.3549999996903","images/stimuli/spore_stims/simple_01_A_d.gif","images/stimuli/spore_stims/simple_01_B_d.gif","","","","","10","simple_similar","images/stimuli/spore_stims/simple_01_B_d.gif","left","","","","",""
"","1718.9149999994552","html-keyboard-response","204","443147","0.0-39.0","SS1613080648391","pref_question","","98","","","","","<video width ='960' height = '540' style='padding-top:8%' autoplay muted><source src='images/stimuli/wall_pref.mp4' type='video/mp4'></video>","2","middle","45%","10","","","","","","","",""
"","3540.5099999989034","sequential-stimulus-presentation","205","447503","0.0-40.0","SS1613080648391","pref_reveal","","40","800","4340.509999998903","null","null","","","","","10","","","","deviant","","","",""
"","null","html-keyboard-response","206","448739","0.0-41.0-0.0","SS1613080648391","","","null","","","","","<p><img src= images/blank.png width =""200"" height = ""200"" style = ""float:right""></p><p><img src=images/blank.png width =""800"" height = ""200""></p>","","","","","","","","","","","",""
"","4963.874999999476","sequential-stimulus-presentation","207","454522","0.0-41.0-1.0","SS1613080648391","trial","","40","800","5763.874999999476","images/stimuli/spore_stims/simple_11_B_a.gif","images/stimuli/spore_stims/simple_08_B_d.gif","","","","","11","simple_dissimilar","images/stimuli/spore_stims/simple_08_B_d.gif","middle","","","","",""
"","null","html-keyboard-response","208","455659","0.0-41.0-0.1","SS1613080648391","","","null","","","","","<p><img src= images/blank.png width =""200"" height = ""200"" style = ""float:right""></p><p><img src=images/blank.png width =""800"" height = ""200""></p>","","","","","","","","","","","",""
"","72.13000000047032","sequential-stimulus-presentation","209","456540","0.0-41.0-1.1","SS1613080648391","trial","","40","800","872.1300000004703","images/stimuli/spore_stims/simple_11_B_a.gif","images/stimuli/spore_stims/simple_08_B_d.gif","","","","","11","simple_dissimilar","images/stimuli/spore_stims/simple_08_B_d.gif","middle","","","","",""
"","null","html-keyboard-response","210","457739","0.0-41.0-0.2","SS1613080648391","","","null","","","","","<p><img src= images/blank.png width =""200"" height = ""200"" style = ""float:right""></p><p><img src=images/blank.png width =""800"" height = ""200""></p>","","","","","","","","","","","",""
"","17.920000000216532","sequential-stimulus-presentation","211","458564","0.0-41.0-1.2","SS1613080648391","trial","","40","800","817.9200000002165","images/stimuli/spore_stims/simple_11_B_a.gif","images/stimuli/spore_stims/simple_08_B_d.gif","","","","","11","simple_dissimilar","images/stimuli/spore_stims/simple_08_B_d.gif","middle","","","","",""
"","null","html-keyboard-response","212","459634","0.0-41.0-0.3","SS1613080648391","","","null","","","","","<p><img src= images/blank.png width =""200"" height = ""200"" style = ""float:right""></p><p><img src=images/blank.png width =""800"" height = ""200""></p>","","","","","","","","","","","",""
"","470.7849999995087","sequential-stimulus-presentation","213","460916","0.0-41.0-1.3","SS1613080648391","trial","","40","800","1270.7849999995087","images/stimuli/spore_stims/simple_11_B_a.gif","images/stimuli/spore_stims/simple_08_B_d.gif","","","","","11","simple_dissimilar","images/stimuli/spore_stims/simple_08_B_d.gif","middle","","","","",""
"","null","html-keyboard-response","214","462203","0.0-41.0-0.4","SS1613080648391","","","null","","","","","<p><img src= images/blank.png width =""200"" height = ""200"" style = ""float:right""></p><p><img src=images/blank.png width =""800"" height = ""200""></p>","","","","","","","","","","","",""
"","382.57999999949243","sequential-stimulus-presentation","215","463411","0.0-41.0-1.4","SS1613080648391","trial","","40","800","1182.5799999994924","images/stimuli/spore_stims/simple_11_B_a.gif","images/stimuli/spore_stims/simple_08_B_d.gif","","","","","11","simple_dissimilar","images/stimuli/spore_stims/simple_08_B_d.gif","middle","","","","",""
"","null","html-keyboard-response","216","464264","0.0-41.0-0.5","SS1613080648391","","","null","","","","","<p><img src= images/blank.png width =""200"" height = ""200"" style = ""float:right""></p><p><img src=images/blank.png width =""800"" height = ""200""></p>","","","","","","","","","","","",""
"","438.5899999997928","sequential-stimulus-presentation","217","465538","0.0-41.0-1.5","SS1613080648391","trial","","40","800","1238.5899999997928","images/stimuli/spore_stims/simple_11_B_a.gif","images/stimuli/spore_stims/simple_08_B_d.gif","","","","","11","simple_dissimilar","images/stimuli/spore_stims/simple_08_B_d.gif","middle","","","","",""
"","null","html-keyboard-response","218","466673","0.0-41.0-0.6","SS1613080648391","","","null","","","","","<p><img src= images/blank.png width =""200"" height = ""200"" style = ""float:right""></p><p><img src=images/blank.png width =""800"" height = ""200""></p>","","","","","","","","","","","",""
"","441.4500000002445","sequential-stimulus-presentation","219","467922","0.0-41.0-1.6","SS1613080648391","trial","","40","800","1241.4500000002445","images/stimuli/spore_stims/simple_11_B_a.gif","images/stimuli/spore_stims/simple_08_B_d.gif","","","","","11","simple_dissimilar","images/stimuli/spore_stims/simple_08_B_d.gif","middle","","","","",""
"","null","html-keyboard-response","220","469097","0.0-41.0-0.7","SS1613080648391","","","null","","","","","<p><img src= images/blank.png width =""200"" height = ""200"" style = ""float:right""></p><p><img src=images/blank.png width =""800"" height = ""200""></p>","","","","","","","","","","","",""
"","1176.6299999998882","sequential-stimulus-presentation","221","471085","0.0-41.0-1.7","SS1613080648391","trial","","40","800","1976.6299999998882","images/stimuli/spore_stims/simple_11_B_a.gif","images/stimuli/spore_stims/simple_08_B_d.gif","","","","","11","simple_dissimilar","images/stimuli/spore_stims/simple_11_B_a.gif","right","","","","",""
"","2103.6050000002724","html-keyboard-response","222","473206","0.0-42.0","SS1613080648391","pref_question","","97","","","","","<video width ='960' height = '540' style='padding-top:8%' autoplay muted><source src='images/stimuli/wall_pref.mp4' type='video/mp4'></video>","1","left","25%","11","","","","","","","",""
"","10157.31500000041","sequential-stimulus-presentation","223","484195","0.0-43.0","SS1613080648391","pref_reveal","","40","800","10957.31500000041","null","null","","","","","11","","","","novel","","","",""
"","null","html-keyboard-response","224","485496","0.0-44.0-0.0","SS1613080648391","","","null","","","","","<p><img src= images/blank.png width =""200"" height = ""200"" style = ""float:right""></p><p><img src=images/blank.png width =""800"" height = ""200""></p>","","","","","","","","","","","",""
"","6064.890000001469","sequential-stimulus-presentation","225","492372","0.0-44.0-1.0","SS1613080648391","trial","","40","800","6864.890000001469","images/stimuli/spore_stims/complex_03_B_b.gif","images/stimuli/spore_stims/complex_19_A_a.gif","","","","","12","complex_dissimilar","images/stimuli/spore_stims/complex_19_A_a.gif","right","","","","",""
"","null","html-keyboard-response","226","493206","0.0-44.0-0.1","SS1613080648391","","","null","","","","","<p><img src= images/blank.png width =""200"" height = ""200"" style = ""float:right""></p><p><img src=images/blank.png width =""800"" height = ""200""></p>","","","","","","","","","","","",""
"","1327.9699999984587","sequential-stimulus-presentation","227","495347","0.0-44.0-1.1","SS1613080648391","trial","","40","800","2127.9699999984587","images/stimuli/spore_stims/complex_03_B_b.gif","images/stimuli/spore_stims/complex_19_A_a.gif","","","","","12","complex_dissimilar","images/stimuli/spore_stims/complex_19_A_a.gif","right","","","","",""
"","null","html-keyboard-response","228","496501","0.0-44.0-0.2","SS1613080648391","","","null","","","","","<p><img src= images/blank.png width =""200"" height = ""200"" style = ""float:right""></p><p><img src=images/blank.png width =""800"" height = ""200""></p>","","","","","","","","","","","",""
"","585.2999999988242","sequential-stimulus-presentation","229","497907","0.0-44.0-1.2","SS1613080648391","trial","","40","800","1385.2999999988242","images/stimuli/spore_stims/complex_03_B_b.gif","images/stimuli/spore_stims/complex_19_A_a.gif","","","","","12","complex_dissimilar","images/stimuli/spore_stims/complex_19_A_a.gif","right","","","","",""
"","null","html-keyboard-response","230","498815","0.0-44.0-0.3","SS1613080648391","","","null","","","","","<p><img src= images/blank.png width =""200"" height = ""200"" style = ""float:right""></p><p><img src=images/blank.png width =""800"" height = ""200""></p>","","","","","","","","","","","",""
"","1960.114999999816","sequential-stimulus-presentation","231","501595","0.0-44.0-1.3","SS1613080648391","trial","","40","800","2760.114999999816","images/stimuli/spore_stims/complex_03_B_b.gif","images/stimuli/spore_stims/complex_19_A_a.gif","","","","","12","complex_dissimilar","images/stimuli/spore_stims/complex_03_B_b.gif","left","","","","",""
"","null","html-keyboard-response","232","502880","0.0-44.0-0.4","SS1613080648391","","","null","","","","","<p><img src= images/blank.png width =""200"" height = ""200"" style = ""float:right""></p><p><img src=images/blank.png width =""800"" height = ""200""></p>","","","","","","","","","","","",""
"","957.1149999992922","sequential-stimulus-presentation","233","504658","0.0-44.0-1.4","SS1613080648391","trial","","40","800","1757.1149999992922","images/stimuli/spore_stims/complex_03_B_b.gif","images/stimuli/spore_stims/complex_19_A_a.gif","","","","","12","complex_dissimilar","images/stimuli/spore_stims/complex_19_A_a.gif","right","","","","",""
"","null","html-keyboard-response","234","505484","0.0-44.0-0.5","SS1613080648391","","","null","","","","","<p><img src= images/blank.png width =""200"" height = ""200"" style = ""float:right""></p><p><img src=images/blank.png width =""800"" height = ""200""></p>","","","","","","","","","","","",""
"","750.2549999990733","sequential-stimulus-presentation","235","507042","0.0-44.0-1.5","SS1613080648391","trial","","40","800","1550.2549999990733","images/stimuli/spore_stims/complex_03_B_b.gif","images/stimuli/spore_stims/complex_19_A_a.gif","","","","","12","complex_dissimilar","images/stimuli/spore_stims/complex_19_A_a.gif","right","","","","",""
"","null","html-keyboard-response","236","508120","0.0-44.0-0.6","SS1613080648391","","","null","","","","","<p><img src= images/blank.png width =""200"" height = ""200"" style = ""float:right""></p><p><img src=images/blank.png width =""800"" height = ""200""></p>","","","","","","","","","","","",""
"","418.65499999944586","sequential-stimulus-presentation","237","509354","0.0-44.0-1.6","SS1613080648391","trial","","40","800","1218.6549999994459","images/stimuli/spore_stims/complex_03_B_b.gif","images/stimuli/spore_stims/complex_19_A_a.gif","","","","","12","complex_dissimilar","images/stimuli/spore_stims/complex_19_A_a.gif","right","","","","",""
"","null","html-keyboard-response","238","510610","0.0-44.0-0.7","SS1613080648391","","","null","","","","","<p><img src= images/blank.png width =""200"" height = ""200"" style = ""float:right""></p><p><img src=images/blank.png width =""800"" height = ""200""></p>","","","","","","","","","","","",""
"","897.4100000014296","sequential-stimulus-presentation","239","512316","0.0-44.0-1.7","SS1613080648391","trial","","40","800","1697.4100000014296","images/stimuli/spore_stims/complex_03_B_b.gif","images/stimuli/spore_stims/complex_19_A_a.gif","","","","","12","complex_dissimilar","images/stimuli/spore_stims/complex_19_A_a.gif","right","","","","",""
"","1385.7349999998696","html-keyboard-response","240","513739","0.0-45.0","SS1613080648391","pref_question","","98","","","","","<video width ='960' height = '540' style='padding-top:8%' autoplay muted><source src='images/stimuli/wall_pref.mp4' type='video/mp4'></video>","2","middle","45%","12","","","","","","","",""
"","6719.694999999832","sequential-stimulus-presentation","241","521276","0.0-46.0","SS1613080648391","pref_reveal","","40","800","7519.694999999832","null","null","","","","","12","","","","novel","","","",""
"","null","html-keyboard-response","242","522322","0.0-47.0-0.0","SS1613080648391","","","null","","","","","<p><img src= images/blank.png width =""200"" height = ""200"" style = ""float:right""></p><p><img src=images/blank.png width =""800"" height = ""200""></p>","","","","","","","","","","","",""
"","5572.640000000247","sequential-stimulus-presentation","243","528714","0.0-47.0-1.0","SS1613080648391","trial","","40","800","6372.640000000247","images/stimuli/spore_stims/complex_13_B_d.gif","images/stimuli/spore_stims/complex_13_A_d.gif","","","","","13","complex_similar","images/stimuli/spore_stims/complex_13_A_d.gif","left","","","","",""
"","null","html-keyboard-response","244","529557","0.0-47.0-0.1","SS1613080648391","","","null","","","","","<p><img src= images/blank.png width =""200"" height = ""200"" style = ""float:right""></p><p><img src=images/blank.png width =""800"" height = ""200""></p>","","","","","","","","","","","",""
"","1262.2599999995437","sequential-stimulus-presentation","245","531643","0.0-47.0-1.1","SS1613080648391","trial","","40","800","2062.2599999995437","images/stimuli/spore_stims/complex_13_B_d.gif","images/stimuli/spore_stims/complex_13_A_d.gif","","","","","13","complex_similar","images/stimuli/spore_stims/complex_13_A_d.gif","left","","","","",""
"","null","html-keyboard-response","246","532828","0.0-47.0-0.2","SS1613080648391","","","null","","","","","<p><img src= images/blank.png width =""200"" height = ""200"" style = ""float:right""></p><p><img src=images/blank.png width =""800"" height = ""200""></p>","","","","","","","","","","","",""
"","934.4749999999767","sequential-stimulus-presentation","247","534579","0.0-47.0-1.2","SS1613080648391","trial","","40","800","1734.4749999999767","images/stimuli/spore_stims/complex_13_B_d.gif","images/stimuli/spore_stims/complex_13_A_d.gif","","","","","13","complex_similar","images/stimuli/spore_stims/complex_13_A_d.gif","left","","","","",""
"","null","html-keyboard-response","248","535809","0.0-47.0-0.3","SS1613080648391","","","null","","","","","<p><img src= images/blank.png width =""200"" height = ""200"" style = ""float:right""></p><p><img src=images/blank.png width =""800"" height = ""200""></p>","","","","","","","","","","","",""
"","877.8700000002282","sequential-stimulus-presentation","249","537508","0.0-47.0-1.3","SS1613080648391","trial","","40","800","1677.8700000002282","images/stimuli/spore_stims/complex_13_B_d.gif","images/stimuli/spore_stims/complex_13_A_d.gif","","","","","13","complex_similar","images/stimuli/spore_stims/complex_13_A_d.gif","left","","","","",""
"","null","html-keyboard-response","250","538490","0.0-47.0-0.4","SS1613080648391","","","null","","","","","<p><img src= images/blank.png width =""200"" height = ""200"" style = ""float:right""></p><p><img src=images/blank.png width =""800"" height = ""200""></p>","","","","","","","","","","","",""
"","667.8200000005309","sequential-stimulus-presentation","251","539979","0.0-47.0-1.4","SS1613080648391","trial","","40","800","1467.8200000005309","images/stimuli/spore_stims/complex_13_B_d.gif","images/stimuli/spore_stims/complex_13_A_d.gif","","","","","13","complex_similar","images/stimuli/spore_stims/complex_13_A_d.gif","left","","","","",""
"","null","html-keyboard-response","252","540802","0.0-47.0-0.5","SS1613080648391","","","null","","","","","<p><img src= images/blank.png width =""200"" height = ""200"" style = ""float:right""></p><p><img src=images/blank.png width =""800"" height = ""200""></p>","","","","","","","","","","","",""
"","942.7450000002282","sequential-stimulus-presentation","253","542563","0.0-47.0-1.5","SS1613080648391","trial","","40","800","1742.7450000002282","images/stimuli/spore_stims/complex_13_B_d.gif","images/stimuli/spore_stims/complex_13_A_d.gif","","","","","13","complex_similar","images/stimuli/spore_stims/complex_13_B_d.gif","middle","","","","",""
"","null","html-keyboard-response","254","543616","0.0-47.0-0.6","SS1613080648391","","","null","","","","","<p><img src= images/blank.png width =""200"" height = ""200"" style = ""float:right""></p><p><img src=images/blank.png width =""800"" height = ""200""></p>","","","","","","","","","","","",""
"","538.8600000005681","sequential-stimulus-presentation","255","544962","0.0-47.0-1.6","SS1613080648391","trial","","40","800","1338.860000000568","images/stimuli/spore_stims/complex_13_B_d.gif","images/stimuli/spore_stims/complex_13_A_d.gif","","","","","13","complex_similar","images/stimuli/spore_stims/complex_13_A_d.gif","left","","","","",""
"","null","html-keyboard-response","256","545813","0.0-47.0-0.7","SS1613080648391","","","null","","","","","<p><img src= images/blank.png width =""200"" height = ""200"" style = ""float:right""></p><p><img src=images/blank.png width =""800"" height = ""200""></p>","","","","","","","","","","","",""
"","478.15500000072643","sequential-stimulus-presentation","257","547114","0.0-47.0-1.7","SS1613080648391","trial","","40","800","1278.1550000007264","images/stimuli/spore_stims/complex_13_B_d.gif","images/stimuli/spore_stims/complex_13_A_d.gif","","","","","13","complex_similar","images/stimuli/spore_stims/complex_13_A_d.gif","left","","","","",""
"","1551.5150000009453","html-keyboard-response","258","548684","0.0-48.0","SS1613080648391","pref_question","","99","","","","","<video width ='960' height = '540' style='padding-top:8%' autoplay muted><source src='images/stimuli/wall_pref.mp4' type='video/mp4'></video>","3","right","66%","13","","","","","","","",""
"","5482.0550000004005","sequential-stimulus-presentation","259","554995","0.0-49.0","SS1613080648391","pref_reveal","","40","800","6282.0550000004005","null","null","","","","","13","","","","novel","","","",""
"","null","html-keyboard-response","260","556094","0.0-50.0-0.0","SS1613080648391","","","null","","","","","<p><img src= images/blank.png width =""200"" height = ""200"" style = ""float:right""></p><p><img src=images/blank.png width =""800"" height = ""200""></p>","","","","","","","","","","","",""
"","8627.49999999872","sequential-stimulus-presentation","261","565532","0.0-50.0-1.0","SS1613080648391","trial","","40","800","9427.49999999872","images/stimuli/spore_stims/complex_17_A_a.gif","images/stimuli/spore_stims/complex_17_B_a.gif","","","","","14","complex_similar","images/stimuli/spore_stims/complex_17_B_a.gif","right","","","","",""
"","null","html-keyboard-response","262","566603","0.0-50.0-0.1","SS1613080648391","","","null","","","","","<p><img src= images/blank.png width =""200"" height = ""200"" style = ""float:right""></p><p><img src=images/blank.png width =""800"" height = ""200""></p>","","","","","","","","","","","",""
"","627.819999999716","sequential-stimulus-presentation","263","568042","0.0-50.0-1.1","SS1613080648391","trial","","40","800","1427.819999999716","images/stimuli/spore_stims/complex_17_A_a.gif","images/stimuli/spore_stims/complex_17_B_a.gif","","","","","14","complex_similar","images/stimuli/spore_stims/complex_17_B_a.gif","right","","","","",""
"","null","html-keyboard-response","264","568990","0.0-50.0-0.2","SS1613080648391","","","null","","","","","<p><img src= images/blank.png width =""200"" height = ""200"" style = ""float:right""></p><p><img src=images/blank.png width =""800"" height = ""200""></p>","","","","","","","","","","","",""
"","770.0000000004657","sequential-stimulus-presentation","265","570581","0.0-50.0-1.2","SS1613080648391","trial","","40","800","1570.0000000004657","images/stimuli/spore_stims/complex_17_A_a.gif","images/stimuli/spore_stims/complex_17_B_a.gif","","","","","14","complex_similar","images/stimuli/spore_stims/complex_17_B_a.gif","right","","","","",""
"","null","html-keyboard-response","266","571712","0.0-50.0-0.3","SS1613080648391","","","null","","","","","<p><img src= images/blank.png width =""200"" height = ""200"" style = ""float:right""></p><p><img src=images/blank.png width =""800"" height = ""200""></p>","","","","","","","","","","","",""
"","2218.1399999990826","sequential-stimulus-presentation","267","574747","0.0-50.0-1.3","SS1613080648391","trial","","40","800","3018.1399999990826","images/stimuli/spore_stims/complex_17_A_a.gif","images/stimuli/spore_stims/complex_17_B_a.gif","","","","","14","complex_similar","images/stimuli/spore_stims/complex_17_B_a.gif","right","","","","",""
"","null","html-keyboard-response","268","575674","0.0-50.0-0.4","SS1613080648391","","","null","","","","","<p><img src= images/blank.png width =""200"" height = ""200"" style = ""float:right""></p><p><img src=images/blank.png width =""800"" height = ""200""></p>","","","","","","","","","","","",""
"","2176.550000000163","sequential-stimulus-presentation","269","578667","0.0-50.0-1.4","SS1613080648391","trial","","40","800","2976.550000000163","images/stimuli/spore_stims/complex_17_A_a.gif","images/stimuli/spore_stims/complex_17_B_a.gif","","","","","14","complex_similar","images/stimuli/spore_stims/complex_17_B_a.gif","right","","","","",""
"","null","html-keyboard-response","270","579608","0.0-50.0-0.5","SS1613080648391","","","null","","","","","<p><img src= images/blank.png width =""200"" height = ""200"" style = ""float:right""></p><p><img src=images/blank.png width =""800"" height = ""200""></p>","","","","","","","","","","","",""
"","906.4249999992317","sequential-stimulus-presentation","271","581332","0.0-50.0-1.5","SS1613080648391","trial","","40","800","1706.4249999992317","images/stimuli/spore_stims/complex_17_A_a.gif","images/stimuli/spore_stims/complex_17_B_a.gif","","","","","14","complex_similar","images/stimuli/spore_stims/complex_17_A_a.gif","middle","","","","",""
"","null","html-keyboard-response","272","582307","0.0-50.0-0.6","SS1613080648391","","","null","","","","","<p><img src= images/blank.png width =""200"" height = ""200"" style = ""float:right""></p><p><img src=images/blank.png width =""800"" height = ""200""></p>","","","","","","","","","","","",""
"","711.5050000011688","sequential-stimulus-presentation","273","583844","0.0-50.0-1.6","SS1613080648391","trial","","40","800","1511.5050000011688","images/stimuli/spore_stims/complex_17_A_a.gif","images/stimuli/spore_stims/complex_17_B_a.gif","","","","","14","complex_similar","images/stimuli/spore_stims/complex_17_B_a.gif","right","","","","",""
"","null","html-keyboard-response","274","585000","0.0-50.0-0.7","SS1613080648391","","","null","","","","","<p><img src= images/blank.png width =""200"" height = ""200"" style = ""float:right""></p><p><img src=images/blank.png width =""800"" height = ""200""></p>","","","","","","","","","","","",""
"","514.2149999992689","sequential-stimulus-presentation","275","586323","0.0-50.0-1.7","SS1613080648391","trial","","40","800","1314.214999999269","images/stimuli/spore_stims/complex_17_A_a.gif","images/stimuli/spore_stims/complex_17_B_a.gif","","","","","14","complex_similar","images/stimuli/spore_stims/complex_17_B_a.gif","right","","","","",""
"","1364.9249999998137","html-keyboard-response","276","587701","0.0-51.0","SS1613080648391","pref_question","","97","","","","","<video width ='960' height = '540' style='padding-top:8%' autoplay muted><source src='images/stimuli/wall_pref.mp4' type='video/mp4'></video>","1","left","25%","14","","","","","","","",""
"","6226.314999999944","sequential-stimulus-presentation","277","594781","0.0-52.0","SS1613080648391","pref_reveal","","40","800","7026.314999999944","null","null","","","","","14","","","","novel","","","",""
"","null","html-keyboard-response","278","595621","0.0-53.0-0.0","SS1613080648391","","","null","","","","","<p><img src= images/blank.png width =""200"" height = ""200"" style = ""float:right""></p><p><img src=images/blank.png width =""800"" height = ""200""></p>","","","","","","","","","","","",""
"","3079.5049999996554","sequential-stimulus-presentation","279","599515","0.0-53.0-1.0","SS1613080648391","trial","","40","800","3879.5049999996554","images/stimuli/spore_stims/complex_18_B_d.gif","images/stimuli/spore_stims/complex_18_A_d.gif","","","","","15","complex_similar","images/stimuli/spore_stims/complex_18_A_d.gif","middle","","","","",""
"","null","html-keyboard-response","280","600573","0.0-53.0-0.1","SS1613080648391","","","null","","","","","<p><img src= images/blank.png width =""200"" height = ""200"" style = ""float:right""></p><p><img src=images/blank.png width =""800"" height = ""200""></p>","","","","","","","","","","","",""
"","1950.1000000000931","sequential-stimulus-presentation","281","603340","0.0-53.0-1.1","SS1613080648391","trial","","40","800","2750.100000000093","images/stimuli/spore_stims/complex_18_B_d.gif","images/stimuli/spore_stims/complex_18_A_d.gif","","","","","15","complex_similar","images/stimuli/spore_stims/complex_18_A_d.gif","middle","","","","",""
"","null","html-keyboard-response","282","604530","0.0-53.0-0.2","SS1613080648391","","","null","","","","","<p><img src= images/blank.png width =""200"" height = ""200"" style = ""float:right""></p><p><img src=images/blank.png width =""800"" height = ""200""></p>","","","","","","","","","","","",""
"","756.0900000007823","sequential-stimulus-presentation","283","606107","0.0-53.0-1.2","SS1613080648391","trial","","40","800","1556.0900000007823","images/stimuli/spore_stims/complex_18_B_d.gif","images/stimuli/spore_stims/complex_18_A_d.gif","","","","","15","complex_similar","images/stimuli/spore_stims/complex_18_A_d.gif","middle","","","","",""
"","null","html-keyboard-response","284","607389","0.0-53.0-0.3","SS1613080648391","","","null","","","","","<p><img src= images/blank.png width =""200"" height = ""200"" style = ""float:right""></p><p><img src=images/blank.png width =""800"" height = ""200""></p>","","","","","","","","","","","",""
"","606.0600000000559","sequential-stimulus-presentation","285","608819","0.0-53.0-1.3","SS1613080648391","trial","","40","800","1406.0600000000559","images/stimuli/spore_stims/complex_18_B_d.gif","images/stimuli/spore_stims/complex_18_A_d.gif","","","","","15","complex_similar","images/stimuli/spore_stims/complex_18_B_d.gif","right","","","","",""
"","null","html-keyboard-response","286","609651","0.0-53.0-0.4","SS1613080648391","","","null","","","","","<p><img src= images/blank.png width =""200"" height = ""200"" style = ""float:right""></p><p><img src=images/blank.png width =""800"" height = ""200""></p>","","","","","","","","","","","",""
"","610.5449999994598","sequential-stimulus-presentation","287","611076","0.0-53.0-1.4","SS1613080648391","trial","","40","800","1410.5449999994598","images/stimuli/spore_stims/complex_18_B_d.gif","images/stimuli/spore_stims/complex_18_A_d.gif","","","","","15","complex_similar","images/stimuli/spore_stims/complex_18_A_d.gif","middle","","","","",""
"","null","html-keyboard-response","288","612253","0.0-53.0-0.5","SS1613080648391","","","null","","","","","<p><img src= images/blank.png width =""200"" height = ""200"" style = ""float:right""></p><p><img src=images/blank.png width =""800"" height = ""200""></p>","","","","","","","","","","","",""
"","376.7950000001583","sequential-stimulus-presentation","289","613452","0.0-53.0-1.5","SS1613080648391","trial","","40","800","1176.7950000001583","images/stimuli/spore_stims/complex_18_B_d.gif","images/stimuli/spore_stims/complex_18_A_d.gif","","","","","15","complex_similar","images/stimuli/spore_stims/complex_18_A_d.gif","middle","","","","",""
"","null","html-keyboard-response","290","614337","0.0-53.0-0.6","SS1613080648391","","","null","","","","","<p><img src= images/blank.png width =""200"" height = ""200"" style = ""float:right""></p><p><img src=images/blank.png width =""800"" height = ""200""></p>","","","","","","","","","","","",""
"","442.7250000007916","sequential-stimulus-presentation","291","615590","0.0-53.0-1.6","SS1613080648391","trial","","40","800","1242.7250000007916","images/stimuli/spore_stims/complex_18_B_d.gif","images/stimuli/spore_stims/complex_18_A_d.gif","","","","","15","complex_similar","images/stimuli/spore_stims/complex_18_A_d.gif","middle","","","","",""
"","null","html-keyboard-response","292","616906","0.0-53.0-0.7","SS1613080648391","","","null","","","","","<p><img src= images/blank.png width =""200"" height = ""200"" style = ""float:right""></p><p><img src=images/blank.png width =""800"" height = ""200""></p>","","","","","","","","","","","",""
"","597.3450000000885","sequential-stimulus-presentation","293","618317","0.0-53.0-1.7","SS1613080648391","trial","","40","800","1397.3450000000885","images/stimuli/spore_stims/complex_18_B_d.gif","images/stimuli/spore_stims/complex_18_A_d.gif","","","","","15","complex_similar","images/stimuli/spore_stims/complex_18_A_d.gif","middle","","","","",""
"","3258.2500000006985","html-keyboard-response","294","621603","0.0-54.0","SS1613080648391","pref_question","","97","","","","","<video width ='960' height = '540' style='padding-top:8%' autoplay muted><source src='images/stimuli/wall_pref.mp4' type='video/mp4'></video>","1","left","25%","15","","","","","","","",""
"","4694.065000001574","sequential-stimulus-presentation","295","627107","0.0-55.0","SS1613080648391","pref_reveal","","40","800","5494.065000001574","null","null","","","","","15","","","","novel","","","",""
"","null","html-keyboard-response","296","628318","0.0-56.0-0.0","SS1613080648391","","","null","","","","","<p><img src= images/blank.png width =""200"" height = ""200"" style = ""float:right""></p><p><img src=images/blank.png width =""800"" height = ""200""></p>","","","","","","","","","","","",""
"","1347.2050000000745","sequential-stimulus-presentation","297","630477","0.0-56.0-1.0","SS1613080648391","trial","","40","800","2147.2050000000745","images/stimuli/spore_stims/simple_06_B_b.gif","images/stimuli/spore_stims/simple_06_A_b.gif","","","","","16","simple_similar","images/stimuli/spore_stims/simple_06_A_b.gif","middle","","","","",""
"","null","html-keyboard-response","298","631393","0.0-56.0-0.1","SS1613080648391","","","null","","","","","<p><img src= images/blank.png width =""200"" height = ""200"" style = ""float:right""></p><p><img src=images/blank.png width =""800"" height = ""200""></p>","","","","","","","","","","","",""
"","654.705000000773","sequential-stimulus-presentation","299","632859","0.0-56.0-1.1","SS1613080648391","trial","","40","800","1454.705000000773","images/stimuli/spore_stims/simple_06_B_b.gif","images/stimuli/spore_stims/simple_06_A_b.gif","","","","","16","simple_similar","images/stimuli/spore_stims/simple_06_A_b.gif","middle","","","","",""
"","null","html-keyboard-response","300","633795","0.0-56.0-0.2","SS1613080648391","","","null","","","","","<p><img src= images/blank.png width =""200"" height = ""200"" style = ""float:right""></p><p><img src=images/blank.png width =""800"" height = ""200""></p>","","","","","","","","","","","",""
"","476.83499999938067","sequential-stimulus-presentation","301","635101","0.0-56.0-1.2","SS1613080648391","trial","","40","800","1276.8349999993807","images/stimuli/spore_stims/simple_06_B_b.gif","images/stimuli/spore_stims/simple_06_A_b.gif","","","","","16","simple_similar","images/stimuli/spore_stims/simple_06_A_b.gif","middle","","","","",""
"","null","html-keyboard-response","302","636129","0.0-56.0-0.3","SS1613080648391","","","null","","","","","<p><img src= images/blank.png width =""200"" height = ""200"" style = ""float:right""></p><p><img src=images/blank.png width =""800"" height = ""200""></p>","","","","","","","","","","","",""
"","426.0150000009453","sequential-stimulus-presentation","303","637364","0.0-56.0-1.3","SS1613080648391","trial","","40","800","1226.0150000009453","images/stimuli/spore_stims/simple_06_B_b.gif","images/stimuli/spore_stims/simple_06_A_b.gif","","","","","16","simple_similar","images/stimuli/spore_stims/simple_06_A_b.gif","middle","","","","",""
"","null","html-keyboard-response","304","638564","0.0-56.0-0.4","SS1613080648391","","","null","","","","","<p><img src= images/blank.png width =""200"" height = ""200"" style = ""float:right""></p><p><img src=images/blank.png width =""800"" height = ""200""></p>","","","","","","","","","","","",""
"","505.50000000116415","sequential-stimulus-presentation","305","639891","0.0-56.0-1.4","SS1613080648391","trial","","40","800","1305.5000000011642","images/stimuli/spore_stims/simple_06_B_b.gif","images/stimuli/spore_stims/simple_06_A_b.gif","","","","","16","simple_similar","images/stimuli/spore_stims/simple_06_A_b.gif","middle","","","","",""
"","null","html-keyboard-response","306","640907","0.0-56.0-0.5","SS1613080648391","","","null","","","","","<p><img src= images/blank.png width =""200"" height = ""200"" style = ""float:right""></p><p><img src=images/blank.png width =""800"" height = ""200""></p>","","","","","","","","","","","",""
"","418.42499999981374","sequential-stimulus-presentation","307","642147","0.0-56.0-1.5","SS1613080648391","trial","","40","800","1218.4249999998137","images/stimuli/spore_stims/simple_06_B_b.gif","images/stimuli/spore_stims/simple_06_A_b.gif","","","","","16","simple_similar","images/stimuli/spore_stims/simple_06_A_b.gif","middle","","","","",""
"","null","html-keyboard-response","308","643236","0.0-56.0-0.6","SS1613080648391","","","null","","","","","<p><img src= images/blank.png width =""200"" height = ""200"" style = ""float:right""></p><p><img src=images/blank.png width =""800"" height = ""200""></p>","","","","","","","","","","","",""
"","3116.619999998831","sequential-stimulus-presentation","309","647187","0.0-56.0-1.6","SS1613080648391","trial","","40","800","3916.619999998831","images/stimuli/spore_stims/simple_06_B_b.gif","images/stimuli/spore_stims/simple_06_A_b.gif","","","","","16","simple_similar","images/stimuli/spore_stims/simple_06_B_b.gif","right","","","","",""
"","null","html-keyboard-response","310","648465","0.0-56.0-0.7","SS1613080648391","","","null","","","","","<p><img src= images/blank.png width =""200"" height = ""200"" style = ""float:right""></p><p><img src=images/blank.png width =""800"" height = ""200""></p>","","","","","","","","","","","",""
"","530.3100000000559","sequential-stimulus-presentation","311","649804","0.0-56.0-1.7","SS1613080648391","trial","","40","800","1330.3100000000559","images/stimuli/spore_stims/simple_06_B_b.gif","images/stimuli/spore_stims/simple_06_A_b.gif","","","","","16","simple_similar","images/stimuli/spore_stims/simple_06_A_b.gif","middle","","","","",""
"","1999.5049999997718","html-keyboard-response","312","651828","0.0-57.0","SS1613080648391","pref_question","","99","","","","","<video width ='960' height = '540' style='padding-top:8%' autoplay muted><source src='images/stimuli/wall_pref.mp4' type='video/mp4'></video>","3","right","66%","16","","","","","","","",""
