"view_history","rt","trial_type","trial_index","time_elapsed","internal_node_id","subject","stimulus_type","trial_stimulus","key_press","minimum_viewing_duration","trial_looking_time","block_deviant","block_background","stimulus","wall_pref","location","location_percent","block_number","block_type","stimulus_displayed","position_displayed","stim_type_selected","responses","question_order","stimulus_left","stimulus_right"
"[{""page_index"":0,""viewing_time"":5268.014999994193}]","5268.884999997681","instructions","0","5289","0.0-0.0","SS1613100045246","","","","","","","","","","","","","","","","","","","",""
"[{""page_index"":0,""viewing_time"":33001.88999999955},{""page_index"":1,""viewing_time"":6294.70999998739}]","39300.419999999576","instructions","1","47560","0.0-1.0","SS1613100045246","instructions","","","","","","","","","","","","","","","","","","",""
"","3827.2649999998976","sequential-stimulus-presentation","2","52213","0.0-2.0","SS1613100045246","","","40","800","4627.264999999898","null","null","","","","","","","","","","","","",""
"","3576.2899999972433","sequential-stimulus-presentation","3","56607","0.0-3.0","SS1613100045246","","","40","800","4376.289999997243","null","null","","","","","","","","","","","","",""
"[{""page_index"":0,""viewing_time"":2310.480000000098}]","2311.1099999950966","instructions","4","58921","0.0-4.0","SS1613100045246","instructions","","","","","","","","","","","","","","","","","","",""
"","7650.544999996782","html-keyboard-response","5","66583","0.0-5.0","SS1613100045246","instructions","","50","","","","","<video width ='960' height = '540' autoplay muted><source src='images/stimuli/wall_pref.mp4' type='video/mp4'></video>","2","middle","45%","","","","","","","","",""
"","1906.2600000033854","sequential-stimulus-presentation","6","69307","0.0-6.0","SS1613100045246","pref_reveal","","40","800","2706.2600000033854","null","null","","","","","","","","","","","","",""
"[{""page_index"":0,""viewing_time"":4479.984999998123},{""page_index"":1,""viewing_time"":3336.844999997993},{""page_index"":2,""viewing_time"":1098.8700000016252},{""page_index"":3,""viewing_time"":872.1399999922141}]","9788.495000000694","instructions","7","79099","0.0-7.0","SS1613100045246","instructions","","","","","","","","","","","","","","","","","","",""
"","null","html-keyboard-response","8","80155","0.0-8.0-0.0","SS1613100045246","","","null","","","","","<p><img src= images/blank.png width =""200"" height = ""200"" style = ""float:right""></p><p><img src=images/blank.png width =""800"" height = ""200""></p>","","","","","","","","","","","",""
"","4810.90499999118","sequential-stimulus-presentation","9","85800","0.0-8.0-1.0","SS1613100045246","trial","","40","800","5610.90499999118","images/stimuli/spore_stims/simple_01_A_a.gif","images/stimuli/spore_stims/simple_01_B_a.gif","","","","","0","simple_similar","images/stimuli/spore_stims/simple_01_B_a.gif","right","","","","",""
"","null","html-keyboard-response","10","87066","0.0-8.0-0.1","SS1613100045246","","","null","","","","","<p><img src= images/blank.png width =""200"" height = ""200"" style = ""float:right""></p><p><img src=images/blank.png width =""800"" height = ""200""></p>","","","","","","","","","","","",""
"","4191.529999996419","sequential-stimulus-presentation","11","92075","0.0-8.0-1.1","SS1613100045246","trial","","40","800","4991.529999996419","images/stimuli/spore_stims/simple_01_A_a.gif","images/stimuli/spore_stims/simple_01_B_a.gif","","","","","0","simple_similar","images/stimuli/spore_stims/simple_01_B_a.gif","right","","","","",""
"","null","html-keyboard-response","12","92919","0.0-8.0-0.2","SS1613100045246","","","null","","","","","<p><img src= images/blank.png width =""200"" height = ""200"" style = ""float:right""></p><p><img src=images/blank.png width =""800"" height = ""200""></p>","","","","","","","","","","","",""
"","1443.1299999996554","sequential-stimulus-presentation","13","95180","0.0-8.0-1.2","SS1613100045246","trial","","40","800","2243.1299999996554","images/stimuli/spore_stims/simple_01_A_a.gif","images/stimuli/spore_stims/simple_01_B_a.gif","","","","","0","simple_similar","images/stimuli/spore_stims/simple_01_B_a.gif","right","","","","",""
"","null","html-keyboard-response","14","96180","0.0-8.0-0.3","SS1613100045246","","","null","","","","","<p><img src= images/blank.png width =""200"" height = ""200"" style = ""float:right""></p><p><img src=images/blank.png width =""800"" height = ""200""></p>","","","","","","","","","","","",""
"","2610.629999995581","sequential-stimulus-presentation","15","99610","0.0-8.0-1.3","SS1613100045246","trial","","40","800","3410.629999995581","images/stimuli/spore_stims/simple_01_A_a.gif","images/stimuli/spore_stims/simple_01_B_a.gif","","","","","0","simple_similar","images/stimuli/spore_stims/simple_01_B_a.gif","right","","","","",""
"","null","html-keyboard-response","16","100439","0.0-8.0-0.4","SS1613100045246","","","null","","","","","<p><img src= images/blank.png width =""200"" height = ""200"" style = ""float:right""></p><p><img src=images/blank.png width =""800"" height = ""200""></p>","","","","","","","","","","","",""
"","4117.109999991953","sequential-stimulus-presentation","17","105374","0.0-8.0-1.4","SS1613100045246","trial","","40","800","4917.109999991953","images/stimuli/spore_stims/simple_01_A_a.gif","images/stimuli/spore_stims/simple_01_B_a.gif","","","","","0","simple_similar","images/stimuli/spore_stims/simple_01_A_a.gif","middle","","","","",""
"","null","html-keyboard-response","18","106418","0.0-8.0-0.5","SS1613100045246","","","null","","","","","<p><img src= images/blank.png width =""200"" height = ""200"" style = ""float:right""></p><p><img src=images/blank.png width =""800"" height = ""200""></p>","","","","","","","","","","","",""
"","2407.3150000040187","sequential-stimulus-presentation","19","109644","0.0-8.0-1.5","SS1613100045246","trial","","40","800","3207.3150000040187","images/stimuli/spore_stims/simple_01_A_a.gif","images/stimuli/spore_stims/simple_01_B_a.gif","","","","","0","simple_similar","images/stimuli/spore_stims/simple_01_B_a.gif","right","","","","",""
"","null","html-keyboard-response","20","110746","0.0-8.0-0.6","SS1613100045246","","","null","","","","","<p><img src= images/blank.png width =""200"" height = ""200"" style = ""float:right""></p><p><img src=images/blank.png width =""800"" height = ""200""></p>","","","","","","","","","","","",""
"","1430.949999994482","sequential-stimulus-presentation","21","113003","0.0-8.0-1.6","SS1613100045246","trial","","40","800","2230.949999994482","images/stimuli/spore_stims/simple_01_A_a.gif","images/stimuli/spore_stims/simple_01_B_a.gif","","","","","0","simple_similar","images/stimuli/spore_stims/simple_01_B_a.gif","right","","","","",""
"","null","html-keyboard-response","22","113905","0.0-8.0-0.7","SS1613100045246","","","null","","","","","<p><img src= images/blank.png width =""200"" height = ""200"" style = ""float:right""></p><p><img src=images/blank.png width =""800"" height = ""200""></p>","","","","","","","","","","","",""
"","864.0099999902304","sequential-stimulus-presentation","23","115596","0.0-8.0-1.7","SS1613100045246","trial","","40","800","1664.0099999902304","images/stimuli/spore_stims/simple_01_A_a.gif","images/stimuli/spore_stims/simple_01_B_a.gif","","","","","0","simple_similar","images/stimuli/spore_stims/simple_01_B_a.gif","right","","","","",""
"","2423.37000000407","html-keyboard-response","24","118028","0.0-9.0","SS1613100045246","pref_question","","50","","","","","<video width ='960' height = '540' style='padding-top:8%' autoplay muted><source src='images/stimuli/wall_pref.mp4' type='video/mp4'></video>","2","middle","45%","0","","","","","","","",""
"","5359.03999999573","sequential-stimulus-presentation","25","124203","0.0-10.0","SS1613100045246","pref_reveal","","40","800","6159.03999999573","null","null","","","","","0","","","","deviant","","","",""
"","null","html-keyboard-response","26","125424","0.0-11.0-0.0","SS1613100045246","","","null","","","","","<p><img src= images/blank.png width =""200"" height = ""200"" style = ""float:right""></p><p><img src=images/blank.png width =""800"" height = ""200""></p>","","","","","","","","","","","",""
"","2919.7649999987334","sequential-stimulus-presentation","27","129165","0.0-11.0-1.0","SS1613100045246","trial","","40","800","3719.7649999987334","images/stimuli/spore_stims/complex_15_A_b.gif","images/stimuli/spore_stims/complex_02_A_c.gif","","","","","1","complex_dissimilar","images/stimuli/spore_stims/complex_02_A_c.gif","middle","","","","",""
"","null","html-keyboard-response","28","130009","0.0-11.0-0.1","SS1613100045246","","","null","","","","","<p><img src= images/blank.png width =""200"" height = ""200"" style = ""float:right""></p><p><img src=images/blank.png width =""800"" height = ""200""></p>","","","","","","","","","","","",""
"","2254.3099999893457","sequential-stimulus-presentation","29","133091","0.0-11.0-1.1","SS1613100045246","trial","","40","800","3054.3099999893457","images/stimuli/spore_stims/complex_15_A_b.gif","images/stimuli/spore_stims/complex_02_A_c.gif","","","","","1","complex_dissimilar","images/stimuli/spore_stims/complex_02_A_c.gif","middle","","","","",""
"","null","html-keyboard-response","30","133958","0.0-11.0-0.2","SS1613100045246","","","null","","","","","<p><img src= images/blank.png width =""200"" height = ""200"" style = ""float:right""></p><p><img src=images/blank.png width =""800"" height = ""200""></p>","","","","","","","","","","","",""
"","1659.9050000077114","sequential-stimulus-presentation","31","136442","0.0-11.0-1.2","SS1613100045246","trial","","40","800","2459.9050000077114","images/stimuli/spore_stims/complex_15_A_b.gif","images/stimuli/spore_stims/complex_02_A_c.gif","","","","","1","complex_dissimilar","images/stimuli/spore_stims/complex_02_A_c.gif","middle","","","","",""
"","null","html-keyboard-response","32","137603","0.0-11.0-0.3","SS1613100045246","","","null","","","","","<p><img src= images/blank.png width =""200"" height = ""200"" style = ""float:right""></p><p><img src=images/blank.png width =""800"" height = ""200""></p>","","","","","","","","","","","",""
"","1312.8949999954784","sequential-stimulus-presentation","33","139748","0.0-11.0-1.3","SS1613100045246","trial","","40","800","2112.8949999954784","images/stimuli/spore_stims/complex_15_A_b.gif","images/stimuli/spore_stims/complex_02_A_c.gif","","","","","1","complex_dissimilar","images/stimuli/spore_stims/complex_02_A_c.gif","middle","","","","",""
"","null","html-keyboard-response","34","140763","0.0-11.0-0.4","SS1613100045246","","","null","","","","","<p><img src= images/blank.png width =""200"" height = ""200"" style = ""float:right""></p><p><img src=images/blank.png width =""800"" height = ""200""></p>","","","","","","","","","","","",""
"","1430.6649999925867","sequential-stimulus-presentation","35","143011","0.0-11.0-1.4","SS1613100045246","trial","","40","800","2230.6649999925867","images/stimuli/spore_stims/complex_15_A_b.gif","images/stimuli/spore_stims/complex_02_A_c.gif","","","","","1","complex_dissimilar","images/stimuli/spore_stims/complex_02_A_c.gif","middle","","","","",""
"","null","html-keyboard-response","36","143944","0.0-11.0-0.5","SS1613100045246","","","null","","","","","<p><img src= images/blank.png width =""200"" height = ""200"" style = ""float:right""></p><p><img src=images/blank.png width =""800"" height = ""200""></p>","","","","","","","","","","","",""
"","1509.9850000115111","sequential-stimulus-presentation","37","146278","0.0-11.0-1.5","SS1613100045246","trial","","40","800","2309.985000011511","images/stimuli/spore_stims/complex_15_A_b.gif","images/stimuli/spore_stims/complex_02_A_c.gif","","","","","1","complex_dissimilar","images/stimuli/spore_stims/complex_02_A_c.gif","middle","","","","",""
"","null","html-keyboard-response","38","147347","0.0-11.0-0.6","SS1613100045246","","","null","","","","","<p><img src= images/blank.png width =""200"" height = ""200"" style = ""float:right""></p><p><img src=images/blank.png width =""800"" height = ""200""></p>","","","","","","","","","","","",""
"","797.6650000055088","sequential-stimulus-presentation","39","148966","0.0-11.0-1.6","SS1613100045246","trial","","40","800","1597.6650000055088","images/stimuli/spore_stims/complex_15_A_b.gif","images/stimuli/spore_stims/complex_02_A_c.gif","","","","","1","complex_dissimilar","images/stimuli/spore_stims/complex_02_A_c.gif","middle","","","","",""
"","null","html-keyboard-response","40","149915","0.0-11.0-0.7","SS1613100045246","","","null","","","","","<p><img src= images/blank.png width =""200"" height = ""200"" style = ""float:right""></p><p><img src=images/blank.png width =""800"" height = ""200""></p>","","","","","","","","","","","",""
"","1966.9149999972433","sequential-stimulus-presentation","41","152735","0.0-11.0-1.7","SS1613100045246","trial","","40","800","2766.9149999972433","images/stimuli/spore_stims/complex_15_A_b.gif","images/stimuli/spore_stims/complex_02_A_c.gif","","","","","1","complex_dissimilar","images/stimuli/spore_stims/complex_15_A_b.gif","right","","","","",""
"","1278.3849999977974","html-keyboard-response","42","154027","0.0-12.0","SS1613100045246","pref_question","","49","","","","","<video width ='960' height = '540' style='padding-top:8%' autoplay muted><source src='images/stimuli/wall_pref.mp4' type='video/mp4'></video>","1","left","25%","1","","","","","","","",""
"","3864.48499999824","sequential-stimulus-presentation","43","158708","0.0-13.0","SS1613100045246","pref_reveal","","40","800","4664.48499999824","null","null","","","","","1","","","","novel","","","",""
"","null","html-keyboard-response","44","159956","0.0-14.0-0.0","SS1613100045246","","","null","","","","","<p><img src= images/blank.png width =""200"" height = ""200"" style = ""float:right""></p><p><img src=images/blank.png width =""800"" height = ""200""></p>","","","","","","","","","","","",""
"","2256.84000000183","sequential-stimulus-presentation","45","163036","0.0-14.0-1.0","SS1613100045246","trial","","40","800","3056.84000000183","images/stimuli/spore_stims/complex_06_A_a.gif","images/stimuli/spore_stims/complex_08_B_a.gif","","","","","2","complex_dissimilar","images/stimuli/spore_stims/complex_08_B_a.gif","left","","","","",""
"","null","html-keyboard-response","46","164036","0.0-14.0-0.1","SS1613100045246","","","null","","","","","<p><img src= images/blank.png width =""200"" height = ""200"" style = ""float:right""></p><p><img src=images/blank.png width =""800"" height = ""200""></p>","","","","","","","","","","","",""
"","164.14999999688007","sequential-stimulus-presentation","47","165030","0.0-14.0-1.1","SS1613100045246","trial","","40","800","964.1499999968801","images/stimuli/spore_stims/complex_06_A_a.gif","images/stimuli/spore_stims/complex_08_B_a.gif","","","","","2","complex_dissimilar","images/stimuli/spore_stims/complex_08_B_a.gif","left","","","","",""
"","null","html-keyboard-response","48","166235","0.0-14.0-0.2","SS1613100045246","","","null","","","","","<p><img src= images/blank.png width =""200"" height = ""200"" style = ""float:right""></p><p><img src=images/blank.png width =""800"" height = ""200""></p>","","","","","","","","","","","",""
"","1048.3499999972992","sequential-stimulus-presentation","49","168100","0.0-14.0-1.2","SS1613100045246","trial","","40","800","1848.3499999972992","images/stimuli/spore_stims/complex_06_A_a.gif","images/stimuli/spore_stims/complex_08_B_a.gif","","","","","2","complex_dissimilar","images/stimuli/spore_stims/complex_08_B_a.gif","left","","","","",""
"","null","html-keyboard-response","50","169311","0.0-14.0-0.3","SS1613100045246","","","null","","","","","<p><img src= images/blank.png width =""200"" height = ""200"" style = ""float:right""></p><p><img src=images/blank.png width =""800"" height = ""200""></p>","","","","","","","","","","","",""
"","561.7300000012619","sequential-stimulus-presentation","51","170692","0.0-14.0-1.3","SS1613100045246","trial","","40","800","1361.730000001262","images/stimuli/spore_stims/complex_06_A_a.gif","images/stimuli/spore_stims/complex_08_B_a.gif","","","","","2","complex_dissimilar","images/stimuli/spore_stims/complex_08_B_a.gif","left","","","","",""
"","null","html-keyboard-response","52","171601","0.0-14.0-0.4","SS1613100045246","","","null","","","","","<p><img src= images/blank.png width =""200"" height = ""200"" style = ""float:right""></p><p><img src=images/blank.png width =""800"" height = ""200""></p>","","","","","","","","","","","",""
"","352.9500000004191","sequential-stimulus-presentation","53","172775","0.0-14.0-1.4","SS1613100045246","trial","","40","800","1152.950000000419","images/stimuli/spore_stims/complex_06_A_a.gif","images/stimuli/spore_stims/complex_08_B_a.gif","","","","","2","complex_dissimilar","images/stimuli/spore_stims/complex_08_B_a.gif","left","","","","",""
"","null","html-keyboard-response","54","173802","0.0-14.0-0.5","SS1613100045246","","","null","","","","","<p><img src= images/blank.png width =""200"" height = ""200"" style = ""float:right""></p><p><img src=images/blank.png width =""800"" height = ""200""></p>","","","","","","","","","","","",""
"","1227.2699999884935","sequential-stimulus-presentation","55","175901","0.0-14.0-1.5","SS1613100045246","trial","","40","800","2027.2699999884935","images/stimuli/spore_stims/complex_06_A_a.gif","images/stimuli/spore_stims/complex_08_B_a.gif","","","","","2","complex_dissimilar","images/stimuli/spore_stims/complex_08_B_a.gif","left","","","","",""
"","null","html-keyboard-response","56","177040","0.0-14.0-0.6","SS1613100045246","","","null","","","","","<p><img src= images/blank.png width =""200"" height = ""200"" style = ""float:right""></p><p><img src=images/blank.png width =""800"" height = ""200""></p>","","","","","","","","","","","",""
"","658.1100000039442","sequential-stimulus-presentation","57","178523","0.0-14.0-1.6","SS1613100045246","trial","","40","800","1458.1100000039442","images/stimuli/spore_stims/complex_06_A_a.gif","images/stimuli/spore_stims/complex_08_B_a.gif","","","","","2","complex_dissimilar","images/stimuli/spore_stims/complex_08_B_a.gif","left","","","","",""
"","null","html-keyboard-response","58","179524","0.0-14.0-0.7","SS1613100045246","","","null","","","","","<p><img src= images/blank.png width =""200"" height = ""200"" style = ""float:right""></p><p><img src=images/blank.png width =""800"" height = ""200""></p>","","","","","","","","","","","",""
"","2682.614999997895","sequential-stimulus-presentation","59","183021","0.0-14.0-1.7","SS1613100045246","trial","","40","800","3482.614999997895","images/stimuli/spore_stims/complex_06_A_a.gif","images/stimuli/spore_stims/complex_08_B_a.gif","","","","","2","complex_dissimilar","images/stimuli/spore_stims/complex_06_A_a.gif","middle","","","","",""
"","3899.084999997285","html-keyboard-response","60","186933","0.0-15.0","SS1613100045246","pref_question","","51","","","","","<video width ='960' height = '540' style='padding-top:8%' autoplay muted><source src='images/stimuli/wall_pref.mp4' type='video/mp4'></video>","3","right","66%","2","","","","","","","",""
"","2808.4899999957997","sequential-stimulus-presentation","61","190574","0.0-16.0","SS1613100045246","pref_reveal","","40","800","3608.4899999957997","null","null","","","","","2","","","","novel","","","",""
"","null","html-keyboard-response","62","191477","0.0-17.0-0.0","SS1613100045246","","","null","","","","","<p><img src= images/blank.png width =""200"" height = ""200"" style = ""float:right""></p><p><img src=images/blank.png width =""800"" height = ""200""></p>","","","","","","","","","","","",""
"","2133.475000009639","sequential-stimulus-presentation","63","194440","0.0-17.0-1.0","SS1613100045246","trial","","40","800","2933.475000009639","images/stimuli/spore_stims/simple_04_B_d.gif","images/stimuli/spore_stims/simple_04_A_d.gif","","","","","3","simple_similar","images/stimuli/spore_stims/simple_04_A_d.gif","right","","","","",""
"","null","html-keyboard-response","64","195316","0.0-17.0-0.1","SS1613100045246","","","null","","","","","<p><img src= images/blank.png width =""200"" height = ""200"" style = ""float:right""></p><p><img src=images/blank.png width =""800"" height = ""200""></p>","","","","","","","","","","","",""
"","1269.3050000088988","sequential-stimulus-presentation","65","197404","0.0-17.0-1.1","SS1613100045246","trial","","40","800","2069.305000008899","images/stimuli/spore_stims/simple_04_B_d.gif","images/stimuli/spore_stims/simple_04_A_d.gif","","","","","3","simple_similar","images/stimuli/spore_stims/simple_04_A_d.gif","right","","","","",""
"","null","html-keyboard-response","66","198268","0.0-17.0-0.2","SS1613100045246","","","null","","","","","<p><img src= images/blank.png width =""200"" height = ""200"" style = ""float:right""></p><p><img src=images/blank.png width =""800"" height = ""200""></p>","","","","","","","","","","","",""
"","639.6600000007311","sequential-stimulus-presentation","67","199728","0.0-17.0-1.2","SS1613100045246","trial","","40","800","1439.660000000731","images/stimuli/spore_stims/simple_04_B_d.gif","images/stimuli/spore_stims/simple_04_A_d.gif","","","","","3","simple_similar","images/stimuli/spore_stims/simple_04_A_d.gif","right","","","","",""
"","null","html-keyboard-response","68","200741","0.0-17.0-0.3","SS1613100045246","","","null","","","","","<p><img src= images/blank.png width =""200"" height = ""200"" style = ""float:right""></p><p><img src=images/blank.png width =""800"" height = ""200""></p>","","","","","","","","","","","",""
"","1876.7950000037672","sequential-stimulus-presentation","69","203432","0.0-17.0-1.3","SS1613100045246","trial","","40","800","2676.795000003767","images/stimuli/spore_stims/simple_04_B_d.gif","images/stimuli/spore_stims/simple_04_A_d.gif","","","","","3","simple_similar","images/stimuli/spore_stims/simple_04_A_d.gif","right","","","","",""
"","null","html-keyboard-response","70","204686","0.0-17.0-0.4","SS1613100045246","","","null","","","","","<p><img src= images/blank.png width =""200"" height = ""200"" style = ""float:right""></p><p><img src=images/blank.png width =""800"" height = ""200""></p>","","","","","","","","","","","",""
"","1632.1199999947567","sequential-stimulus-presentation","71","207154","0.0-17.0-1.4","SS1613100045246","trial","","40","800","2432.1199999947567","images/stimuli/spore_stims/simple_04_B_d.gif","images/stimuli/spore_stims/simple_04_A_d.gif","","","","","3","simple_similar","images/stimuli/spore_stims/simple_04_A_d.gif","right","","","","",""
"","null","html-keyboard-response","72","208144","0.0-17.0-0.5","SS1613100045246","","","null","","","","","<p><img src= images/blank.png width =""200"" height = ""200"" style = ""float:right""></p><p><img src=images/blank.png width =""800"" height = ""200""></p>","","","","","","","","","","","",""
"","2663.415000002715","sequential-stimulus-presentation","73","211637","0.0-17.0-1.5","SS1613100045246","trial","","40","800","3463.415000002715","images/stimuli/spore_stims/simple_04_B_d.gif","images/stimuli/spore_stims/simple_04_A_d.gif","","","","","3","simple_similar","images/stimuli/spore_stims/simple_04_B_d.gif","middle","","","","",""
"","null","html-keyboard-response","74","212719","0.0-17.0-0.6","SS1613100045246","","","null","","","","","<p><img src= images/blank.png width =""200"" height = ""200"" style = ""float:right""></p><p><img src=images/blank.png width =""800"" height = ""200""></p>","","","","","","","","","","","",""
"","730.3800000081537","sequential-stimulus-presentation","75","214271","0.0-17.0-1.6","SS1613100045246","trial","","40","800","1530.3800000081537","images/stimuli/spore_stims/simple_04_B_d.gif","images/stimuli/spore_stims/simple_04_A_d.gif","","","","","3","simple_similar","images/stimuli/spore_stims/simple_04_A_d.gif","right","","","","",""
"","null","html-keyboard-response","76","215149","0.0-17.0-0.7","SS1613100045246","","","null","","","","","<p><img src= images/blank.png width =""200"" height = ""200"" style = ""float:right""></p><p><img src=images/blank.png width =""800"" height = ""200""></p>","","","","","","","","","","","",""
"","2079.6149999951012","sequential-stimulus-presentation","77","218052","0.0-17.0-1.7","SS1613100045246","trial","","40","800","2879.6149999951012","images/stimuli/spore_stims/simple_04_B_d.gif","images/stimuli/spore_stims/simple_04_A_d.gif","","","","","3","simple_similar","images/stimuli/spore_stims/simple_04_A_d.gif","right","","","","",""
"","2280.0200000056066","html-keyboard-response","78","220346","0.0-18.0","SS1613100045246","pref_question","","49","","","","","<video width ='960' height = '540' style='padding-top:8%' autoplay muted><source src='images/stimuli/wall_pref.mp4' type='video/mp4'></video>","1","left","25%","3","","","","","","","",""
"","4693.384999991395","sequential-stimulus-presentation","79","225859","0.0-19.0","SS1613100045246","pref_reveal","","40","800","5493.384999991395","null","null","","","","","3","","","","novel","","","",""
"","null","html-keyboard-response","80","227168","0.0-20.0-0.0","SS1613100045246","","","null","","","","","<p><img src= images/blank.png width =""200"" height = ""200"" style = ""float:right""></p><p><img src=images/blank.png width =""800"" height = ""200""></p>","","","","","","","","","","","",""
"","4142.689999993308","sequential-stimulus-presentation","81","232134","0.0-20.0-1.0","SS1613100045246","trial","","40","800","4942.689999993308","images/stimuli/spore_stims/simple_17_B_b.gif","images/stimuli/spore_stims/simple_14_B_a.gif","","","","","4","simple_dissimilar","images/stimuli/spore_stims/simple_14_B_a.gif","right","","","","",""
"","null","html-keyboard-response","82","233081","0.0-20.0-0.1","SS1613100045246","","","null","","","","","<p><img src= images/blank.png width =""200"" height = ""200"" style = ""float:right""></p><p><img src=images/blank.png width =""800"" height = ""200""></p>","","","","","","","","","","","",""
"","3828.395000004093","sequential-stimulus-presentation","83","237731","0.0-20.0-1.1","SS1613100045246","trial","","40","800","4628.395000004093","images/stimuli/spore_stims/simple_17_B_b.gif","images/stimuli/spore_stims/simple_14_B_a.gif","","","","","4","simple_dissimilar","images/stimuli/spore_stims/simple_14_B_a.gif","right","","","","",""
"","null","html-keyboard-response","84","238913","0.0-20.0-0.2","SS1613100045246","","","null","","","","","<p><img src= images/blank.png width =""200"" height = ""200"" style = ""float:right""></p><p><img src=images/blank.png width =""800"" height = ""200""></p>","","","","","","","","","","","",""
"","3734.4199999934062","sequential-stimulus-presentation","85","243472","0.0-20.0-1.2","SS1613100045246","trial","","40","800","4534.419999993406","images/stimuli/spore_stims/simple_17_B_b.gif","images/stimuli/spore_stims/simple_14_B_a.gif","","","","","4","simple_dissimilar","images/stimuli/spore_stims/simple_14_B_a.gif","right","","","","",""
"","null","html-keyboard-response","86","244633","0.0-20.0-0.3","SS1613100045246","","","null","","","","","<p><img src= images/blank.png width =""200"" height = ""200"" style = ""float:right""></p><p><img src=images/blank.png width =""800"" height = ""200""></p>","","","","","","","","","","","",""
"","1515.9899999998743","sequential-stimulus-presentation","87","246969","0.0-20.0-1.3","SS1613100045246","trial","","40","800","2315.9899999998743","images/stimuli/spore_stims/simple_17_B_b.gif","images/stimuli/spore_stims/simple_14_B_a.gif","","","","","4","simple_dissimilar","images/stimuli/spore_stims/simple_14_B_a.gif","right","","","","",""
"","null","html-keyboard-response","88","248033","0.0-20.0-0.4","SS1613100045246","","","null","","","","","<p><img src= images/blank.png width =""200"" height = ""200"" style = ""float:right""></p><p><img src=images/blank.png width =""800"" height = ""200""></p>","","","","","","","","","","","",""
"","1173.2150000025285","sequential-stimulus-presentation","89","250028","0.0-20.0-1.4","SS1613100045246","trial","","40","800","1973.2150000025285","images/stimuli/spore_stims/simple_17_B_b.gif","images/stimuli/spore_stims/simple_14_B_a.gif","","","","","4","simple_dissimilar","images/stimuli/spore_stims/simple_14_B_a.gif","right","","","","",""
"","null","html-keyboard-response","90","251190","0.0-20.0-0.5","SS1613100045246","","","null","","","","","<p><img src= images/blank.png width =""200"" height = ""200"" style = ""float:right""></p><p><img src=images/blank.png width =""800"" height = ""200""></p>","","","","","","","","","","","",""
"","597.0800000068266","sequential-stimulus-presentation","91","252615","0.0-20.0-1.5","SS1613100045246","trial","","40","800","1397.0800000068266","images/stimuli/spore_stims/simple_17_B_b.gif","images/stimuli/spore_stims/simple_14_B_a.gif","","","","","4","simple_dissimilar","images/stimuli/spore_stims/simple_14_B_a.gif","right","","","","",""
"","null","html-keyboard-response","92","253831","0.0-20.0-0.6","SS1613100045246","","","null","","","","","<p><img src= images/blank.png width =""200"" height = ""200"" style = ""float:right""></p><p><img src=images/blank.png width =""800"" height = ""200""></p>","","","","","","","","","","","",""
"","1414.9150000012014","sequential-stimulus-presentation","93","256071","0.0-20.0-1.6","SS1613100045246","trial","","40","800","2214.9150000012014","images/stimuli/spore_stims/simple_17_B_b.gif","images/stimuli/spore_stims/simple_14_B_a.gif","","","","","4","simple_dissimilar","images/stimuli/spore_stims/simple_17_B_b.gif","left","","","","",""
"","null","html-keyboard-response","94","257074","0.0-20.0-0.7","SS1613100045246","","","null","","","","","<p><img src= images/blank.png width =""200"" height = ""200"" style = ""float:right""></p><p><img src=images/blank.png width =""800"" height = ""200""></p>","","","","","","","","","","","",""
"","879.5350000000326","sequential-stimulus-presentation","95","258775","0.0-20.0-1.7","SS1613100045246","trial","","40","800","1679.5350000000326","images/stimuli/spore_stims/simple_17_B_b.gif","images/stimuli/spore_stims/simple_14_B_a.gif","","","","","4","simple_dissimilar","images/stimuli/spore_stims/simple_14_B_a.gif","right","","","","",""
"","4364.295000006678","html-keyboard-response","96","263158","0.0-21.0","SS1613100045246","pref_question","","49","","","","","<video width ='960' height = '540' style='padding-top:8%' autoplay muted><source src='images/stimuli/wall_pref.mp4' type='video/mp4'></video>","1","left","25%","4","","","","","","","",""
"","4460.919999997714","sequential-stimulus-presentation","97","268435","0.0-22.0","SS1613100045246","pref_reveal","","40","800","5260.919999997714","null","null","","","","","4","","","","deviant","","","",""
"","null","html-keyboard-response","98","269284","0.0-23.0-0.0","SS1613100045246","","","null","","","","","<p><img src= images/blank.png width =""200"" height = ""200"" style = ""float:right""></p><p><img src=images/blank.png width =""800"" height = ""200""></p>","","","","","","","","","","","",""
"","1090.3599999874132","sequential-stimulus-presentation","99","271216","0.0-23.0-1.0","SS1613100045246","trial","","40","800","1890.3599999874132","images/stimuli/spore_stims/simple_06_A_d.gif","images/stimuli/spore_stims/simple_11_A_a.gif","","","","","5","simple_dissimilar","images/stimuli/spore_stims/simple_11_A_a.gif","middle","","","","",""
"","null","html-keyboard-response","100","272274","0.0-23.0-0.1","SS1613100045246","","","null","","","","","<p><img src= images/blank.png width =""200"" height = ""200"" style = ""float:right""></p><p><img src=images/blank.png width =""800"" height = ""200""></p>","","","","","","","","","","","",""
"","418.6550000013085","sequential-stimulus-presentation","101","273516","0.0-23.0-1.1","SS1613100045246","trial","","40","800","1218.6550000013085","images/stimuli/spore_stims/simple_06_A_d.gif","images/stimuli/spore_stims/simple_11_A_a.gif","","","","","5","simple_dissimilar","images/stimuli/spore_stims/simple_11_A_a.gif","middle","","","","",""
"","null","html-keyboard-response","102","274572","0.0-23.0-0.2","SS1613100045246","","","null","","","","","<p><img src= images/blank.png width =""200"" height = ""200"" style = ""float:right""></p><p><img src=images/blank.png width =""800"" height = ""200""></p>","","","","","","","","","","","",""
"","815.710000009858","sequential-stimulus-presentation","103","276314","0.0-23.0-1.2","SS1613100045246","trial","","40","800","1615.710000009858","images/stimuli/spore_stims/simple_06_A_d.gif","images/stimuli/spore_stims/simple_11_A_a.gif","","","","","5","simple_dissimilar","images/stimuli/spore_stims/simple_11_A_a.gif","middle","","","","",""
"","null","html-keyboard-response","104","277129","0.0-23.0-0.3","SS1613100045246","","","null","","","","","<p><img src= images/blank.png width =""200"" height = ""200"" style = ""float:right""></p><p><img src=images/blank.png width =""800"" height = ""200""></p>","","","","","","","","","","","",""
"","537.2050000005402","sequential-stimulus-presentation","105","278483","0.0-23.0-1.3","SS1613100045246","trial","","40","800","1337.2050000005402","images/stimuli/spore_stims/simple_06_A_d.gif","images/stimuli/spore_stims/simple_11_A_a.gif","","","","","5","simple_dissimilar","images/stimuli/spore_stims/simple_11_A_a.gif","middle","","","","",""
"","null","html-keyboard-response","106","279447","0.0-23.0-0.4","SS1613100045246","","","null","","","","","<p><img src= images/blank.png width =""200"" height = ""200"" style = ""float:right""></p><p><img src=images/blank.png width =""800"" height = ""200""></p>","","","","","","","","","","","",""
"","464.68999999342486","sequential-stimulus-presentation","107","280742","0.0-23.0-1.4","SS1613100045246","trial","","40","800","1264.6899999934249","images/stimuli/spore_stims/simple_06_A_d.gif","images/stimuli/spore_stims/simple_11_A_a.gif","","","","","5","simple_dissimilar","images/stimuli/spore_stims/simple_11_A_a.gif","middle","","","","",""
"","null","html-keyboard-response","108","282021","0.0-23.0-0.5","SS1613100045246","","","null","","","","","<p><img src= images/blank.png width =""200"" height = ""200"" style = ""float:right""></p><p><img src=images/blank.png width =""800"" height = ""200""></p>","","","","","","","","","","","",""
"","411.73500000149943","sequential-stimulus-presentation","109","283344","0.0-23.0-1.5","SS1613100045246","trial","","40","800","1211.7350000014994","images/stimuli/spore_stims/simple_06_A_d.gif","images/stimuli/spore_stims/simple_11_A_a.gif","","","","","5","simple_dissimilar","images/stimuli/spore_stims/simple_11_A_a.gif","middle","","","","",""
"","null","html-keyboard-response","110","284619","0.0-23.0-0.6","SS1613100045246","","","null","","","","","<p><img src= images/blank.png width =""200"" height = ""200"" style = ""float:right""></p><p><img src=images/blank.png width =""800"" height = ""200""></p>","","","","","","","","","","","",""
"","571.974999998929","sequential-stimulus-presentation","111","286015","0.0-23.0-1.6","SS1613100045246","trial","","40","800","1371.974999998929","images/stimuli/spore_stims/simple_06_A_d.gif","images/stimuli/spore_stims/simple_11_A_a.gif","","","","","5","simple_dissimilar","images/stimuli/spore_stims/simple_11_A_a.gif","middle","","","","",""
"","null","html-keyboard-response","112","286896","0.0-23.0-0.7","SS1613100045246","","","null","","","","","<p><img src= images/blank.png width =""200"" height = ""200"" style = ""float:right""></p><p><img src=images/blank.png width =""800"" height = ""200""></p>","","","","","","","","","","","",""
"","1304.8200000048382","sequential-stimulus-presentation","113","289031","0.0-23.0-1.7","SS1613100045246","trial","","40","800","2104.820000004838","images/stimuli/spore_stims/simple_06_A_d.gif","images/stimuli/spore_stims/simple_11_A_a.gif","","","","","5","simple_dissimilar","images/stimuli/spore_stims/simple_06_A_d.gif","right","","","","",""
"","2035.504999992554","html-keyboard-response","114","291082","0.0-24.0","SS1613100045246","pref_question","","49","","","","","<video width ='960' height = '540' style='padding-top:8%' autoplay muted><source src='images/stimuli/wall_pref.mp4' type='video/mp4'></video>","1","left","25%","5","","","","","","","",""
"","8719.850000008591","sequential-stimulus-presentation","115","300619","0.0-25.0","SS1613100045246","pref_reveal","","40","800","9519.850000008591","null","null","","","","","5","","","","novel","","","",""
"","null","html-keyboard-response","116","301846","0.0-26.0-0.0","SS1613100045246","","","null","","","","","<p><img src= images/blank.png width =""200"" height = ""200"" style = ""float:right""></p><p><img src=images/blank.png width =""800"" height = ""200""></p>","","","","","","","","","","","",""
"","913.3299999957671","sequential-stimulus-presentation","117","303598","0.0-26.0-1.0","SS1613100045246","trial","","40","800","1713.3299999957671","images/stimuli/spore_stims/simple_13_A_a.gif","images/stimuli/spore_stims/simple_13_B_a.gif","","","","","6","simple_similar","images/stimuli/spore_stims/simple_13_B_a.gif","left","","","","",""
"","null","html-keyboard-response","118","304871","0.0-26.0-0.1","SS1613100045246","","","null","","","","","<p><img src= images/blank.png width =""200"" height = ""200"" style = ""float:right""></p><p><img src=images/blank.png width =""800"" height = ""200""></p>","","","","","","","","","","","",""
"","316.8149999983143","sequential-stimulus-presentation","119","306008","0.0-26.0-1.1","SS1613100045246","trial","","40","800","1116.8149999983143","images/stimuli/spore_stims/simple_13_A_a.gif","images/stimuli/spore_stims/simple_13_B_a.gif","","","","","6","simple_similar","images/stimuli/spore_stims/simple_13_B_a.gif","left","","","","",""
"","null","html-keyboard-response","120","306981","0.0-26.0-0.2","SS1613100045246","","","null","","","","","<p><img src= images/blank.png width =""200"" height = ""200"" style = ""float:right""></p><p><img src=images/blank.png width =""800"" height = ""200""></p>","","","","","","","","","","","",""
"","439.1600000089966","sequential-stimulus-presentation","121","308254","0.0-26.0-1.2","SS1613100045246","trial","","40","800","1239.1600000089966","images/stimuli/spore_stims/simple_13_A_a.gif","images/stimuli/spore_stims/simple_13_B_a.gif","","","","","6","simple_similar","images/stimuli/spore_stims/simple_13_B_a.gif","left","","","","",""
"","null","html-keyboard-response","122","309101","0.0-26.0-0.3","SS1613100045246","","","null","","","","","<p><img src= images/blank.png width =""200"" height = ""200"" style = ""float:right""></p><p><img src=images/blank.png width =""800"" height = ""200""></p>","","","","","","","","","","","",""
"","594.0799999953015","sequential-stimulus-presentation","123","310518","0.0-26.0-1.3","SS1613100045246","trial","","40","800","1394.0799999953015","images/stimuli/spore_stims/simple_13_A_a.gif","images/stimuli/spore_stims/simple_13_B_a.gif","","","","","6","simple_similar","images/stimuli/spore_stims/simple_13_B_a.gif","left","","","","",""
"","null","html-keyboard-response","124","311434","0.0-26.0-0.4","SS1613100045246","","","null","","","","","<p><img src= images/blank.png width =""200"" height = ""200"" style = ""float:right""></p><p><img src=images/blank.png width =""800"" height = ""200""></p>","","","","","","","","","","","",""
"","910.9450000105426","sequential-stimulus-presentation","125","313170","0.0-26.0-1.4","SS1613100045246","trial","","40","800","1710.9450000105426","images/stimuli/spore_stims/simple_13_A_a.gif","images/stimuli/spore_stims/simple_13_B_a.gif","","","","","6","simple_similar","images/stimuli/spore_stims/simple_13_B_a.gif","left","","","","",""
"","null","html-keyboard-response","126","314016","0.0-26.0-0.5","SS1613100045246","","","null","","","","","<p><img src= images/blank.png width =""200"" height = ""200"" style = ""float:right""></p><p><img src=images/blank.png width =""800"" height = ""200""></p>","","","","","","","","","","","",""
"","826.1050000000978","sequential-stimulus-presentation","127","315662","0.0-26.0-1.5","SS1613100045246","trial","","40","800","1626.1050000000978","images/stimuli/spore_stims/simple_13_A_a.gif","images/stimuli/spore_stims/simple_13_B_a.gif","","","","","6","simple_similar","images/stimuli/spore_stims/simple_13_B_a.gif","left","","","","",""
"","null","html-keyboard-response","128","316885","0.0-26.0-0.6","SS1613100045246","","","null","","","","","<p><img src= images/blank.png width =""200"" height = ""200"" style = ""float:right""></p><p><img src=images/blank.png width =""800"" height = ""200""></p>","","","","","","","","","","","",""
"","805.8599999931175","sequential-stimulus-presentation","129","318507","0.0-26.0-1.6","SS1613100045246","trial","","40","800","1605.8599999931175","images/stimuli/spore_stims/simple_13_A_a.gif","images/stimuli/spore_stims/simple_13_B_a.gif","","","","","6","simple_similar","images/stimuli/spore_stims/simple_13_B_a.gif","left","","","","",""
"","null","html-keyboard-response","130","319429","0.0-26.0-0.7","SS1613100045246","","","null","","","","","<p><img src= images/blank.png width =""200"" height = ""200"" style = ""float:right""></p><p><img src=images/blank.png width =""800"" height = ""200""></p>","","","","","","","","","","","",""
"","2372.0350000075996","sequential-stimulus-presentation","131","322633","0.0-26.0-1.7","SS1613100045246","trial","","40","800","3172.0350000075996","images/stimuli/spore_stims/simple_13_A_a.gif","images/stimuli/spore_stims/simple_13_B_a.gif","","","","","6","simple_similar","images/stimuli/spore_stims/simple_13_A_a.gif","middle","","","","",""
"","1822.5650000094902","html-keyboard-response","132","324469","0.0-27.0","SS1613100045246","pref_question","","51","","","","","<video width ='960' height = '540' style='padding-top:8%' autoplay muted><source src='images/stimuli/wall_pref.mp4' type='video/mp4'></video>","3","right","66%","6","","","","","","","",""
"","5427.53499999526","sequential-stimulus-presentation","133","330716","0.0-28.0","SS1613100045246","pref_reveal","","40","800","6227.53499999526","null","null","","","","","6","","","","novel","","","",""
"","null","html-keyboard-response","134","331874","0.0-29.0-0.0","SS1613100045246","","","null","","","","","<p><img src= images/blank.png width =""200"" height = ""200"" style = ""float:right""></p><p><img src=images/blank.png width =""800"" height = ""200""></p>","","","","","","","","","","","",""
"","4284.889999995357","sequential-stimulus-presentation","135","336993","0.0-29.0-1.0","SS1613100045246","trial","","40","800","5084.889999995357","images/stimuli/spore_stims/simple_15_A_b.gif","images/stimuli/spore_stims/simple_09_A_c.gif","","","","","7","simple_dissimilar","images/stimuli/spore_stims/simple_09_A_c.gif","middle","","","","",""
"","null","html-keyboard-response","136","338256","0.0-29.0-0.1","SS1613100045246","","","null","","","","","<p><img src= images/blank.png width =""200"" height = ""200"" style = ""float:right""></p><p><img src=images/blank.png width =""800"" height = ""200""></p>","","","","","","","","","","","",""
"","1293.8199999916833","sequential-stimulus-presentation","137","340384","0.0-29.0-1.1","SS1613100045246","trial","","40","800","2093.8199999916833","images/stimuli/spore_stims/simple_15_A_b.gif","images/stimuli/spore_stims/simple_09_A_c.gif","","","","","7","simple_dissimilar","images/stimuli/spore_stims/simple_09_A_c.gif","middle","","","","",""
"","null","html-keyboard-response","138","341323","0.0-29.0-0.2","SS1613100045246","","","null","","","","","<p><img src= images/blank.png width =""200"" height = ""200"" style = ""float:right""></p><p><img src=images/blank.png width =""800"" height = ""200""></p>","","","","","","","","","","","",""
"","2552.080000008573","sequential-stimulus-presentation","139","344695","0.0-29.0-1.2","SS1613100045246","trial","","40","800","3352.080000008573","images/stimuli/spore_stims/simple_15_A_b.gif","images/stimuli/spore_stims/simple_09_A_c.gif","","","","","7","simple_dissimilar","images/stimuli/spore_stims/simple_09_A_c.gif","middle","","","","",""
"","null","html-keyboard-response","140","345666","0.0-29.0-0.3","SS1613100045246","","","null","","","","","<p><img src= images/blank.png width =""200"" height = ""200"" style = ""float:right""></p><p><img src=images/blank.png width =""800"" height = ""200""></p>","","","","","","","","","","","",""
"","1627.570000011474","sequential-stimulus-presentation","141","348119","0.0-29.0-1.3","SS1613100045246","trial","","40","800","2427.570000011474","images/stimuli/spore_stims/simple_15_A_b.gif","images/stimuli/spore_stims/simple_09_A_c.gif","","","","","7","simple_dissimilar","images/stimuli/spore_stims/simple_15_A_b.gif","left","","","","",""
"","null","html-keyboard-response","142","349384","0.0-29.0-0.4","SS1613100045246","","","null","","","","","<p><img src= images/blank.png width =""200"" height = ""200"" style = ""float:right""></p><p><img src=images/blank.png width =""800"" height = ""200""></p>","","","","","","","","","","","",""
"","739.7250000067288","sequential-stimulus-presentation","143","350949","0.0-29.0-1.4","SS1613100045246","trial","","40","800","1539.7250000067288","images/stimuli/spore_stims/simple_15_A_b.gif","images/stimuli/spore_stims/simple_09_A_c.gif","","","","","7","simple_dissimilar","images/stimuli/spore_stims/simple_09_A_c.gif","middle","","","","",""
"","null","html-keyboard-response","144","352061","0.0-29.0-0.5","SS1613100045246","","","null","","","","","<p><img src= images/blank.png width =""200"" height = ""200"" style = ""float:right""></p><p><img src=images/blank.png width =""800"" height = ""200""></p>","","","","","","","","","","","",""
"","845.9849999926519","sequential-stimulus-presentation","145","353748","0.0-29.0-1.5","SS1613100045246","trial","","40","800","1645.9849999926519","images/stimuli/spore_stims/simple_15_A_b.gif","images/stimuli/spore_stims/simple_09_A_c.gif","","","","","7","simple_dissimilar","images/stimuli/spore_stims/simple_09_A_c.gif","middle","","","","",""
"","null","html-keyboard-response","146","354828","0.0-29.0-0.6","SS1613100045246","","","null","","","","","<p><img src= images/blank.png width =""200"" height = ""200"" style = ""float:right""></p><p><img src=images/blank.png width =""800"" height = ""200""></p>","","","","","","","","","","","",""
"","301.99500000162516","sequential-stimulus-presentation","147","355960","0.0-29.0-1.6","SS1613100045246","trial","","40","800","1101.9950000016252","images/stimuli/spore_stims/simple_15_A_b.gif","images/stimuli/spore_stims/simple_09_A_c.gif","","","","","7","simple_dissimilar","images/stimuli/spore_stims/simple_09_A_c.gif","middle","","","","",""
"","null","html-keyboard-response","148","356839","0.0-29.0-0.7","SS1613100045246","","","null","","","","","<p><img src= images/blank.png width =""200"" height = ""200"" style = ""float:right""></p><p><img src=images/blank.png width =""800"" height = ""200""></p>","","","","","","","","","","","",""
"","2471.1999999999534","sequential-stimulus-presentation","149","360131","0.0-29.0-1.7","SS1613100045246","trial","","40","800","3271.1999999999534","images/stimuli/spore_stims/simple_15_A_b.gif","images/stimuli/spore_stims/simple_09_A_c.gif","","","","","7","simple_dissimilar","images/stimuli/spore_stims/simple_09_A_c.gif","middle","","","","",""
"","1439.5100000110688","html-keyboard-response","150","361588","0.0-30.0","SS1613100045246","pref_question","","51","","","","","<video width ='960' height = '540' style='padding-top:8%' autoplay muted><source src='images/stimuli/wall_pref.mp4' type='video/mp4'></video>","3","right","66%","7","","","","","","","",""
"","3261.110000006738","sequential-stimulus-presentation","151","365670","0.0-31.0","SS1613100045246","pref_reveal","","40","800","4061.110000006738","null","null","","","","","7","","","","novel","","","",""
"","null","html-keyboard-response","152","366851","0.0-32.0-0.0","SS1613100045246","","","null","","","","","<p><img src= images/blank.png width =""200"" height = ""200"" style = ""float:right""></p><p><img src=images/blank.png width =""800"" height = ""200""></p>","","","","","","","","","","","",""
"","6634.3699999997625","sequential-stimulus-presentation","153","374315","0.0-32.0-1.0","SS1613100045246","trial","","40","800","7434.3699999997625","images/stimuli/spore_stims/simple_20_A_c.gif","images/stimuli/spore_stims/simple_20_B_c.gif","","","","","8","simple_similar","images/stimuli/spore_stims/simple_20_B_c.gif","middle","","","","",""
"","null","html-keyboard-response","154","375441","0.0-32.0-0.1","SS1613100045246","","","null","","","","","<p><img src= images/blank.png width =""200"" height = ""200"" style = ""float:right""></p><p><img src=images/blank.png width =""800"" height = ""200""></p>","","","","","","","","","","","",""
"","824.2299999983516","sequential-stimulus-presentation","155","377096","0.0-32.0-1.1","SS1613100045246","trial","","40","800","1624.2299999983516","images/stimuli/spore_stims/simple_20_A_c.gif","images/stimuli/spore_stims/simple_20_B_c.gif","","","","","8","simple_similar","images/stimuli/spore_stims/simple_20_B_c.gif","middle","","","","",""
"","null","html-keyboard-response","156","378151","0.0-32.0-0.2","SS1613100045246","","","null","","","","","<p><img src= images/blank.png width =""200"" height = ""200"" style = ""float:right""></p><p><img src=images/blank.png width =""800"" height = ""200""></p>","","","","","","","","","","","",""
"","869.3199999979697","sequential-stimulus-presentation","157","379849","0.0-32.0-1.2","SS1613100045246","trial","","40","800","1669.3199999979697","images/stimuli/spore_stims/simple_20_A_c.gif","images/stimuli/spore_stims/simple_20_B_c.gif","","","","","8","simple_similar","images/stimuli/spore_stims/simple_20_B_c.gif","middle","","","","",""
"","null","html-keyboard-response","158","380732","0.0-32.0-0.3","SS1613100045246","","","null","","","","","<p><img src= images/blank.png width =""200"" height = ""200"" style = ""float:right""></p><p><img src=images/blank.png width =""800"" height = ""200""></p>","","","","","","","","","","","",""
"","958.5499999957392","sequential-stimulus-presentation","159","382516","0.0-32.0-1.3","SS1613100045246","trial","","40","800","1758.5499999957392","images/stimuli/spore_stims/simple_20_A_c.gif","images/stimuli/spore_stims/simple_20_B_c.gif","","","","","8","simple_similar","images/stimuli/spore_stims/simple_20_B_c.gif","middle","","","","",""
"","null","html-keyboard-response","160","383831","0.0-32.0-0.4","SS1613100045246","","","null","","","","","<p><img src= images/blank.png width =""200"" height = ""200"" style = ""float:right""></p><p><img src=images/blank.png width =""800"" height = ""200""></p>","","","","","","","","","","","",""
"","1568.7749999924563","sequential-stimulus-presentation","161","386224","0.0-32.0-1.4","SS1613100045246","trial","","40","800","2368.7749999924563","images/stimuli/spore_stims/simple_20_A_c.gif","images/stimuli/spore_stims/simple_20_B_c.gif","","","","","8","simple_similar","images/stimuli/spore_stims/simple_20_B_c.gif","middle","","","","",""
"","null","html-keyboard-response","162","387514","0.0-32.0-0.5","SS1613100045246","","","null","","","","","<p><img src= images/blank.png width =""200"" height = ""200"" style = ""float:right""></p><p><img src=images/blank.png width =""800"" height = ""200""></p>","","","","","","","","","","","",""
"","2341.1400000040885","sequential-stimulus-presentation","163","390675","0.0-32.0-1.5","SS1613100045246","trial","","40","800","3141.1400000040885","images/stimuli/spore_stims/simple_20_A_c.gif","images/stimuli/spore_stims/simple_20_B_c.gif","","","","","8","simple_similar","images/stimuli/spore_stims/simple_20_A_c.gif","left","","","","",""
"","null","html-keyboard-response","164","391714","0.0-32.0-0.6","SS1613100045246","","","null","","","","","<p><img src= images/blank.png width =""200"" height = ""200"" style = ""float:right""></p><p><img src=images/blank.png width =""800"" height = ""200""></p>","","","","","","","","","","","",""
"","1470.58000000834","sequential-stimulus-presentation","165","394012","0.0-32.0-1.6","SS1613100045246","trial","","40","800","2270.58000000834","images/stimuli/spore_stims/simple_20_A_c.gif","images/stimuli/spore_stims/simple_20_B_c.gif","","","","","8","simple_similar","images/stimuli/spore_stims/simple_20_B_c.gif","middle","","","","",""
"","null","html-keyboard-response","166","394889","0.0-32.0-0.7","SS1613100045246","","","null","","","","","<p><img src= images/blank.png width =""200"" height = ""200"" style = ""float:right""></p><p><img src=images/blank.png width =""800"" height = ""200""></p>","","","","","","","","","","","",""
"","1083.3549999952083","sequential-stimulus-presentation","167","396794","0.0-32.0-1.7","SS1613100045246","trial","","40","800","1883.3549999952083","images/stimuli/spore_stims/simple_20_A_c.gif","images/stimuli/spore_stims/simple_20_B_c.gif","","","","","8","simple_similar","images/stimuli/spore_stims/simple_20_B_c.gif","middle","","","","",""
"","1071.3050000049407","html-keyboard-response","168","397877","0.0-33.0","SS1613100045246","pref_question","","51","","","","","<video width ='960' height = '540' style='padding-top:8%' autoplay muted><source src='images/stimuli/wall_pref.mp4' type='video/mp4'></video>","3","right","66%","8","","","","","","","",""
"","4118.740000005346","sequential-stimulus-presentation","169","402846","0.0-34.0","SS1613100045246","pref_reveal","","40","800","4918.740000005346","null","null","","","","","8","","","","novel","","","",""
"","null","html-keyboard-response","170","404062","0.0-35.0-0.0","SS1613100045246","","","null","","","","","<p><img src= images/blank.png width =""200"" height = ""200"" style = ""float:right""></p><p><img src=images/blank.png width =""800"" height = ""200""></p>","","","","","","","","","","","",""
"","1025.6550000049174","sequential-stimulus-presentation","171","405911","0.0-35.0-1.0","SS1613100045246","trial","","40","800","1825.6550000049174","images/stimuli/spore_stims/complex_07_B_c.gif","images/stimuli/spore_stims/complex_07_A_c.gif","","","","","9","complex_similar","images/stimuli/spore_stims/complex_07_A_c.gif","right","","","","",""
"","null","html-keyboard-response","172","406747","0.0-35.0-0.1","SS1613100045246","","","null","","","","","<p><img src= images/blank.png width =""200"" height = ""200"" style = ""float:right""></p><p><img src=images/blank.png width =""800"" height = ""200""></p>","","","","","","","","","","","",""
"","587.8150000062305","sequential-stimulus-presentation","173","408165","0.0-35.0-1.1","SS1613100045246","trial","","40","800","1387.8150000062305","images/stimuli/spore_stims/complex_07_B_c.gif","images/stimuli/spore_stims/complex_07_A_c.gif","","","","","9","complex_similar","images/stimuli/spore_stims/complex_07_A_c.gif","right","","","","",""
"","null","html-keyboard-response","174","409154","0.0-35.0-0.2","SS1613100045246","","","null","","","","","<p><img src= images/blank.png width =""200"" height = ""200"" style = ""float:right""></p><p><img src=images/blank.png width =""800"" height = ""200""></p>","","","","","","","","","","","",""
"","549.7150000010151","sequential-stimulus-presentation","175","410527","0.0-35.0-1.2","SS1613100045246","trial","","40","800","1349.7150000010151","images/stimuli/spore_stims/complex_07_B_c.gif","images/stimuli/spore_stims/complex_07_A_c.gif","","","","","9","complex_similar","images/stimuli/spore_stims/complex_07_A_c.gif","right","","","","",""
"","null","html-keyboard-response","176","411378","0.0-35.0-0.3","SS1613100045246","","","null","","","","","<p><img src= images/blank.png width =""200"" height = ""200"" style = ""float:right""></p><p><img src=images/blank.png width =""800"" height = ""200""></p>","","","","","","","","","","","",""
"","492.62499999895226","sequential-stimulus-presentation","177","412694","0.0-35.0-1.3","SS1613100045246","trial","","40","800","1292.6249999989523","images/stimuli/spore_stims/complex_07_B_c.gif","images/stimuli/spore_stims/complex_07_A_c.gif","","","","","9","complex_similar","images/stimuli/spore_stims/complex_07_A_c.gif","right","","","","",""
"","null","html-keyboard-response","178","413760","0.0-35.0-0.4","SS1613100045246","","","null","","","","","<p><img src= images/blank.png width =""200"" height = ""200"" style = ""float:right""></p><p><img src=images/blank.png width =""800"" height = ""200""></p>","","","","","","","","","","","",""
"","416.7799999995623","sequential-stimulus-presentation","179","415007","0.0-35.0-1.4","SS1613100045246","trial","","40","800","1216.7799999995623","images/stimuli/spore_stims/complex_07_B_c.gif","images/stimuli/spore_stims/complex_07_A_c.gif","","","","","9","complex_similar","images/stimuli/spore_stims/complex_07_A_c.gif","right","","","","",""
"","null","html-keyboard-response","180","416027","0.0-35.0-0.5","SS1613100045246","","","null","","","","","<p><img src= images/blank.png width =""200"" height = ""200"" style = ""float:right""></p><p><img src=images/blank.png width =""800"" height = ""200""></p>","","","","","","","","","","","",""
"","2404.2800000024727","sequential-stimulus-presentation","181","419250","0.0-35.0-1.5","SS1613100045246","trial","","40","800","3204.2800000024727","images/stimuli/spore_stims/complex_07_B_c.gif","images/stimuli/spore_stims/complex_07_A_c.gif","","","","","9","complex_similar","images/stimuli/spore_stims/complex_07_B_c.gif","middle","","","","",""
"","null","html-keyboard-response","182","420246","0.0-35.0-0.6","SS1613100045246","","","null","","","","","<p><img src= images/blank.png width =""200"" height = ""200"" style = ""float:right""></p><p><img src=images/blank.png width =""800"" height = ""200""></p>","","","","","","","","","","","",""
"","1786.405000006198","sequential-stimulus-presentation","183","422863","0.0-35.0-1.6","SS1613100045246","trial","","40","800","2586.405000006198","images/stimuli/spore_stims/complex_07_B_c.gif","images/stimuli/spore_stims/complex_07_A_c.gif","","","","","9","complex_similar","images/stimuli/spore_stims/complex_07_A_c.gif","right","","","","",""
"","null","html-keyboard-response","184","423878","0.0-35.0-0.7","SS1613100045246","","","null","","","","","<p><img src= images/blank.png width =""200"" height = ""200"" style = ""float:right""></p><p><img src=images/blank.png width =""800"" height = ""200""></p>","","","","","","","","","","","",""
"","2044.770000007702","sequential-stimulus-presentation","185","426743","0.0-35.0-1.7","SS1613100045246","trial","","40","800","2844.770000007702","images/stimuli/spore_stims/complex_07_B_c.gif","images/stimuli/spore_stims/complex_07_A_c.gif","","","","","9","complex_similar","images/stimuli/spore_stims/complex_07_A_c.gif","right","","","","",""
"","2198.245000006864","html-keyboard-response","186","428959","0.0-36.0","SS1613100045246","pref_question","","49","","","","","<video width ='960' height = '540' style='padding-top:8%' autoplay muted><source src='images/stimuli/wall_pref.mp4' type='video/mp4'></video>","1","left","25%","9","","","","","","","",""
"","5552.110000004177","sequential-stimulus-presentation","187","435416","0.0-37.0","SS1613100045246","pref_reveal","","40","800","6352.110000004177","null","null","","","","","9","","","","novel","","","",""
"","null","html-keyboard-response","188","436661","0.0-38.0-0.0","SS1613100045246","","","null","","","","","<p><img src= images/blank.png width =""200"" height = ""200"" style = ""float:right""></p><p><img src=images/blank.png width =""800"" height = ""200""></p>","","","","","","","","","","","",""
"","1974.674999990384","sequential-stimulus-presentation","189","439462","0.0-38.0-1.0","SS1613100045246","trial","","40","800","2774.674999990384","images/stimuli/spore_stims/simple_11_B_c.gif","images/stimuli/spore_stims/simple_07_A_a.gif","","","","","10","simple_dissimilar","images/stimuli/spore_stims/simple_07_A_a.gif","right","","","","",""
"","null","html-keyboard-response","190","440430","0.0-38.0-0.1","SS1613100045246","","","null","","","","","<p><img src= images/blank.png width =""200"" height = ""200"" style = ""float:right""></p><p><img src=images/blank.png width =""800"" height = ""200""></p>","","","","","","","","","","","",""
"","1491.1750000028405","sequential-stimulus-presentation","191","442755","0.0-38.0-1.1","SS1613100045246","trial","","40","800","2291.1750000028405","images/stimuli/spore_stims/simple_11_B_c.gif","images/stimuli/spore_stims/simple_07_A_a.gif","","","","","10","simple_dissimilar","images/stimuli/spore_stims/simple_07_A_a.gif","right","","","","",""
"","null","html-keyboard-response","192","444059","0.0-38.0-0.2","SS1613100045246","","","null","","","","","<p><img src= images/blank.png width =""200"" height = ""200"" style = ""float:right""></p><p><img src=images/blank.png width =""800"" height = ""200""></p>","","","","","","","","","","","",""
"","1016.0550000000512","sequential-stimulus-presentation","193","445899","0.0-38.0-1.2","SS1613100045246","trial","","40","800","1816.0550000000512","images/stimuli/spore_stims/simple_11_B_c.gif","images/stimuli/spore_stims/simple_07_A_a.gif","","","","","10","simple_dissimilar","images/stimuli/spore_stims/simple_07_A_a.gif","right","","","","",""
"","null","html-keyboard-response","194","447151","0.0-38.0-0.3","SS1613100045246","","","null","","","","","<p><img src= images/blank.png width =""200"" height = ""200"" style = ""float:right""></p><p><img src=images/blank.png width =""800"" height = ""200""></p>","","","","","","","","","","","",""
"","1793.5399999987567","sequential-stimulus-presentation","195","449772","0.0-38.0-1.3","SS1613100045246","trial","","40","800","2593.5399999987567","images/stimuli/spore_stims/simple_11_B_c.gif","images/stimuli/spore_stims/simple_07_A_a.gif","","","","","10","simple_dissimilar","images/stimuli/spore_stims/simple_11_B_c.gif","left","","","","",""
"","null","html-keyboard-response","196","451053","0.0-38.0-0.4","SS1613100045246","","","null","","","","","<p><img src= images/blank.png width =""200"" height = ""200"" style = ""float:right""></p><p><img src=images/blank.png width =""800"" height = ""200""></p>","","","","","","","","","","","",""
"","1087.9649999988033","sequential-stimulus-presentation","197","452979","0.0-38.0-1.4","SS1613100045246","trial","","40","800","1887.9649999988033","images/stimuli/spore_stims/simple_11_B_c.gif","images/stimuli/spore_stims/simple_07_A_a.gif","","","","","10","simple_dissimilar","images/stimuli/spore_stims/simple_07_A_a.gif","right","","","","",""
"","null","html-keyboard-response","198","454238","0.0-38.0-0.5","SS1613100045246","","","null","","","","","<p><img src= images/blank.png width =""200"" height = ""200"" style = ""float:right""></p><p><img src=images/blank.png width =""800"" height = ""200""></p>","","","","","","","","","","","",""
"","1108.7299999926472","sequential-stimulus-presentation","199","456168","0.0-38.0-1.5","SS1613100045246","trial","","40","800","1908.7299999926472","images/stimuli/spore_stims/simple_11_B_c.gif","images/stimuli/spore_stims/simple_07_A_a.gif","","","","","10","simple_dissimilar","images/stimuli/spore_stims/simple_07_A_a.gif","right","","","","",""
"","null","html-keyboard-response","200","457308","0.0-38.0-0.6","SS1613100045246","","","null","","","","","<p><img src= images/blank.png width =""200"" height = ""200"" style = ""float:right""></p><p><img src=images/blank.png width =""800"" height = ""200""></p>","","","","","","","","","","","",""
"","399.6550000010757","sequential-stimulus-presentation","201","458546","0.0-38.0-1.6","SS1613100045246","trial","","40","800","1199.6550000010757","images/stimuli/spore_stims/simple_11_B_c.gif","images/stimuli/spore_stims/simple_07_A_a.gif","","","","","10","simple_dissimilar","images/stimuli/spore_stims/simple_07_A_a.gif","right","","","","",""
"","null","html-keyboard-response","202","459747","0.0-38.0-0.7","SS1613100045246","","","null","","","","","<p><img src= images/blank.png width =""200"" height = ""200"" style = ""float:right""></p><p><img src=images/blank.png width =""800"" height = ""200""></p>","","","","","","","","","","","",""
"","931.1749999906169","sequential-stimulus-presentation","203","461501","0.0-38.0-1.7","SS1613100045246","trial","","40","800","1731.174999990617","images/stimuli/spore_stims/simple_11_B_c.gif","images/stimuli/spore_stims/simple_07_A_a.gif","","","","","10","simple_dissimilar","images/stimuli/spore_stims/simple_07_A_a.gif","right","","","","",""
"","1625.9700000082375","html-keyboard-response","204","463141","0.0-39.0","SS1613100045246","pref_question","","50","","","","","<video width ='960' height = '540' style='padding-top:8%' autoplay muted><source src='images/stimuli/wall_pref.mp4' type='video/mp4'></video>","2","middle","45%","10","","","","","","","",""
"","3725.2900000021327","sequential-stimulus-presentation","205","467752","0.0-40.0","SS1613100045246","pref_reveal","","40","800","4525.290000002133","null","null","","","","","10","","","","novel","","","",""
"","null","html-keyboard-response","206","468794","0.0-41.0-0.0","SS1613100045246","","","null","","","","","<p><img src= images/blank.png width =""200"" height = ""200"" style = ""float:right""></p><p><img src=images/blank.png width =""800"" height = ""200""></p>","","","","","","","","","","","",""
"","1670.0949999940349","sequential-stimulus-presentation","207","471301","0.0-41.0-1.0","SS1613100045246","trial","","40","800","2470.094999994035","images/stimuli/spore_stims/complex_12_A_d.gif","images/stimuli/spore_stims/complex_13_B_a.gif","","","","","11","complex_dissimilar","images/stimuli/spore_stims/complex_13_B_a.gif","middle","","","","",""
"","null","html-keyboard-response","208","472612","0.0-41.0-0.1","SS1613100045246","","","null","","","","","<p><img src= images/blank.png width =""200"" height = ""200"" style = ""float:right""></p><p><img src=images/blank.png width =""800"" height = ""200""></p>","","","","","","","","","","","",""
"","349.7650000063004","sequential-stimulus-presentation","209","473795","0.0-41.0-1.1","SS1613100045246","trial","","40","800","1149.7650000063004","images/stimuli/spore_stims/complex_12_A_d.gif","images/stimuli/spore_stims/complex_13_B_a.gif","","","","","11","complex_dissimilar","images/stimuli/spore_stims/complex_13_B_a.gif","middle","","","","",""
"","null","html-keyboard-response","210","475061","0.0-41.0-0.2","SS1613100045246","","","null","","","","","<p><img src= images/blank.png width =""200"" height = ""200"" style = ""float:right""></p><p><img src=images/blank.png width =""800"" height = ""200""></p>","","","","","","","","","","","",""
"","1045.2550000045449","sequential-stimulus-presentation","211","476927","0.0-41.0-1.2","SS1613100045246","trial","","40","800","1845.2550000045449","images/stimuli/spore_stims/complex_12_A_d.gif","images/stimuli/spore_stims/complex_13_B_a.gif","","","","","11","complex_dissimilar","images/stimuli/spore_stims/complex_12_A_d.gif","left","","","","",""
"","null","html-keyboard-response","212","478223","0.0-41.0-0.3","SS1613100045246","","","null","","","","","<p><img src= images/blank.png width =""200"" height = ""200"" style = ""float:right""></p><p><img src=images/blank.png width =""800"" height = ""200""></p>","","","","","","","","","","","",""
"","863.7149999995017","sequential-stimulus-presentation","213","479902","0.0-41.0-1.3","SS1613100045246","trial","","40","800","1663.7149999995017","images/stimuli/spore_stims/complex_12_A_d.gif","images/stimuli/spore_stims/complex_13_B_a.gif","","","","","11","complex_dissimilar","images/stimuli/spore_stims/complex_13_B_a.gif","middle","","","","",""
"","null","html-keyboard-response","214","481052","0.0-41.0-0.4","SS1613100045246","","","null","","","","","<p><img src= images/blank.png width =""200"" height = ""200"" style = ""float:right""></p><p><img src=images/blank.png width =""800"" height = ""200""></p>","","","","","","","","","","","",""
"","497.5350000022445","sequential-stimulus-presentation","215","482375","0.0-41.0-1.4","SS1613100045246","trial","","40","800","1297.5350000022445","images/stimuli/spore_stims/complex_12_A_d.gif","images/stimuli/spore_stims/complex_13_B_a.gif","","","","","11","complex_dissimilar","images/stimuli/spore_stims/complex_13_B_a.gif","middle","","","","",""
"","null","html-keyboard-response","216","483560","0.0-41.0-0.5","SS1613100045246","","","null","","","","","<p><img src= images/blank.png width =""200"" height = ""200"" style = ""float:right""></p><p><img src=images/blank.png width =""800"" height = ""200""></p>","","","","","","","","","","","",""
"","1003.6249999975553","sequential-stimulus-presentation","217","485385","0.0-41.0-1.5","SS1613100045246","trial","","40","800","1803.6249999975553","images/stimuli/spore_stims/complex_12_A_d.gif","images/stimuli/spore_stims/complex_13_B_a.gif","","","","","11","complex_dissimilar","images/stimuli/spore_stims/complex_13_B_a.gif","middle","","","","",""
"","null","html-keyboard-response","218","486218","0.0-41.0-0.6","SS1613100045246","","","null","","","","","<p><img src= images/blank.png width =""200"" height = ""200"" style = ""float:right""></p><p><img src=images/blank.png width =""800"" height = ""200""></p>","","","","","","","","","","","",""
"","487.59000000427477","sequential-stimulus-presentation","219","487541","0.0-41.0-1.6","SS1613100045246","trial","","40","800","1287.5900000042748","images/stimuli/spore_stims/complex_12_A_d.gif","images/stimuli/spore_stims/complex_13_B_a.gif","","","","","11","complex_dissimilar","images/stimuli/spore_stims/complex_13_B_a.gif","middle","","","","",""
"","null","html-keyboard-response","220","488775","0.0-41.0-0.7","SS1613100045246","","","null","","","","","<p><img src= images/blank.png width =""200"" height = ""200"" style = ""float:right""></p><p><img src=images/blank.png width =""800"" height = ""200""></p>","","","","","","","","","","","",""
"","727.165000003879","sequential-stimulus-presentation","221","490360","0.0-41.0-1.7","SS1613100045246","trial","","40","800","1527.165000003879","images/stimuli/spore_stims/complex_12_A_d.gif","images/stimuli/spore_stims/complex_13_B_a.gif","","","","","11","complex_dissimilar","images/stimuli/spore_stims/complex_13_B_a.gif","middle","","","","",""
"","4062.319999997271","html-keyboard-response","222","494434","0.0-42.0","SS1613100045246","pref_question","","49","","","","","<video width ='960' height = '540' style='padding-top:8%' autoplay muted><source src='images/stimuli/wall_pref.mp4' type='video/mp4'></video>","1","left","25%","11","","","","","","","",""
"","1012.2649999975692","sequential-stimulus-presentation","223","496270","0.0-43.0","SS1613100045246","pref_reveal","","40","800","1812.2649999975692","null","null","","","","","11","","","","deviant","","","",""
"","null","html-keyboard-response","224","497364","0.0-44.0-0.0","SS1613100045246","","","null","","","","","<p><img src= images/blank.png width =""200"" height = ""200"" style = ""float:right""></p><p><img src=images/blank.png width =""800"" height = ""200""></p>","","","","","","","","","","","",""
"","3569.825000013225","sequential-stimulus-presentation","225","501762","0.0-44.0-1.0","SS1613100045246","trial","","40","800","4369.825000013225","images/stimuli/spore_stims/simple_16_A_d.gif","images/stimuli/spore_stims/simple_16_B_d.gif","","","","","12","simple_similar","images/stimuli/spore_stims/simple_16_B_d.gif","left","","","","",""
"","null","html-keyboard-response","226","502823","0.0-44.0-0.1","SS1613100045246","","","null","","","","","<p><img src= images/blank.png width =""200"" height = ""200"" style = ""float:right""></p><p><img src=images/blank.png width =""800"" height = ""200""></p>","","","","","","","","","","","",""
"","62.384999997448176","sequential-stimulus-presentation","227","503722","0.0-44.0-1.1","SS1613100045246","trial","","40","800","862.3849999974482","images/stimuli/spore_stims/simple_16_A_d.gif","images/stimuli/spore_stims/simple_16_B_d.gif","","","","","12","simple_similar","images/stimuli/spore_stims/simple_16_B_d.gif","left","","","","",""
"","null","html-keyboard-response","228","504747","0.0-44.0-0.2","SS1613100045246","","","null","","","","","<p><img src= images/blank.png width =""200"" height = ""200"" style = ""float:right""></p><p><img src=images/blank.png width =""800"" height = ""200""></p>","","","","","","","","","","","",""
"","2026.5799999906449","sequential-stimulus-presentation","229","507614","0.0-44.0-1.2","SS1613100045246","trial","","40","800","2826.579999990645","images/stimuli/spore_stims/simple_16_A_d.gif","images/stimuli/spore_stims/simple_16_B_d.gif","","","","","12","simple_similar","images/stimuli/spore_stims/simple_16_B_d.gif","left","","","","",""
"","null","html-keyboard-response","230","508824","0.0-44.0-0.3","SS1613100045246","","","null","","","","","<p><img src= images/blank.png width =""200"" height = ""200"" style = ""float:right""></p><p><img src=images/blank.png width =""800"" height = ""200""></p>","","","","","","","","","","","",""
"","1608.1100000010338","sequential-stimulus-presentation","231","511282","0.0-44.0-1.3","SS1613100045246","trial","","40","800","2408.1100000010338","images/stimuli/spore_stims/simple_16_A_d.gif","images/stimuli/spore_stims/simple_16_B_d.gif","","","","","12","simple_similar","images/stimuli/spore_stims/simple_16_B_d.gif","left","","","","",""
"","null","html-keyboard-response","232","512507","0.0-44.0-0.4","SS1613100045246","","","null","","","","","<p><img src= images/blank.png width =""200"" height = ""200"" style = ""float:right""></p><p><img src=images/blank.png width =""800"" height = ""200""></p>","","","","","","","","","","","",""
"","565.5100000003586","sequential-stimulus-presentation","233","513892","0.0-44.0-1.4","SS1613100045246","trial","","40","800","1365.5100000003586","images/stimuli/spore_stims/simple_16_A_d.gif","images/stimuli/spore_stims/simple_16_B_d.gif","","","","","12","simple_similar","images/stimuli/spore_stims/simple_16_B_d.gif","left","","","","",""
"","null","html-keyboard-response","234","515141","0.0-44.0-0.5","SS1613100045246","","","null","","","","","<p><img src= images/blank.png width =""200"" height = ""200"" style = ""float:right""></p><p><img src=images/blank.png width =""800"" height = ""200""></p>","","","","","","","","","","","",""
"","15.78499999595806","sequential-stimulus-presentation","235","515986","0.0-44.0-1.5","SS1613100045246","trial","","40","800","815.7849999959581","images/stimuli/spore_stims/simple_16_A_d.gif","images/stimuli/spore_stims/simple_16_B_d.gif","","","","","12","simple_similar","images/stimuli/spore_stims/simple_16_B_d.gif","left","","","","",""
"","null","html-keyboard-response","236","516938","0.0-44.0-0.6","SS1613100045246","","","null","","","","","<p><img src= images/blank.png width =""200"" height = ""200"" style = ""float:right""></p><p><img src=images/blank.png width =""800"" height = ""200""></p>","","","","","","","","","","","",""
"","1095.260000001872","sequential-stimulus-presentation","237","518904","0.0-44.0-1.6","SS1613100045246","trial","","40","800","1895.260000001872","images/stimuli/spore_stims/simple_16_A_d.gif","images/stimuli/spore_stims/simple_16_B_d.gif","","","","","12","simple_similar","images/stimuli/spore_stims/simple_16_B_d.gif","left","","","","",""
"","null","html-keyboard-response","238","519797","0.0-44.0-0.7","SS1613100045246","","","null","","","","","<p><img src= images/blank.png width =""200"" height = ""200"" style = ""float:right""></p><p><img src=images/blank.png width =""800"" height = ""200""></p>","","","","","","","","","","","",""
"","620.760000005248","sequential-stimulus-presentation","239","521246","0.0-44.0-1.7","SS1613100045246","trial","","40","800","1420.760000005248","images/stimuli/spore_stims/simple_16_A_d.gif","images/stimuli/spore_stims/simple_16_B_d.gif","","","","","12","simple_similar","images/stimuli/spore_stims/simple_16_A_d.gif","middle","","","","",""
"","1329.0800000104355","html-keyboard-response","240","522592","0.0-45.0","SS1613100045246","pref_question","","51","","","","","<video width ='960' height = '540' style='padding-top:8%' autoplay muted><source src='images/stimuli/wall_pref.mp4' type='video/mp4'></video>","3","right","66%","12","","","","","","","",""
"","4974.40999999526","sequential-stimulus-presentation","241","528388","0.0-46.0","SS1613100045246","pref_reveal","","40","800","5774.40999999526","null","null","","","","","12","","","","novel","","","",""
"","null","html-keyboard-response","242","529437","0.0-47.0-0.0","SS1613100045246","","","null","","","","","<p><img src= images/blank.png width =""200"" height = ""200"" style = ""float:right""></p><p><img src=images/blank.png width =""800"" height = ""200""></p>","","","","","","","","","","","",""
"","1868.9500000036787","sequential-stimulus-presentation","243","532131","0.0-47.0-1.0","SS1613100045246","trial","","40","800","2668.9500000036787","images/stimuli/spore_stims/complex_05_A_b.gif","images/stimuli/spore_stims/complex_01_A_b.gif","","","","","13","complex_dissimilar","images/stimuli/spore_stims/complex_01_A_b.gif","middle","","","","",""
"","null","html-keyboard-response","244","533288","0.0-47.0-0.1","SS1613100045246","","","null","","","","","<p><img src= images/blank.png width =""200"" height = ""200"" style = ""float:right""></p><p><img src=images/blank.png width =""800"" height = ""200""></p>","","","","","","","","","","","",""
"","148.24500000395346","sequential-stimulus-presentation","245","534259","0.0-47.0-1.1","SS1613100045246","trial","","40","800","948.2450000039535","images/stimuli/spore_stims/complex_05_A_b.gif","images/stimuli/spore_stims/complex_01_A_b.gif","","","","","13","complex_dissimilar","images/stimuli/spore_stims/complex_01_A_b.gif","middle","","","","",""
"","null","html-keyboard-response","246","535538","0.0-47.0-0.2","SS1613100045246","","","null","","","","","<p><img src= images/blank.png width =""200"" height = ""200"" style = ""float:right""></p><p><img src=images/blank.png width =""800"" height = ""200""></p>","","","","","","","","","","","",""
"","1708.8999999978114","sequential-stimulus-presentation","247","538137","0.0-47.0-1.2","SS1613100045246","trial","","40","800","2508.8999999978114","images/stimuli/spore_stims/complex_05_A_b.gif","images/stimuli/spore_stims/complex_01_A_b.gif","","","","","13","complex_dissimilar","images/stimuli/spore_stims/complex_01_A_b.gif","middle","","","","",""
"","null","html-keyboard-response","248","539132","0.0-47.0-0.3","SS1613100045246","","","null","","","","","<p><img src= images/blank.png width =""200"" height = ""200"" style = ""float:right""></p><p><img src=images/blank.png width =""800"" height = ""200""></p>","","","","","","","","","","","",""
"","1347.634999998263","sequential-stimulus-presentation","249","541301","0.0-47.0-1.3","SS1613100045246","trial","","40","800","2147.634999998263","images/stimuli/spore_stims/complex_05_A_b.gif","images/stimuli/spore_stims/complex_01_A_b.gif","","","","","13","complex_dissimilar","images/stimuli/spore_stims/complex_01_A_b.gif","middle","","","","",""
"","null","html-keyboard-response","250","542232","0.0-47.0-0.4","SS1613100045246","","","null","","","","","<p><img src= images/blank.png width =""200"" height = ""200"" style = ""float:right""></p><p><img src=images/blank.png width =""800"" height = ""200""></p>","","","","","","","","","","","",""
"","827.8299999947194","sequential-stimulus-presentation","251","543893","0.0-47.0-1.4","SS1613100045246","trial","","40","800","1627.8299999947194","images/stimuli/spore_stims/complex_05_A_b.gif","images/stimuli/spore_stims/complex_01_A_b.gif","","","","","13","complex_dissimilar","images/stimuli/spore_stims/complex_01_A_b.gif","middle","","","","",""
"","null","html-keyboard-response","252","544913","0.0-47.0-0.5","SS1613100045246","","","null","","","","","<p><img src= images/blank.png width =""200"" height = ""200"" style = ""float:right""></p><p><img src=images/blank.png width =""800"" height = ""200""></p>","","","","","","","","","","","",""
"","665.0300000037532","sequential-stimulus-presentation","253","546414","0.0-47.0-1.5","SS1613100045246","trial","","40","800","1465.0300000037532","images/stimuli/spore_stims/complex_05_A_b.gif","images/stimuli/spore_stims/complex_01_A_b.gif","","","","","13","complex_dissimilar","images/stimuli/spore_stims/complex_01_A_b.gif","middle","","","","",""
"","null","html-keyboard-response","254","547388","0.0-47.0-0.6","SS1613100045246","","","null","","","","","<p><img src= images/blank.png width =""200"" height = ""200"" style = ""float:right""></p><p><img src=images/blank.png width =""800"" height = ""200""></p>","","","","","","","","","","","",""
"","2677.174999989802","sequential-stimulus-presentation","255","550900","0.0-47.0-1.6","SS1613100045246","trial","","40","800","3477.174999989802","images/stimuli/spore_stims/complex_05_A_b.gif","images/stimuli/spore_stims/complex_01_A_b.gif","","","","","13","complex_dissimilar","images/stimuli/spore_stims/complex_05_A_b.gif","right","","","","",""
"","null","html-keyboard-response","256","551837","0.0-47.0-0.7","SS1613100045246","","","null","","","","","<p><img src= images/blank.png width =""200"" height = ""200"" style = ""float:right""></p><p><img src=images/blank.png width =""800"" height = ""200""></p>","","","","","","","","","","","",""
"","3671.860000002198","sequential-stimulus-presentation","257","556335","0.0-47.0-1.7","SS1613100045246","trial","","40","800","4471.860000002198","images/stimuli/spore_stims/complex_05_A_b.gif","images/stimuli/spore_stims/complex_01_A_b.gif","","","","","13","complex_dissimilar","images/stimuli/spore_stims/complex_01_A_b.gif","middle","","","","",""
"","1770.090000005439","html-keyboard-response","258","558126","0.0-48.0","SS1613100045246","pref_question","","51","","","","","<video width ='960' height = '540' style='padding-top:8%' autoplay muted><source src='images/stimuli/wall_pref.mp4' type='video/mp4'></video>","3","right","66%","13","","","","","","","",""
"","5620.234999994864","sequential-stimulus-presentation","259","564568","0.0-49.0","SS1613100045246","pref_reveal","","40","800","6420.234999994864","null","null","","","","","13","","","","deviant","","","",""
"","null","html-keyboard-response","260","565573","0.0-50.0-0.0","SS1613100045246","","","null","","","","","<p><img src= images/blank.png width =""200"" height = ""200"" style = ""float:right""></p><p><img src=images/blank.png width =""800"" height = ""200""></p>","","","","","","","","","","","",""
"","1027.3299999971641","sequential-stimulus-presentation","261","567432","0.0-50.0-1.0","SS1613100045246","trial","","40","800","1827.3299999971641","images/stimuli/spore_stims/complex_15_A_b.gif","images/stimuli/spore_stims/complex_15_B_b.gif","","","","","14","complex_similar","images/stimuli/spore_stims/complex_15_B_b.gif","middle","","","","",""
"","null","html-keyboard-response","262","568576","0.0-50.0-0.1","SS1613100045246","","","null","","","","","<p><img src= images/blank.png width =""200"" height = ""200"" style = ""float:right""></p><p><img src=images/blank.png width =""800"" height = ""200""></p>","","","","","","","","","","","",""
"","2926.6050000005635","sequential-stimulus-presentation","263","572332","0.0-50.0-1.1","SS1613100045246","trial","","40","800","3726.6050000005635","images/stimuli/spore_stims/complex_15_A_b.gif","images/stimuli/spore_stims/complex_15_B_b.gif","","","","","14","complex_similar","images/stimuli/spore_stims/complex_15_B_b.gif","middle","","","","",""
"","null","html-keyboard-response","264","573304","0.0-50.0-0.2","SS1613100045246","","","null","","","","","<p><img src= images/blank.png width =""200"" height = ""200"" style = ""float:right""></p><p><img src=images/blank.png width =""800"" height = ""200""></p>","","","","","","","","","","","",""
"","4662.494999996852","sequential-stimulus-presentation","265","578793","0.0-50.0-1.2","SS1613100045246","trial","","40","800","5462.494999996852","images/stimuli/spore_stims/complex_15_A_b.gif","images/stimuli/spore_stims/complex_15_B_b.gif","","","","","14","complex_similar","images/stimuli/spore_stims/complex_15_B_b.gif","middle","","","","",""
"","null","html-keyboard-response","266","580048","0.0-50.0-0.3","SS1613100045246","","","null","","","","","<p><img src= images/blank.png width =""200"" height = ""200"" style = ""float:right""></p><p><img src=images/blank.png width =""800"" height = ""200""></p>","","","","","","","","","","","",""
"","2736.8900000001304","sequential-stimulus-presentation","267","583649","0.0-50.0-1.3","SS1613100045246","trial","","40","800","3536.8900000001304","images/stimuli/spore_stims/complex_15_A_b.gif","images/stimuli/spore_stims/complex_15_B_b.gif","","","","","14","complex_similar","images/stimuli/spore_stims/complex_15_B_b.gif","middle","","","","",""
"","null","html-keyboard-response","268","584918","0.0-50.0-0.4","SS1613100045246","","","null","","","","","<p><img src= images/blank.png width =""200"" height = ""200"" style = ""float:right""></p><p><img src=images/blank.png width =""800"" height = ""200""></p>","","","","","","","","","","","",""
"","879.6000000002095","sequential-stimulus-presentation","269","586621","0.0-50.0-1.4","SS1613100045246","trial","","40","800","1679.6000000002095","images/stimuli/spore_stims/complex_15_A_b.gif","images/stimuli/spore_stims/complex_15_B_b.gif","","","","","14","complex_similar","images/stimuli/spore_stims/complex_15_B_b.gif","middle","","","","",""
"","null","html-keyboard-response","270","587726","0.0-50.0-0.5","SS1613100045246","","","null","","","","","<p><img src= images/blank.png width =""200"" height = ""200"" style = ""float:right""></p><p><img src=images/blank.png width =""800"" height = ""200""></p>","","","","","","","","","","","",""
"","743.319999994128","sequential-stimulus-presentation","271","589297","0.0-50.0-1.5","SS1613100045246","trial","","40","800","1543.319999994128","images/stimuli/spore_stims/complex_15_A_b.gif","images/stimuli/spore_stims/complex_15_B_b.gif","","","","","14","complex_similar","images/stimuli/spore_stims/complex_15_B_b.gif","middle","","","","",""
"","null","html-keyboard-response","272","590241","0.0-50.0-0.6","SS1613100045246","","","null","","","","","<p><img src= images/blank.png width =""200"" height = ""200"" style = ""float:right""></p><p><img src=images/blank.png width =""800"" height = ""200""></p>","","","","","","","","","","","",""
"","1371.0600000049453","sequential-stimulus-presentation","273","592443","0.0-50.0-1.6","SS1613100045246","trial","","40","800","2171.0600000049453","images/stimuli/spore_stims/complex_15_A_b.gif","images/stimuli/spore_stims/complex_15_B_b.gif","","","","","14","complex_similar","images/stimuli/spore_stims/complex_15_B_b.gif","middle","","","","",""
"","null","html-keyboard-response","274","593752","0.0-50.0-0.7","SS1613100045246","","","null","","","","","<p><img src= images/blank.png width =""200"" height = ""200"" style = ""float:right""></p><p><img src=images/blank.png width =""800"" height = ""200""></p>","","","","","","","","","","","",""
"","1741.634999998496","sequential-stimulus-presentation","275","596322","0.0-50.0-1.7","SS1613100045246","trial","","40","800","2541.634999998496","images/stimuli/spore_stims/complex_15_A_b.gif","images/stimuli/spore_stims/complex_15_B_b.gif","","","","","14","complex_similar","images/stimuli/spore_stims/complex_15_A_b.gif","right","","","","",""
"","1371.1699999985285","html-keyboard-response","276","597717","0.0-51.0","SS1613100045246","pref_question","","49","","","","","<video width ='960' height = '540' style='padding-top:8%' autoplay muted><source src='images/stimuli/wall_pref.mp4' type='video/mp4'></video>","1","left","25%","14","","","","","","","",""
"","4649.265000000014","sequential-stimulus-presentation","277","603183","0.0-52.0","SS1613100045246","pref_reveal","","40","800","5449.265000000014","null","null","","","","","14","","","","novel","","","",""
"","null","html-keyboard-response","278","604126","0.0-53.0-0.0","SS1613100045246","","","null","","","","","<p><img src= images/blank.png width =""200"" height = ""200"" style = ""float:right""></p><p><img src=images/blank.png width =""800"" height = ""200""></p>","","","","","","","","","","","",""
"","1464.0649999928428","sequential-stimulus-presentation","279","606425","0.0-53.0-1.0","SS1613100045246","trial","","40","800","2264.064999992843","images/stimuli/spore_stims/simple_16_A_c.gif","images/stimuli/spore_stims/simple_14_A_d.gif","","","","","15","simple_dissimilar","images/stimuli/spore_stims/simple_14_A_d.gif","right","","","","",""
"","null","html-keyboard-response","280","607401","0.0-53.0-0.1","SS1613100045246","","","null","","","","","<p><img src= images/blank.png width =""200"" height = ""200"" style = ""float:right""></p><p><img src=images/blank.png width =""800"" height = ""200""></p>","","","","","","","","","","","",""
"","1318.2399999932386","sequential-stimulus-presentation","281","609571","0.0-53.0-1.1","SS1613100045246","trial","","40","800","2118.2399999932386","images/stimuli/spore_stims/simple_16_A_c.gif","images/stimuli/spore_stims/simple_14_A_d.gif","","","","","15","simple_dissimilar","images/stimuli/spore_stims/simple_14_A_d.gif","right","","","","",""
"","null","html-keyboard-response","282","610881","0.0-53.0-0.2","SS1613100045246","","","null","","","","","<p><img src= images/blank.png width =""200"" height = ""200"" style = ""float:right""></p><p><img src=images/blank.png width =""800"" height = ""200""></p>","","","","","","","","","","","",""
"","1165.4249999992317","sequential-stimulus-presentation","283","612884","0.0-53.0-1.2","SS1613100045246","trial","","40","800","1965.4249999992317","images/stimuli/spore_stims/simple_16_A_c.gif","images/stimuli/spore_stims/simple_14_A_d.gif","","","","","15","simple_dissimilar","images/stimuli/spore_stims/simple_16_A_c.gif","left","","","","",""
"","null","html-keyboard-response","284","613918","0.0-53.0-0.3","SS1613100045246","","","null","","","","","<p><img src= images/blank.png width =""200"" height = ""200"" style = ""float:right""></p><p><img src=images/blank.png width =""800"" height = ""200""></p>","","","","","","","","","","","",""
"","643.6700000049314","sequential-stimulus-presentation","285","615385","0.0-53.0-1.3","SS1613100045246","trial","","40","800","1443.6700000049314","images/stimuli/spore_stims/simple_16_A_c.gif","images/stimuli/spore_stims/simple_14_A_d.gif","","","","","15","simple_dissimilar","images/stimuli/spore_stims/simple_14_A_d.gif","right","","","","",""
"","null","html-keyboard-response","286","616210","0.0-53.0-0.4","SS1613100045246","","","null","","","","","<p><img src= images/blank.png width =""200"" height = ""200"" style = ""float:right""></p><p><img src=images/blank.png width =""800"" height = ""200""></p>","","","","","","","","","","","",""
"","1751.910000006319","sequential-stimulus-presentation","287","618789","0.0-53.0-1.4","SS1613100045246","trial","","40","800","2551.910000006319","images/stimuli/spore_stims/simple_16_A_c.gif","images/stimuli/spore_stims/simple_14_A_d.gif","","","","","15","simple_dissimilar","images/stimuli/spore_stims/simple_14_A_d.gif","right","","","","",""
"","null","html-keyboard-response","288","619867","0.0-53.0-0.5","SS1613100045246","","","null","","","","","<p><img src= images/blank.png width =""200"" height = ""200"" style = ""float:right""></p><p><img src=images/blank.png width =""800"" height = ""200""></p>","","","","","","","","","","","",""
"","940.2200000040466","sequential-stimulus-presentation","289","621647","0.0-53.0-1.5","SS1613100045246","trial","","40","800","1740.2200000040466","images/stimuli/spore_stims/simple_16_A_c.gif","images/stimuli/spore_stims/simple_14_A_d.gif","","","","","15","simple_dissimilar","images/stimuli/spore_stims/simple_14_A_d.gif","right","","","","",""
"","null","html-keyboard-response","290","622658","0.0-53.0-0.6","SS1613100045246","","","null","","","","","<p><img src= images/blank.png width =""200"" height = ""200"" style = ""float:right""></p><p><img src=images/blank.png width =""800"" height = ""200""></p>","","","","","","","","","","","",""
"","733.3199999993667","sequential-stimulus-presentation","291","624220","0.0-53.0-1.6","SS1613100045246","trial","","40","800","1533.3199999993667","images/stimuli/spore_stims/simple_16_A_c.gif","images/stimuli/spore_stims/simple_14_A_d.gif","","","","","15","simple_dissimilar","images/stimuli/spore_stims/simple_14_A_d.gif","right","","","","",""
"","null","html-keyboard-response","292","625135","0.0-53.0-0.7","SS1613100045246","","","null","","","","","<p><img src= images/blank.png width =""200"" height = ""200"" style = ""float:right""></p><p><img src=images/blank.png width =""800"" height = ""200""></p>","","","","","","","","","","","",""
"","744.9849999975413","sequential-stimulus-presentation","293","626706","0.0-53.0-1.7","SS1613100045246","trial","","40","800","1544.9849999975413","images/stimuli/spore_stims/simple_16_A_c.gif","images/stimuli/spore_stims/simple_14_A_d.gif","","","","","15","simple_dissimilar","images/stimuli/spore_stims/simple_14_A_d.gif","right","","","","",""
"","1988.3499999996275","html-keyboard-response","294","628715","0.0-54.0","SS1613100045246","pref_question","","50","","","","","<video width ='960' height = '540' style='padding-top:8%' autoplay muted><source src='images/stimuli/wall_pref.mp4' type='video/mp4'></video>","2","middle","45%","15","","","","","","","",""
"","4209.805000005872","sequential-stimulus-presentation","295","633741","0.0-55.0","SS1613100045246","pref_reveal","","40","800","5009.805000005872","null","null","","","","","15","","","","novel","","","",""
"","null","html-keyboard-response","296","634939","0.0-56.0-0.0","SS1613100045246","","","null","","","","","<p><img src= images/blank.png width =""200"" height = ""200"" style = ""float:right""></p><p><img src=images/blank.png width =""800"" height = ""200""></p>","","","","","","","","","","","",""
"","1869.9599999963539","sequential-stimulus-presentation","297","637727","0.0-56.0-1.0","SS1613100045246","trial","","40","800","2669.959999996354","images/stimuli/spore_stims/complex_16_A_b.gif","images/stimuli/spore_stims/complex_16_B_b.gif","","","","","16","complex_similar","images/stimuli/spore_stims/complex_16_B_b.gif","middle","","","","",""
"","null","html-keyboard-response","298","638872","0.0-56.0-0.1","SS1613100045246","","","null","","","","","<p><img src= images/blank.png width =""200"" height = ""200"" style = ""float:right""></p><p><img src=images/blank.png width =""800"" height = ""200""></p>","","","","","","","","","","","",""
"","788.7300000002142","sequential-stimulus-presentation","299","640499","0.0-56.0-1.1","SS1613100045246","trial","","40","800","1588.7300000002142","images/stimuli/spore_stims/complex_16_A_b.gif","images/stimuli/spore_stims/complex_16_B_b.gif","","","","","16","complex_similar","images/stimuli/spore_stims/complex_16_B_b.gif","middle","","","","",""
"","null","html-keyboard-response","300","641716","0.0-56.0-0.2","SS1613100045246","","","null","","","","","<p><img src= images/blank.png width =""200"" height = ""200"" style = ""float:right""></p><p><img src=images/blank.png width =""800"" height = ""200""></p>","","","","","","","","","","","",""
"","826.0450000088895","sequential-stimulus-presentation","301","643385","0.0-56.0-1.2","SS1613100045246","trial","","40","800","1626.0450000088895","images/stimuli/spore_stims/complex_16_A_b.gif","images/stimuli/spore_stims/complex_16_B_b.gif","","","","","16","complex_similar","images/stimuli/spore_stims/complex_16_B_b.gif","middle","","","","",""
"","null","html-keyboard-response","302","644484","0.0-56.0-0.3","SS1613100045246","","","null","","","","","<p><img src= images/blank.png width =""200"" height = ""200"" style = ""float:right""></p><p><img src=images/blank.png width =""800"" height = ""200""></p>","","","","","","","","","","","",""
"","977.9750000016065","sequential-stimulus-presentation","303","646292","0.0-56.0-1.3","SS1613100045246","trial","","40","800","1777.9750000016065","images/stimuli/spore_stims/complex_16_A_b.gif","images/stimuli/spore_stims/complex_16_B_b.gif","","","","","16","complex_similar","images/stimuli/spore_stims/complex_16_B_b.gif","middle","","","","",""
"","null","html-keyboard-response","304","647493","0.0-56.0-0.4","SS1613100045246","","","null","","","","","<p><img src= images/blank.png width =""200"" height = ""200"" style = ""float:right""></p><p><img src=images/blank.png width =""800"" height = ""200""></p>","","","","","","","","","","","",""
"","985.2499999979045","sequential-stimulus-presentation","305","649327","0.0-56.0-1.4","SS1613100045246","trial","","40","800","1785.2499999979045","images/stimuli/spore_stims/complex_16_A_b.gif","images/stimuli/spore_stims/complex_16_B_b.gif","","","","","16","complex_similar","images/stimuli/spore_stims/complex_16_B_b.gif","middle","","","","",""
"","null","html-keyboard-response","306","650276","0.0-56.0-0.5","SS1613100045246","","","null","","","","","<p><img src= images/blank.png width =""200"" height = ""200"" style = ""float:right""></p><p><img src=images/blank.png width =""800"" height = ""200""></p>","","","","","","","","","","","",""
"","805.4950000077952","sequential-stimulus-presentation","307","651917","0.0-56.0-1.5","SS1613100045246","trial","","40","800","1605.4950000077952","images/stimuli/spore_stims/complex_16_A_b.gif","images/stimuli/spore_stims/complex_16_B_b.gif","","","","","16","complex_similar","images/stimuli/spore_stims/complex_16_B_b.gif","middle","","","","",""
"","null","html-keyboard-response","308","653212","0.0-56.0-0.6","SS1613100045246","","","null","","","","","<p><img src= images/blank.png width =""200"" height = ""200"" style = ""float:right""></p><p><img src=images/blank.png width =""800"" height = ""200""></p>","","","","","","","","","","","",""
"","1482.304999997723","sequential-stimulus-presentation","309","655532","0.0-56.0-1.6","SS1613100045246","trial","","40","800","2282.304999997723","images/stimuli/spore_stims/complex_16_A_b.gif","images/stimuli/spore_stims/complex_16_B_b.gif","","","","","16","complex_similar","images/stimuli/spore_stims/complex_16_A_b.gif","left","","","","",""
"","null","html-keyboard-response","310","656495","0.0-56.0-0.7","SS1613100045246","","","null","","","","","<p><img src= images/blank.png width =""200"" height = ""200"" style = ""float:right""></p><p><img src=images/blank.png width =""800"" height = ""200""></p>","","","","","","","","","","","",""
"","1226.0849999875063","sequential-stimulus-presentation","311","658552","0.0-56.0-1.7","SS1613100045246","trial","","40","800","2026.0849999875063","images/stimuli/spore_stims/complex_16_A_b.gif","images/stimuli/spore_stims/complex_16_B_b.gif","","","","","16","complex_similar","images/stimuli/spore_stims/complex_16_B_b.gif","middle","","","","",""
"","955.1799999899231","html-keyboard-response","312","659534","0.0-57.0","SS1613100045246","pref_question","","50","","","","","<video width ='960' height = '540' style='padding-top:8%' autoplay muted><source src='images/stimuli/wall_pref.mp4' type='video/mp4'></video>","2","middle","45%","16","","","","","","","",""
