"view_history","rt","trial_type","trial_index","time_elapsed","internal_node_id","subject","stimulus_type","trial_stimulus","key_press","minimum_viewing_duration","trial_looking_time","block_deviant","block_background","stimulus","wall_pref","location","location_percent","block_number","block_type","stimulus_displayed","position_displayed","stim_type_selected","responses","question_order","stimulus_left","stimulus_right"
"[{""page_index"":0,""viewing_time"":4151.7399998847395}]","4153.849999886006","instructions","0","4158","0.0-0.0","SS1613138700545","","","","","","","","","","","","","","","","","","","",""
"[{""page_index"":0,""viewing_time"":1275.7650001440197},{""page_index"":1,""viewing_time"":2927.659999812022}]","4204.075000016019","instructions","1","10383","0.0-1.0","SS1613138700545","instructions","","","","","","","","","","","","","","","","","","",""
"","4182.365000015125","sequential-stimulus-presentation","2","15380","0.0-2.0","SS1613138700545","","","40","800","4982.365000015125","null","null","","","","","","","","","","","","",""
"","1564.5950001198798","sequential-stimulus-presentation","3","17754","0.0-3.0","SS1613138700545","","","40","800","2364.59500011988","null","null","","","","","","","","","","","","",""
"[{""page_index"":0,""viewing_time"":2200.8699998259544}]","2201.619999948889","instructions","4","19959","0.0-4.0","SS1613138700545","instructions","","","","","","","","","","","","","","","","","","",""
"","1898.1049999129027","html-keyboard-response","5","21871","0.0-5.0","SS1613138700545","instructions","","49","","","","","<video width ='960' height = '540' autoplay muted><source src='images/stimuli/wall_pref.mp4' type='video/mp4'></video>","1","left","25%","","","","","","","","",""
"","281.565000070259","sequential-stimulus-presentation","6","22968","0.0-6.0","SS1613138700545","pref_reveal","","40","800","1081.565000070259","null","null","","","","","","","","","","","","",""
"[{""page_index"":0,""viewing_time"":1889.0949999913573},{""page_index"":1,""viewing_time"":910.3299998678267},{""page_index"":2,""viewing_time"":1420.8700000308454},{""page_index"":3,""viewing_time"":1206.3299999572337}]","5427.3449999745935","instructions","7","28402","0.0-7.0","SS1613138700545","instructions","","","","","","","","","","","","","","","","","","",""
"","null","html-keyboard-response","8","29514","0.0-8.0-0.0","SS1613138700545","","","null","","","","","<p><img src= images/blank.png width =""200"" height = ""200"" style = ""float:right""></p><p><img src=images/blank.png width =""800"" height = ""200""></p>","","","","","","","","","","","",""
"","1743.7499999068677","sequential-stimulus-presentation","9","32076","0.0-8.0-1.0","SS1613138700545","trial","","40","800","2543.7499999068677","images/stimuli/spore_stims/simple_04_A_b.gif","images/stimuli/spore_stims/simple_17_B_c.gif","","","","","0","simple_dissimilar","images/stimuli/spore_stims/simple_17_B_c.gif","left","","","","",""
"","null","html-keyboard-response","10","33074","0.0-8.0-0.1","SS1613138700545","","","null","","","","","<p><img src= images/blank.png width =""200"" height = ""200"" style = ""float:right""></p><p><img src=images/blank.png width =""800"" height = ""200""></p>","","","","","","","","","","","",""
"","101.72499995678663","sequential-stimulus-presentation","11","34004","0.0-8.0-1.1","SS1613138700545","trial","","40","800","901.7249999567866","images/stimuli/spore_stims/simple_04_A_b.gif","images/stimuli/spore_stims/simple_17_B_c.gif","","","","","0","simple_dissimilar","images/stimuli/spore_stims/simple_17_B_c.gif","left","","","","",""
"","null","html-keyboard-response","12","34847","0.0-8.0-0.2","SS1613138700545","","","null","","","","","<p><img src= images/blank.png width =""200"" height = ""200"" style = ""float:right""></p><p><img src=images/blank.png width =""800"" height = ""200""></p>","","","","","","","","","","","",""
"","65.52499998360872","sequential-stimulus-presentation","13","35722","0.0-8.0-1.2","SS1613138700545","trial","","40","800","865.5249999836087","images/stimuli/spore_stims/simple_04_A_b.gif","images/stimuli/spore_stims/simple_17_B_c.gif","","","","","0","simple_dissimilar","images/stimuli/spore_stims/simple_17_B_c.gif","left","","","","",""
"","null","html-keyboard-response","14","36706","0.0-8.0-0.3","SS1613138700545","","","null","","","","","<p><img src= images/blank.png width =""200"" height = ""200"" style = ""float:right""></p><p><img src=images/blank.png width =""800"" height = ""200""></p>","","","","","","","","","","","",""
"","204.70499992370605","sequential-stimulus-presentation","15","37767","0.0-8.0-1.3","SS1613138700545","trial","","40","800","1004.704999923706","images/stimuli/spore_stims/simple_04_A_b.gif","images/stimuli/spore_stims/simple_17_B_c.gif","","","","","0","simple_dissimilar","images/stimuli/spore_stims/simple_17_B_c.gif","left","","","","",""
"","null","html-keyboard-response","16","39047","0.0-8.0-0.4","SS1613138700545","","","null","","","","","<p><img src= images/blank.png width =""200"" height = ""200"" style = ""float:right""></p><p><img src=images/blank.png width =""800"" height = ""200""></p>","","","","","","","","","","","",""
"","20.739999832585454","sequential-stimulus-presentation","17","39895","0.0-8.0-1.4","SS1613138700545","trial","","40","800","820.7399998325855","images/stimuli/spore_stims/simple_04_A_b.gif","images/stimuli/spore_stims/simple_17_B_c.gif","","","","","0","simple_dissimilar","images/stimuli/spore_stims/simple_17_B_c.gif","left","","","","",""
"","null","html-keyboard-response","18","41046","0.0-8.0-0.5","SS1613138700545","","","null","","","","","<p><img src= images/blank.png width =""200"" height = ""200"" style = ""float:right""></p><p><img src=images/blank.png width =""800"" height = ""200""></p>","","","","","","","","","","","",""
"","190.05500013008714","sequential-stimulus-presentation","19","42052","0.0-8.0-1.5","SS1613138700545","trial","","40","800","990.0550001300871","images/stimuli/spore_stims/simple_04_A_b.gif","images/stimuli/spore_stims/simple_17_B_c.gif","","","","","0","simple_dissimilar","images/stimuli/spore_stims/simple_04_A_b.gif","middle","","","","",""
"","null","html-keyboard-response","20","43238","0.0-8.0-0.6","SS1613138700545","","","null","","","","","<p><img src= images/blank.png width =""200"" height = ""200"" style = ""float:right""></p><p><img src=images/blank.png width =""800"" height = ""200""></p>","","","","","","","","","","","",""
"","21.05499990284443","sequential-stimulus-presentation","21","44099","0.0-8.0-1.6","SS1613138700545","trial","","40","800","821.0549999028444","images/stimuli/spore_stims/simple_04_A_b.gif","images/stimuli/spore_stims/simple_17_B_c.gif","","","","","0","simple_dissimilar","images/stimuli/spore_stims/simple_17_B_c.gif","left","","","","",""
"","null","html-keyboard-response","22","45398","0.0-8.0-0.7","SS1613138700545","","","null","","","","","<p><img src= images/blank.png width =""200"" height = ""200"" style = ""float:right""></p><p><img src=images/blank.png width =""800"" height = ""200""></p>","","","","","","","","","","","",""
"","57.54499998874962","sequential-stimulus-presentation","23","46266","0.0-8.0-1.7","SS1613138700545","trial","","40","800","857.5449999887496","images/stimuli/spore_stims/simple_04_A_b.gif","images/stimuli/spore_stims/simple_17_B_c.gif","","","","","0","simple_dissimilar","images/stimuli/spore_stims/simple_17_B_c.gif","left","","","","",""
"","60.074999928474426","html-keyboard-response","24","46335","0.0-9.0","SS1613138700545","pref_question","","50","","","","","<video width ='960' height = '540' style='padding-top:8%' autoplay muted><source src='images/stimuli/wall_pref.mp4' type='video/mp4'></video>","2","middle","45%","0","","","","","","","",""
"","36.540000000968575","sequential-stimulus-presentation","25","47191","0.0-10.0","SS1613138700545","pref_reveal","","40","800","836.5400000009686","null","null","","","","","0","","","","deviant","","","",""
"","null","html-keyboard-response","26","48403","0.0-11.0-0.0","SS1613138700545","","","null","","","","","<p><img src= images/blank.png width =""200"" height = ""200"" style = ""float:right""></p><p><img src=images/blank.png width =""800"" height = ""200""></p>","","","","","","","","","","","",""
"","115.16999988816679","sequential-stimulus-presentation","27","49333","0.0-11.0-1.0","SS1613138700545","trial","","40","800","915.1699998881668","images/stimuli/spore_stims/simple_02_A_a.gif","images/stimuli/spore_stims/simple_02_B_a.gif","","","","","1","simple_similar","images/stimuli/spore_stims/simple_02_B_a.gif","middle","","","","",""
"","null","html-keyboard-response","28","50381","0.0-11.0-0.1","SS1613138700545","","","null","","","","","<p><img src= images/blank.png width =""200"" height = ""200"" style = ""float:right""></p><p><img src=images/blank.png width =""800"" height = ""200""></p>","","","","","","","","","","","",""
"","158.29500020481646","sequential-stimulus-presentation","29","51355","0.0-11.0-1.1","SS1613138700545","trial","","40","800","958.2950002048165","images/stimuli/spore_stims/simple_02_A_a.gif","images/stimuli/spore_stims/simple_02_B_a.gif","","","","","1","simple_similar","images/stimuli/spore_stims/simple_02_B_a.gif","middle","","","","",""
"","null","html-keyboard-response","30","52592","0.0-11.0-0.2","SS1613138700545","","","null","","","","","<p><img src= images/blank.png width =""200"" height = ""200"" style = ""float:right""></p><p><img src=images/blank.png width =""800"" height = ""200""></p>","","","","","","","","","","","",""
"","25.929999770596623","sequential-stimulus-presentation","31","53428","0.0-11.0-1.2","SS1613138700545","trial","","40","800","825.9299997705966","images/stimuli/spore_stims/simple_02_A_a.gif","images/stimuli/spore_stims/simple_02_B_a.gif","","","","","1","simple_similar","images/stimuli/spore_stims/simple_02_B_a.gif","middle","","","","",""
"","null","html-keyboard-response","32","54435","0.0-11.0-0.3","SS1613138700545","","","null","","","","","<p><img src= images/blank.png width =""200"" height = ""200"" style = ""float:right""></p><p><img src=images/blank.png width =""800"" height = ""200""></p>","","","","","","","","","","","",""
"","102.56500006653368","sequential-stimulus-presentation","33","55354","0.0-11.0-1.3","SS1613138700545","trial","","40","800","902.5650000665337","images/stimuli/spore_stims/simple_02_A_a.gif","images/stimuli/spore_stims/simple_02_B_a.gif","","","","","1","simple_similar","images/stimuli/spore_stims/simple_02_A_a.gif","right","","","","",""
"","null","html-keyboard-response","34","56294","0.0-11.0-0.4","SS1613138700545","","","null","","","","","<p><img src= images/blank.png width =""200"" height = ""200"" style = ""float:right""></p><p><img src=images/blank.png width =""800"" height = ""200""></p>","","","","","","","","","","","",""
"","177.9549999628216","sequential-stimulus-presentation","35","57322","0.0-11.0-1.4","SS1613138700545","trial","","40","800","977.9549999628216","images/stimuli/spore_stims/simple_02_A_a.gif","images/stimuli/spore_stims/simple_02_B_a.gif","","","","","1","simple_similar","images/stimuli/spore_stims/simple_02_B_a.gif","middle","","","","",""
"","null","html-keyboard-response","36","58434","0.0-11.0-0.5","SS1613138700545","","","null","","","","","<p><img src= images/blank.png width =""200"" height = ""200"" style = ""float:right""></p><p><img src=images/blank.png width =""800"" height = ""200""></p>","","","","","","","","","","","",""
"","158.96999998949468","sequential-stimulus-presentation","37","59412","0.0-11.0-1.5","SS1613138700545","trial","","40","800","958.9699999894947","images/stimuli/spore_stims/simple_02_A_a.gif","images/stimuli/spore_stims/simple_02_B_a.gif","","","","","1","simple_similar","images/stimuli/spore_stims/simple_02_B_a.gif","middle","","","","",""
"","null","html-keyboard-response","38","60647","0.0-11.0-0.6","SS1613138700545","","","null","","","","","<p><img src= images/blank.png width =""200"" height = ""200"" style = ""float:right""></p><p><img src=images/blank.png width =""800"" height = ""200""></p>","","","","","","","","","","","",""
"","196.80000003427267","sequential-stimulus-presentation","39","61663","0.0-11.0-1.6","SS1613138700545","trial","","40","800","996.8000000342727","images/stimuli/spore_stims/simple_02_A_a.gif","images/stimuli/spore_stims/simple_02_B_a.gif","","","","","1","simple_similar","images/stimuli/spore_stims/simple_02_B_a.gif","middle","","","","",""
"","null","html-keyboard-response","40","62720","0.0-11.0-0.7","SS1613138700545","","","null","","","","","<p><img src= images/blank.png width =""200"" height = ""200"" style = ""float:right""></p><p><img src=images/blank.png width =""800"" height = ""200""></p>","","","","","","","","","","","",""
"","169.75999996066093","sequential-stimulus-presentation","41","63726","0.0-11.0-1.7","SS1613138700545","trial","","40","800","969.7599999606609","images/stimuli/spore_stims/simple_02_A_a.gif","images/stimuli/spore_stims/simple_02_B_a.gif","","","","","1","simple_similar","images/stimuli/spore_stims/simple_02_B_a.gif","middle","","","","",""
"","83.52500014007092","html-keyboard-response","42","63825","0.0-12.0","SS1613138700545","pref_question","","50","","","","","<video width ='960' height = '540' style='padding-top:8%' autoplay muted><source src='images/stimuli/wall_pref.mp4' type='video/mp4'></video>","2","middle","45%","1","","","","","","","",""
"","96.17500007152557","sequential-stimulus-presentation","43","64740","0.0-13.0","SS1613138700545","pref_reveal","","40","800","896.1750000715256","null","null","","","","","1","","","","background","","","",""
"","null","html-keyboard-response","44","65889","0.0-14.0-0.0","SS1613138700545","","","null","","","","","<p><img src= images/blank.png width =""200"" height = ""200"" style = ""float:right""></p><p><img src=images/blank.png width =""800"" height = ""200""></p>","","","","","","","","","","","",""
"","106.0650001745671","sequential-stimulus-presentation","45","66808","0.0-14.0-1.0","SS1613138700545","trial","","40","800","906.0650001745671","images/stimuli/spore_stims/simple_16_B_d.gif","images/stimuli/spore_stims/simple_16_A_d.gif","","","","","2","simple_similar","images/stimuli/spore_stims/simple_16_A_d.gif","left","","","","",""
"","null","html-keyboard-response","46","67749","0.0-14.0-0.1","SS1613138700545","","","null","","","","","<p><img src= images/blank.png width =""200"" height = ""200"" style = ""float:right""></p><p><img src=images/blank.png width =""800"" height = ""200""></p>","","","","","","","","","","","",""
"","150.8400000166148","sequential-stimulus-presentation","47","68709","0.0-14.0-1.1","SS1613138700545","trial","","40","800","950.8400000166148","images/stimuli/spore_stims/simple_16_B_d.gif","images/stimuli/spore_stims/simple_16_A_d.gif","","","","","2","simple_similar","images/stimuli/spore_stims/simple_16_A_d.gif","left","","","","",""
"","null","html-keyboard-response","48","69721","0.0-14.0-0.2","SS1613138700545","","","null","","","","","<p><img src= images/blank.png width =""200"" height = ""200"" style = ""float:right""></p><p><img src=images/blank.png width =""800"" height = ""200""></p>","","","","","","","","","","","",""
"","10.76000020839274","sequential-stimulus-presentation","49","70548","0.0-14.0-1.2","SS1613138700545","trial","","40","800","810.7600002083927","images/stimuli/spore_stims/simple_16_B_d.gif","images/stimuli/spore_stims/simple_16_A_d.gif","","","","","2","simple_similar","images/stimuli/spore_stims/simple_16_A_d.gif","left","","","","",""
"","null","html-keyboard-response","50","71550","0.0-14.0-0.3","SS1613138700545","","","null","","","","","<p><img src= images/blank.png width =""200"" height = ""200"" style = ""float:right""></p><p><img src=images/blank.png width =""800"" height = ""200""></p>","","","","","","","","","","","",""
"","236.80999991483986","sequential-stimulus-presentation","51","72601","0.0-14.0-1.3","SS1613138700545","trial","","40","800","1036.8099999148399","images/stimuli/spore_stims/simple_16_B_d.gif","images/stimuli/spore_stims/simple_16_A_d.gif","","","","","2","simple_similar","images/stimuli/spore_stims/simple_16_A_d.gif","left","","","","",""
"","null","html-keyboard-response","52","73602","0.0-14.0-0.4","SS1613138700545","","","null","","","","","<p><img src= images/blank.png width =""200"" height = ""200"" style = ""float:right""></p><p><img src=images/blank.png width =""800"" height = ""200""></p>","","","","","","","","","","","",""
"","74.29999997839332","sequential-stimulus-presentation","53","74524","0.0-14.0-1.4","SS1613138700545","trial","","40","800","874.2999999783933","images/stimuli/spore_stims/simple_16_B_d.gif","images/stimuli/spore_stims/simple_16_A_d.gif","","","","","2","simple_similar","images/stimuli/spore_stims/simple_16_A_d.gif","left","","","","",""
"","null","html-keyboard-response","54","75717","0.0-14.0-0.5","SS1613138700545","","","null","","","","","<p><img src= images/blank.png width =""200"" height = ""200"" style = ""float:right""></p><p><img src=images/blank.png width =""800"" height = ""200""></p>","","","","","","","","","","","",""
"","207.75499986484647","sequential-stimulus-presentation","55","76745","0.0-14.0-1.5","SS1613138700545","trial","","40","800","1007.7549998648465","images/stimuli/spore_stims/simple_16_B_d.gif","images/stimuli/spore_stims/simple_16_A_d.gif","","","","","2","simple_similar","images/stimuli/spore_stims/simple_16_A_d.gif","left","","","","",""
"","null","html-keyboard-response","56","77555","0.0-14.0-0.6","SS1613138700545","","","null","","","","","<p><img src= images/blank.png width =""200"" height = ""200"" style = ""float:right""></p><p><img src=images/blank.png width =""800"" height = ""200""></p>","","","","","","","","","","","",""
"","118.47000010311604","sequential-stimulus-presentation","57","78486","0.0-14.0-1.6","SS1613138700545","trial","","40","800","918.470000103116","images/stimuli/spore_stims/simple_16_B_d.gif","images/stimuli/spore_stims/simple_16_A_d.gif","","","","","2","simple_similar","images/stimuli/spore_stims/simple_16_A_d.gif","left","","","","",""
"","null","html-keyboard-response","58","79348","0.0-14.0-0.7","SS1613138700545","","","null","","","","","<p><img src= images/blank.png width =""200"" height = ""200"" style = ""float:right""></p><p><img src=images/blank.png width =""800"" height = ""200""></p>","","","","","","","","","","","",""
"","50.80499988980591","sequential-stimulus-presentation","59","80211","0.0-14.0-1.7","SS1613138700545","trial","","40","800","850.8049998898059","images/stimuli/spore_stims/simple_16_B_d.gif","images/stimuli/spore_stims/simple_16_A_d.gif","","","","","2","simple_similar","images/stimuli/spore_stims/simple_16_B_d.gif","middle","","","","",""
"","58.320000069215894","html-keyboard-response","60","80304","0.0-15.0","SS1613138700545","pref_question","","50","","","","","<video width ='960' height = '540' style='padding-top:8%' autoplay muted><source src='images/stimuli/wall_pref.mp4' type='video/mp4'></video>","2","middle","45%","2","","","","","","","",""
"","142.08499994128942","sequential-stimulus-presentation","61","81260","0.0-16.0","SS1613138700545","pref_reveal","","40","800","942.0849999412894","null","null","","","","","2","","","","deviant","","","",""
"","null","html-keyboard-response","62","82535","0.0-17.0-0.0","SS1613138700545","","","null","","","","","<p><img src= images/blank.png width =""200"" height = ""200"" style = ""float:right""></p><p><img src=images/blank.png width =""800"" height = ""200""></p>","","","","","","","","","","","",""
"","78.84999993257225","sequential-stimulus-presentation","63","83438","0.0-17.0-1.0","SS1613138700545","trial","","40","800","878.8499999325722","images/stimuli/spore_stims/simple_09_A_b.gif","images/stimuli/spore_stims/simple_09_B_b.gif","","","","","3","simple_similar","images/stimuli/spore_stims/simple_09_B_b.gif","left","","","","",""
"","null","html-keyboard-response","64","84386","0.0-17.0-0.1","SS1613138700545","","","null","","","","","<p><img src= images/blank.png width =""200"" height = ""200"" style = ""float:right""></p><p><img src=images/blank.png width =""800"" height = ""200""></p>","","","","","","","","","","","",""
"","25.695000076666474","sequential-stimulus-presentation","65","85234","0.0-17.0-1.1","SS1613138700545","trial","","40","800","825.6950000766665","images/stimuli/spore_stims/simple_09_A_b.gif","images/stimuli/spore_stims/simple_09_B_b.gif","","","","","3","simple_similar","images/stimuli/spore_stims/simple_09_B_b.gif","left","","","","",""
"","null","html-keyboard-response","66","86308","0.0-17.0-0.2","SS1613138700545","","","null","","","","","<p><img src= images/blank.png width =""200"" height = ""200"" style = ""float:right""></p><p><img src=images/blank.png width =""800"" height = ""200""></p>","","","","","","","","","","","",""
"","148.38999998755753","sequential-stimulus-presentation","67","87266","0.0-17.0-1.2","SS1613138700545","trial","","40","800","948.3899999875575","images/stimuli/spore_stims/simple_09_A_b.gif","images/stimuli/spore_stims/simple_09_B_b.gif","","","","","3","simple_similar","images/stimuli/spore_stims/simple_09_B_b.gif","left","","","","",""
"","null","html-keyboard-response","68","88210","0.0-17.0-0.3","SS1613138700545","","","null","","","","","<p><img src= images/blank.png width =""200"" height = ""200"" style = ""float:right""></p><p><img src=images/blank.png width =""800"" height = ""200""></p>","","","","","","","","","","","",""
"","177.0150000229478","sequential-stimulus-presentation","69","89210","0.0-17.0-1.3","SS1613138700545","trial","","40","800","977.0150000229478","images/stimuli/spore_stims/simple_09_A_b.gif","images/stimuli/spore_stims/simple_09_B_b.gif","","","","","3","simple_similar","images/stimuli/spore_stims/simple_09_B_b.gif","left","","","","",""
"","null","html-keyboard-response","70","90305","0.0-17.0-0.4","SS1613138700545","","","null","","","","","<p><img src= images/blank.png width =""200"" height = ""200"" style = ""float:right""></p><p><img src=images/blank.png width =""800"" height = ""200""></p>","","","","","","","","","","","",""
"","1.1350000277161598","sequential-stimulus-presentation","71","91125","0.0-17.0-1.4","SS1613138700545","trial","","40","800","801.1350000277162","images/stimuli/spore_stims/simple_09_A_b.gif","images/stimuli/spore_stims/simple_09_B_b.gif","","","","","3","simple_similar","images/stimuli/spore_stims/simple_09_B_b.gif","left","","","","",""
"","null","html-keyboard-response","72","92343","0.0-17.0-0.5","SS1613138700545","","","null","","","","","<p><img src= images/blank.png width =""200"" height = ""200"" style = ""float:right""></p><p><img src=images/blank.png width =""800"" height = ""200""></p>","","","","","","","","","","","",""
"","140.13499999418855","sequential-stimulus-presentation","73","93294","0.0-17.0-1.5","SS1613138700545","trial","","40","800","940.1349999941885","images/stimuli/spore_stims/simple_09_A_b.gif","images/stimuli/spore_stims/simple_09_B_b.gif","","","","","3","simple_similar","images/stimuli/spore_stims/simple_09_B_b.gif","left","","","","",""
"","null","html-keyboard-response","74","94369","0.0-17.0-0.6","SS1613138700545","","","null","","","","","<p><img src= images/blank.png width =""200"" height = ""200"" style = ""float:right""></p><p><img src=images/blank.png width =""800"" height = ""200""></p>","","","","","","","","","","","",""
"","161.70499986037612","sequential-stimulus-presentation","75","95350","0.0-17.0-1.6","SS1613138700545","trial","","40","800","961.7049998603761","images/stimuli/spore_stims/simple_09_A_b.gif","images/stimuli/spore_stims/simple_09_B_b.gif","","","","","3","simple_similar","images/stimuli/spore_stims/simple_09_B_b.gif","left","","","","",""
"","null","html-keyboard-response","76","96547","0.0-17.0-0.7","SS1613138700545","","","null","","","","","<p><img src= images/blank.png width =""200"" height = ""200"" style = ""float:right""></p><p><img src=images/blank.png width =""800"" height = ""200""></p>","","","","","","","","","","","",""
"","188.67000006139278","sequential-stimulus-presentation","77","97552","0.0-17.0-1.7","SS1613138700545","trial","","40","800","988.6700000613928","images/stimuli/spore_stims/simple_09_A_b.gif","images/stimuli/spore_stims/simple_09_B_b.gif","","","","","3","simple_similar","images/stimuli/spore_stims/simple_09_A_b.gif","right","","","","",""
"","24.465000024065375","html-keyboard-response","78","97590","0.0-18.0","SS1613138700545","pref_question","","50","","","","","<video width ='960' height = '540' style='padding-top:8%' autoplay muted><source src='images/stimuli/wall_pref.mp4' type='video/mp4'></video>","2","middle","45%","3","","","","","","","",""
"","239.3499999307096","sequential-stimulus-presentation","79","98656","0.0-19.0","SS1613138700545","pref_reveal","","40","800","1039.3499999307096","null","null","","","","","3","","","","novel","","","",""
"","null","html-keyboard-response","80","99882","0.0-20.0-0.0","SS1613138700545","","","null","","","","","<p><img src= images/blank.png width =""200"" height = ""200"" style = ""float:right""></p><p><img src=images/blank.png width =""800"" height = ""200""></p>","","","","","","","","","","","",""
"","179.16500009596348","sequential-stimulus-presentation","81","100885","0.0-20.0-1.0","SS1613138700545","trial","","40","800","979.1650000959635","images/stimuli/spore_stims/complex_14_A_b.gif","images/stimuli/spore_stims/complex_14_B_b.gif","","","","","4","complex_similar","images/stimuli/spore_stims/complex_14_B_b.gif","left","","","","",""
"","null","html-keyboard-response","82","101777","0.0-20.0-0.1","SS1613138700545","","","null","","","","","<p><img src= images/blank.png width =""200"" height = ""200"" style = ""float:right""></p><p><img src=images/blank.png width =""800"" height = ""200""></p>","","","","","","","","","","","",""
"","28.799999970942736","sequential-stimulus-presentation","83","102617","0.0-20.0-1.1","SS1613138700545","trial","","40","800","828.7999999709427","images/stimuli/spore_stims/complex_14_A_b.gif","images/stimuli/spore_stims/complex_14_B_b.gif","","","","","4","complex_similar","images/stimuli/spore_stims/complex_14_B_b.gif","left","","","","",""
"","null","html-keyboard-response","84","103449","0.0-20.0-0.2","SS1613138700545","","","null","","","","","<p><img src= images/blank.png width =""200"" height = ""200"" style = ""float:right""></p><p><img src=images/blank.png width =""800"" height = ""200""></p>","","","","","","","","","","","",""
"","65.75500010512769","sequential-stimulus-presentation","85","104328","0.0-20.0-1.2","SS1613138700545","trial","","40","800","865.7550001051277","images/stimuli/spore_stims/complex_14_A_b.gif","images/stimuli/spore_stims/complex_14_B_b.gif","","","","","4","complex_similar","images/stimuli/spore_stims/complex_14_B_b.gif","left","","","","",""
"","null","html-keyboard-response","86","105256","0.0-20.0-0.3","SS1613138700545","","","null","","","","","<p><img src= images/blank.png width =""200"" height = ""200"" style = ""float:right""></p><p><img src=images/blank.png width =""800"" height = ""200""></p>","","","","","","","","","","","",""
"","92.66499988734722","sequential-stimulus-presentation","87","106162","0.0-20.0-1.3","SS1613138700545","trial","","40","800","892.6649998873472","images/stimuli/spore_stims/complex_14_A_b.gif","images/stimuli/spore_stims/complex_14_B_b.gif","","","","","4","complex_similar","images/stimuli/spore_stims/complex_14_B_b.gif","left","","","","",""
"","null","html-keyboard-response","88","107289","0.0-20.0-0.4","SS1613138700545","","","null","","","","","<p><img src= images/blank.png width =""200"" height = ""200"" style = ""float:right""></p><p><img src=images/blank.png width =""800"" height = ""200""></p>","","","","","","","","","","","",""
"","66.42500008456409","sequential-stimulus-presentation","89","108167","0.0-20.0-1.4","SS1613138700545","trial","","40","800","866.4250000845641","images/stimuli/spore_stims/complex_14_A_b.gif","images/stimuli/spore_stims/complex_14_B_b.gif","","","","","4","complex_similar","images/stimuli/spore_stims/complex_14_A_b.gif","middle","","","","",""
"","null","html-keyboard-response","90","109352","0.0-20.0-0.5","SS1613138700545","","","null","","","","","<p><img src= images/blank.png width =""200"" height = ""200"" style = ""float:right""></p><p><img src=images/blank.png width =""800"" height = ""200""></p>","","","","","","","","","","","",""
"","263.06500006467104","sequential-stimulus-presentation","91","110427","0.0-20.0-1.5","SS1613138700545","trial","","40","800","1063.065000064671","images/stimuli/spore_stims/complex_14_A_b.gif","images/stimuli/spore_stims/complex_14_B_b.gif","","","","","4","complex_similar","images/stimuli/spore_stims/complex_14_B_b.gif","left","","","","",""
"","null","html-keyboard-response","92","111437","0.0-20.0-0.6","SS1613138700545","","","null","","","","","<p><img src= images/blank.png width =""200"" height = ""200"" style = ""float:right""></p><p><img src=images/blank.png width =""800"" height = ""200""></p>","","","","","","","","","","","",""
"","56.23000022023916","sequential-stimulus-presentation","93","112310","0.0-20.0-1.6","SS1613138700545","trial","","40","800","856.2300002202392","images/stimuli/spore_stims/complex_14_A_b.gif","images/stimuli/spore_stims/complex_14_B_b.gif","","","","","4","complex_similar","images/stimuli/spore_stims/complex_14_B_b.gif","left","","","","",""
"","null","html-keyboard-response","94","113142","0.0-20.0-0.7","SS1613138700545","","","null","","","","","<p><img src= images/blank.png width =""200"" height = ""200"" style = ""float:right""></p><p><img src=images/blank.png width =""800"" height = ""200""></p>","","","","","","","","","","","",""
"","173.6749999690801","sequential-stimulus-presentation","95","114130","0.0-20.0-1.7","SS1613138700545","trial","","40","800","973.6749999690801","images/stimuli/spore_stims/complex_14_A_b.gif","images/stimuli/spore_stims/complex_14_B_b.gif","","","","","4","complex_similar","images/stimuli/spore_stims/complex_14_B_b.gif","left","","","","",""
"","71.82000018656254","html-keyboard-response","96","114219","0.0-21.0","SS1613138700545","pref_question","","50","","","","","<video width ='960' height = '540' style='padding-top:8%' autoplay muted><source src='images/stimuli/wall_pref.mp4' type='video/mp4'></video>","2","middle","45%","4","","","","","","","",""
"","128.7599999923259","sequential-stimulus-presentation","97","115173","0.0-22.0","SS1613138700545","pref_reveal","","40","800","928.7599999923259","null","null","","","","","4","","","","deviant","","","",""
"","null","html-keyboard-response","98","116475","0.0-23.0-0.0","SS1613138700545","","","null","","","","","<p><img src= images/blank.png width =""200"" height = ""200"" style = ""float:right""></p><p><img src=images/blank.png width =""800"" height = ""200""></p>","","","","","","","","","","","",""
"","177.25000018253922","sequential-stimulus-presentation","99","117482","0.0-23.0-1.0","SS1613138700545","trial","","40","800","977.2500001825392","images/stimuli/spore_stims/complex_19_A_c.gif","images/stimuli/spore_stims/complex_11_A_c.gif","","","","","5","complex_dissimilar","images/stimuli/spore_stims/complex_11_A_c.gif","right","","","","",""
"","null","html-keyboard-response","100","118673","0.0-23.0-0.1","SS1613138700545","","","null","","","","","<p><img src= images/blank.png width =""200"" height = ""200"" style = ""float:right""></p><p><img src=images/blank.png width =""800"" height = ""200""></p>","","","","","","","","","","","",""
"","184.720000019297","sequential-stimulus-presentation","101","119668","0.0-23.0-1.1","SS1613138700545","trial","","40","800","984.720000019297","images/stimuli/spore_stims/complex_19_A_c.gif","images/stimuli/spore_stims/complex_11_A_c.gif","","","","","5","complex_dissimilar","images/stimuli/spore_stims/complex_11_A_c.gif","right","","","","",""
"","null","html-keyboard-response","102","120793","0.0-23.0-0.2","SS1613138700545","","","null","","","","","<p><img src= images/blank.png width =""200"" height = ""200"" style = ""float:right""></p><p><img src=images/blank.png width =""800"" height = ""200""></p>","","","","","","","","","","","",""
"","31.69500012882054","sequential-stimulus-presentation","103","121651","0.0-23.0-1.2","SS1613138700545","trial","","40","800","831.6950001288205","images/stimuli/spore_stims/complex_19_A_c.gif","images/stimuli/spore_stims/complex_11_A_c.gif","","","","","5","complex_dissimilar","images/stimuli/spore_stims/complex_11_A_c.gif","right","","","","",""
"","null","html-keyboard-response","104","122993","0.0-23.0-0.3","SS1613138700545","","","null","","","","","<p><img src= images/blank.png width =""200"" height = ""200"" style = ""float:right""></p><p><img src=images/blank.png width =""800"" height = ""200""></p>","","","","","","","","","","","",""
"","108.20999997667968","sequential-stimulus-presentation","105","123926","0.0-23.0-1.3","SS1613138700545","trial","","40","800","908.2099999766797","images/stimuli/spore_stims/complex_19_A_c.gif","images/stimuli/spore_stims/complex_11_A_c.gif","","","","","5","complex_dissimilar","images/stimuli/spore_stims/complex_11_A_c.gif","right","","","","",""
"","null","html-keyboard-response","106","125128","0.0-23.0-0.4","SS1613138700545","","","null","","","","","<p><img src= images/blank.png width =""200"" height = ""200"" style = ""float:right""></p><p><img src=images/blank.png width =""800"" height = ""200""></p>","","","","","","","","","","","",""
"","5.365000106394291","sequential-stimulus-presentation","107","125960","0.0-23.0-1.4","SS1613138700545","trial","","40","800","805.3650001063943","images/stimuli/spore_stims/complex_19_A_c.gif","images/stimuli/spore_stims/complex_11_A_c.gif","","","","","5","complex_dissimilar","images/stimuli/spore_stims/complex_11_A_c.gif","right","","","","",""
"","null","html-keyboard-response","108","126976","0.0-23.0-0.5","SS1613138700545","","","null","","","","","<p><img src= images/blank.png width =""200"" height = ""200"" style = ""float:right""></p><p><img src=images/blank.png width =""800"" height = ""200""></p>","","","","","","","","","","","",""
"","121.07999995350838","sequential-stimulus-presentation","109","127919","0.0-23.0-1.5","SS1613138700545","trial","","40","800","921.0799999535084","images/stimuli/spore_stims/complex_19_A_c.gif","images/stimuli/spore_stims/complex_11_A_c.gif","","","","","5","complex_dissimilar","images/stimuli/spore_stims/complex_11_A_c.gif","right","","","","",""
"","null","html-keyboard-response","110","128768","0.0-23.0-0.6","SS1613138700545","","","null","","","","","<p><img src= images/blank.png width =""200"" height = ""200"" style = ""float:right""></p><p><img src=images/blank.png width =""800"" height = ""200""></p>","","","","","","","","","","","",""
"","34.995000110939145","sequential-stimulus-presentation","111","129617","0.0-23.0-1.6","SS1613138700545","trial","","40","800","834.9950001109391","images/stimuli/spore_stims/complex_19_A_c.gif","images/stimuli/spore_stims/complex_11_A_c.gif","","","","","5","complex_dissimilar","images/stimuli/spore_stims/complex_11_A_c.gif","right","","","","",""
"","null","html-keyboard-response","112","130705","0.0-23.0-0.7","SS1613138700545","","","null","","","","","<p><img src= images/blank.png width =""200"" height = ""200"" style = ""float:right""></p><p><img src=images/blank.png width =""800"" height = ""200""></p>","","","","","","","","","","","",""
"","62.849999871104956","sequential-stimulus-presentation","113","131585","0.0-23.0-1.7","SS1613138700545","trial","","40","800","862.849999871105","images/stimuli/spore_stims/complex_19_A_c.gif","images/stimuli/spore_stims/complex_11_A_c.gif","","","","","5","complex_dissimilar","images/stimuli/spore_stims/complex_19_A_c.gif","middle","","","","",""
"","0.7599999662488699","html-keyboard-response","114","131607","0.0-24.0","SS1613138700545","pref_question","","50","","","","","<video width ='960' height = '540' style='padding-top:8%' autoplay muted><source src='images/stimuli/wall_pref.mp4' type='video/mp4'></video>","2","middle","45%","5","","","","","","","",""
"","131.5950001589954","sequential-stimulus-presentation","115","132577","0.0-25.0","SS1613138700545","pref_reveal","","40","800","931.5950001589954","null","null","","","","","5","","","","deviant","","","",""
"","null","html-keyboard-response","116","133845","0.0-26.0-0.0","SS1613138700545","","","null","","","","","<p><img src= images/blank.png width =""200"" height = ""200"" style = ""float:right""></p><p><img src=images/blank.png width =""800"" height = ""200""></p>","","","","","","","","","","","",""
"","148.13999994657934","sequential-stimulus-presentation","117","134807","0.0-26.0-1.0","SS1613138700545","trial","","40","800","948.1399999465793","images/stimuli/spore_stims/simple_06_A_c.gif","images/stimuli/spore_stims/simple_06_B_c.gif","","","","","6","simple_similar","images/stimuli/spore_stims/simple_06_B_c.gif","right","","","","",""
"","null","html-keyboard-response","118","135765","0.0-26.0-0.1","SS1613138700545","","","null","","","","","<p><img src= images/blank.png width =""200"" height = ""200"" style = ""float:right""></p><p><img src=images/blank.png width =""800"" height = ""200""></p>","","","","","","","","","","","",""
"","182.76500003412366","sequential-stimulus-presentation","119","136775","0.0-26.0-1.1","SS1613138700545","trial","","40","800","982.7650000341237","images/stimuli/spore_stims/simple_06_A_c.gif","images/stimuli/spore_stims/simple_06_B_c.gif","","","","","6","simple_similar","images/stimuli/spore_stims/simple_06_B_c.gif","right","","","","",""
"","null","html-keyboard-response","120","137635","0.0-26.0-0.2","SS1613138700545","","","null","","","","","<p><img src= images/blank.png width =""200"" height = ""200"" style = ""float:right""></p><p><img src=images/blank.png width =""800"" height = ""200""></p>","","","","","","","","","","","",""
"","63.199999975040555","sequential-stimulus-presentation","121","138506","0.0-26.0-1.2","SS1613138700545","trial","","40","800","863.1999999750406","images/stimuli/spore_stims/simple_06_A_c.gif","images/stimuli/spore_stims/simple_06_B_c.gif","","","","","6","simple_similar","images/stimuli/spore_stims/simple_06_A_c.gif","middle","","","","",""
"","null","html-keyboard-response","122","139785","0.0-26.0-0.3","SS1613138700545","","","null","","","","","<p><img src= images/blank.png width =""200"" height = ""200"" style = ""float:right""></p><p><img src=images/blank.png width =""800"" height = ""200""></p>","","","","","","","","","","","",""
"","62.73000012151897","sequential-stimulus-presentation","123","140670","0.0-26.0-1.3","SS1613138700545","trial","","40","800","862.730000121519","images/stimuli/spore_stims/simple_06_A_c.gif","images/stimuli/spore_stims/simple_06_B_c.gif","","","","","6","simple_similar","images/stimuli/spore_stims/simple_06_B_c.gif","right","","","","",""
"","null","html-keyboard-response","124","141580","0.0-26.0-0.4","SS1613138700545","","","null","","","","","<p><img src= images/blank.png width =""200"" height = ""200"" style = ""float:right""></p><p><img src=images/blank.png width =""800"" height = ""200""></p>","","","","","","","","","","","",""
"","227.85500017926097","sequential-stimulus-presentation","125","142655","0.0-26.0-1.4","SS1613138700545","trial","","40","800","1027.855000179261","images/stimuli/spore_stims/simple_06_A_c.gif","images/stimuli/spore_stims/simple_06_B_c.gif","","","","","6","simple_similar","images/stimuli/spore_stims/simple_06_B_c.gif","right","","","","",""
"","null","html-keyboard-response","126","143514","0.0-26.0-0.5","SS1613138700545","","","null","","","","","<p><img src= images/blank.png width =""200"" height = ""200"" style = ""float:right""></p><p><img src=images/blank.png width =""800"" height = ""200""></p>","","","","","","","","","","","",""
"","141.38499996624887","sequential-stimulus-presentation","127","144466","0.0-26.0-1.5","SS1613138700545","trial","","40","800","941.3849999662489","images/stimuli/spore_stims/simple_06_A_c.gif","images/stimuli/spore_stims/simple_06_B_c.gif","","","","","6","simple_similar","images/stimuli/spore_stims/simple_06_B_c.gif","right","","","","",""
"","null","html-keyboard-response","128","145340","0.0-26.0-0.6","SS1613138700545","","","null","","","","","<p><img src= images/blank.png width =""200"" height = ""200"" style = ""float:right""></p><p><img src=images/blank.png width =""800"" height = ""200""></p>","","","","","","","","","","","",""
"","86.1049999948591","sequential-stimulus-presentation","129","146235","0.0-26.0-1.6","SS1613138700545","trial","","40","800","886.1049999948591","images/stimuli/spore_stims/simple_06_A_c.gif","images/stimuli/spore_stims/simple_06_B_c.gif","","","","","6","simple_similar","images/stimuli/spore_stims/simple_06_B_c.gif","right","","","","",""
"","null","html-keyboard-response","130","147487","0.0-26.0-0.7","SS1613138700545","","","null","","","","","<p><img src= images/blank.png width =""200"" height = ""200"" style = ""float:right""></p><p><img src=images/blank.png width =""800"" height = ""200""></p>","","","","","","","","","","","",""
"","32.76500012725592","sequential-stimulus-presentation","131","148357","0.0-26.0-1.7","SS1613138700545","trial","","40","800","832.7650001272559","images/stimuli/spore_stims/simple_06_A_c.gif","images/stimuli/spore_stims/simple_06_B_c.gif","","","","","6","simple_similar","images/stimuli/spore_stims/simple_06_B_c.gif","right","","","","",""
"","24.264999898150563","html-keyboard-response","132","148391","0.0-27.0","SS1613138700545","pref_question","","50","","","","","<video width ='960' height = '540' style='padding-top:8%' autoplay muted><source src='images/stimuli/wall_pref.mp4' type='video/mp4'></video>","2","middle","45%","6","","","","","","","",""
"","126.74500001594424","sequential-stimulus-presentation","133","149332","0.0-28.0","SS1613138700545","pref_reveal","","40","800","926.7450000159442","null","null","","","","","6","","","","deviant","","","",""
"","null","html-keyboard-response","134","150392","0.0-29.0-0.0","SS1613138700545","","","null","","","","","<p><img src= images/blank.png width =""200"" height = ""200"" style = ""float:right""></p><p><img src=images/blank.png width =""800"" height = ""200""></p>","","","","","","","","","","","",""
"","93.3149999473244","sequential-stimulus-presentation","135","151312","0.0-29.0-1.0","SS1613138700545","trial","","40","800","893.3149999473244","images/stimuli/spore_stims/complex_09_A_a.gif","images/stimuli/spore_stims/complex_07_B_c.gif","","","","","7","complex_dissimilar","images/stimuli/spore_stims/complex_07_B_c.gif","left","","","","",""
"","null","html-keyboard-response","136","152177","0.0-29.0-0.1","SS1613138700545","","","null","","","","","<p><img src= images/blank.png width =""200"" height = ""200"" style = ""float:right""></p><p><img src=images/blank.png width =""800"" height = ""200""></p>","","","","","","","","","","","",""
"","133.12499993480742","sequential-stimulus-presentation","137","153123","0.0-29.0-1.1","SS1613138700545","trial","","40","800","933.1249999348074","images/stimuli/spore_stims/complex_09_A_a.gif","images/stimuli/spore_stims/complex_07_B_c.gif","","","","","7","complex_dissimilar","images/stimuli/spore_stims/complex_07_B_c.gif","left","","","","",""
"","null","html-keyboard-response","138","154034","0.0-29.0-0.2","SS1613138700545","","","null","","","","","<p><img src= images/blank.png width =""200"" height = ""200"" style = ""float:right""></p><p><img src=images/blank.png width =""800"" height = ""200""></p>","","","","","","","","","","","",""
"","47.76500002481043","sequential-stimulus-presentation","139","154901","0.0-29.0-1.2","SS1613138700545","trial","","40","800","847.7650000248104","images/stimuli/spore_stims/complex_09_A_a.gif","images/stimuli/spore_stims/complex_07_B_c.gif","","","","","7","complex_dissimilar","images/stimuli/spore_stims/complex_07_B_c.gif","left","","","","",""
"","null","html-keyboard-response","140","155782","0.0-29.0-0.3","SS1613138700545","","","null","","","","","<p><img src= images/blank.png width =""200"" height = ""200"" style = ""float:right""></p><p><img src=images/blank.png width =""800"" height = ""200""></p>","","","","","","","","","","","",""
"","190.63999992795289","sequential-stimulus-presentation","141","156845","0.0-29.0-1.3","SS1613138700545","trial","","40","800","990.6399999279529","images/stimuli/spore_stims/complex_09_A_a.gif","images/stimuli/spore_stims/complex_07_B_c.gif","","","","","7","complex_dissimilar","images/stimuli/spore_stims/complex_07_B_c.gif","left","","","","",""
"","null","html-keyboard-response","142","157679","0.0-29.0-0.4","SS1613138700545","","","null","","","","","<p><img src= images/blank.png width =""200"" height = ""200"" style = ""float:right""></p><p><img src=images/blank.png width =""800"" height = ""200""></p>","","","","","","","","","","","",""
"","477.9850000049919","sequential-stimulus-presentation","143","158971","0.0-29.0-1.4","SS1613138700545","trial","","40","800","1277.985000004992","images/stimuli/spore_stims/complex_09_A_a.gif","images/stimuli/spore_stims/complex_07_B_c.gif","","","","","7","complex_dissimilar","images/stimuli/spore_stims/complex_07_B_c.gif","left","","","","",""
"","null","html-keyboard-response","144","160026","0.0-29.0-0.5","SS1613138700545","","","null","","","","","<p><img src= images/blank.png width =""200"" height = ""200"" style = ""float:right""></p><p><img src=images/blank.png width =""800"" height = ""200""></p>","","","","","","","","","","","",""
"","117.68500017933547","sequential-stimulus-presentation","145","160962","0.0-29.0-1.5","SS1613138700545","trial","","40","800","917.6850001793355","images/stimuli/spore_stims/complex_09_A_a.gif","images/stimuli/spore_stims/complex_07_B_c.gif","","","","","7","complex_dissimilar","images/stimuli/spore_stims/complex_07_B_c.gif","left","","","","",""
"","null","html-keyboard-response","146","161831","0.0-29.0-0.6","SS1613138700545","","","null","","","","","<p><img src= images/blank.png width =""200"" height = ""200"" style = ""float:right""></p><p><img src=images/blank.png width =""800"" height = ""200""></p>","","","","","","","","","","","",""
"","70.71999995969236","sequential-stimulus-presentation","147","162719","0.0-29.0-1.6","SS1613138700545","trial","","40","800","870.7199999596924","images/stimuli/spore_stims/complex_09_A_a.gif","images/stimuli/spore_stims/complex_07_B_c.gif","","","","","7","complex_dissimilar","images/stimuli/spore_stims/complex_09_A_a.gif","middle","","","","",""
"","null","html-keyboard-response","148","163683","0.0-29.0-0.7","SS1613138700545","","","null","","","","","<p><img src= images/blank.png width =""200"" height = ""200"" style = ""float:right""></p><p><img src=images/blank.png width =""800"" height = ""200""></p>","","","","","","","","","","","",""
"","100.40000011213124","sequential-stimulus-presentation","149","164605","0.0-29.0-1.7","SS1613138700545","trial","","40","800","900.4000001121312","images/stimuli/spore_stims/complex_09_A_a.gif","images/stimuli/spore_stims/complex_07_B_c.gif","","","","","7","complex_dissimilar","images/stimuli/spore_stims/complex_07_B_c.gif","left","","","","",""
"","35.74500000104308","html-keyboard-response","150","164665","0.0-30.0","SS1613138700545","pref_question","","50","","","","","<video width ='960' height = '540' style='padding-top:8%' autoplay muted><source src='images/stimuli/wall_pref.mp4' type='video/mp4'></video>","2","middle","45%","7","","","","","","","",""
"","37.46499982662499","sequential-stimulus-presentation","151","165539","0.0-31.0","SS1613138700545","pref_reveal","","40","800","837.464999826625","null","null","","","","","7","","","","deviant","","","",""
"","null","html-keyboard-response","152","166786","0.0-32.0-0.0","SS1613138700545","","","null","","","","","<p><img src= images/blank.png width =""200"" height = ""200"" style = ""float:right""></p><p><img src=images/blank.png width =""800"" height = ""200""></p>","","","","","","","","","","","",""
"","39.59000017493963","sequential-stimulus-presentation","153","167672","0.0-32.0-1.0","SS1613138700545","trial","","40","800","839.5900001749396","images/stimuli/spore_stims/complex_15_B_c.gif","images/stimuli/spore_stims/complex_15_A_c.gif","","","","","8","complex_similar","images/stimuli/spore_stims/complex_15_A_c.gif","middle","","","","",""
"","null","html-keyboard-response","154","168997","0.0-32.0-0.1","SS1613138700545","","","null","","","","","<p><img src= images/blank.png width =""200"" height = ""200"" style = ""float:right""></p><p><img src=images/blank.png width =""800"" height = ""200""></p>","","","","","","","","","","","",""
"","171.6249999590218","sequential-stimulus-presentation","155","169989","0.0-32.0-1.1","SS1613138700545","trial","","40","800","971.6249999590218","images/stimuli/spore_stims/complex_15_B_c.gif","images/stimuli/spore_stims/complex_15_A_c.gif","","","","","8","complex_similar","images/stimuli/spore_stims/complex_15_A_c.gif","middle","","","","",""
"","null","html-keyboard-response","156","171175","0.0-32.0-0.2","SS1613138700545","","","null","","","","","<p><img src= images/blank.png width =""200"" height = ""200"" style = ""float:right""></p><p><img src=images/blank.png width =""800"" height = ""200""></p>","","","","","","","","","","","",""
"","571.9000000972301","sequential-stimulus-presentation","157","172573","0.0-32.0-1.2","SS1613138700545","trial","","40","800","1371.90000009723","images/stimuli/spore_stims/complex_15_B_c.gif","images/stimuli/spore_stims/complex_15_A_c.gif","","","","","8","complex_similar","images/stimuli/spore_stims/complex_15_A_c.gif","middle","","","","",""
"","null","html-keyboard-response","158","173646","0.0-32.0-0.3","SS1613138700545","","","null","","","","","<p><img src= images/blank.png width =""200"" height = ""200"" style = ""float:right""></p><p><img src=images/blank.png width =""800"" height = ""200""></p>","","","","","","","","","","","",""
"","151.08500001952052","sequential-stimulus-presentation","159","174614","0.0-32.0-1.3","SS1613138700545","trial","","40","800","951.0850000195205","images/stimuli/spore_stims/complex_15_B_c.gif","images/stimuli/spore_stims/complex_15_A_c.gif","","","","","8","complex_similar","images/stimuli/spore_stims/complex_15_A_c.gif","middle","","","","",""
"","null","html-keyboard-response","160","175660","0.0-32.0-0.4","SS1613138700545","","","null","","","","","<p><img src= images/blank.png width =""200"" height = ""200"" style = ""float:right""></p><p><img src=images/blank.png width =""800"" height = ""200""></p>","","","","","","","","","","","",""
"","102.87499986588955","sequential-stimulus-presentation","161","176610","0.0-32.0-1.4","SS1613138700545","trial","","40","800","902.8749998658895","images/stimuli/spore_stims/complex_15_B_c.gif","images/stimuli/spore_stims/complex_15_A_c.gif","","","","","8","complex_similar","images/stimuli/spore_stims/complex_15_A_c.gif","middle","","","","",""
"","null","html-keyboard-response","162","177458","0.0-32.0-0.5","SS1613138700545","","","null","","","","","<p><img src= images/blank.png width =""200"" height = ""200"" style = ""float:right""></p><p><img src=images/blank.png width =""800"" height = ""200""></p>","","","","","","","","","","","",""
"","445.8650001324713","sequential-stimulus-presentation","163","178733","0.0-32.0-1.5","SS1613138700545","trial","","40","800","1245.8650001324713","images/stimuli/spore_stims/complex_15_B_c.gif","images/stimuli/spore_stims/complex_15_A_c.gif","","","","","8","complex_similar","images/stimuli/spore_stims/complex_15_A_c.gif","middle","","","","",""
"","null","html-keyboard-response","164","179746","0.0-32.0-0.6","SS1613138700545","","","null","","","","","<p><img src= images/blank.png width =""200"" height = ""200"" style = ""float:right""></p><p><img src=images/blank.png width =""800"" height = ""200""></p>","","","","","","","","","","","",""
"","108.98500005714595","sequential-stimulus-presentation","165","180676","0.0-32.0-1.6","SS1613138700545","trial","","40","800","908.985000057146","images/stimuli/spore_stims/complex_15_B_c.gif","images/stimuli/spore_stims/complex_15_A_c.gif","","","","","8","complex_similar","images/stimuli/spore_stims/complex_15_B_c.gif","left","","","","",""
"","null","html-keyboard-response","166","181632","0.0-32.0-0.7","SS1613138700545","","","null","","","","","<p><img src= images/blank.png width =""200"" height = ""200"" style = ""float:right""></p><p><img src=images/blank.png width =""800"" height = ""200""></p>","","","","","","","","","","","",""
"","79.88000009208918","sequential-stimulus-presentation","167","182527","0.0-32.0-1.7","SS1613138700545","trial","","40","800","879.8800000920892","images/stimuli/spore_stims/complex_15_B_c.gif","images/stimuli/spore_stims/complex_15_A_c.gif","","","","","8","complex_similar","images/stimuli/spore_stims/complex_15_A_c.gif","middle","","","","",""
"","40.57499999180436","html-keyboard-response","168","182584","0.0-33.0","SS1613138700545","pref_question","","50","","","","","<video width ='960' height = '540' style='padding-top:8%' autoplay muted><source src='images/stimuli/wall_pref.mp4' type='video/mp4'></video>","2","middle","45%","8","","","","","","","",""
"","54.16500009596348","sequential-stimulus-presentation","169","183462","0.0-34.0","SS1613138700545","pref_reveal","","40","800","854.1650000959635","null","null","","","","","8","","","","background","","","",""
"","null","html-keyboard-response","170","184360","0.0-35.0-0.0","SS1613138700545","","","null","","","","","<p><img src= images/blank.png width =""200"" height = ""200"" style = ""float:right""></p><p><img src=images/blank.png width =""800"" height = ""200""></p>","","","","","","","","","","","",""
"","62.05499987117946","sequential-stimulus-presentation","171","185263","0.0-35.0-1.0","SS1613138700545","trial","","40","800","862.0549998711795","images/stimuli/spore_stims/complex_18_B_b.gif","images/stimuli/spore_stims/complex_18_A_d.gif","","","","","9","complex_dissimilar","images/stimuli/spore_stims/complex_18_A_d.gif","left","","","","",""
"","null","html-keyboard-response","172","186266","0.0-35.0-0.1","SS1613138700545","","","null","","","","","<p><img src= images/blank.png width =""200"" height = ""200"" style = ""float:right""></p><p><img src=images/blank.png width =""800"" height = ""200""></p>","","","","","","","","","","","",""
"","246.4499999769032","sequential-stimulus-presentation","173","187335","0.0-35.0-1.1","SS1613138700545","trial","","40","800","1046.4499999769032","images/stimuli/spore_stims/complex_18_B_b.gif","images/stimuli/spore_stims/complex_18_A_d.gif","","","","","9","complex_dissimilar","images/stimuli/spore_stims/complex_18_A_d.gif","left","","","","",""
"","null","html-keyboard-response","174","188375","0.0-35.0-0.2","SS1613138700545","","","null","","","","","<p><img src= images/blank.png width =""200"" height = ""200"" style = ""float:right""></p><p><img src=images/blank.png width =""800"" height = ""200""></p>","","","","","","","","","","","",""
"","12.524999910965562","sequential-stimulus-presentation","175","189219","0.0-35.0-1.2","SS1613138700545","trial","","40","800","812.5249999109656","images/stimuli/spore_stims/complex_18_B_b.gif","images/stimuli/spore_stims/complex_18_A_d.gif","","","","","9","complex_dissimilar","images/stimuli/spore_stims/complex_18_A_d.gif","left","","","","",""
"","null","html-keyboard-response","176","190468","0.0-35.0-0.3","SS1613138700545","","","null","","","","","<p><img src= images/blank.png width =""200"" height = ""200"" style = ""float:right""></p><p><img src=images/blank.png width =""800"" height = ""200""></p>","","","","","","","","","","","",""
"","250.15500001609325","sequential-stimulus-presentation","177","191549","0.0-35.0-1.3","SS1613138700545","trial","","40","800","1050.1550000160933","images/stimuli/spore_stims/complex_18_B_b.gif","images/stimuli/spore_stims/complex_18_A_d.gif","","","","","9","complex_dissimilar","images/stimuli/spore_stims/complex_18_A_d.gif","left","","","","",""
"","null","html-keyboard-response","178","192485","0.0-35.0-0.4","SS1613138700545","","","null","","","","","<p><img src= images/blank.png width =""200"" height = ""200"" style = ""float:right""></p><p><img src=images/blank.png width =""800"" height = ""200""></p>","","","","","","","","","","","",""
"","23.539999965578318","sequential-stimulus-presentation","179","193347","0.0-35.0-1.4","SS1613138700545","trial","","40","800","823.5399999655783","images/stimuli/spore_stims/complex_18_B_b.gif","images/stimuli/spore_stims/complex_18_A_d.gif","","","","","9","complex_dissimilar","images/stimuli/spore_stims/complex_18_A_d.gif","left","","","","",""
"","null","html-keyboard-response","180","194424","0.0-35.0-0.5","SS1613138700545","","","null","","","","","<p><img src= images/blank.png width =""200"" height = ""200"" style = ""float:right""></p><p><img src=images/blank.png width =""800"" height = ""200""></p>","","","","","","","","","","","",""
"","103.36500010453165","sequential-stimulus-presentation","181","195345","0.0-35.0-1.5","SS1613138700545","trial","","40","800","903.3650001045316","images/stimuli/spore_stims/complex_18_B_b.gif","images/stimuli/spore_stims/complex_18_A_d.gif","","","","","9","complex_dissimilar","images/stimuli/spore_stims/complex_18_A_d.gif","left","","","","",""
"","null","html-keyboard-response","182","196321","0.0-35.0-0.6","SS1613138700545","","","null","","","","","<p><img src= images/blank.png width =""200"" height = ""200"" style = ""float:right""></p><p><img src=images/blank.png width =""800"" height = ""200""></p>","","","","","","","","","","","",""
"","126.76499993540347","sequential-stimulus-presentation","183","197278","0.0-35.0-1.6","SS1613138700545","trial","","40","800","926.7649999354035","images/stimuli/spore_stims/complex_18_B_b.gif","images/stimuli/spore_stims/complex_18_A_d.gif","","","","","9","complex_dissimilar","images/stimuli/spore_stims/complex_18_A_d.gif","left","","","","",""
"","null","html-keyboard-response","184","198127","0.0-35.0-0.7","SS1613138700545","","","null","","","","","<p><img src= images/blank.png width =""200"" height = ""200"" style = ""float:right""></p><p><img src=images/blank.png width =""800"" height = ""200""></p>","","","","","","","","","","","",""
"","192.50499992631376","sequential-stimulus-presentation","185","199137","0.0-35.0-1.7","SS1613138700545","trial","","40","800","992.5049999263138","images/stimuli/spore_stims/complex_18_B_b.gif","images/stimuli/spore_stims/complex_18_A_d.gif","","","","","9","complex_dissimilar","images/stimuli/spore_stims/complex_18_B_b.gif","middle","","","","",""
"","23.6200001090765","html-keyboard-response","186","199172","0.0-36.0","SS1613138700545","pref_question","","50","","","","","<video width ='960' height = '540' style='padding-top:8%' autoplay muted><source src='images/stimuli/wall_pref.mp4' type='video/mp4'></video>","2","middle","45%","9","","","","","","","",""
"","101.56499990262091","sequential-stimulus-presentation","187","200099","0.0-37.0","SS1613138700545","pref_reveal","","40","800","901.5649999026209","null","null","","","","","9","","","","deviant","","","",""
"","null","html-keyboard-response","188","201374","0.0-38.0-0.0","SS1613138700545","","","null","","","","","<p><img src= images/blank.png width =""200"" height = ""200"" style = ""float:right""></p><p><img src=images/blank.png width =""800"" height = ""200""></p>","","","","","","","","","","","",""
"","125.01000007614493","sequential-stimulus-presentation","189","202325","0.0-38.0-1.0","SS1613138700545","trial","","40","800","925.0100000761449","images/stimuli/spore_stims/complex_13_A_a.gif","images/stimuli/spore_stims/complex_13_B_a.gif","","","","","10","complex_similar","images/stimuli/spore_stims/complex_13_B_a.gif","left","","","","",""
"","null","html-keyboard-response","190","203566","0.0-38.0-0.1","SS1613138700545","","","null","","","","","<p><img src= images/blank.png width =""200"" height = ""200"" style = ""float:right""></p><p><img src=images/blank.png width =""800"" height = ""200""></p>","","","","","","","","","","","",""
"","195.18999988213181","sequential-stimulus-presentation","191","204576","0.0-38.0-1.1","SS1613138700545","trial","","40","800","995.1899998821318","images/stimuli/spore_stims/complex_13_A_a.gif","images/stimuli/spore_stims/complex_13_B_a.gif","","","","","10","complex_similar","images/stimuli/spore_stims/complex_13_B_a.gif","left","","","","",""
"","null","html-keyboard-response","192","205512","0.0-38.0-0.2","SS1613138700545","","","null","","","","","<p><img src= images/blank.png width =""200"" height = ""200"" style = ""float:right""></p><p><img src=images/blank.png width =""800"" height = ""200""></p>","","","","","","","","","","","",""
"","1.4799998607486486","sequential-stimulus-presentation","193","206333","0.0-38.0-1.2","SS1613138700545","trial","","40","800","801.4799998607486","images/stimuli/spore_stims/complex_13_A_a.gif","images/stimuli/spore_stims/complex_13_B_a.gif","","","","","10","complex_similar","images/stimuli/spore_stims/complex_13_B_a.gif","left","","","","",""
"","null","html-keyboard-response","194","207478","0.0-38.0-0.3","SS1613138700545","","","null","","","","","<p><img src= images/blank.png width =""200"" height = ""200"" style = ""float:right""></p><p><img src=images/blank.png width =""800"" height = ""200""></p>","","","","","","","","","","","",""
"","125.75999996624887","sequential-stimulus-presentation","195","208425","0.0-38.0-1.3","SS1613138700545","trial","","40","800","925.7599999662489","images/stimuli/spore_stims/complex_13_A_a.gif","images/stimuli/spore_stims/complex_13_B_a.gif","","","","","10","complex_similar","images/stimuli/spore_stims/complex_13_B_a.gif","left","","","","",""
"","null","html-keyboard-response","196","209381","0.0-38.0-0.4","SS1613138700545","","","null","","","","","<p><img src= images/blank.png width =""200"" height = ""200"" style = ""float:right""></p><p><img src=images/blank.png width =""800"" height = ""200""></p>","","","","","","","","","","","",""
"","130.04499999806285","sequential-stimulus-presentation","197","210364","0.0-38.0-1.4","SS1613138700545","trial","","40","800","930.0449999980628","images/stimuli/spore_stims/complex_13_A_a.gif","images/stimuli/spore_stims/complex_13_B_a.gif","","","","","10","complex_similar","images/stimuli/spore_stims/complex_13_B_a.gif","left","","","","",""
"","null","html-keyboard-response","198","211271","0.0-38.0-0.5","SS1613138700545","","","null","","","","","<p><img src= images/blank.png width =""200"" height = ""200"" style = ""float:right""></p><p><img src=images/blank.png width =""800"" height = ""200""></p>","","","","","","","","","","","",""
"","140.84000000730157","sequential-stimulus-presentation","199","212231","0.0-38.0-1.5","SS1613138700545","trial","","40","800","940.8400000073016","images/stimuli/spore_stims/complex_13_A_a.gif","images/stimuli/spore_stims/complex_13_B_a.gif","","","","","10","complex_similar","images/stimuli/spore_stims/complex_13_A_a.gif","middle","","","","",""
"","null","html-keyboard-response","200","213299","0.0-38.0-0.6","SS1613138700545","","","null","","","","","<p><img src= images/blank.png width =""200"" height = ""200"" style = ""float:right""></p><p><img src=images/blank.png width =""800"" height = ""200""></p>","","","","","","","","","","","",""
"","188.24999989010394","sequential-stimulus-presentation","201","214313","0.0-38.0-1.6","SS1613138700545","trial","","40","800","988.2499998901039","images/stimuli/spore_stims/complex_13_A_a.gif","images/stimuli/spore_stims/complex_13_B_a.gif","","","","","10","complex_similar","images/stimuli/spore_stims/complex_13_B_a.gif","left","","","","",""
"","null","html-keyboard-response","202","215550","0.0-38.0-0.7","SS1613138700545","","","null","","","","","<p><img src= images/blank.png width =""200"" height = ""200"" style = ""float:right""></p><p><img src=images/blank.png width =""800"" height = ""200""></p>","","","","","","","","","","","",""
"","1589.9849999696016","sequential-stimulus-presentation","203","217973","0.0-38.0-1.7","SS1613138700545","trial","","40","800","2389.9849999696016","images/stimuli/spore_stims/complex_13_A_a.gif","images/stimuli/spore_stims/complex_13_B_a.gif","","","","","10","complex_similar","images/stimuli/spore_stims/complex_13_B_a.gif","left","","","","",""
"","1.0799998417496681","html-keyboard-response","204","218024","0.0-39.0","SS1613138700545","pref_question","","50","","","","","<video width ='960' height = '540' style='padding-top:8%' autoplay muted><source src='images/stimuli/wall_pref.mp4' type='video/mp4'></video>","2","middle","45%","10","","","","","","","",""
"","194.11000004038215","sequential-stimulus-presentation","205","219046","0.0-40.0","SS1613138700545","pref_reveal","","40","800","994.1100000403821","null","null","","","","","10","","","","deviant","","","",""
"","null","html-keyboard-response","206","220042","0.0-41.0-0.0","SS1613138700545","","","null","","","","","<p><img src= images/blank.png width =""200"" height = ""200"" style = ""float:right""></p><p><img src=images/blank.png width =""800"" height = ""200""></p>","","","","","","","","","","","",""
"","143.36999994702637","sequential-stimulus-presentation","207","221011","0.0-41.0-1.0","SS1613138700545","trial","","40","800","943.3699999470264","images/stimuli/spore_stims/simple_07_A_b.gif","images/stimuli/spore_stims/simple_13_B_a.gif","","","","","11","simple_dissimilar","images/stimuli/spore_stims/simple_13_B_a.gif","middle","","","","",""
"","null","html-keyboard-response","208","221980","0.0-41.0-0.1","SS1613138700545","","","null","","","","","<p><img src= images/blank.png width =""200"" height = ""200"" style = ""float:right""></p><p><img src=images/blank.png width =""800"" height = ""200""></p>","","","","","","","","","","","",""
"","245.60499982908368","sequential-stimulus-presentation","209","223043","0.0-41.0-1.1","SS1613138700545","trial","","40","800","1045.6049998290837","images/stimuli/spore_stims/simple_07_A_b.gif","images/stimuli/spore_stims/simple_13_B_a.gif","","","","","11","simple_dissimilar","images/stimuli/spore_stims/simple_13_B_a.gif","middle","","","","",""
"","null","html-keyboard-response","210","224078","0.0-41.0-0.2","SS1613138700545","","","null","","","","","<p><img src= images/blank.png width =""200"" height = ""200"" style = ""float:right""></p><p><img src=images/blank.png width =""800"" height = ""200""></p>","","","","","","","","","","","",""
"","12.760000070556998","sequential-stimulus-presentation","211","224931","0.0-41.0-1.2","SS1613138700545","trial","","40","800","812.760000070557","images/stimuli/spore_stims/simple_07_A_b.gif","images/stimuli/spore_stims/simple_13_B_a.gif","","","","","11","simple_dissimilar","images/stimuli/spore_stims/simple_13_B_a.gif","middle","","","","",""
"","null","html-keyboard-response","212","225771","0.0-41.0-0.3","SS1613138700545","","","null","","","","","<p><img src= images/blank.png width =""200"" height = ""200"" style = ""float:right""></p><p><img src=images/blank.png width =""800"" height = ""200""></p>","","","","","","","","","","","",""
"","38.77500002272427","sequential-stimulus-presentation","213","226628","0.0-41.0-1.3","SS1613138700545","trial","","40","800","838.7750000227243","images/stimuli/spore_stims/simple_07_A_b.gif","images/stimuli/spore_stims/simple_13_B_a.gif","","","","","11","simple_dissimilar","images/stimuli/spore_stims/simple_13_B_a.gif","middle","","","","",""
"","null","html-keyboard-response","214","227842","0.0-41.0-0.4","SS1613138700545","","","null","","","","","<p><img src= images/blank.png width =""200"" height = ""200"" style = ""float:right""></p><p><img src=images/blank.png width =""800"" height = ""200""></p>","","","","","","","","","","","",""
"","17.635000171139836","sequential-stimulus-presentation","215","228688","0.0-41.0-1.4","SS1613138700545","trial","","40","800","817.6350001711398","images/stimuli/spore_stims/simple_07_A_b.gif","images/stimuli/spore_stims/simple_13_B_a.gif","","","","","11","simple_dissimilar","images/stimuli/spore_stims/simple_13_B_a.gif","middle","","","","",""
"","null","html-keyboard-response","216","229946","0.0-41.0-0.5","SS1613138700545","","","null","","","","","<p><img src= images/blank.png width =""200"" height = ""200"" style = ""float:right""></p><p><img src=images/blank.png width =""800"" height = ""200""></p>","","","","","","","","","","","",""
"","563.340000109747","sequential-stimulus-presentation","217","231335","0.0-41.0-1.5","SS1613138700545","trial","","40","800","1363.340000109747","images/stimuli/spore_stims/simple_07_A_b.gif","images/stimuli/spore_stims/simple_13_B_a.gif","","","","","11","simple_dissimilar","images/stimuli/spore_stims/simple_13_B_a.gif","middle","","","","",""
"","null","html-keyboard-response","218","232495","0.0-41.0-0.6","SS1613138700545","","","null","","","","","<p><img src= images/blank.png width =""200"" height = ""200"" style = ""float:right""></p><p><img src=images/blank.png width =""800"" height = ""200""></p>","","","","","","","","","","","",""
"","3530.7250001933426","sequential-stimulus-presentation","219","236847","0.0-41.0-1.6","SS1613138700545","trial","","40","800","4330.725000193343","images/stimuli/spore_stims/simple_07_A_b.gif","images/stimuli/spore_stims/simple_13_B_a.gif","","","","","11","simple_dissimilar","images/stimuli/spore_stims/simple_07_A_b.gif","left","","","","",""
"","null","html-keyboard-response","220","237882","0.0-41.0-0.7","SS1613138700545","","","null","","","","","<p><img src= images/blank.png width =""200"" height = ""200"" style = ""float:right""></p><p><img src=images/blank.png width =""800"" height = ""200""></p>","","","","","","","","","","","",""
"","1663.4599999524653","sequential-stimulus-presentation","221","240377","0.0-41.0-1.7","SS1613138700545","trial","","40","800","2463.4599999524653","images/stimuli/spore_stims/simple_07_A_b.gif","images/stimuli/spore_stims/simple_13_B_a.gif","","","","","11","simple_dissimilar","images/stimuli/spore_stims/simple_13_B_a.gif","middle","","","","",""
"","46.42000002786517","html-keyboard-response","222","240438","0.0-42.0","SS1613138700545","pref_question","","49","","","","","<video width ='960' height = '540' style='padding-top:8%' autoplay muted><source src='images/stimuli/wall_pref.mp4' type='video/mp4'></video>","1","left","25%","11","","","","","","","",""
"","186.44499988295138","sequential-stimulus-presentation","223","241459","0.0-43.0","SS1613138700545","pref_reveal","","40","800","986.4449998829514","null","null","","","","","11","","","","deviant","","","",""
"","null","html-keyboard-response","224","242546","0.0-44.0-0.0","SS1613138700545","","","null","","","","","<p><img src= images/blank.png width =""200"" height = ""200"" style = ""float:right""></p><p><img src=images/blank.png width =""800"" height = ""200""></p>","","","","","","","","","","","",""
"","1616.9700000900775","sequential-stimulus-presentation","225","244992","0.0-44.0-1.0","SS1613138700545","trial","","40","800","2416.9700000900775","images/stimuli/spore_stims/simple_07_B_a.gif","images/stimuli/spore_stims/simple_01_B_d.gif","","","","","12","simple_dissimilar","images/stimuli/spore_stims/simple_01_B_d.gif","middle","","","","",""
"","null","html-keyboard-response","226","245977","0.0-44.0-0.1","SS1613138700545","","","null","","","","","<p><img src= images/blank.png width =""200"" height = ""200"" style = ""float:right""></p><p><img src=images/blank.png width =""800"" height = ""200""></p>","","","","","","","","","","","",""
"","124.8749999795109","sequential-stimulus-presentation","227","246926","0.0-44.0-1.1","SS1613138700545","trial","","40","800","924.8749999795109","images/stimuli/spore_stims/simple_07_B_a.gif","images/stimuli/spore_stims/simple_01_B_d.gif","","","","","12","simple_dissimilar","images/stimuli/spore_stims/simple_01_B_d.gif","middle","","","","",""
"","null","html-keyboard-response","228","248093","0.0-44.0-0.2","SS1613138700545","","","null","","","","","<p><img src= images/blank.png width =""200"" height = ""200"" style = ""float:right""></p><p><img src=images/blank.png width =""800"" height = ""200""></p>","","","","","","","","","","","",""
"","119.66999992728233","sequential-stimulus-presentation","229","249035","0.0-44.0-1.2","SS1613138700545","trial","","40","800","919.6699999272823","images/stimuli/spore_stims/simple_07_B_a.gif","images/stimuli/spore_stims/simple_01_B_d.gif","","","","","12","simple_dissimilar","images/stimuli/spore_stims/simple_01_B_d.gif","middle","","","","",""
"","null","html-keyboard-response","230","250148","0.0-44.0-0.3","SS1613138700545","","","null","","","","","<p><img src= images/blank.png width =""200"" height = ""200"" style = ""float:right""></p><p><img src=images/blank.png width =""800"" height = ""200""></p>","","","","","","","","","","","",""
"","62.960000010207295","sequential-stimulus-presentation","231","251050","0.0-44.0-1.3","SS1613138700545","trial","","40","800","862.9600000102073","images/stimuli/spore_stims/simple_07_B_a.gif","images/stimuli/spore_stims/simple_01_B_d.gif","","","","","12","simple_dissimilar","images/stimuli/spore_stims/simple_01_B_d.gif","middle","","","","",""
"","null","html-keyboard-response","232","252178","0.0-44.0-0.4","SS1613138700545","","","null","","","","","<p><img src= images/blank.png width =""200"" height = ""200"" style = ""float:right""></p><p><img src=images/blank.png width =""800"" height = ""200""></p>","","","","","","","","","","","",""
"","628.7000000011176","sequential-stimulus-presentation","233","253621","0.0-44.0-1.4","SS1613138700545","trial","","40","800","1428.7000000011176","images/stimuli/spore_stims/simple_07_B_a.gif","images/stimuli/spore_stims/simple_01_B_d.gif","","","","","12","simple_dissimilar","images/stimuli/spore_stims/simple_07_B_a.gif","right","","","","",""
"","null","html-keyboard-response","234","254742","0.0-44.0-0.5","SS1613138700545","","","null","","","","","<p><img src= images/blank.png width =""200"" height = ""200"" style = ""float:right""></p><p><img src=images/blank.png width =""800"" height = ""200""></p>","","","","","","","","","","","",""
"","203.40500003658235","sequential-stimulus-presentation","235","255761","0.0-44.0-1.5","SS1613138700545","trial","","40","800","1003.4050000365824","images/stimuli/spore_stims/simple_07_B_a.gif","images/stimuli/spore_stims/simple_01_B_d.gif","","","","","12","simple_dissimilar","images/stimuli/spore_stims/simple_01_B_d.gif","middle","","","","",""
"","null","html-keyboard-response","236","257063","0.0-44.0-0.6","SS1613138700545","","","null","","","","","<p><img src= images/blank.png width =""200"" height = ""200"" style = ""float:right""></p><p><img src=images/blank.png width =""800"" height = ""200""></p>","","","","","","","","","","","",""
"","340.85500007495284","sequential-stimulus-presentation","237","258223","0.0-44.0-1.6","SS1613138700545","trial","","40","800","1140.8550000749528","images/stimuli/spore_stims/simple_07_B_a.gif","images/stimuli/spore_stims/simple_01_B_d.gif","","","","","12","simple_dissimilar","images/stimuli/spore_stims/simple_01_B_d.gif","middle","","","","",""
"","null","html-keyboard-response","238","259120","0.0-44.0-0.7","SS1613138700545","","","null","","","","","<p><img src= images/blank.png width =""200"" height = ""200"" style = ""float:right""></p><p><img src=images/blank.png width =""800"" height = ""200""></p>","","","","","","","","","","","",""
"","114.85000001266599","sequential-stimulus-presentation","239","260061","0.0-44.0-1.7","SS1613138700545","trial","","40","800","914.850000012666","images/stimuli/spore_stims/simple_07_B_a.gif","images/stimuli/spore_stims/simple_01_B_d.gif","","","","","12","simple_dissimilar","images/stimuli/spore_stims/simple_01_B_d.gif","middle","","","","",""
"","90.06500011309981","html-keyboard-response","240","260166","0.0-45.0","SS1613138700545","pref_question","","50","","","","","<video width ='960' height = '540' style='padding-top:8%' autoplay muted><source src='images/stimuli/wall_pref.mp4' type='video/mp4'></video>","2","middle","45%","12","","","","","","","",""
"","115.7050000037998","sequential-stimulus-presentation","241","261097","0.0-46.0","SS1613138700545","pref_reveal","","40","800","915.7050000037998","null","null","","","","","12","","","","background","","","",""
"","null","html-keyboard-response","242","262103","0.0-47.0-0.0","SS1613138700545","","","null","","","","","<p><img src= images/blank.png width =""200"" height = ""200"" style = ""float:right""></p><p><img src=images/blank.png width =""800"" height = ""200""></p>","","","","","","","","","","","",""
"","169.80999987572432","sequential-stimulus-presentation","243","263088","0.0-47.0-1.0","SS1613138700545","trial","","40","800","969.8099998757243","images/stimuli/spore_stims/complex_17_B_a.gif","images/stimuli/spore_stims/complex_17_A_a.gif","","","","","13","complex_similar","images/stimuli/spore_stims/complex_17_A_a.gif","left","","","","",""
"","null","html-keyboard-response","244","264281","0.0-47.0-0.1","SS1613138700545","","","null","","","","","<p><img src= images/blank.png width =""200"" height = ""200"" style = ""float:right""></p><p><img src=images/blank.png width =""800"" height = ""200""></p>","","","","","","","","","","","",""
"","79.29000002332032","sequential-stimulus-presentation","245","265189","0.0-47.0-1.1","SS1613138700545","trial","","40","800","879.2900000233203","images/stimuli/spore_stims/complex_17_B_a.gif","images/stimuli/spore_stims/complex_17_A_a.gif","","","","","13","complex_similar","images/stimuli/spore_stims/complex_17_A_a.gif","left","","","","",""
"","null","html-keyboard-response","246","266358","0.0-47.0-0.2","SS1613138700545","","","null","","","","","<p><img src= images/blank.png width =""200"" height = ""200"" style = ""float:right""></p><p><img src=images/blank.png width =""800"" height = ""200""></p>","","","","","","","","","","","",""
"","59.5100000500679","sequential-stimulus-presentation","247","267237","0.0-47.0-1.2","SS1613138700545","trial","","40","800","859.5100000500679","images/stimuli/spore_stims/complex_17_B_a.gif","images/stimuli/spore_stims/complex_17_A_a.gif","","","","","13","complex_similar","images/stimuli/spore_stims/complex_17_A_a.gif","left","","","","",""
"","null","html-keyboard-response","248","268424","0.0-47.0-0.3","SS1613138700545","","","null","","","","","<p><img src= images/blank.png width =""200"" height = ""200"" style = ""float:right""></p><p><img src=images/blank.png width =""800"" height = ""200""></p>","","","","","","","","","","","",""
"","125.7700000423938","sequential-stimulus-presentation","249","269368","0.0-47.0-1.3","SS1613138700545","trial","","40","800","925.7700000423938","images/stimuli/spore_stims/complex_17_B_a.gif","images/stimuli/spore_stims/complex_17_A_a.gif","","","","","13","complex_similar","images/stimuli/spore_stims/complex_17_A_a.gif","left","","","","",""
"","null","html-keyboard-response","250","270469","0.0-47.0-0.4","SS1613138700545","","","null","","","","","<p><img src= images/blank.png width =""200"" height = ""200"" style = ""float:right""></p><p><img src=images/blank.png width =""800"" height = ""200""></p>","","","","","","","","","","","",""
"","127.96499999240041","sequential-stimulus-presentation","251","271509","0.0-47.0-1.4","SS1613138700545","trial","","40","800","927.9649999924004","images/stimuli/spore_stims/complex_17_B_a.gif","images/stimuli/spore_stims/complex_17_A_a.gif","","","","","13","complex_similar","images/stimuli/spore_stims/complex_17_A_a.gif","left","","","","",""
"","null","html-keyboard-response","252","272401","0.0-47.0-0.5","SS1613138700545","","","null","","","","","<p><img src= images/blank.png width =""200"" height = ""200"" style = ""float:right""></p><p><img src=images/blank.png width =""800"" height = ""200""></p>","","","","","","","","","","","",""
"","13.489999808371067","sequential-stimulus-presentation","253","273237","0.0-47.0-1.5","SS1613138700545","trial","","40","800","813.4899998083711","images/stimuli/spore_stims/complex_17_B_a.gif","images/stimuli/spore_stims/complex_17_A_a.gif","","","","","13","complex_similar","images/stimuli/spore_stims/complex_17_A_a.gif","left","","","","",""
"","null","html-keyboard-response","254","274359","0.0-47.0-0.6","SS1613138700545","","","null","","","","","<p><img src= images/blank.png width =""200"" height = ""200"" style = ""float:right""></p><p><img src=images/blank.png width =""800"" height = ""200""></p>","","","","","","","","","","","",""
"","39.96500000357628","sequential-stimulus-presentation","255","275225","0.0-47.0-1.6","SS1613138700545","trial","","40","800","839.9650000035763","images/stimuli/spore_stims/complex_17_B_a.gif","images/stimuli/spore_stims/complex_17_A_a.gif","","","","","13","complex_similar","images/stimuli/spore_stims/complex_17_A_a.gif","left","","","","",""
"","null","html-keyboard-response","256","276273","0.0-47.0-0.7","SS1613138700545","","","null","","","","","<p><img src= images/blank.png width =""200"" height = ""200"" style = ""float:right""></p><p><img src=images/blank.png width =""800"" height = ""200""></p>","","","","","","","","","","","",""
"","15.14500007033348","sequential-stimulus-presentation","257","277131","0.0-47.0-1.7","SS1613138700545","trial","","40","800","815.1450000703335","images/stimuli/spore_stims/complex_17_B_a.gif","images/stimuli/spore_stims/complex_17_A_a.gif","","","","","13","complex_similar","images/stimuli/spore_stims/complex_17_B_a.gif","middle","","","","",""
"","39.42999988794327","html-keyboard-response","258","277185","0.0-48.0","SS1613138700545","pref_question","","50","","","","","<video width ='960' height = '540' style='padding-top:8%' autoplay muted><source src='images/stimuli/wall_pref.mp4' type='video/mp4'></video>","2","middle","45%","13","","","","","","","",""
"","91.62500011734664","sequential-stimulus-presentation","259","278104","0.0-49.0","SS1613138700545","pref_reveal","","40","800","891.6250001173466","null","null","","","","","13","","","","deviant","","","",""
"","null","html-keyboard-response","260","279287","0.0-50.0-0.0","SS1613138700545","","","null","","","","","<p><img src= images/blank.png width =""200"" height = ""200"" style = ""float:right""></p><p><img src=images/blank.png width =""800"" height = ""200""></p>","","","","","","","","","","","",""
"","82.59000000543892","sequential-stimulus-presentation","261","280189","0.0-50.0-1.0","SS1613138700545","trial","","40","800","882.5900000054389","images/stimuli/spore_stims/complex_10_B_a.gif","images/stimuli/spore_stims/complex_05_A_d.gif","","","","","14","complex_dissimilar","images/stimuli/spore_stims/complex_05_A_d.gif","middle","","","","",""
"","null","html-keyboard-response","262","281265","0.0-50.0-0.1","SS1613138700545","","","null","","","","","<p><img src= images/blank.png width =""200"" height = ""200"" style = ""float:right""></p><p><img src=images/blank.png width =""800"" height = ""200""></p>","","","","","","","","","","","",""
"","130.43999997898936","sequential-stimulus-presentation","263","282209","0.0-50.0-1.1","SS1613138700545","trial","","40","800","930.4399999789894","images/stimuli/spore_stims/complex_10_B_a.gif","images/stimuli/spore_stims/complex_05_A_d.gif","","","","","14","complex_dissimilar","images/stimuli/spore_stims/complex_05_A_d.gif","middle","","","","",""
"","null","html-keyboard-response","264","283508","0.0-50.0-0.2","SS1613138700545","","","null","","","","","<p><img src= images/blank.png width =""200"" height = ""200"" style = ""float:right""></p><p><img src=images/blank.png width =""800"" height = ""200""></p>","","","","","","","","","","","",""
"","230.9499999973923","sequential-stimulus-presentation","265","284560","0.0-50.0-1.2","SS1613138700545","trial","","40","800","1030.9499999973923","images/stimuli/spore_stims/complex_10_B_a.gif","images/stimuli/spore_stims/complex_05_A_d.gif","","","","","14","complex_dissimilar","images/stimuli/spore_stims/complex_05_A_d.gif","middle","","","","",""
"","null","html-keyboard-response","266","285544","0.0-50.0-0.3","SS1613138700545","","","null","","","","","<p><img src= images/blank.png width =""200"" height = ""200"" style = ""float:right""></p><p><img src=images/blank.png width =""800"" height = ""200""></p>","","","","","","","","","","","",""
"","44.615000020712614","sequential-stimulus-presentation","267","286418","0.0-50.0-1.3","SS1613138700545","trial","","40","800","844.6150000207126","images/stimuli/spore_stims/complex_10_B_a.gif","images/stimuli/spore_stims/complex_05_A_d.gif","","","","","14","complex_dissimilar","images/stimuli/spore_stims/complex_05_A_d.gif","middle","","","","",""
"","null","html-keyboard-response","268","287679","0.0-50.0-0.4","SS1613138700545","","","null","","","","","<p><img src= images/blank.png width =""200"" height = ""200"" style = ""float:right""></p><p><img src=images/blank.png width =""800"" height = ""200""></p>","","","","","","","","","","","",""
"","94.49500008486211","sequential-stimulus-presentation","269","288615","0.0-50.0-1.4","SS1613138700545","trial","","40","800","894.4950000848621","images/stimuli/spore_stims/complex_10_B_a.gif","images/stimuli/spore_stims/complex_05_A_d.gif","","","","","14","complex_dissimilar","images/stimuli/spore_stims/complex_10_B_a.gif","left","","","","",""
"","null","html-keyboard-response","270","289744","0.0-50.0-0.5","SS1613138700545","","","null","","","","","<p><img src= images/blank.png width =""200"" height = ""200"" style = ""float:right""></p><p><img src=images/blank.png width =""800"" height = ""200""></p>","","","","","","","","","","","",""
"","220.66999995149672","sequential-stimulus-presentation","271","290802","0.0-50.0-1.5","SS1613138700545","trial","","40","800","1020.6699999514967","images/stimuli/spore_stims/complex_10_B_a.gif","images/stimuli/spore_stims/complex_05_A_d.gif","","","","","14","complex_dissimilar","images/stimuli/spore_stims/complex_05_A_d.gif","middle","","","","",""
"","null","html-keyboard-response","272","292069","0.0-50.0-0.6","SS1613138700545","","","null","","","","","<p><img src= images/blank.png width =""200"" height = ""200"" style = ""float:right""></p><p><img src=images/blank.png width =""800"" height = ""200""></p>","","","","","","","","","","","",""
"","203.4449998755008","sequential-stimulus-presentation","273","293098","0.0-50.0-1.6","SS1613138700545","trial","","40","800","1003.4449998755008","images/stimuli/spore_stims/complex_10_B_a.gif","images/stimuli/spore_stims/complex_05_A_d.gif","","","","","14","complex_dissimilar","images/stimuli/spore_stims/complex_05_A_d.gif","middle","","","","",""
"","null","html-keyboard-response","274","294106","0.0-50.0-0.7","SS1613138700545","","","null","","","","","<p><img src= images/blank.png width =""200"" height = ""200"" style = ""float:right""></p><p><img src=images/blank.png width =""800"" height = ""200""></p>","","","","","","","","","","","",""
"","186.4100000821054","sequential-stimulus-presentation","275","295111","0.0-50.0-1.7","SS1613138700545","trial","","40","800","986.4100000821054","images/stimuli/spore_stims/complex_10_B_a.gif","images/stimuli/spore_stims/complex_05_A_d.gif","","","","","14","complex_dissimilar","images/stimuli/spore_stims/complex_05_A_d.gif","middle","","","","",""
"","272.3050001077354","html-keyboard-response","276","295431","0.0-51.0","SS1613138700545","pref_question","","50","","","","","<video width ='960' height = '540' style='padding-top:8%' autoplay muted><source src='images/stimuli/wall_pref.mp4' type='video/mp4'></video>","2","middle","45%","14","","","","","","","",""
"","189.5099999383092","sequential-stimulus-presentation","277","296452","0.0-52.0","SS1613138700545","pref_reveal","","40","800","989.5099999383092","null","null","","","","","14","","","","background","","","",""
"","null","html-keyboard-response","278","297786","0.0-53.0-0.0","SS1613138700545","","","null","","","","","<p><img src= images/blank.png width =""200"" height = ""200"" style = ""float:right""></p><p><img src=images/blank.png width =""800"" height = ""200""></p>","","","","","","","","","","","",""
"","166.0200001206249","sequential-stimulus-presentation","279","298780","0.0-53.0-1.0","SS1613138700545","trial","","40","800","966.0200001206249","images/stimuli/spore_stims/complex_12_B_a.gif","images/stimuli/spore_stims/complex_12_A_a.gif","","","","","15","complex_similar","images/stimuli/spore_stims/complex_12_A_a.gif","middle","","","","",""
"","null","html-keyboard-response","280","300081","0.0-53.0-0.1","SS1613138700545","","","null","","","","","<p><img src= images/blank.png width =""200"" height = ""200"" style = ""float:right""></p><p><img src=images/blank.png width =""800"" height = ""200""></p>","","","","","","","","","","","",""
"","119.9099998921156","sequential-stimulus-presentation","281","301018","0.0-53.0-1.1","SS1613138700545","trial","","40","800","919.9099998921156","images/stimuli/spore_stims/complex_12_B_a.gif","images/stimuli/spore_stims/complex_12_A_a.gif","","","","","15","complex_similar","images/stimuli/spore_stims/complex_12_A_a.gif","middle","","","","",""
"","null","html-keyboard-response","282","302048","0.0-53.0-0.2","SS1613138700545","","","null","","","","","<p><img src= images/blank.png width =""200"" height = ""200"" style = ""float:right""></p><p><img src=images/blank.png width =""800"" height = ""200""></p>","","","","","","","","","","","",""
"","233.54500019922853","sequential-stimulus-presentation","283","303119","0.0-53.0-1.2","SS1613138700545","trial","","40","800","1033.5450001992285","images/stimuli/spore_stims/complex_12_B_a.gif","images/stimuli/spore_stims/complex_12_A_a.gif","","","","","15","complex_similar","images/stimuli/spore_stims/complex_12_A_a.gif","middle","","","","",""
"","null","html-keyboard-response","284","304294","0.0-53.0-0.3","SS1613138700545","","","null","","","","","<p><img src= images/blank.png width =""200"" height = ""200"" style = ""float:right""></p><p><img src=images/blank.png width =""800"" height = ""200""></p>","","","","","","","","","","","",""
"","40.27500003576279","sequential-stimulus-presentation","285","305152","0.0-53.0-1.3","SS1613138700545","trial","","40","800","840.2750000357628","images/stimuli/spore_stims/complex_12_B_a.gif","images/stimuli/spore_stims/complex_12_A_a.gif","","","","","15","complex_similar","images/stimuli/spore_stims/complex_12_B_a.gif","right","","","","",""
"","null","html-keyboard-response","286","306003","0.0-53.0-0.4","SS1613138700545","","","null","","","","","<p><img src= images/blank.png width =""200"" height = ""200"" style = ""float:right""></p><p><img src=images/blank.png width =""800"" height = ""200""></p>","","","","","","","","","","","",""
"","231.4949999563396","sequential-stimulus-presentation","287","307055","0.0-53.0-1.4","SS1613138700545","trial","","40","800","1031.4949999563396","images/stimuli/spore_stims/complex_12_B_a.gif","images/stimuli/spore_stims/complex_12_A_a.gif","","","","","15","complex_similar","images/stimuli/spore_stims/complex_12_A_a.gif","middle","","","","",""
"","null","html-keyboard-response","288","308287","0.0-53.0-0.5","SS1613138700545","","","null","","","","","<p><img src= images/blank.png width =""200"" height = ""200"" style = ""float:right""></p><p><img src=images/blank.png width =""800"" height = ""200""></p>","","","","","","","","","","","",""
"","129.4700000435114","sequential-stimulus-presentation","289","309251","0.0-53.0-1.5","SS1613138700545","trial","","40","800","929.4700000435114","images/stimuli/spore_stims/complex_12_B_a.gif","images/stimuli/spore_stims/complex_12_A_a.gif","","","","","15","complex_similar","images/stimuli/spore_stims/complex_12_A_a.gif","middle","","","","",""
"","null","html-keyboard-response","290","310554","0.0-53.0-0.6","SS1613138700545","","","null","","","","","<p><img src= images/blank.png width =""200"" height = ""200"" style = ""float:right""></p><p><img src=images/blank.png width =""800"" height = ""200""></p>","","","","","","","","","","","",""
"","316.8600001372397","sequential-stimulus-presentation","291","311717","0.0-53.0-1.6","SS1613138700545","trial","","40","800","1116.8600001372397","images/stimuli/spore_stims/complex_12_B_a.gif","images/stimuli/spore_stims/complex_12_A_a.gif","","","","","15","complex_similar","images/stimuli/spore_stims/complex_12_A_a.gif","middle","","","","",""
"","null","html-keyboard-response","292","312941","0.0-53.0-0.7","SS1613138700545","","","null","","","","","<p><img src= images/blank.png width =""200"" height = ""200"" style = ""float:right""></p><p><img src=images/blank.png width =""800"" height = ""200""></p>","","","","","","","","","","","",""
"","5.58000011369586","sequential-stimulus-presentation","293","313784","0.0-53.0-1.7","SS1613138700545","trial","","40","800","805.5800001136959","images/stimuli/spore_stims/complex_12_B_a.gif","images/stimuli/spore_stims/complex_12_A_a.gif","","","","","15","complex_similar","images/stimuli/spore_stims/complex_12_A_a.gif","middle","","","","",""
"","32.47500001452863","html-keyboard-response","294","313834","0.0-54.0","SS1613138700545","pref_question","","50","","","","","<video width ='960' height = '540' style='padding-top:8%' autoplay muted><source src='images/stimuli/wall_pref.mp4' type='video/mp4'></video>","2","middle","45%","15","","","","","","","",""
"","95.21499997936189","sequential-stimulus-presentation","295","314769","0.0-55.0","SS1613138700545","pref_reveal","","40","800","895.2149999793619","null","null","","","","","15","","","","background","","","",""
"","null","html-keyboard-response","296","315718","0.0-56.0-0.0","SS1613138700545","","","null","","","","","<p><img src= images/blank.png width =""200"" height = ""200"" style = ""float:right""></p><p><img src=images/blank.png width =""800"" height = ""200""></p>","","","","","","","","","","","",""
"","150.13500000350177","sequential-stimulus-presentation","297","316696","0.0-56.0-1.0","SS1613138700545","trial","","40","800","950.1350000035018","images/stimuli/spore_stims/complex_08_B_b.gif","images/stimuli/spore_stims/complex_19_B_c.gif","","","","","16","complex_dissimilar","images/stimuli/spore_stims/complex_19_B_c.gif","middle","","","","",""
"","null","html-keyboard-response","298","317741","0.0-56.0-0.1","SS1613138700545","","","null","","","","","<p><img src= images/blank.png width =""200"" height = ""200"" style = ""float:right""></p><p><img src=images/blank.png width =""800"" height = ""200""></p>","","","","","","","","","","","",""
"","141.1000001244247","sequential-stimulus-presentation","299","318707","0.0-56.0-1.1","SS1613138700545","trial","","40","800","941.1000001244247","images/stimuli/spore_stims/complex_08_B_b.gif","images/stimuli/spore_stims/complex_19_B_c.gif","","","","","16","complex_dissimilar","images/stimuli/spore_stims/complex_19_B_c.gif","middle","","","","",""
"","null","html-keyboard-response","300","319598","0.0-56.0-0.2","SS1613138700545","","","null","","","","","<p><img src= images/blank.png width =""200"" height = ""200"" style = ""float:right""></p><p><img src=images/blank.png width =""800"" height = ""200""></p>","","","","","","","","","","","",""
"","165.28499987907708","sequential-stimulus-presentation","301","320586","0.0-56.0-1.2","SS1613138700545","trial","","40","800","965.2849998790771","images/stimuli/spore_stims/complex_08_B_b.gif","images/stimuli/spore_stims/complex_19_B_c.gif","","","","","16","complex_dissimilar","images/stimuli/spore_stims/complex_08_B_b.gif","right","","","","",""
"","null","html-keyboard-response","302","321447","0.0-56.0-0.3","SS1613138700545","","","null","","","","","<p><img src= images/blank.png width =""200"" height = ""200"" style = ""float:right""></p><p><img src=images/blank.png width =""800"" height = ""200""></p>","","","","","","","","","","","",""
"","69.18500014580786","sequential-stimulus-presentation","303","322335","0.0-56.0-1.3","SS1613138700545","trial","","40","800","869.1850001458079","images/stimuli/spore_stims/complex_08_B_b.gif","images/stimuli/spore_stims/complex_19_B_c.gif","","","","","16","complex_dissimilar","images/stimuli/spore_stims/complex_19_B_c.gif","middle","","","","",""
"","null","html-keyboard-response","304","323268","0.0-56.0-0.4","SS1613138700545","","","null","","","","","<p><img src= images/blank.png width =""200"" height = ""200"" style = ""float:right""></p><p><img src=images/blank.png width =""800"" height = ""200""></p>","","","","","","","","","","","",""
"","153.2850000075996","sequential-stimulus-presentation","305","324246","0.0-56.0-1.4","SS1613138700545","trial","","40","800","953.2850000075996","images/stimuli/spore_stims/complex_08_B_b.gif","images/stimuli/spore_stims/complex_19_B_c.gif","","","","","16","complex_dissimilar","images/stimuli/spore_stims/complex_19_B_c.gif","middle","","","","",""
"","null","html-keyboard-response","306","325470","0.0-56.0-0.5","SS1613138700545","","","null","","","","","<p><img src= images/blank.png width =""200"" height = ""200"" style = ""float:right""></p><p><img src=images/blank.png width =""800"" height = ""200""></p>","","","","","","","","","","","",""
"","244.08000009134412","sequential-stimulus-presentation","307","326530","0.0-56.0-1.5","SS1613138700545","trial","","40","800","1044.0800000913441","images/stimuli/spore_stims/complex_08_B_b.gif","images/stimuli/spore_stims/complex_19_B_c.gif","","","","","16","complex_dissimilar","images/stimuli/spore_stims/complex_19_B_c.gif","middle","","","","",""
"","null","html-keyboard-response","308","327835","0.0-56.0-0.6","SS1613138700545","","","null","","","","","<p><img src= images/blank.png width =""200"" height = ""200"" style = ""float:right""></p><p><img src=images/blank.png width =""800"" height = ""200""></p>","","","","","","","","","","","",""
"","226.24999983236194","sequential-stimulus-presentation","309","328889","0.0-56.0-1.6","SS1613138700545","trial","","40","800","1026.249999832362","images/stimuli/spore_stims/complex_08_B_b.gif","images/stimuli/spore_stims/complex_19_B_c.gif","","","","","16","complex_dissimilar","images/stimuli/spore_stims/complex_19_B_c.gif","middle","","","","",""
"","null","html-keyboard-response","310","329928","0.0-56.0-0.7","SS1613138700545","","","null","","","","","<p><img src= images/blank.png width =""200"" height = ""200"" style = ""float:right""></p><p><img src=images/blank.png width =""800"" height = ""200""></p>","","","","","","","","","","","",""
"","198.21000006049871","sequential-stimulus-presentation","311","330947","0.0-56.0-1.7","SS1613138700545","trial","","40","800","998.2100000604987","images/stimuli/spore_stims/complex_08_B_b.gif","images/stimuli/spore_stims/complex_19_B_c.gif","","","","","16","complex_dissimilar","images/stimuli/spore_stims/complex_19_B_c.gif","middle","","","","",""
"","35.260000033304095","html-keyboard-response","312","331032","0.0-57.0","SS1613138700545","pref_question","","50","","","","","<video width ='960' height = '540' style='padding-top:8%' autoplay muted><source src='images/stimuli/wall_pref.mp4' type='video/mp4'></video>","2","middle","45%","16","","","","","","","",""
