"view_history","rt","trial_type","trial_index","time_elapsed","internal_node_id","subject","stimulus_type","trial_stimulus","key_press","minimum_viewing_duration","trial_looking_time","block_deviant","block_background","stimulus","wall_pref","location","location_percent","block_number","block_type","stimulus_displayed","position_displayed","stim_type_selected","responses","question_order","stimulus_left","stimulus_right"
"[{""page_index"":0,""viewing_time"":21646.504999953322}]","21646.7549999943","instructions","0","21647","0.0-0.0","SS1613084875219","","","","","","","","","","","","","","","","","","","",""
"[{""page_index"":0,""viewing_time"":24788.635000004433},{""page_index"":1,""viewing_time"":12416.774999932386}]","37205.579999950714","instructions","1","60856","0.0-1.0","SS1613084875219","instructions","","","","","","","","","","","","","","","","","","",""
"","21245.17500004731","sequential-stimulus-presentation","2","82905","0.0-2.0","SS1613084875219","","","40","800","22045.17500004731","null","null","","","","","","","","","","","","",""
"","5289.630000013858","sequential-stimulus-presentation","3","89007","0.0-3.0","SS1613084875219","","","40","800","6089.630000013858","null","null","","","","","","","","","","","","",""
"[{""page_index"":0,""viewing_time"":13424.025000073016}]","13424.195000086911","instructions","4","102431","0.0-4.0","SS1613084875219","instructions","","","","","","","","","","","","","","","","","","",""
"","26951.035000034608","html-keyboard-response","5","129385","0.0-5.0","SS1613084875219","instructions","","97","","","","","<video width ='960' height = '540' autoplay muted><source src='images/stimuli/wall_pref.mp4' type='video/mp4'></video>","1","left","25%","","","","","","","","",""
"","4706.379999988712","sequential-stimulus-presentation","6","134911","0.0-6.0","SS1613084875219","pref_reveal","","40","800","5506.379999988712","null","null","","","","","","","","","","","","",""
"[{""page_index"":0,""viewing_time"":21671.635000035167},{""page_index"":1,""viewing_time"":12680.445000063628},{""page_index"":2,""viewing_time"":1919.469999964349},{""page_index"":3,""viewing_time"":2247.704999987036}]","38519.435000023805","instructions","7","173431","0.0-7.0","SS1613084875219","instructions","","","","","","","","","","","","","","","","","","",""
"","null","html-keyboard-response","8","174615","0.0-8.0-0.0","SS1613084875219","","","null","","","","","<p><img src= images/blank.png width =""200"" height = ""200"" style = ""float:right""></p><p><img src=images/blank.png width =""800"" height = ""200""></p>","","","","","","","","","","","",""
"","4522.179999970831","sequential-stimulus-presentation","9","179943","0.0-8.0-1.0","SS1613084875219","trial","","40","800","5322.179999970831","images/stimuli/spore_stims/simple_12_A_a.gif","images/stimuli/spore_stims/simple_12_B_a.gif","","","","","0","simple_similar","images/stimuli/spore_stims/simple_12_B_a.gif","middle","","","","",""
"","null","html-keyboard-response","10","181149","0.0-8.0-0.1","SS1613084875219","","","null","","","","","<p><img src= images/blank.png width =""200"" height = ""200"" style = ""float:right""></p><p><img src=images/blank.png width =""800"" height = ""200""></p>","","","","","","","","","","","",""
"","2747.3900000331923","sequential-stimulus-presentation","11","184710","0.0-8.0-1.1","SS1613084875219","trial","","40","800","3547.3900000331923","images/stimuli/spore_stims/simple_12_A_a.gif","images/stimuli/spore_stims/simple_12_B_a.gif","","","","","0","simple_similar","images/stimuli/spore_stims/simple_12_B_a.gif","middle","","","","",""
"","null","html-keyboard-response","12","185559","0.0-8.0-0.2","SS1613084875219","","","null","","","","","<p><img src= images/blank.png width =""200"" height = ""200"" style = ""float:right""></p><p><img src=images/blank.png width =""800"" height = ""200""></p>","","","","","","","","","","","",""
"","1265.8600000431761","sequential-stimulus-presentation","13","187641","0.0-8.0-1.2","SS1613084875219","trial","","40","800","2065.860000043176","images/stimuli/spore_stims/simple_12_A_a.gif","images/stimuli/spore_stims/simple_12_B_a.gif","","","","","0","simple_similar","images/stimuli/spore_stims/simple_12_B_a.gif","middle","","","","",""
"","null","html-keyboard-response","14","188861","0.0-8.0-0.3","SS1613084875219","","","null","","","","","<p><img src= images/blank.png width =""200"" height = ""200"" style = ""float:right""></p><p><img src=images/blank.png width =""800"" height = ""200""></p>","","","","","","","","","","","",""
"","4504.640000057407","sequential-stimulus-presentation","15","194175","0.0-8.0-1.3","SS1613084875219","trial","","40","800","5304.640000057407","images/stimuli/spore_stims/simple_12_A_a.gif","images/stimuli/spore_stims/simple_12_B_a.gif","","","","","0","simple_similar","images/stimuli/spore_stims/simple_12_B_a.gif","middle","","","","",""
"","null","html-keyboard-response","16","195270","0.0-8.0-0.4","SS1613084875219","","","null","","","","","<p><img src= images/blank.png width =""200"" height = ""200"" style = ""float:right""></p><p><img src=images/blank.png width =""800"" height = ""200""></p>","","","","","","","","","","","",""
"","2998.1149999657646","sequential-stimulus-presentation","17","199095","0.0-8.0-1.4","SS1613084875219","trial","","40","800","3798.1149999657646","images/stimuli/spore_stims/simple_12_A_a.gif","images/stimuli/spore_stims/simple_12_B_a.gif","","","","","0","simple_similar","images/stimuli/spore_stims/simple_12_A_a.gif","right","","","","",""
"","null","html-keyboard-response","18","199952","0.0-8.0-0.5","SS1613084875219","","","null","","","","","<p><img src= images/blank.png width =""200"" height = ""200"" style = ""float:right""></p><p><img src=images/blank.png width =""800"" height = ""200""></p>","","","","","","","","","","","",""
"","1990.360000054352","sequential-stimulus-presentation","19","202752","0.0-8.0-1.5","SS1613084875219","trial","","40","800","2790.360000054352","images/stimuli/spore_stims/simple_12_A_a.gif","images/stimuli/spore_stims/simple_12_B_a.gif","","","","","0","simple_similar","images/stimuli/spore_stims/simple_12_B_a.gif","middle","","","","",""
"","null","html-keyboard-response","20","204045","0.0-8.0-0.6","SS1613084875219","","","null","","","","","<p><img src= images/blank.png width =""200"" height = ""200"" style = ""float:right""></p><p><img src=images/blank.png width =""800"" height = ""200""></p>","","","","","","","","","","","",""
"","503.74500011093915","sequential-stimulus-presentation","21","205368","0.0-8.0-1.6","SS1613084875219","trial","","40","800","1303.7450001109391","images/stimuli/spore_stims/simple_12_A_a.gif","images/stimuli/spore_stims/simple_12_B_a.gif","","","","","0","simple_similar","images/stimuli/spore_stims/simple_12_B_a.gif","middle","","","","",""
"","null","html-keyboard-response","22","206278","0.0-8.0-0.7","SS1613084875219","","","null","","","","","<p><img src= images/blank.png width =""200"" height = ""200"" style = ""float:right""></p><p><img src=images/blank.png width =""800"" height = ""200""></p>","","","","","","","","","","","",""
"","622.8450000053272","sequential-stimulus-presentation","23","207710","0.0-8.0-1.7","SS1613084875219","trial","","40","800","1422.8450000053272","images/stimuli/spore_stims/simple_12_A_a.gif","images/stimuli/spore_stims/simple_12_B_a.gif","","","","","0","simple_similar","images/stimuli/spore_stims/simple_12_B_a.gif","middle","","","","",""
"","2330.8999999426305","html-keyboard-response","24","210048","0.0-9.0","SS1613084875219","pref_question","","99","","","","","<video width ='960' height = '540' style='padding-top:8%' autoplay muted><source src='images/stimuli/wall_pref.mp4' type='video/mp4'></video>","3","right","66%","0","","","","","","","",""
"","1375.4249999765307","sequential-stimulus-presentation","25","212232","0.0-10.0","SS1613084875219","pref_reveal","","40","800","2175.4249999765307","null","null","","","","","0","","","","deviant","","","",""
"","null","html-keyboard-response","26","213136","0.0-11.0-0.0","SS1613084875219","","","null","","","","","<p><img src= images/blank.png width =""200"" height = ""200"" style = ""float:right""></p><p><img src=images/blank.png width =""800"" height = ""200""></p>","","","","","","","","","","","",""
"","2166.744999936782","sequential-stimulus-presentation","27","216119","0.0-11.0-1.0","SS1613084875219","trial","","40","800","2966.744999936782","images/stimuli/spore_stims/simple_03_A_d.gif","images/stimuli/spore_stims/simple_03_B_d.gif","","","","","1","simple_similar","images/stimuli/spore_stims/simple_03_B_d.gif","right","","","","",""
"","null","html-keyboard-response","28","217381","0.0-11.0-0.1","SS1613084875219","","","null","","","","","<p><img src= images/blank.png width =""200"" height = ""200"" style = ""float:right""></p><p><img src=images/blank.png width =""800"" height = ""200""></p>","","","","","","","","","","","",""
"","1996.3849999476224","sequential-stimulus-presentation","29","220191","0.0-11.0-1.1","SS1613084875219","trial","","40","800","2796.3849999476224","images/stimuli/spore_stims/simple_03_A_d.gif","images/stimuli/spore_stims/simple_03_B_d.gif","","","","","1","simple_similar","images/stimuli/spore_stims/simple_03_B_d.gif","right","","","","",""
"","null","html-keyboard-response","30","221167","0.0-11.0-0.2","SS1613084875219","","","null","","","","","<p><img src= images/blank.png width =""200"" height = ""200"" style = ""float:right""></p><p><img src=images/blank.png width =""800"" height = ""200""></p>","","","","","","","","","","","",""
"","684.9100000690669","sequential-stimulus-presentation","31","222662","0.0-11.0-1.2","SS1613084875219","trial","","40","800","1484.9100000690669","images/stimuli/spore_stims/simple_03_A_d.gif","images/stimuli/spore_stims/simple_03_B_d.gif","","","","","1","simple_similar","images/stimuli/spore_stims/simple_03_B_d.gif","right","","","","",""
"","null","html-keyboard-response","32","223945","0.0-11.0-0.3","SS1613084875219","","","null","","","","","<p><img src= images/blank.png width =""200"" height = ""200"" style = ""float:right""></p><p><img src=images/blank.png width =""800"" height = ""200""></p>","","","","","","","","","","","",""
"","490.1399998925626","sequential-stimulus-presentation","33","225246","0.0-11.0-1.3","SS1613084875219","trial","","40","800","1290.1399998925626","images/stimuli/spore_stims/simple_03_A_d.gif","images/stimuli/spore_stims/simple_03_B_d.gif","","","","","1","simple_similar","images/stimuli/spore_stims/simple_03_B_d.gif","right","","","","",""
"","null","html-keyboard-response","34","226331","0.0-11.0-0.4","SS1613084875219","","","null","","","","","<p><img src= images/blank.png width =""200"" height = ""200"" style = ""float:right""></p><p><img src=images/blank.png width =""800"" height = ""200""></p>","","","","","","","","","","","",""
"","496.55499996151775","sequential-stimulus-presentation","35","227641","0.0-11.0-1.4","SS1613084875219","trial","","40","800","1296.5549999615178","images/stimuli/spore_stims/simple_03_A_d.gif","images/stimuli/spore_stims/simple_03_B_d.gif","","","","","1","simple_similar","images/stimuli/spore_stims/simple_03_B_d.gif","right","","","","",""
"","null","html-keyboard-response","36","228746","0.0-11.0-0.5","SS1613084875219","","","null","","","","","<p><img src= images/blank.png width =""200"" height = ""200"" style = ""float:right""></p><p><img src=images/blank.png width =""800"" height = ""200""></p>","","","","","","","","","","","",""
"","597.3099999828264","sequential-stimulus-presentation","37","230158","0.0-11.0-1.5","SS1613084875219","trial","","40","800","1397.3099999828264","images/stimuli/spore_stims/simple_03_A_d.gif","images/stimuli/spore_stims/simple_03_B_d.gif","","","","","1","simple_similar","images/stimuli/spore_stims/simple_03_B_d.gif","right","","","","",""
"","null","html-keyboard-response","38","231232","0.0-11.0-0.6","SS1613084875219","","","null","","","","","<p><img src= images/blank.png width =""200"" height = ""200"" style = ""float:right""></p><p><img src=images/blank.png width =""800"" height = ""200""></p>","","","","","","","","","","","",""
"","481.3950000097975","sequential-stimulus-presentation","39","232526","0.0-11.0-1.6","SS1613084875219","trial","","40","800","1281.3950000097975","images/stimuli/spore_stims/simple_03_A_d.gif","images/stimuli/spore_stims/simple_03_B_d.gif","","","","","1","simple_similar","images/stimuli/spore_stims/simple_03_B_d.gif","right","","","","",""
"","null","html-keyboard-response","40","233739","0.0-11.0-0.7","SS1613084875219","","","null","","","","","<p><img src= images/blank.png width =""200"" height = ""200"" style = ""float:right""></p><p><img src=images/blank.png width =""800"" height = ""200""></p>","","","","","","","","","","","",""
"","2011.0150000546128","sequential-stimulus-presentation","41","236560","0.0-11.0-1.7","SS1613084875219","trial","","40","800","2811.0150000546128","images/stimuli/spore_stims/simple_03_A_d.gif","images/stimuli/spore_stims/simple_03_B_d.gif","","","","","1","simple_similar","images/stimuli/spore_stims/simple_03_A_d.gif","left","","","","",""
"","2400.9749999968335","html-keyboard-response","42","238966","0.0-12.0","SS1613084875219","pref_question","","98","","","","","<video width ='960' height = '540' style='padding-top:8%' autoplay muted><source src='images/stimuli/wall_pref.mp4' type='video/mp4'></video>","2","middle","45%","1","","","","","","","",""
"","1454.8499999800697","sequential-stimulus-presentation","43","241231","0.0-13.0","SS1613084875219","pref_reveal","","40","800","2254.8499999800697","null","null","","","","","1","","","","novel","","","",""
"","null","html-keyboard-response","44","242397","0.0-14.0-0.0","SS1613084875219","","","null","","","","","<p><img src= images/blank.png width =""200"" height = ""200"" style = ""float:right""></p><p><img src=images/blank.png width =""800"" height = ""200""></p>","","","","","","","","","","","",""
"","1171.2749999715015","sequential-stimulus-presentation","45","244382","0.0-14.0-1.0","SS1613084875219","trial","","40","800","1971.2749999715015","images/stimuli/spore_stims/complex_02_B_a.gif","images/stimuli/spore_stims/complex_07_B_a.gif","","","","","2","complex_dissimilar","images/stimuli/spore_stims/complex_07_B_a.gif","right","","","","",""
"","null","html-keyboard-response","46","245684","0.0-14.0-0.1","SS1613084875219","","","null","","","","","<p><img src= images/blank.png width =""200"" height = ""200"" style = ""float:right""></p><p><img src=images/blank.png width =""800"" height = ""200""></p>","","","","","","","","","","","",""
"","445.77500002924353","sequential-stimulus-presentation","47","246944","0.0-14.0-1.1","SS1613084875219","trial","","40","800","1245.7750000292435","images/stimuli/spore_stims/complex_02_B_a.gif","images/stimuli/spore_stims/complex_07_B_a.gif","","","","","2","complex_dissimilar","images/stimuli/spore_stims/complex_07_B_a.gif","right","","","","",""
"","null","html-keyboard-response","48","248084","0.0-14.0-0.2","SS1613084875219","","","null","","","","","<p><img src= images/blank.png width =""200"" height = ""200"" style = ""float:right""></p><p><img src=images/blank.png width =""800"" height = ""200""></p>","","","","","","","","","","","",""
"","303.90499997884035","sequential-stimulus-presentation","49","249199","0.0-14.0-1.2","SS1613084875219","trial","","40","800","1103.9049999788404","images/stimuli/spore_stims/complex_02_B_a.gif","images/stimuli/spore_stims/complex_07_B_a.gif","","","","","2","complex_dissimilar","images/stimuli/spore_stims/complex_07_B_a.gif","right","","","","",""
"","null","html-keyboard-response","50","250263","0.0-14.0-0.3","SS1613084875219","","","null","","","","","<p><img src= images/blank.png width =""200"" height = ""200"" style = ""float:right""></p><p><img src=images/blank.png width =""800"" height = ""200""></p>","","","","","","","","","","","",""
"","463.6600000085309","sequential-stimulus-presentation","51","251543","0.0-14.0-1.3","SS1613084875219","trial","","40","800","1263.660000008531","images/stimuli/spore_stims/complex_02_B_a.gif","images/stimuli/spore_stims/complex_07_B_a.gif","","","","","2","complex_dissimilar","images/stimuli/spore_stims/complex_07_B_a.gif","right","","","","",""
"","null","html-keyboard-response","52","252578","0.0-14.0-0.4","SS1613084875219","","","null","","","","","<p><img src= images/blank.png width =""200"" height = ""200"" style = ""float:right""></p><p><img src=images/blank.png width =""800"" height = ""200""></p>","","","","","","","","","","","",""
"","530.1250000484288","sequential-stimulus-presentation","53","253920","0.0-14.0-1.4","SS1613084875219","trial","","40","800","1330.1250000484288","images/stimuli/spore_stims/complex_02_B_a.gif","images/stimuli/spore_stims/complex_07_B_a.gif","","","","","2","complex_dissimilar","images/stimuli/spore_stims/complex_07_B_a.gif","right","","","","",""
"","null","html-keyboard-response","54","255143","0.0-14.0-0.5","SS1613084875219","","","null","","","","","<p><img src= images/blank.png width =""200"" height = ""200"" style = ""float:right""></p><p><img src=images/blank.png width =""800"" height = ""200""></p>","","","","","","","","","","","",""
"","533.7800000561401","sequential-stimulus-presentation","55","256488","0.0-14.0-1.5","SS1613084875219","trial","","40","800","1333.7800000561401","images/stimuli/spore_stims/complex_02_B_a.gif","images/stimuli/spore_stims/complex_07_B_a.gif","","","","","2","complex_dissimilar","images/stimuli/spore_stims/complex_07_B_a.gif","right","","","","",""
"","null","html-keyboard-response","56","257653","0.0-14.0-0.6","SS1613084875219","","","null","","","","","<p><img src= images/blank.png width =""200"" height = ""200"" style = ""float:right""></p><p><img src=images/blank.png width =""800"" height = ""200""></p>","","","","","","","","","","","",""
"","302.23999998997897","sequential-stimulus-presentation","57","258768","0.0-14.0-1.6","SS1613084875219","trial","","40","800","1102.239999989979","images/stimuli/spore_stims/complex_02_B_a.gif","images/stimuli/spore_stims/complex_07_B_a.gif","","","","","2","complex_dissimilar","images/stimuli/spore_stims/complex_07_B_a.gif","right","","","","",""
"","null","html-keyboard-response","58","259610","0.0-14.0-0.7","SS1613084875219","","","null","","","","","<p><img src= images/blank.png width =""200"" height = ""200"" style = ""float:right""></p><p><img src=images/blank.png width =""800"" height = ""200""></p>","","","","","","","","","","","",""
"","1208.710000035353","sequential-stimulus-presentation","59","261632","0.0-14.0-1.7","SS1613084875219","trial","","40","800","2008.710000035353","images/stimuli/spore_stims/complex_02_B_a.gif","images/stimuli/spore_stims/complex_07_B_a.gif","","","","","2","complex_dissimilar","images/stimuli/spore_stims/complex_02_B_a.gif","middle","","","","",""
"","1786.8049999233335","html-keyboard-response","60","263424","0.0-15.0","SS1613084875219","pref_question","","98","","","","","<video width ='960' height = '540' style='padding-top:8%' autoplay muted><source src='images/stimuli/wall_pref.mp4' type='video/mp4'></video>","2","middle","45%","2","","","","","","","",""
"","949.640000006184","sequential-stimulus-presentation","61","265192","0.0-16.0","SS1613084875219","pref_reveal","","40","800","1749.640000006184","null","null","","","","","2","","","","deviant","","","",""
"","null","html-keyboard-response","62","266124","0.0-17.0-0.0","SS1613084875219","","","null","","","","","<p><img src= images/blank.png width =""200"" height = ""200"" style = ""float:right""></p><p><img src=images/blank.png width =""800"" height = ""200""></p>","","","","","","","","","","","",""
"","733.600000035949","sequential-stimulus-presentation","63","267670","0.0-17.0-1.0","SS1613084875219","trial","","40","800","1533.600000035949","images/stimuli/spore_stims/simple_04_A_b.gif","images/stimuli/spore_stims/simple_04_B_b.gif","","","","","3","simple_similar","images/stimuli/spore_stims/simple_04_B_b.gif","left","","","","",""
"","null","html-keyboard-response","64","268755","0.0-17.0-0.1","SS1613084875219","","","null","","","","","<p><img src= images/blank.png width =""200"" height = ""200"" style = ""float:right""></p><p><img src=images/blank.png width =""800"" height = ""200""></p>","","","","","","","","","","","",""
"","410.8049999922514","sequential-stimulus-presentation","65","269975","0.0-17.0-1.1","SS1613084875219","trial","","40","800","1210.8049999922514","images/stimuli/spore_stims/simple_04_A_b.gif","images/stimuli/spore_stims/simple_04_B_b.gif","","","","","3","simple_similar","images/stimuli/spore_stims/simple_04_B_b.gif","left","","","","",""
"","null","html-keyboard-response","66","271000","0.0-17.0-0.2","SS1613084875219","","","null","","","","","<p><img src= images/blank.png width =""200"" height = ""200"" style = ""float:right""></p><p><img src=images/blank.png width =""800"" height = ""200""></p>","","","","","","","","","","","",""
"","375.8950000628829","sequential-stimulus-presentation","67","272192","0.0-17.0-1.2","SS1613084875219","trial","","40","800","1175.895000062883","images/stimuli/spore_stims/simple_04_A_b.gif","images/stimuli/spore_stims/simple_04_B_b.gif","","","","","3","simple_similar","images/stimuli/spore_stims/simple_04_B_b.gif","left","","","","",""
"","null","html-keyboard-response","68","273034","0.0-17.0-0.3","SS1613084875219","","","null","","","","","<p><img src= images/blank.png width =""200"" height = ""200"" style = ""float:right""></p><p><img src=images/blank.png width =""800"" height = ""200""></p>","","","","","","","","","","","",""
"","588.9599999645725","sequential-stimulus-presentation","69","274432","0.0-17.0-1.3","SS1613084875219","trial","","40","800","1388.9599999645725","images/stimuli/spore_stims/simple_04_A_b.gif","images/stimuli/spore_stims/simple_04_B_b.gif","","","","","3","simple_similar","images/stimuli/spore_stims/simple_04_B_b.gif","left","","","","",""
"","null","html-keyboard-response","70","275640","0.0-17.0-0.4","SS1613084875219","","","null","","","","","<p><img src= images/blank.png width =""200"" height = ""200"" style = ""float:right""></p><p><img src=images/blank.png width =""800"" height = ""200""></p>","","","","","","","","","","","",""
"","1026.9049999769777","sequential-stimulus-presentation","71","277480","0.0-17.0-1.4","SS1613084875219","trial","","40","800","1826.9049999769777","images/stimuli/spore_stims/simple_04_A_b.gif","images/stimuli/spore_stims/simple_04_B_b.gif","","","","","3","simple_similar","images/stimuli/spore_stims/simple_04_A_b.gif","right","","","","",""
"","null","html-keyboard-response","72","278335","0.0-17.0-0.5","SS1613084875219","","","null","","","","","<p><img src= images/blank.png width =""200"" height = ""200"" style = ""float:right""></p><p><img src=images/blank.png width =""800"" height = ""200""></p>","","","","","","","","","","","",""
"","551.0100000537932","sequential-stimulus-presentation","73","279695","0.0-17.0-1.5","SS1613084875219","trial","","40","800","1351.0100000537932","images/stimuli/spore_stims/simple_04_A_b.gif","images/stimuli/spore_stims/simple_04_B_b.gif","","","","","3","simple_similar","images/stimuli/spore_stims/simple_04_B_b.gif","left","","","","",""
"","null","html-keyboard-response","74","280711","0.0-17.0-0.6","SS1613084875219","","","null","","","","","<p><img src= images/blank.png width =""200"" height = ""200"" style = ""float:right""></p><p><img src=images/blank.png width =""800"" height = ""200""></p>","","","","","","","","","","","",""
"","271.7699999921024","sequential-stimulus-presentation","75","281793","0.0-17.0-1.6","SS1613084875219","trial","","40","800","1071.7699999921024","images/stimuli/spore_stims/simple_04_A_b.gif","images/stimuli/spore_stims/simple_04_B_b.gif","","","","","3","simple_similar","images/stimuli/spore_stims/simple_04_B_b.gif","left","","","","",""
"","null","html-keyboard-response","76","282614","0.0-17.0-0.7","SS1613084875219","","","null","","","","","<p><img src= images/blank.png width =""200"" height = ""200"" style = ""float:right""></p><p><img src=images/blank.png width =""800"" height = ""200""></p>","","","","","","","","","","","",""
"","376.06500007677823","sequential-stimulus-presentation","77","283800","0.0-17.0-1.7","SS1613084875219","trial","","40","800","1176.0650000767782","images/stimuli/spore_stims/simple_04_A_b.gif","images/stimuli/spore_stims/simple_04_B_b.gif","","","","","3","simple_similar","images/stimuli/spore_stims/simple_04_B_b.gif","left","","","","",""
"","2097.844999982044","html-keyboard-response","78","285904","0.0-18.0","SS1613084875219","pref_question","","97","","","","","<video width ='960' height = '540' style='padding-top:8%' autoplay muted><source src='images/stimuli/wall_pref.mp4' type='video/mp4'></video>","1","left","25%","3","","","","","","","",""
"","1051.6200000420213","sequential-stimulus-presentation","79","287776","0.0-19.0","SS1613084875219","pref_reveal","","40","800","1851.6200000420213","null","null","","","","","3","","","","background","","","",""
"","null","html-keyboard-response","80","288598","0.0-20.0-0.0","SS1613084875219","","","null","","","","","<p><img src= images/blank.png width =""200"" height = ""200"" style = ""float:right""></p><p><img src=images/blank.png width =""800"" height = ""200""></p>","","","","","","","","","","","",""
"","872.1399999922141","sequential-stimulus-presentation","81","290280","0.0-20.0-1.0","SS1613084875219","trial","","40","800","1672.1399999922141","images/stimuli/spore_stims/simple_08_B_d.gif","images/stimuli/spore_stims/simple_09_B_a.gif","","","","","4","simple_dissimilar","images/stimuli/spore_stims/simple_09_B_a.gif","left","","","","",""
"","null","html-keyboard-response","82","291531","0.0-20.0-0.1","SS1613084875219","","","null","","","","","<p><img src= images/blank.png width =""200"" height = ""200"" style = ""float:right""></p><p><img src=images/blank.png width =""800"" height = ""200""></p>","","","","","","","","","","","",""
"","455.74000000488013","sequential-stimulus-presentation","83","292801","0.0-20.0-1.1","SS1613084875219","trial","","40","800","1255.7400000048801","images/stimuli/spore_stims/simple_08_B_d.gif","images/stimuli/spore_stims/simple_09_B_a.gif","","","","","4","simple_dissimilar","images/stimuli/spore_stims/simple_09_B_a.gif","left","","","","",""
"","null","html-keyboard-response","84","293661","0.0-20.0-0.2","SS1613084875219","","","null","","","","","<p><img src= images/blank.png width =""200"" height = ""200"" style = ""float:right""></p><p><img src=images/blank.png width =""800"" height = ""200""></p>","","","","","","","","","","","",""
"","501.80500000715256","sequential-stimulus-presentation","85","294976","0.0-20.0-1.2","SS1613084875219","trial","","40","800","1301.8050000071526","images/stimuli/spore_stims/simple_08_B_d.gif","images/stimuli/spore_stims/simple_09_B_a.gif","","","","","4","simple_dissimilar","images/stimuli/spore_stims/simple_09_B_a.gif","left","","","","",""
"","null","html-keyboard-response","86","296022","0.0-20.0-0.3","SS1613084875219","","","null","","","","","<p><img src= images/blank.png width =""200"" height = ""200"" style = ""float:right""></p><p><img src=images/blank.png width =""800"" height = ""200""></p>","","","","","","","","","","","",""
"","462.3099999735132","sequential-stimulus-presentation","87","297296","0.0-20.0-1.3","SS1613084875219","trial","","40","800","1262.3099999735132","images/stimuli/spore_stims/simple_08_B_d.gif","images/stimuli/spore_stims/simple_09_B_a.gif","","","","","4","simple_dissimilar","images/stimuli/spore_stims/simple_09_B_a.gif","left","","","","",""
"","null","html-keyboard-response","88","298509","0.0-20.0-0.4","SS1613084875219","","","null","","","","","<p><img src= images/blank.png width =""200"" height = ""200"" style = ""float:right""></p><p><img src=images/blank.png width =""800"" height = ""200""></p>","","","","","","","","","","","",""
"","1298.4100000467151","sequential-stimulus-presentation","89","300623","0.0-20.0-1.4","SS1613084875219","trial","","40","800","2098.410000046715","images/stimuli/spore_stims/simple_08_B_d.gif","images/stimuli/spore_stims/simple_09_B_a.gif","","","","","4","simple_dissimilar","images/stimuli/spore_stims/simple_09_B_a.gif","left","","","","",""
"","null","html-keyboard-response","90","301460","0.0-20.0-0.5","SS1613084875219","","","null","","","","","<p><img src= images/blank.png width =""200"" height = ""200"" style = ""float:right""></p><p><img src=images/blank.png width =""800"" height = ""200""></p>","","","","","","","","","","","",""
"","388.8749999459833","sequential-stimulus-presentation","91","302663","0.0-20.0-1.5","SS1613084875219","trial","","40","800","1188.8749999459833","images/stimuli/spore_stims/simple_08_B_d.gif","images/stimuli/spore_stims/simple_09_B_a.gif","","","","","4","simple_dissimilar","images/stimuli/spore_stims/simple_09_B_a.gif","left","","","","",""
"","null","html-keyboard-response","92","303681","0.0-20.0-0.6","SS1613084875219","","","null","","","","","<p><img src= images/blank.png width =""200"" height = ""200"" style = ""float:right""></p><p><img src=images/blank.png width =""800"" height = ""200""></p>","","","","","","","","","","","",""
"","345.04499996546656","sequential-stimulus-presentation","93","304841","0.0-20.0-1.6","SS1613084875219","trial","","40","800","1145.0449999654666","images/stimuli/spore_stims/simple_08_B_d.gif","images/stimuli/spore_stims/simple_09_B_a.gif","","","","","4","simple_dissimilar","images/stimuli/spore_stims/simple_09_B_a.gif","left","","","","",""
"","null","html-keyboard-response","94","306143","0.0-20.0-0.7","SS1613084875219","","","null","","","","","<p><img src= images/blank.png width =""200"" height = ""200"" style = ""float:right""></p><p><img src=images/blank.png width =""800"" height = ""200""></p>","","","","","","","","","","","",""
"","978.2549999654293","sequential-stimulus-presentation","95","307936","0.0-20.0-1.7","SS1613084875219","trial","","40","800","1778.2549999654293","images/stimuli/spore_stims/simple_08_B_d.gif","images/stimuli/spore_stims/simple_09_B_a.gif","","","","","4","simple_dissimilar","images/stimuli/spore_stims/simple_08_B_d.gif","right","","","","",""
"","1618.7650000210851","html-keyboard-response","96","309560","0.0-21.0","SS1613084875219","pref_question","","98","","","","","<video width ='960' height = '540' style='padding-top:8%' autoplay muted><source src='images/stimuli/wall_pref.mp4' type='video/mp4'></video>","2","middle","45%","4","","","","","","","",""
"","646.3000000221655","sequential-stimulus-presentation","97","311014","0.0-22.0","SS1613084875219","pref_reveal","","40","800","1446.3000000221655","null","null","","","","","4","","","","novel","","","",""
"","null","html-keyboard-response","98","312010","0.0-23.0-0.0","SS1613084875219","","","null","","","","","<p><img src= images/blank.png width =""200"" height = ""200"" style = ""float:right""></p><p><img src=images/blank.png width =""800"" height = ""200""></p>","","","","","","","","","","","",""
"","818.2149999774992","sequential-stimulus-presentation","99","313642","0.0-23.0-1.0","SS1613084875219","trial","","40","800","1618.2149999774992","images/stimuli/spore_stims/simple_19_B_a.gif","images/stimuli/spore_stims/simple_11_A_b.gif","","","","","5","simple_dissimilar","images/stimuli/spore_stims/simple_11_A_b.gif","left","","","","",""
"","null","html-keyboard-response","100","314500","0.0-23.0-0.1","SS1613084875219","","","null","","","","","<p><img src= images/blank.png width =""200"" height = ""200"" style = ""float:right""></p><p><img src=images/blank.png width =""800"" height = ""200""></p>","","","","","","","","","","","",""
"","380.8049999643117","sequential-stimulus-presentation","101","315694","0.0-23.0-1.1","SS1613084875219","trial","","40","800","1180.8049999643117","images/stimuli/spore_stims/simple_19_B_a.gif","images/stimuli/spore_stims/simple_11_A_b.gif","","","","","5","simple_dissimilar","images/stimuli/spore_stims/simple_11_A_b.gif","left","","","","",""
"","null","html-keyboard-response","102","316986","0.0-23.0-0.2","SS1613084875219","","","null","","","","","<p><img src= images/blank.png width =""200"" height = ""200"" style = ""float:right""></p><p><img src=images/blank.png width =""800"" height = ""200""></p>","","","","","","","","","","","",""
"","350.14499991666526","sequential-stimulus-presentation","103","318150","0.0-23.0-1.2","SS1613084875219","trial","","40","800","1150.1449999166653","images/stimuli/spore_stims/simple_19_B_a.gif","images/stimuli/spore_stims/simple_11_A_b.gif","","","","","5","simple_dissimilar","images/stimuli/spore_stims/simple_11_A_b.gif","left","","","","",""
"","null","html-keyboard-response","104","319360","0.0-23.0-0.3","SS1613084875219","","","null","","","","","<p><img src= images/blank.png width =""200"" height = ""200"" style = ""float:right""></p><p><img src=images/blank.png width =""800"" height = ""200""></p>","","","","","","","","","","","",""
"","524.254999938421","sequential-stimulus-presentation","105","320702","0.0-23.0-1.3","SS1613084875219","trial","","40","800","1324.254999938421","images/stimuli/spore_stims/simple_19_B_a.gif","images/stimuli/spore_stims/simple_11_A_b.gif","","","","","5","simple_dissimilar","images/stimuli/spore_stims/simple_11_A_b.gif","left","","","","",""
"","null","html-keyboard-response","106","321652","0.0-23.0-0.4","SS1613084875219","","","null","","","","","<p><img src= images/blank.png width =""200"" height = ""200"" style = ""float:right""></p><p><img src=images/blank.png width =""800"" height = ""200""></p>","","","","","","","","","","","",""
"","596.9050000421703","sequential-stimulus-presentation","107","323071","0.0-23.0-1.4","SS1613084875219","trial","","40","800","1396.9050000421703","images/stimuli/spore_stims/simple_19_B_a.gif","images/stimuli/spore_stims/simple_11_A_b.gif","","","","","5","simple_dissimilar","images/stimuli/spore_stims/simple_11_A_b.gif","left","","","","",""
"","null","html-keyboard-response","108","324142","0.0-23.0-0.5","SS1613084875219","","","null","","","","","<p><img src= images/blank.png width =""200"" height = ""200"" style = ""float:right""></p><p><img src=images/blank.png width =""800"" height = ""200""></p>","","","","","","","","","","","",""
"","300.3500000340864","sequential-stimulus-presentation","109","325256","0.0-23.0-1.5","SS1613084875219","trial","","40","800","1100.3500000340864","images/stimuli/spore_stims/simple_19_B_a.gif","images/stimuli/spore_stims/simple_11_A_b.gif","","","","","5","simple_dissimilar","images/stimuli/spore_stims/simple_11_A_b.gif","left","","","","",""
"","null","html-keyboard-response","110","326456","0.0-23.0-0.6","SS1613084875219","","","null","","","","","<p><img src= images/blank.png width =""200"" height = ""200"" style = ""float:right""></p><p><img src=images/blank.png width =""800"" height = ""200""></p>","","","","","","","","","","","",""
"","378.9000000106171","sequential-stimulus-presentation","111","327648","0.0-23.0-1.6","SS1613084875219","trial","","40","800","1178.900000010617","images/stimuli/spore_stims/simple_19_B_a.gif","images/stimuli/spore_stims/simple_11_A_b.gif","","","","","5","simple_dissimilar","images/stimuli/spore_stims/simple_11_A_b.gif","left","","","","",""
"","null","html-keyboard-response","112","328832","0.0-23.0-0.7","SS1613084875219","","","null","","","","","<p><img src= images/blank.png width =""200"" height = ""200"" style = ""float:right""></p><p><img src=images/blank.png width =""800"" height = ""200""></p>","","","","","","","","","","","",""
"","466.86000004410744","sequential-stimulus-presentation","113","330110","0.0-23.0-1.7","SS1613084875219","trial","","40","800","1266.8600000441074","images/stimuli/spore_stims/simple_19_B_a.gif","images/stimuli/spore_stims/simple_11_A_b.gif","","","","","5","simple_dissimilar","images/stimuli/spore_stims/simple_19_B_a.gif","middle","","","","",""
"","1934.484999976121","html-keyboard-response","114","332047","0.0-24.0","SS1613084875219","pref_question","","98","","","","","<video width ='960' height = '540' style='padding-top:8%' autoplay muted><source src='images/stimuli/wall_pref.mp4' type='video/mp4'></video>","2","middle","45%","5","","","","","","","",""
"","453.5600000526756","sequential-stimulus-presentation","115","333320","0.0-25.0","SS1613084875219","pref_reveal","","40","800","1253.5600000526756","null","null","","","","","5","","","","deviant","","","",""
"","null","html-keyboard-response","116","334218","0.0-26.0-0.0","SS1613084875219","","","null","","","","","<p><img src= images/blank.png width =""200"" height = ""200"" style = ""float:right""></p><p><img src=images/blank.png width =""800"" height = ""200""></p>","","","","","","","","","","","",""
"","311.3550000125542","sequential-stimulus-presentation","117","335343","0.0-26.0-1.0","SS1613084875219","trial","","40","800","1111.3550000125542","images/stimuli/spore_stims/simple_15_A_c.gif","images/stimuli/spore_stims/simple_20_B_d.gif","","","","","6","simple_dissimilar","images/stimuli/spore_stims/simple_20_B_d.gif","left","","","","",""
"","null","html-keyboard-response","118","336536","0.0-26.0-0.1","SS1613084875219","","","null","","","","","<p><img src= images/blank.png width =""200"" height = ""200"" style = ""float:right""></p><p><img src=images/blank.png width =""800"" height = ""200""></p>","","","","","","","","","","","",""
"","641.5999999735504","sequential-stimulus-presentation","119","337992","0.0-26.0-1.1","SS1613084875219","trial","","40","800","1441.5999999735504","images/stimuli/spore_stims/simple_15_A_c.gif","images/stimuli/spore_stims/simple_20_B_d.gif","","","","","6","simple_dissimilar","images/stimuli/spore_stims/simple_20_B_d.gif","left","","","","",""
"","null","html-keyboard-response","120","339170","0.0-26.0-0.2","SS1613084875219","","","null","","","","","<p><img src= images/blank.png width =""200"" height = ""200"" style = ""float:right""></p><p><img src=images/blank.png width =""800"" height = ""200""></p>","","","","","","","","","","","",""
"","441.60000002011657","sequential-stimulus-presentation","121","340423","0.0-26.0-1.2","SS1613084875219","trial","","40","800","1241.6000000201166","images/stimuli/spore_stims/simple_15_A_c.gif","images/stimuli/spore_stims/simple_20_B_d.gif","","","","","6","simple_dissimilar","images/stimuli/spore_stims/simple_20_B_d.gif","left","","","","",""
"","null","html-keyboard-response","122","341536","0.0-26.0-0.3","SS1613084875219","","","null","","","","","<p><img src= images/blank.png width =""200"" height = ""200"" style = ""float:right""></p><p><img src=images/blank.png width =""800"" height = ""200""></p>","","","","","","","","","","","",""
"","270.98999998997897","sequential-stimulus-presentation","123","342622","0.0-26.0-1.3","SS1613084875219","trial","","40","800","1070.989999989979","images/stimuli/spore_stims/simple_15_A_c.gif","images/stimuli/spore_stims/simple_20_B_d.gif","","","","","6","simple_dissimilar","images/stimuli/spore_stims/simple_20_B_d.gif","left","","","","",""
"","null","html-keyboard-response","124","343823","0.0-26.0-0.4","SS1613084875219","","","null","","","","","<p><img src= images/blank.png width =""200"" height = ""200"" style = ""float:right""></p><p><img src=images/blank.png width =""800"" height = ""200""></p>","","","","","","","","","","","",""
"","480.3550000069663","sequential-stimulus-presentation","125","345118","0.0-26.0-1.4","SS1613084875219","trial","","40","800","1280.3550000069663","images/stimuli/spore_stims/simple_15_A_c.gif","images/stimuli/spore_stims/simple_20_B_d.gif","","","","","6","simple_dissimilar","images/stimuli/spore_stims/simple_15_A_c.gif","middle","","","","",""
"","null","html-keyboard-response","126","346137","0.0-26.0-0.5","SS1613084875219","","","null","","","","","<p><img src= images/blank.png width =""200"" height = ""200"" style = ""float:right""></p><p><img src=images/blank.png width =""800"" height = ""200""></p>","","","","","","","","","","","",""
"","750.2099999692291","sequential-stimulus-presentation","127","347702","0.0-26.0-1.5","SS1613084875219","trial","","40","800","1550.209999969229","images/stimuli/spore_stims/simple_15_A_c.gif","images/stimuli/spore_stims/simple_20_B_d.gif","","","","","6","simple_dissimilar","images/stimuli/spore_stims/simple_20_B_d.gif","left","","","","",""
"","null","html-keyboard-response","128","348919","0.0-26.0-0.6","SS1613084875219","","","null","","","","","<p><img src= images/blank.png width =""200"" height = ""200"" style = ""float:right""></p><p><img src=images/blank.png width =""800"" height = ""200""></p>","","","","","","","","","","","",""
"","219.80999992229044","sequential-stimulus-presentation","129","349952","0.0-26.0-1.6","SS1613084875219","trial","","40","800","1019.8099999222904","images/stimuli/spore_stims/simple_15_A_c.gif","images/stimuli/spore_stims/simple_20_B_d.gif","","","","","6","simple_dissimilar","images/stimuli/spore_stims/simple_20_B_d.gif","left","","","","",""
"","null","html-keyboard-response","130","351102","0.0-26.0-0.7","SS1613084875219","","","null","","","","","<p><img src= images/blank.png width =""200"" height = ""200"" style = ""float:right""></p><p><img src=images/blank.png width =""800"" height = ""200""></p>","","","","","","","","","","","",""
"","313.36500006727874","sequential-stimulus-presentation","131","352231","0.0-26.0-1.7","SS1613084875219","trial","","40","800","1113.3650000672787","images/stimuli/spore_stims/simple_15_A_c.gif","images/stimuli/spore_stims/simple_20_B_d.gif","","","","","6","simple_dissimilar","images/stimuli/spore_stims/simple_20_B_d.gif","left","","","","",""
"","1707.8500000061467","html-keyboard-response","132","353942","0.0-27.0","SS1613084875219","pref_question","","99","","","","","<video width ='960' height = '540' style='padding-top:8%' autoplay muted><source src='images/stimuli/wall_pref.mp4' type='video/mp4'></video>","3","right","66%","6","","","","","","","",""
"","522.0599999884143","sequential-stimulus-presentation","133","355279","0.0-28.0","SS1613084875219","pref_reveal","","40","800","1322.0599999884143","null","null","","","","","6","","","","novel","","","",""
"","null","html-keyboard-response","134","356296","0.0-29.0-0.0","SS1613084875219","","","null","","","","","<p><img src= images/blank.png width =""200"" height = ""200"" style = ""float:right""></p><p><img src=images/blank.png width =""800"" height = ""200""></p>","","","","","","","","","","","",""
"","703.1849999912083","sequential-stimulus-presentation","135","357815","0.0-29.0-1.0","SS1613084875219","trial","","40","800","1503.1849999912083","images/stimuli/spore_stims/complex_04_A_a.gif","images/stimuli/spore_stims/complex_17_A_d.gif","","","","","7","complex_dissimilar","images/stimuli/spore_stims/complex_17_A_d.gif","right","","","","",""
"","null","html-keyboard-response","136","358658","0.0-29.0-0.1","SS1613084875219","","","null","","","","","<p><img src= images/blank.png width =""200"" height = ""200"" style = ""float:right""></p><p><img src=images/blank.png width =""800"" height = ""200""></p>","","","","","","","","","","","",""
"","325.46500000171363","sequential-stimulus-presentation","137","359799","0.0-29.0-1.1","SS1613084875219","trial","","40","800","1125.4650000017136","images/stimuli/spore_stims/complex_04_A_a.gif","images/stimuli/spore_stims/complex_17_A_d.gif","","","","","7","complex_dissimilar","images/stimuli/spore_stims/complex_17_A_d.gif","right","","","","",""
"","null","html-keyboard-response","138","360970","0.0-29.0-0.2","SS1613084875219","","","null","","","","","<p><img src= images/blank.png width =""200"" height = ""200"" style = ""float:right""></p><p><img src=images/blank.png width =""800"" height = ""200""></p>","","","","","","","","","","","",""
"","304.3549999129027","sequential-stimulus-presentation","139","362088","0.0-29.0-1.2","SS1613084875219","trial","","40","800","1104.3549999129027","images/stimuli/spore_stims/complex_04_A_a.gif","images/stimuli/spore_stims/complex_17_A_d.gif","","","","","7","complex_dissimilar","images/stimuli/spore_stims/complex_17_A_d.gif","right","","","","",""
"","null","html-keyboard-response","140","362951","0.0-29.0-0.3","SS1613084875219","","","null","","","","","<p><img src= images/blank.png width =""200"" height = ""200"" style = ""float:right""></p><p><img src=images/blank.png width =""800"" height = ""200""></p>","","","","","","","","","","","",""
"","640.3599999612197","sequential-stimulus-presentation","141","364407","0.0-29.0-1.3","SS1613084875219","trial","","40","800","1440.3599999612197","images/stimuli/spore_stims/complex_04_A_a.gif","images/stimuli/spore_stims/complex_17_A_d.gif","","","","","7","complex_dissimilar","images/stimuli/spore_stims/complex_17_A_d.gif","right","","","","",""
"","null","html-keyboard-response","142","365229","0.0-29.0-0.4","SS1613084875219","","","null","","","","","<p><img src= images/blank.png width =""200"" height = ""200"" style = ""float:right""></p><p><img src=images/blank.png width =""800"" height = ""200""></p>","","","","","","","","","","","",""
"","203.96000007167459","sequential-stimulus-presentation","143","366248","0.0-29.0-1.4","SS1613084875219","trial","","40","800","1003.9600000716746","images/stimuli/spore_stims/complex_04_A_a.gif","images/stimuli/spore_stims/complex_17_A_d.gif","","","","","7","complex_dissimilar","images/stimuli/spore_stims/complex_17_A_d.gif","right","","","","",""
"","null","html-keyboard-response","144","367198","0.0-29.0-0.5","SS1613084875219","","","null","","","","","<p><img src= images/blank.png width =""200"" height = ""200"" style = ""float:right""></p><p><img src=images/blank.png width =""800"" height = ""200""></p>","","","","","","","","","","","",""
"","596.4649999514222","sequential-stimulus-presentation","145","368609","0.0-29.0-1.5","SS1613084875219","trial","","40","800","1396.4649999514222","images/stimuli/spore_stims/complex_04_A_a.gif","images/stimuli/spore_stims/complex_17_A_d.gif","","","","","7","complex_dissimilar","images/stimuli/spore_stims/complex_04_A_a.gif","left","","","","",""
"","null","html-keyboard-response","146","369439","0.0-29.0-0.6","SS1613084875219","","","null","","","","","<p><img src= images/blank.png width =""200"" height = ""200"" style = ""float:right""></p><p><img src=images/blank.png width =""800"" height = ""200""></p>","","","","","","","","","","","",""
"","613.9500000281259","sequential-stimulus-presentation","147","370871","0.0-29.0-1.6","SS1613084875219","trial","","40","800","1413.950000028126","images/stimuli/spore_stims/complex_04_A_a.gif","images/stimuli/spore_stims/complex_17_A_d.gif","","","","","7","complex_dissimilar","images/stimuli/spore_stims/complex_17_A_d.gif","right","","","","",""
"","null","html-keyboard-response","148","372170","0.0-29.0-0.7","SS1613084875219","","","null","","","","","<p><img src= images/blank.png width =""200"" height = ""200"" style = ""float:right""></p><p><img src=images/blank.png width =""800"" height = ""200""></p>","","","","","","","","","","","",""
"","305.3400000790134","sequential-stimulus-presentation","149","373304","0.0-29.0-1.7","SS1613084875219","trial","","40","800","1105.3400000790134","images/stimuli/spore_stims/complex_04_A_a.gif","images/stimuli/spore_stims/complex_17_A_d.gif","","","","","7","complex_dissimilar","images/stimuli/spore_stims/complex_17_A_d.gif","right","","","","",""
"","1407.260000007227","html-keyboard-response","150","374718","0.0-30.0","SS1613084875219","pref_question","","98","","","","","<video width ='960' height = '540' style='padding-top:8%' autoplay muted><source src='images/stimuli/wall_pref.mp4' type='video/mp4'></video>","2","middle","45%","7","","","","","","","",""
"","1051.549999974668","sequential-stimulus-presentation","151","376583","0.0-31.0","SS1613084875219","pref_reveal","","40","800","1851.549999974668","null","null","","","","","7","","","","novel","","","",""
"","null","html-keyboard-response","152","377614","0.0-32.0-0.0","SS1613084875219","","","null","","","","","<p><img src= images/blank.png width =""200"" height = ""200"" style = ""float:right""></p><p><img src=images/blank.png width =""800"" height = ""200""></p>","","","","","","","","","","","",""
"","427.4849999928847","sequential-stimulus-presentation","153","378856","0.0-32.0-1.0","SS1613084875219","trial","","40","800","1227.4849999928847","images/stimuli/spore_stims/complex_13_B_c.gif","images/stimuli/spore_stims/complex_13_A_c.gif","","","","","8","complex_similar","images/stimuli/spore_stims/complex_13_A_c.gif","middle","","","","",""
"","null","html-keyboard-response","154","379927","0.0-32.0-0.1","SS1613084875219","","","null","","","","","<p><img src= images/blank.png width =""200"" height = ""200"" style = ""float:right""></p><p><img src=images/blank.png width =""800"" height = ""200""></p>","","","","","","","","","","","",""
"","313.38499998673797","sequential-stimulus-presentation","155","381054","0.0-32.0-1.1","SS1613084875219","trial","","40","800","1113.384999986738","images/stimuli/spore_stims/complex_13_B_c.gif","images/stimuli/spore_stims/complex_13_A_c.gif","","","","","8","complex_similar","images/stimuli/spore_stims/complex_13_A_c.gif","middle","","","","",""
"","null","html-keyboard-response","156","381914","0.0-32.0-0.2","SS1613084875219","","","null","","","","","<p><img src= images/blank.png width =""200"" height = ""200"" style = ""float:right""></p><p><img src=images/blank.png width =""800"" height = ""200""></p>","","","","","","","","","","","",""
"","448.3450000407174","sequential-stimulus-presentation","157","383175","0.0-32.0-1.2","SS1613084875219","trial","","40","800","1248.3450000407174","images/stimuli/spore_stims/complex_13_B_c.gif","images/stimuli/spore_stims/complex_13_A_c.gif","","","","","8","complex_similar","images/stimuli/spore_stims/complex_13_B_c.gif","right","","","","",""
"","null","html-keyboard-response","158","384217","0.0-32.0-0.3","SS1613084875219","","","null","","","","","<p><img src= images/blank.png width =""200"" height = ""200"" style = ""float:right""></p><p><img src=images/blank.png width =""800"" height = ""200""></p>","","","","","","","","","","","",""
"","545.5699999583885","sequential-stimulus-presentation","159","385576","0.0-32.0-1.3","SS1613084875219","trial","","40","800","1345.5699999583885","images/stimuli/spore_stims/complex_13_B_c.gif","images/stimuli/spore_stims/complex_13_A_c.gif","","","","","8","complex_similar","images/stimuli/spore_stims/complex_13_A_c.gif","middle","","","","",""
"","null","html-keyboard-response","160","386701","0.0-32.0-0.4","SS1613084875219","","","null","","","","","<p><img src= images/blank.png width =""200"" height = ""200"" style = ""float:right""></p><p><img src=images/blank.png width =""800"" height = ""200""></p>","","","","","","","","","","","",""
"","409.83000001870096","sequential-stimulus-presentation","161","387927","0.0-32.0-1.4","SS1613084875219","trial","","40","800","1209.830000018701","images/stimuli/spore_stims/complex_13_B_c.gif","images/stimuli/spore_stims/complex_13_A_c.gif","","","","","8","complex_similar","images/stimuli/spore_stims/complex_13_A_c.gif","middle","","","","",""
"","null","html-keyboard-response","162","388991","0.0-32.0-0.5","SS1613084875219","","","null","","","","","<p><img src= images/blank.png width =""200"" height = ""200"" style = ""float:right""></p><p><img src=images/blank.png width =""800"" height = ""200""></p>","","","","","","","","","","","",""
"","290.0849999859929","sequential-stimulus-presentation","163","390094","0.0-32.0-1.5","SS1613084875219","trial","","40","800","1090.084999985993","images/stimuli/spore_stims/complex_13_B_c.gif","images/stimuli/spore_stims/complex_13_A_c.gif","","","","","8","complex_similar","images/stimuli/spore_stims/complex_13_A_c.gif","middle","","","","",""
"","null","html-keyboard-response","164","391151","0.0-32.0-0.6","SS1613084875219","","","null","","","","","<p><img src= images/blank.png width =""200"" height = ""200"" style = ""float:right""></p><p><img src=images/blank.png width =""800"" height = ""200""></p>","","","","","","","","","","","",""
"","241.37999990489334","sequential-stimulus-presentation","165","392207","0.0-32.0-1.6","SS1613084875219","trial","","40","800","1041.3799999048933","images/stimuli/spore_stims/complex_13_B_c.gif","images/stimuli/spore_stims/complex_13_A_c.gif","","","","","8","complex_similar","images/stimuli/spore_stims/complex_13_A_c.gif","middle","","","","",""
"","null","html-keyboard-response","166","393206","0.0-32.0-0.7","SS1613084875219","","","null","","","","","<p><img src= images/blank.png width =""200"" height = ""200"" style = ""float:right""></p><p><img src=images/blank.png width =""800"" height = ""200""></p>","","","","","","","","","","","",""
"","506.6799999913201","sequential-stimulus-presentation","167","394526","0.0-32.0-1.7","SS1613084875219","trial","","40","800","1306.67999999132","images/stimuli/spore_stims/complex_13_B_c.gif","images/stimuli/spore_stims/complex_13_A_c.gif","","","","","8","complex_similar","images/stimuli/spore_stims/complex_13_A_c.gif","middle","","","","",""
"","1463.1150000495836","html-keyboard-response","168","395992","0.0-33.0","SS1613084875219","pref_question","","97","","","","","<video width ='960' height = '540' style='padding-top:8%' autoplay muted><source src='images/stimuli/wall_pref.mp4' type='video/mp4'></video>","1","left","25%","8","","","","","","","",""
"","461.1299999523908","sequential-stimulus-presentation","169","397271","0.0-34.0","SS1613084875219","pref_reveal","","40","800","1261.1299999523908","null","null","","","","","8","","","","novel","","","",""
"","null","html-keyboard-response","170","398109","0.0-35.0-0.0","SS1613084875219","","","null","","","","","<p><img src= images/blank.png width =""200"" height = ""200"" style = ""float:right""></p><p><img src=images/blank.png width =""800"" height = ""200""></p>","","","","","","","","","","","",""
"","464.0049999579787","sequential-stimulus-presentation","171","399390","0.0-35.0-1.0","SS1613084875219","trial","","40","800","1264.0049999579787","images/stimuli/spore_stims/simple_17_A_a.gif","images/stimuli/spore_stims/simple_17_B_a.gif","","","","","9","simple_similar","images/stimuli/spore_stims/simple_17_B_a.gif","left","","","","",""
"","null","html-keyboard-response","172","400427","0.0-35.0-0.1","SS1613084875219","","","null","","","","","<p><img src= images/blank.png width =""200"" height = ""200"" style = ""float:right""></p><p><img src=images/blank.png width =""800"" height = ""200""></p>","","","","","","","","","","","",""
"","582.5549999717623","sequential-stimulus-presentation","173","401823","0.0-35.0-1.1","SS1613084875219","trial","","40","800","1382.5549999717623","images/stimuli/spore_stims/simple_17_A_a.gif","images/stimuli/spore_stims/simple_17_B_a.gif","","","","","9","simple_similar","images/stimuli/spore_stims/simple_17_B_a.gif","left","","","","",""
"","null","html-keyboard-response","174","402683","0.0-35.0-0.2","SS1613084875219","","","null","","","","","<p><img src= images/blank.png width =""200"" height = ""200"" style = ""float:right""></p><p><img src=images/blank.png width =""800"" height = ""200""></p>","","","","","","","","","","","",""
"","330.19999996759","sequential-stimulus-presentation","175","403823","0.0-35.0-1.2","SS1613084875219","trial","","40","800","1130.19999996759","images/stimuli/spore_stims/simple_17_A_a.gif","images/stimuli/spore_stims/simple_17_B_a.gif","","","","","9","simple_similar","images/stimuli/spore_stims/simple_17_B_a.gif","left","","","","",""
"","null","html-keyboard-response","176","405139","0.0-35.0-0.3","SS1613084875219","","","null","","","","","<p><img src= images/blank.png width =""200"" height = ""200"" style = ""float:right""></p><p><img src=images/blank.png width =""800"" height = ""200""></p>","","","","","","","","","","","",""
"","310.97999995108694","sequential-stimulus-presentation","177","406272","0.0-35.0-1.3","SS1613084875219","trial","","40","800","1110.979999951087","images/stimuli/spore_stims/simple_17_A_a.gif","images/stimuli/spore_stims/simple_17_B_a.gif","","","","","9","simple_similar","images/stimuli/spore_stims/simple_17_B_a.gif","left","","","","",""
"","null","html-keyboard-response","178","407383","0.0-35.0-0.4","SS1613084875219","","","null","","","","","<p><img src= images/blank.png width =""200"" height = ""200"" style = ""float:right""></p><p><img src=images/blank.png width =""800"" height = ""200""></p>","","","","","","","","","","","",""
"","398.63499999046326","sequential-stimulus-presentation","179","408592","0.0-35.0-1.4","SS1613084875219","trial","","40","800","1198.6349999904633","images/stimuli/spore_stims/simple_17_A_a.gif","images/stimuli/spore_stims/simple_17_B_a.gif","","","","","9","simple_similar","images/stimuli/spore_stims/simple_17_B_a.gif","left","","","","",""
"","null","html-keyboard-response","180","409836","0.0-35.0-0.5","SS1613084875219","","","null","","","","","<p><img src= images/blank.png width =""200"" height = ""200"" style = ""float:right""></p><p><img src=images/blank.png width =""800"" height = ""200""></p>","","","","","","","","","","","",""
"","526.4550000429153","sequential-stimulus-presentation","181","411177","0.0-35.0-1.5","SS1613084875219","trial","","40","800","1326.4550000429153","images/stimuli/spore_stims/simple_17_A_a.gif","images/stimuli/spore_stims/simple_17_B_a.gif","","","","","9","simple_similar","images/stimuli/spore_stims/simple_17_B_a.gif","left","","","","",""
"","null","html-keyboard-response","182","412121","0.0-35.0-0.6","SS1613084875219","","","null","","","","","<p><img src= images/blank.png width =""200"" height = ""200"" style = ""float:right""></p><p><img src=images/blank.png width =""800"" height = ""200""></p>","","","","","","","","","","","",""
"","389.84999991953373","sequential-stimulus-presentation","183","413326","0.0-35.0-1.6","SS1613084875219","trial","","40","800","1189.8499999195337","images/stimuli/spore_stims/simple_17_A_a.gif","images/stimuli/spore_stims/simple_17_B_a.gif","","","","","9","simple_similar","images/stimuli/spore_stims/simple_17_A_a.gif","middle","","","","",""
"","null","html-keyboard-response","184","414480","0.0-35.0-0.7","SS1613084875219","","","null","","","","","<p><img src= images/blank.png width =""200"" height = ""200"" style = ""float:right""></p><p><img src=images/blank.png width =""800"" height = ""200""></p>","","","","","","","","","","","",""
"","443.3450000360608","sequential-stimulus-presentation","185","415751","0.0-35.0-1.7","SS1613084875219","trial","","40","800","1243.3450000360608","images/stimuli/spore_stims/simple_17_A_a.gif","images/stimuli/spore_stims/simple_17_B_a.gif","","","","","9","simple_similar","images/stimuli/spore_stims/simple_17_B_a.gif","left","","","","",""
"","1465.5250000068918","html-keyboard-response","186","417224","0.0-36.0","SS1613084875219","pref_question","","99","","","","","<video width ='960' height = '540' style='padding-top:8%' autoplay muted><source src='images/stimuli/wall_pref.mp4' type='video/mp4'></video>","3","right","66%","9","","","","","","","",""
"","464.3350000260398","sequential-stimulus-presentation","187","418502","0.0-37.0","SS1613084875219","pref_reveal","","40","800","1264.3350000260398","null","null","","","","","9","","","","novel","","","",""
"","null","html-keyboard-response","188","419397","0.0-38.0-0.0","SS1613084875219","","","null","","","","","<p><img src= images/blank.png width =""200"" height = ""200"" style = ""float:right""></p><p><img src=images/blank.png width =""800"" height = ""200""></p>","","","","","","","","","","","",""
"","382.0599999744445","sequential-stimulus-presentation","189","420607","0.0-38.0-1.0","SS1613084875219","trial","","40","800","1182.0599999744445","images/stimuli/spore_stims/simple_07_B_a.gif","images/stimuli/spore_stims/simple_10_B_a.gif","","","","","10","simple_dissimilar","images/stimuli/spore_stims/simple_10_B_a.gif","middle","","","","",""
"","null","html-keyboard-response","190","421612","0.0-38.0-0.1","SS1613084875219","","","null","","","","","<p><img src= images/blank.png width =""200"" height = ""200"" style = ""float:right""></p><p><img src=images/blank.png width =""800"" height = ""200""></p>","","","","","","","","","","","",""
"","222.54999994765967","sequential-stimulus-presentation","191","422647","0.0-38.0-1.1","SS1613084875219","trial","","40","800","1022.5499999476597","images/stimuli/spore_stims/simple_07_B_a.gif","images/stimuli/spore_stims/simple_10_B_a.gif","","","","","10","simple_dissimilar","images/stimuli/spore_stims/simple_10_B_a.gif","middle","","","","",""
"","null","html-keyboard-response","192","423821","0.0-38.0-0.2","SS1613084875219","","","null","","","","","<p><img src= images/blank.png width =""200"" height = ""200"" style = ""float:right""></p><p><img src=images/blank.png width =""800"" height = ""200""></p>","","","","","","","","","","","",""
"","277.19499997328967","sequential-stimulus-presentation","193","424911","0.0-38.0-1.2","SS1613084875219","trial","","40","800","1077.1949999732897","images/stimuli/spore_stims/simple_07_B_a.gif","images/stimuli/spore_stims/simple_10_B_a.gif","","","","","10","simple_dissimilar","images/stimuli/spore_stims/simple_07_B_a.gif","left","","","","",""
"","null","html-keyboard-response","194","426122","0.0-38.0-0.3","SS1613084875219","","","null","","","","","<p><img src= images/blank.png width =""200"" height = ""200"" style = ""float:right""></p><p><img src=images/blank.png width =""800"" height = ""200""></p>","","","","","","","","","","","",""
"","236.5449999924749","sequential-stimulus-presentation","195","427175","0.0-38.0-1.3","SS1613084875219","trial","","40","800","1036.544999992475","images/stimuli/spore_stims/simple_07_B_a.gif","images/stimuli/spore_stims/simple_10_B_a.gif","","","","","10","simple_dissimilar","images/stimuli/spore_stims/simple_10_B_a.gif","middle","","","","",""
"","null","html-keyboard-response","196","428288","0.0-38.0-0.4","SS1613084875219","","","null","","","","","<p><img src= images/blank.png width =""200"" height = ""200"" style = ""float:right""></p><p><img src=images/blank.png width =""800"" height = ""200""></p>","","","","","","","","","","","",""
"","268.42500001657754","sequential-stimulus-presentation","197","429366","0.0-38.0-1.4","SS1613084875219","trial","","40","800","1068.4250000165775","images/stimuli/spore_stims/simple_07_B_a.gif","images/stimuli/spore_stims/simple_10_B_a.gif","","","","","10","simple_dissimilar","images/stimuli/spore_stims/simple_10_B_a.gif","middle","","","","",""
"","null","html-keyboard-response","198","430409","0.0-38.0-0.5","SS1613084875219","","","null","","","","","<p><img src= images/blank.png width =""200"" height = ""200"" style = ""float:right""></p><p><img src=images/blank.png width =""800"" height = ""200""></p>","","","","","","","","","","","",""
"","303.42000001110137","sequential-stimulus-presentation","199","431526","0.0-38.0-1.5","SS1613084875219","trial","","40","800","1103.4200000111014","images/stimuli/spore_stims/simple_07_B_a.gif","images/stimuli/spore_stims/simple_10_B_a.gif","","","","","10","simple_dissimilar","images/stimuli/spore_stims/simple_10_B_a.gif","middle","","","","",""
"","null","html-keyboard-response","200","432787","0.0-38.0-0.6","SS1613084875219","","","null","","","","","<p><img src= images/blank.png width =""200"" height = ""200"" style = ""float:right""></p><p><img src=images/blank.png width =""800"" height = ""200""></p>","","","","","","","","","","","",""
"","284.3550000106916","sequential-stimulus-presentation","201","433886","0.0-38.0-1.6","SS1613084875219","trial","","40","800","1084.3550000106916","images/stimuli/spore_stims/simple_07_B_a.gif","images/stimuli/spore_stims/simple_10_B_a.gif","","","","","10","simple_dissimilar","images/stimuli/spore_stims/simple_10_B_a.gif","middle","","","","",""
"","null","html-keyboard-response","202","435098","0.0-38.0-0.7","SS1613084875219","","","null","","","","","<p><img src= images/blank.png width =""200"" height = ""200"" style = ""float:right""></p><p><img src=images/blank.png width =""800"" height = ""200""></p>","","","","","","","","","","","",""
"","295.685000019148","sequential-stimulus-presentation","203","436207","0.0-38.0-1.7","SS1613084875219","trial","","40","800","1095.685000019148","images/stimuli/spore_stims/simple_07_B_a.gif","images/stimuli/spore_stims/simple_10_B_a.gif","","","","","10","simple_dissimilar","images/stimuli/spore_stims/simple_10_B_a.gif","middle","","","","",""
"","1289.0849999384955","html-keyboard-response","204","437519","0.0-39.0","SS1613084875219","pref_question","","98","","","","","<video width ='960' height = '540' style='padding-top:8%' autoplay muted><source src='images/stimuli/wall_pref.mp4' type='video/mp4'></video>","2","middle","45%","10","","","","","","","",""
"","772.7350000059232","sequential-stimulus-presentation","205","439111","0.0-40.0","SS1613084875219","pref_reveal","","40","800","1572.7350000059232","null","null","","","","","10","","","","background","","","",""
"","null","html-keyboard-response","206","440014","0.0-41.0-0.0","SS1613084875219","","","null","","","","","<p><img src= images/blank.png width =""200"" height = ""200"" style = ""float:right""></p><p><img src=images/blank.png width =""800"" height = ""200""></p>","","","","","","","","","","","",""
"","679.2799999238923","sequential-stimulus-presentation","207","441504","0.0-41.0-1.0","SS1613084875219","trial","","40","800","1479.2799999238923","images/stimuli/spore_stims/complex_11_A_c.gif","images/stimuli/spore_stims/complex_11_B_c.gif","","","","","11","complex_similar","images/stimuli/spore_stims/complex_11_B_c.gif","right","","","","",""
"","null","html-keyboard-response","208","442502","0.0-41.0-0.1","SS1613084875219","","","null","","","","","<p><img src= images/blank.png width =""200"" height = ""200"" style = ""float:right""></p><p><img src=images/blank.png width =""800"" height = ""200""></p>","","","","","","","","","","","",""
"","567.1299999812618","sequential-stimulus-presentation","209","443886","0.0-41.0-1.1","SS1613084875219","trial","","40","800","1367.1299999812618","images/stimuli/spore_stims/complex_11_A_c.gif","images/stimuli/spore_stims/complex_11_B_c.gif","","","","","11","complex_similar","images/stimuli/spore_stims/complex_11_B_c.gif","right","","","","",""
"","null","html-keyboard-response","210","445088","0.0-41.0-0.2","SS1613084875219","","","null","","","","","<p><img src= images/blank.png width =""200"" height = ""200"" style = ""float:right""></p><p><img src=images/blank.png width =""800"" height = ""200""></p>","","","","","","","","","","","",""
"","402.3049999959767","sequential-stimulus-presentation","211","446303","0.0-41.0-1.2","SS1613084875219","trial","","40","800","1202.3049999959767","images/stimuli/spore_stims/complex_11_A_c.gif","images/stimuli/spore_stims/complex_11_B_c.gif","","","","","11","complex_similar","images/stimuli/spore_stims/complex_11_A_c.gif","left","","","","",""
"","null","html-keyboard-response","212","447527","0.0-41.0-0.3","SS1613084875219","","","null","","","","","<p><img src= images/blank.png width =""200"" height = ""200"" style = ""float:right""></p><p><img src=images/blank.png width =""800"" height = ""200""></p>","","","","","","","","","","","",""
"","232.89500002283603","sequential-stimulus-presentation","213","448575","0.0-41.0-1.3","SS1613084875219","trial","","40","800","1032.895000022836","images/stimuli/spore_stims/complex_11_A_c.gif","images/stimuli/spore_stims/complex_11_B_c.gif","","","","","11","complex_similar","images/stimuli/spore_stims/complex_11_B_c.gif","right","","","","",""
"","null","html-keyboard-response","214","449833","0.0-41.0-0.4","SS1613084875219","","","null","","","","","<p><img src= images/blank.png width =""200"" height = ""200"" style = ""float:right""></p><p><img src=images/blank.png width =""800"" height = ""200""></p>","","","","","","","","","","","",""
"","449.8100000200793","sequential-stimulus-presentation","215","451111","0.0-41.0-1.4","SS1613084875219","trial","","40","800","1249.8100000200793","images/stimuli/spore_stims/complex_11_A_c.gif","images/stimuli/spore_stims/complex_11_B_c.gif","","","","","11","complex_similar","images/stimuli/spore_stims/complex_11_B_c.gif","right","","","","",""
"","null","html-keyboard-response","216","452195","0.0-41.0-0.5","SS1613084875219","","","null","","","","","<p><img src= images/blank.png width =""200"" height = ""200"" style = ""float:right""></p><p><img src=images/blank.png width =""800"" height = ""200""></p>","","","","","","","","","","","",""
"","579.0349999442697","sequential-stimulus-presentation","217","453584","0.0-41.0-1.5","SS1613084875219","trial","","40","800","1379.0349999442697","images/stimuli/spore_stims/complex_11_A_c.gif","images/stimuli/spore_stims/complex_11_B_c.gif","","","","","11","complex_similar","images/stimuli/spore_stims/complex_11_B_c.gif","right","","","","",""
"","null","html-keyboard-response","218","454757","0.0-41.0-0.6","SS1613084875219","","","null","","","","","<p><img src= images/blank.png width =""200"" height = ""200"" style = ""float:right""></p><p><img src=images/blank.png width =""800"" height = ""200""></p>","","","","","","","","","","","",""
"","310.85499993059784","sequential-stimulus-presentation","219","455880","0.0-41.0-1.6","SS1613084875219","trial","","40","800","1110.8549999305978","images/stimuli/spore_stims/complex_11_A_c.gif","images/stimuli/spore_stims/complex_11_B_c.gif","","","","","11","complex_similar","images/stimuli/spore_stims/complex_11_B_c.gif","right","","","","",""
"","null","html-keyboard-response","220","456805","0.0-41.0-0.7","SS1613084875219","","","null","","","","","<p><img src= images/blank.png width =""200"" height = ""200"" style = ""float:right""></p><p><img src=images/blank.png width =""800"" height = ""200""></p>","","","","","","","","","","","",""
"","307.8700000187382","sequential-stimulus-presentation","221","457928","0.0-41.0-1.7","SS1613084875219","trial","","40","800","1107.8700000187382","images/stimuli/spore_stims/complex_11_A_c.gif","images/stimuli/spore_stims/complex_11_B_c.gif","","","","","11","complex_similar","images/stimuli/spore_stims/complex_11_B_c.gif","right","","","","",""
"","1045.9000000264496","html-keyboard-response","222","458983","0.0-42.0","SS1613084875219","pref_question","","98","","","","","<video width ='960' height = '540' style='padding-top:8%' autoplay muted><source src='images/stimuli/wall_pref.mp4' type='video/mp4'></video>","2","middle","45%","11","","","","","","","",""
"","901.6600000904873","sequential-stimulus-presentation","223","460710","0.0-43.0","SS1613084875219","pref_reveal","","40","800","1701.6600000904873","null","null","","","","","11","","","","novel","","","",""
"","null","html-keyboard-response","224","461670","0.0-44.0-0.0","SS1613084875219","","","null","","","","","<p><img src= images/blank.png width =""200"" height = ""200"" style = ""float:right""></p><p><img src=images/blank.png width =""800"" height = ""200""></p>","","","","","","","","","","","",""
"","437.32999998610467","sequential-stimulus-presentation","225","462919","0.0-44.0-1.0","SS1613084875219","trial","","40","800","1237.3299999861047","images/stimuli/spore_stims/simple_18_A_a.gif","images/stimuli/spore_stims/simple_18_B_a.gif","","","","","12","simple_similar","images/stimuli/spore_stims/simple_18_B_a.gif","right","","","","",""
"","null","html-keyboard-response","226","463799","0.0-44.0-0.1","SS1613084875219","","","null","","","","","<p><img src= images/blank.png width =""200"" height = ""200"" style = ""float:right""></p><p><img src=images/blank.png width =""800"" height = ""200""></p>","","","","","","","","","","","",""
"","365.87500001769513","sequential-stimulus-presentation","227","464982","0.0-44.0-1.1","SS1613084875219","trial","","40","800","1165.8750000176951","images/stimuli/spore_stims/simple_18_A_a.gif","images/stimuli/spore_stims/simple_18_B_a.gif","","","","","12","simple_similar","images/stimuli/spore_stims/simple_18_B_a.gif","right","","","","",""
"","null","html-keyboard-response","228","466160","0.0-44.0-0.2","SS1613084875219","","","null","","","","","<p><img src= images/blank.png width =""200"" height = ""200"" style = ""float:right""></p><p><img src=images/blank.png width =""800"" height = ""200""></p>","","","","","","","","","","","",""
"","231.94999992847443","sequential-stimulus-presentation","229","467207","0.0-44.0-1.2","SS1613084875219","trial","","40","800","1031.9499999284744","images/stimuli/spore_stims/simple_18_A_a.gif","images/stimuli/spore_stims/simple_18_B_a.gif","","","","","12","simple_similar","images/stimuli/spore_stims/simple_18_B_a.gif","right","","","","",""
"","null","html-keyboard-response","230","468207","0.0-44.0-0.3","SS1613084875219","","","null","","","","","<p><img src= images/blank.png width =""200"" height = ""200"" style = ""float:right""></p><p><img src=images/blank.png width =""800"" height = ""200""></p>","","","","","","","","","","","",""
"","232.3499999474734","sequential-stimulus-presentation","231","469247","0.0-44.0-1.3","SS1613084875219","trial","","40","800","1032.3499999474734","images/stimuli/spore_stims/simple_18_A_a.gif","images/stimuli/spore_stims/simple_18_B_a.gif","","","","","12","simple_similar","images/stimuli/spore_stims/simple_18_B_a.gif","right","","","","",""
"","null","html-keyboard-response","232","470381","0.0-44.0-0.4","SS1613084875219","","","null","","","","","<p><img src= images/blank.png width =""200"" height = ""200"" style = ""float:right""></p><p><img src=images/blank.png width =""800"" height = ""200""></p>","","","","","","","","","","","",""
"","271.8200000235811","sequential-stimulus-presentation","233","471479","0.0-44.0-1.4","SS1613084875219","trial","","40","800","1071.820000023581","images/stimuli/spore_stims/simple_18_A_a.gif","images/stimuli/spore_stims/simple_18_B_a.gif","","","","","12","simple_similar","images/stimuli/spore_stims/simple_18_B_a.gif","right","","","","",""
"","null","html-keyboard-response","234","472594","0.0-44.0-0.5","SS1613084875219","","","null","","","","","<p><img src= images/blank.png width =""200"" height = ""200"" style = ""float:right""></p><p><img src=images/blank.png width =""800"" height = ""200""></p>","","","","","","","","","","","",""
"","453.4850000636652","sequential-stimulus-presentation","235","473862","0.0-44.0-1.5","SS1613084875219","trial","","40","800","1253.4850000636652","images/stimuli/spore_stims/simple_18_A_a.gif","images/stimuli/spore_stims/simple_18_B_a.gif","","","","","12","simple_similar","images/stimuli/spore_stims/simple_18_B_a.gif","right","","","","",""
"","null","html-keyboard-response","236","474686","0.0-44.0-0.6","SS1613084875219","","","null","","","","","<p><img src= images/blank.png width =""200"" height = ""200"" style = ""float:right""></p><p><img src=images/blank.png width =""800"" height = ""200""></p>","","","","","","","","","","","",""
"","469.8300000745803","sequential-stimulus-presentation","237","475974","0.0-44.0-1.6","SS1613084875219","trial","","40","800","1269.8300000745803","images/stimuli/spore_stims/simple_18_A_a.gif","images/stimuli/spore_stims/simple_18_B_a.gif","","","","","12","simple_similar","images/stimuli/spore_stims/simple_18_B_a.gif","right","","","","",""
"","null","html-keyboard-response","238","476976","0.0-44.0-0.7","SS1613084875219","","","null","","","","","<p><img src= images/blank.png width =""200"" height = ""200"" style = ""float:right""></p><p><img src=images/blank.png width =""800"" height = ""200""></p>","","","","","","","","","","","",""
"","457.6949999900535","sequential-stimulus-presentation","239","478254","0.0-44.0-1.7","SS1613084875219","trial","","40","800","1257.6949999900535","images/stimuli/spore_stims/simple_18_A_a.gif","images/stimuli/spore_stims/simple_18_B_a.gif","","","","","12","simple_similar","images/stimuli/spore_stims/simple_18_A_a.gif","left","","","","",""
"","1129.9250000156462","html-keyboard-response","240","479391","0.0-45.0","SS1613084875219","pref_question","","97","","","","","<video width ='960' height = '540' style='padding-top:8%' autoplay muted><source src='images/stimuli/wall_pref.mp4' type='video/mp4'></video>","1","left","25%","12","","","","","","","",""
"","548.5700001008809","sequential-stimulus-presentation","241","480759","0.0-46.0","SS1613084875219","pref_reveal","","40","800","1348.5700001008809","null","null","","","","","12","","","","deviant","","","",""
"","null","html-keyboard-response","242","481767","0.0-47.0-0.0","SS1613084875219","","","null","","","","","<p><img src= images/blank.png width =""200"" height = ""200"" style = ""float:right""></p><p><img src=images/blank.png width =""800"" height = ""200""></p>","","","","","","","","","","","",""
"","609.4349999912083","sequential-stimulus-presentation","243","483207","0.0-47.0-1.0","SS1613084875219","trial","","40","800","1409.4349999912083","images/stimuli/spore_stims/complex_08_B_c.gif","images/stimuli/spore_stims/complex_08_A_c.gif","","","","","13","complex_similar","images/stimuli/spore_stims/complex_08_A_c.gif","right","","","","",""
"","null","html-keyboard-response","244","484432","0.0-47.0-0.1","SS1613084875219","","","null","","","","","<p><img src= images/blank.png width =""200"" height = ""200"" style = ""float:right""></p><p><img src=images/blank.png width =""800"" height = ""200""></p>","","","","","","","","","","","",""
"","324.93000000249594","sequential-stimulus-presentation","245","485566","0.0-47.0-1.1","SS1613084875219","trial","","40","800","1124.930000002496","images/stimuli/spore_stims/complex_08_B_c.gif","images/stimuli/spore_stims/complex_08_A_c.gif","","","","","13","complex_similar","images/stimuli/spore_stims/complex_08_A_c.gif","right","","","","",""
"","null","html-keyboard-response","246","486551","0.0-47.0-0.2","SS1613084875219","","","null","","","","","<p><img src= images/blank.png width =""200"" height = ""200"" style = ""float:right""></p><p><img src=images/blank.png width =""800"" height = ""200""></p>","","","","","","","","","","","",""
"","275.179999996908","sequential-stimulus-presentation","247","487641","0.0-47.0-1.2","SS1613084875219","trial","","40","800","1075.179999996908","images/stimuli/spore_stims/complex_08_B_c.gif","images/stimuli/spore_stims/complex_08_A_c.gif","","","","","13","complex_similar","images/stimuli/spore_stims/complex_08_A_c.gif","right","","","","",""
"","null","html-keyboard-response","248","488831","0.0-47.0-0.3","SS1613084875219","","","null","","","","","<p><img src= images/blank.png width =""200"" height = ""200"" style = ""float:right""></p><p><img src=images/blank.png width =""800"" height = ""200""></p>","","","","","","","","","","","",""
"","231.71500000171363","sequential-stimulus-presentation","249","489872","0.0-47.0-1.3","SS1613084875219","trial","","40","800","1031.7150000017136","images/stimuli/spore_stims/complex_08_B_c.gif","images/stimuli/spore_stims/complex_08_A_c.gif","","","","","13","complex_similar","images/stimuli/spore_stims/complex_08_A_c.gif","right","","","","",""
"","null","html-keyboard-response","250","491002","0.0-47.0-0.4","SS1613084875219","","","null","","","","","<p><img src= images/blank.png width =""200"" height = ""200"" style = ""float:right""></p><p><img src=images/blank.png width =""800"" height = ""200""></p>","","","","","","","","","","","",""
"","373.28000005800277","sequential-stimulus-presentation","251","492191","0.0-47.0-1.4","SS1613084875219","trial","","40","800","1173.2800000580028","images/stimuli/spore_stims/complex_08_B_c.gif","images/stimuli/spore_stims/complex_08_A_c.gif","","","","","13","complex_similar","images/stimuli/spore_stims/complex_08_B_c.gif","left","","","","",""
"","null","html-keyboard-response","252","493082","0.0-47.0-0.5","SS1613084875219","","","null","","","","","<p><img src= images/blank.png width =""200"" height = ""200"" style = ""float:right""></p><p><img src=images/blank.png width =""800"" height = ""200""></p>","","","","","","","","","","","",""
"","432.06000002101064","sequential-stimulus-presentation","253","494328","0.0-47.0-1.5","SS1613084875219","trial","","40","800","1232.0600000210106","images/stimuli/spore_stims/complex_08_B_c.gif","images/stimuli/spore_stims/complex_08_A_c.gif","","","","","13","complex_similar","images/stimuli/spore_stims/complex_08_A_c.gif","right","","","","",""
"","null","html-keyboard-response","254","495316","0.0-47.0-0.6","SS1613084875219","","","null","","","","","<p><img src= images/blank.png width =""200"" height = ""200"" style = ""float:right""></p><p><img src=images/blank.png width =""800"" height = ""200""></p>","","","","","","","","","","","",""
"","300.1249999506399","sequential-stimulus-presentation","255","496431","0.0-47.0-1.6","SS1613084875219","trial","","40","800","1100.12499995064","images/stimuli/spore_stims/complex_08_B_c.gif","images/stimuli/spore_stims/complex_08_A_c.gif","","","","","13","complex_similar","images/stimuli/spore_stims/complex_08_A_c.gif","right","","","","",""
"","null","html-keyboard-response","256","497350","0.0-47.0-0.7","SS1613084875219","","","null","","","","","<p><img src= images/blank.png width =""200"" height = ""200"" style = ""float:right""></p><p><img src=images/blank.png width =""800"" height = ""200""></p>","","","","","","","","","","","",""
"","265.04000008571893","sequential-stimulus-presentation","257","498430","0.0-47.0-1.7","SS1613084875219","trial","","40","800","1065.040000085719","images/stimuli/spore_stims/complex_08_B_c.gif","images/stimuli/spore_stims/complex_08_A_c.gif","","","","","13","complex_similar","images/stimuli/spore_stims/complex_08_A_c.gif","right","","","","",""
"","1068.3999999891967","html-keyboard-response","258","499503","0.0-48.0","SS1613084875219","pref_question","","98","","","","","<video width ='960' height = '540' style='padding-top:8%' autoplay muted><source src='images/stimuli/wall_pref.mp4' type='video/mp4'></video>","2","middle","45%","13","","","","","","","",""
"","649.779999977909","sequential-stimulus-presentation","259","500967","0.0-49.0","SS1613084875219","pref_reveal","","40","800","1449.779999977909","null","null","","","","","13","","","","novel","","","",""
"","null","html-keyboard-response","260","501813","0.0-50.0-0.0","SS1613084875219","","","null","","","","","<p><img src= images/blank.png width =""200"" height = ""200"" style = ""float:right""></p><p><img src=images/blank.png width =""800"" height = ""200""></p>","","","","","","","","","","","",""
"","381.095000077039","sequential-stimulus-presentation","261","503007","0.0-50.0-1.0","SS1613084875219","trial","","40","800","1181.095000077039","images/stimuli/spore_stims/complex_08_B_a.gif","images/stimuli/spore_stims/complex_05_B_a.gif","","","","","14","complex_dissimilar","images/stimuli/spore_stims/complex_05_B_a.gif","middle","","","","",""
"","null","html-keyboard-response","262","503831","0.0-50.0-0.1","SS1613084875219","","","null","","","","","<p><img src= images/blank.png width =""200"" height = ""200"" style = ""float:right""></p><p><img src=images/blank.png width =""800"" height = ""200""></p>","","","","","","","","","","","",""
"","364.94999995920807","sequential-stimulus-presentation","263","505007","0.0-50.0-1.1","SS1613084875219","trial","","40","800","1164.949999959208","images/stimuli/spore_stims/complex_08_B_a.gif","images/stimuli/spore_stims/complex_05_B_a.gif","","","","","14","complex_dissimilar","images/stimuli/spore_stims/complex_05_B_a.gif","middle","","","","",""
"","null","html-keyboard-response","264","505928","0.0-50.0-0.2","SS1613084875219","","","null","","","","","<p><img src= images/blank.png width =""200"" height = ""200"" style = ""float:right""></p><p><img src=images/blank.png width =""800"" height = ""200""></p>","","","","","","","","","","","",""
"","302.91500000748783","sequential-stimulus-presentation","265","507046","0.0-50.0-1.2","SS1613084875219","trial","","40","800","1102.9150000074878","images/stimuli/spore_stims/complex_08_B_a.gif","images/stimuli/spore_stims/complex_05_B_a.gif","","","","","14","complex_dissimilar","images/stimuli/spore_stims/complex_05_B_a.gif","middle","","","","",""
"","null","html-keyboard-response","266","508140","0.0-50.0-0.3","SS1613084875219","","","null","","","","","<p><img src= images/blank.png width =""200"" height = ""200"" style = ""float:right""></p><p><img src=images/blank.png width =""800"" height = ""200""></p>","","","","","","","","","","","",""
"","647.7799999993294","sequential-stimulus-presentation","267","509600","0.0-50.0-1.3","SS1613084875219","trial","","40","800","1447.7799999993294","images/stimuli/spore_stims/complex_08_B_a.gif","images/stimuli/spore_stims/complex_05_B_a.gif","","","","","14","complex_dissimilar","images/stimuli/spore_stims/complex_08_B_a.gif","left","","","","",""
"","null","html-keyboard-response","268","510639","0.0-50.0-0.4","SS1613084875219","","","null","","","","","<p><img src= images/blank.png width =""200"" height = ""200"" style = ""float:right""></p><p><img src=images/blank.png width =""800"" height = ""200""></p>","","","","","","","","","","","",""
"","261.42500003334135","sequential-stimulus-presentation","269","511727","0.0-50.0-1.4","SS1613084875219","trial","","40","800","1061.4250000333413","images/stimuli/spore_stims/complex_08_B_a.gif","images/stimuli/spore_stims/complex_05_B_a.gif","","","","","14","complex_dissimilar","images/stimuli/spore_stims/complex_05_B_a.gif","middle","","","","",""
"","null","html-keyboard-response","270","512827","0.0-50.0-0.5","SS1613084875219","","","null","","","","","<p><img src= images/blank.png width =""200"" height = ""200"" style = ""float:right""></p><p><img src=images/blank.png width =""800"" height = ""200""></p>","","","","","","","","","","","",""
"","228.13499998301268","sequential-stimulus-presentation","271","513871","0.0-50.0-1.5","SS1613084875219","trial","","40","800","1028.1349999830127","images/stimuli/spore_stims/complex_08_B_a.gif","images/stimuli/spore_stims/complex_05_B_a.gif","","","","","14","complex_dissimilar","images/stimuli/spore_stims/complex_05_B_a.gif","middle","","","","",""
"","null","html-keyboard-response","272","515087","0.0-50.0-0.6","SS1613084875219","","","null","","","","","<p><img src= images/blank.png width =""200"" height = ""200"" style = ""float:right""></p><p><img src=images/blank.png width =""800"" height = ""200""></p>","","","","","","","","","","","",""
"","480.69500003475696","sequential-stimulus-presentation","273","516382","0.0-50.0-1.6","SS1613084875219","trial","","40","800","1280.695000034757","images/stimuli/spore_stims/complex_08_B_a.gif","images/stimuli/spore_stims/complex_05_B_a.gif","","","","","14","complex_dissimilar","images/stimuli/spore_stims/complex_05_B_a.gif","middle","","","","",""
"","null","html-keyboard-response","274","517267","0.0-50.0-0.7","SS1613084875219","","","null","","","","","<p><img src= images/blank.png width =""200"" height = ""200"" style = ""float:right""></p><p><img src=images/blank.png width =""800"" height = ""200""></p>","","","","","","","","","","","",""
"","193.90000007115304","sequential-stimulus-presentation","275","518279","0.0-50.0-1.7","SS1613084875219","trial","","40","800","993.900000071153","images/stimuli/spore_stims/complex_08_B_a.gif","images/stimuli/spore_stims/complex_05_B_a.gif","","","","","14","complex_dissimilar","images/stimuli/spore_stims/complex_05_B_a.gif","middle","","","","",""
"","1213.5599999455735","html-keyboard-response","276","519510","0.0-51.0","SS1613084875219","pref_question","","99","","","","","<video width ='960' height = '540' style='padding-top:8%' autoplay muted><source src='images/stimuli/wall_pref.mp4' type='video/mp4'></video>","3","right","66%","14","","","","","","","",""
"","661.324999993667","sequential-stimulus-presentation","277","520984","0.0-52.0","SS1613084875219","pref_reveal","","40","800","1461.324999993667","null","null","","","","","14","","","","novel","","","",""
"","null","html-keyboard-response","278","521806","0.0-53.0-0.0","SS1613084875219","","","null","","","","","<p><img src= images/blank.png width =""200"" height = ""200"" style = ""float:right""></p><p><img src=images/blank.png width =""800"" height = ""200""></p>","","","","","","","","","","","",""
"","284.5649999799207","sequential-stimulus-presentation","279","522918","0.0-53.0-1.0","SS1613084875219","trial","","40","800","1084.5649999799207","images/stimuli/spore_stims/complex_15_A_d.gif","images/stimuli/spore_stims/complex_15_B_d.gif","","","","","15","complex_similar","images/stimuli/spore_stims/complex_15_B_d.gif","right","","","","",""
"","null","html-keyboard-response","280","523995","0.0-53.0-0.1","SS1613084875219","","","null","","","","","<p><img src= images/blank.png width =""200"" height = ""200"" style = ""float:right""></p><p><img src=images/blank.png width =""800"" height = ""200""></p>","","","","","","","","","","","",""
"","78.45499995164573","sequential-stimulus-presentation","281","524903","0.0-53.0-1.1","SS1613084875219","trial","","40","800","878.4549999516457","images/stimuli/spore_stims/complex_15_A_d.gif","images/stimuli/spore_stims/complex_15_B_d.gif","","","","","15","complex_similar","images/stimuli/spore_stims/complex_15_B_d.gif","right","","","","",""
"","null","html-keyboard-response","282","526215","0.0-53.0-0.2","SS1613084875219","","","null","","","","","<p><img src= images/blank.png width =""200"" height = ""200"" style = ""float:right""></p><p><img src=images/blank.png width =""800"" height = ""200""></p>","","","","","","","","","","","",""
"","305.28500000946224","sequential-stimulus-presentation","283","527335","0.0-53.0-1.2","SS1613084875219","trial","","40","800","1105.2850000094622","images/stimuli/spore_stims/complex_15_A_d.gif","images/stimuli/spore_stims/complex_15_B_d.gif","","","","","15","complex_similar","images/stimuli/spore_stims/complex_15_B_d.gif","right","","","","",""
"","null","html-keyboard-response","284","528252","0.0-53.0-0.3","SS1613084875219","","","null","","","","","<p><img src= images/blank.png width =""200"" height = ""200"" style = ""float:right""></p><p><img src=images/blank.png width =""800"" height = ""200""></p>","","","","","","","","","","","",""
"","246.8599999556318","sequential-stimulus-presentation","285","529311","0.0-53.0-1.3","SS1613084875219","trial","","40","800","1046.8599999556318","images/stimuli/spore_stims/complex_15_A_d.gif","images/stimuli/spore_stims/complex_15_B_d.gif","","","","","15","complex_similar","images/stimuli/spore_stims/complex_15_B_d.gif","right","","","","",""
"","null","html-keyboard-response","286","530565","0.0-53.0-0.4","SS1613084875219","","","null","","","","","<p><img src= images/blank.png width =""200"" height = ""200"" style = ""float:right""></p><p><img src=images/blank.png width =""800"" height = ""200""></p>","","","","","","","","","","","",""
"","261.04999997187406","sequential-stimulus-presentation","287","531655","0.0-53.0-1.4","SS1613084875219","trial","","40","800","1061.049999971874","images/stimuli/spore_stims/complex_15_A_d.gif","images/stimuli/spore_stims/complex_15_B_d.gif","","","","","15","complex_similar","images/stimuli/spore_stims/complex_15_B_d.gif","right","","","","",""
"","null","html-keyboard-response","288","532962","0.0-53.0-0.5","SS1613084875219","","","null","","","","","<p><img src= images/blank.png width =""200"" height = ""200"" style = ""float:right""></p><p><img src=images/blank.png width =""800"" height = ""200""></p>","","","","","","","","","","","",""
"","324.43500007502735","sequential-stimulus-presentation","289","534096","0.0-53.0-1.5","SS1613084875219","trial","","40","800","1124.4350000750273","images/stimuli/spore_stims/complex_15_A_d.gif","images/stimuli/spore_stims/complex_15_B_d.gif","","","","","15","complex_similar","images/stimuli/spore_stims/complex_15_A_d.gif","middle","","","","",""
"","null","html-keyboard-response","290","534973","0.0-53.0-0.6","SS1613084875219","","","null","","","","","<p><img src= images/blank.png width =""200"" height = ""200"" style = ""float:right""></p><p><img src=images/blank.png width =""800"" height = ""200""></p>","","","","","","","","","","","",""
"","251.9500000635162","sequential-stimulus-presentation","291","536038","0.0-53.0-1.6","SS1613084875219","trial","","40","800","1051.9500000635162","images/stimuli/spore_stims/complex_15_A_d.gif","images/stimuli/spore_stims/complex_15_B_d.gif","","","","","15","complex_similar","images/stimuli/spore_stims/complex_15_B_d.gif","right","","","","",""
"","null","html-keyboard-response","292","537178","0.0-53.0-0.7","SS1613084875219","","","null","","","","","<p><img src= images/blank.png width =""200"" height = ""200"" style = ""float:right""></p><p><img src=images/blank.png width =""800"" height = ""200""></p>","","","","","","","","","","","",""
"","241.8699999107048","sequential-stimulus-presentation","293","538239","0.0-53.0-1.7","SS1613084875219","trial","","40","800","1041.8699999107048","images/stimuli/spore_stims/complex_15_A_d.gif","images/stimuli/spore_stims/complex_15_B_d.gif","","","","","15","complex_similar","images/stimuli/spore_stims/complex_15_B_d.gif","right","","","","",""
"","1063.510000007227","html-keyboard-response","294","539310","0.0-54.0","SS1613084875219","pref_question","","97","","","","","<video width ='960' height = '540' style='padding-top:8%' autoplay muted><source src='images/stimuli/wall_pref.mp4' type='video/mp4'></video>","1","left","25%","15","","","","","","","",""
"","599.3200000375509","sequential-stimulus-presentation","295","540726","0.0-55.0","SS1613084875219","pref_reveal","","40","800","1399.320000037551","null","null","","","","","15","","","","novel","","","",""
"","null","html-keyboard-response","296","541845","0.0-56.0-0.0","SS1613084875219","","","null","","","","","<p><img src= images/blank.png width =""200"" height = ""200"" style = ""float:right""></p><p><img src=images/blank.png width =""800"" height = ""200""></p>","","","","","","","","","","","",""
"","242.55999992601573","sequential-stimulus-presentation","297","542904","0.0-56.0-1.0","SS1613084875219","trial","","40","800","1042.5599999260157","images/stimuli/spore_stims/complex_01_B_c.gif","images/stimuli/spore_stims/complex_01_A_c.gif","","","","","16","complex_similar","images/stimuli/spore_stims/complex_01_A_c.gif","middle","","","","",""
"","null","html-keyboard-response","298","544172","0.0-56.0-0.1","SS1613084875219","","","null","","","","","<p><img src= images/blank.png width =""200"" height = ""200"" style = ""float:right""></p><p><img src=images/blank.png width =""800"" height = ""200""></p>","","","","","","","","","","","",""
"","330.91000001877546","sequential-stimulus-presentation","299","545318","0.0-56.0-1.1","SS1613084875219","trial","","40","800","1130.9100000187755","images/stimuli/spore_stims/complex_01_B_c.gif","images/stimuli/spore_stims/complex_01_A_c.gif","","","","","16","complex_similar","images/stimuli/spore_stims/complex_01_A_c.gif","middle","","","","",""
"","null","html-keyboard-response","300","546471","0.0-56.0-0.2","SS1613084875219","","","null","","","","","<p><img src= images/blank.png width =""200"" height = ""200"" style = ""float:right""></p><p><img src=images/blank.png width =""800"" height = ""200""></p>","","","","","","","","","","","",""
"","377.2449999814853","sequential-stimulus-presentation","301","547663","0.0-56.0-1.2","SS1613084875219","trial","","40","800","1177.2449999814853","images/stimuli/spore_stims/complex_01_B_c.gif","images/stimuli/spore_stims/complex_01_A_c.gif","","","","","16","complex_similar","images/stimuli/spore_stims/complex_01_A_c.gif","middle","","","","",""
"","null","html-keyboard-response","302","548791","0.0-56.0-0.3","SS1613084875219","","","null","","","","","<p><img src= images/blank.png width =""200"" height = ""200"" style = ""float:right""></p><p><img src=images/blank.png width =""800"" height = ""200""></p>","","","","","","","","","","","",""
"","412.63499995693564","sequential-stimulus-presentation","303","550031","0.0-56.0-1.3","SS1613084875219","trial","","40","800","1212.6349999569356","images/stimuli/spore_stims/complex_01_B_c.gif","images/stimuli/spore_stims/complex_01_A_c.gif","","","","","16","complex_similar","images/stimuli/spore_stims/complex_01_A_c.gif","middle","","","","",""
"","null","html-keyboard-response","304","551050","0.0-56.0-0.4","SS1613084875219","","","null","","","","","<p><img src= images/blank.png width =""200"" height = ""200"" style = ""float:right""></p><p><img src=images/blank.png width =""800"" height = ""200""></p>","","","","","","","","","","","",""
"","223.16499997396022","sequential-stimulus-presentation","305","552087","0.0-56.0-1.4","SS1613084875219","trial","","40","800","1023.1649999739602","images/stimuli/spore_stims/complex_01_B_c.gif","images/stimuli/spore_stims/complex_01_A_c.gif","","","","","16","complex_similar","images/stimuli/spore_stims/complex_01_A_c.gif","middle","","","","",""
"","null","html-keyboard-response","306","553385","0.0-56.0-0.5","SS1613084875219","","","null","","","","","<p><img src= images/blank.png width =""200"" height = ""200"" style = ""float:right""></p><p><img src=images/blank.png width =""800"" height = ""200""></p>","","","","","","","","","","","",""
"","285.7299998868257","sequential-stimulus-presentation","307","554487","0.0-56.0-1.5","SS1613084875219","trial","","40","800","1085.7299998868257","images/stimuli/spore_stims/complex_01_B_c.gif","images/stimuli/spore_stims/complex_01_A_c.gif","","","","","16","complex_similar","images/stimuli/spore_stims/complex_01_A_c.gif","middle","","","","",""
"","null","html-keyboard-response","308","555685","0.0-56.0-0.6","SS1613084875219","","","null","","","","","<p><img src= images/blank.png width =""200"" height = ""200"" style = ""float:right""></p><p><img src=images/blank.png width =""800"" height = ""200""></p>","","","","","","","","","","","",""
"","293.78000006545335","sequential-stimulus-presentation","309","556792","0.0-56.0-1.6","SS1613084875219","trial","","40","800","1093.7800000654534","images/stimuli/spore_stims/complex_01_B_c.gif","images/stimuli/spore_stims/complex_01_A_c.gif","","","","","16","complex_similar","images/stimuli/spore_stims/complex_01_B_c.gif","left","","","","",""
"","null","html-keyboard-response","310","557868","0.0-56.0-0.7","SS1613084875219","","","null","","","","","<p><img src= images/blank.png width =""200"" height = ""200"" style = ""float:right""></p><p><img src=images/blank.png width =""800"" height = ""200""></p>","","","","","","","","","","","",""
"","277.9499999014661","sequential-stimulus-presentation","311","558959","0.0-56.0-1.7","SS1613084875219","trial","","40","800","1077.949999901466","images/stimuli/spore_stims/complex_01_B_c.gif","images/stimuli/spore_stims/complex_01_A_c.gif","","","","","16","complex_similar","images/stimuli/spore_stims/complex_01_A_c.gif","middle","","","","",""
"","815.5549999792129","html-keyboard-response","312","559782","0.0-57.0","SS1613084875219","pref_question","","98","","","","","<video width ='960' height = '540' style='padding-top:8%' autoplay muted><source src='images/stimuli/wall_pref.mp4' type='video/mp4'></video>","2","middle","45%","16","","","","","","","",""
