"view_history","rt","trial_type","trial_index","time_elapsed","internal_node_id","subject","stimulus_type","trial_stimulus","key_press","minimum_viewing_duration","trial_looking_time","block_deviant","block_background","stimulus","wall_pref","location","location_percent","block_number","block_type","stimulus_displayed","position_displayed","stim_type_selected","responses","question_order","stimulus_left","stimulus_right"
"[{""page_index"":0,""viewing_time"":1582939.9999999441}]","1582945.9999999963","instructions","0","1582951","0.0-0.0","SS1613123127108","","","","","","","","","","","","","","","","","","","",""
"[{""page_index"":0,""viewing_time"":552527.999999933},{""page_index"":1,""viewing_time"":3094.9999999720603}]","555623.9999999525","instructions","1","2141619","0.0-1.0","SS1613123127108","instructions","","","","","","","","","","","","","","","","","","",""
"","43182.0000000298","sequential-stimulus-presentation","2","2185671","0.0-2.0","SS1613123127108","","","40","800","43982.0000000298","null","null","","","","","","","","","","","","",""
"","6934.999999939464","sequential-stimulus-presentation","3","2193426","0.0-3.0","SS1613123127108","","","40","800","7734.999999939464","null","null","","","","","","","","","","","","",""
"[{""page_index"":0,""viewing_time"":81923.99999999907}]","81925.00000004657","instructions","4","2275352","0.0-4.0","SS1613123127108","instructions","","","","","","","","","","","","","","","","","","",""
"","17005.99999993574","html-keyboard-response","5","2292369","0.0-5.0","SS1613123127108","instructions","","50","","","","","<video width ='960' height = '540' autoplay muted><source src='images/stimuli/wall_pref.mp4' type='video/mp4'></video>","2","middle","45%","","","","","","","","",""
"","4273.999999975786","sequential-stimulus-presentation","6","2297541","0.0-6.0","SS1613123127108","pref_reveal","","40","800","5073.999999975786","null","null","","","","","","","","","","","","",""
"[{""page_index"":0,""viewing_time"":32488.99999994319},{""page_index"":1,""viewing_time"":6470.000000088476},{""page_index"":2,""viewing_time"":3626.9999999785796},{""page_index"":3,""viewing_time"":4998.999999952503}]","47586.000000010245","instructions","7","2345130","0.0-7.0","SS1613123127108","instructions","","","","","","","","","","","","","","","","","","",""
"","null","html-keyboard-response","8","2346119","0.0-8.0-0.0","SS1613123127108","","","null","","","","","<p><img src= images/blank.png width =""200"" height = ""200"" style = ""float:right""></p><p><img src=images/blank.png width =""800"" height = ""200""></p>","","","","","","","","","","","",""
"","2476.0000000242144","sequential-stimulus-presentation","9","2349416","0.0-8.0-1.0","SS1613123127108","trial","","40","800","3276.0000000242144","images/stimuli/spore_stims/complex_03_A_b.gif","images/stimuli/spore_stims/complex_07_A_c.gif","","","","","0","complex_dissimilar","images/stimuli/spore_stims/complex_07_A_c.gif","left","","","","",""
"","null","html-keyboard-response","10","2350599","0.0-8.0-0.1","SS1613123127108","","","null","","","","","<p><img src= images/blank.png width =""200"" height = ""200"" style = ""float:right""></p><p><img src=images/blank.png width =""800"" height = ""200""></p>","","","","","","","","","","","",""
"","2214.9999999674037","sequential-stimulus-presentation","11","2353625","0.0-8.0-1.1","SS1613123127108","trial","","40","800","3014.9999999674037","images/stimuli/spore_stims/complex_03_A_b.gif","images/stimuli/spore_stims/complex_07_A_c.gif","","","","","0","complex_dissimilar","images/stimuli/spore_stims/complex_07_A_c.gif","left","","","","",""
"","null","html-keyboard-response","12","2354433","0.0-8.0-0.2","SS1613123127108","","","null","","","","","<p><img src= images/blank.png width =""200"" height = ""200"" style = ""float:right""></p><p><img src=images/blank.png width =""800"" height = ""200""></p>","","","","","","","","","","","",""
"","1697.9999999748543","sequential-stimulus-presentation","13","2356940","0.0-8.0-1.2","SS1613123127108","trial","","40","800","2497.9999999748543","images/stimuli/spore_stims/complex_03_A_b.gif","images/stimuli/spore_stims/complex_07_A_c.gif","","","","","0","complex_dissimilar","images/stimuli/spore_stims/complex_03_A_b.gif","right","","","","",""
"","null","html-keyboard-response","14","2357864","0.0-8.0-0.3","SS1613123127108","","","null","","","","","<p><img src= images/blank.png width =""200"" height = ""200"" style = ""float:right""></p><p><img src=images/blank.png width =""800"" height = ""200""></p>","","","","","","","","","","","",""
"","846.0000000195578","sequential-stimulus-presentation","15","2359542","0.0-8.0-1.3","SS1613123127108","trial","","40","800","1646.0000000195578","images/stimuli/spore_stims/complex_03_A_b.gif","images/stimuli/spore_stims/complex_07_A_c.gif","","","","","0","complex_dissimilar","images/stimuli/spore_stims/complex_07_A_c.gif","left","","","","",""
"","null","html-keyboard-response","16","2360672","0.0-8.0-0.4","SS1613123127108","","","null","","","","","<p><img src= images/blank.png width =""200"" height = ""200"" style = ""float:right""></p><p><img src=images/blank.png width =""800"" height = ""200""></p>","","","","","","","","","","","",""
"","518.0000000400469","sequential-stimulus-presentation","17","2361998","0.0-8.0-1.4","SS1613123127108","trial","","40","800","1318.0000000400469","images/stimuli/spore_stims/complex_03_A_b.gif","images/stimuli/spore_stims/complex_07_A_c.gif","","","","","0","complex_dissimilar","images/stimuli/spore_stims/complex_07_A_c.gif","left","","","","",""
"","null","html-keyboard-response","18","2363093","0.0-8.0-0.5","SS1613123127108","","","null","","","","","<p><img src= images/blank.png width =""200"" height = ""200"" style = ""float:right""></p><p><img src=images/blank.png width =""800"" height = ""200""></p>","","","","","","","","","","","",""
"","1477.9999998863786","sequential-stimulus-presentation","19","2365383","0.0-8.0-1.5","SS1613123127108","trial","","40","800","2277.9999998863786","images/stimuli/spore_stims/complex_03_A_b.gif","images/stimuli/spore_stims/complex_07_A_c.gif","","","","","0","complex_dissimilar","images/stimuli/spore_stims/complex_07_A_c.gif","left","","","","",""
"","null","html-keyboard-response","20","2366355","0.0-8.0-0.6","SS1613123127108","","","null","","","","","<p><img src= images/blank.png width =""200"" height = ""200"" style = ""float:right""></p><p><img src=images/blank.png width =""800"" height = ""200""></p>","","","","","","","","","","","",""
"","1581.000000005588","sequential-stimulus-presentation","21","2368786","0.0-8.0-1.6","SS1613123127108","trial","","40","800","2381.000000005588","images/stimuli/spore_stims/complex_03_A_b.gif","images/stimuli/spore_stims/complex_07_A_c.gif","","","","","0","complex_dissimilar","images/stimuli/spore_stims/complex_07_A_c.gif","left","","","","",""
"","null","html-keyboard-response","22","2369930","0.0-8.0-0.7","SS1613123127108","","","null","","","","","<p><img src= images/blank.png width =""200"" height = ""200"" style = ""float:right""></p><p><img src=images/blank.png width =""800"" height = ""200""></p>","","","","","","","","","","","",""
"","2342.0000000623986","sequential-stimulus-presentation","23","2373082","0.0-8.0-1.7","SS1613123127108","trial","","40","800","3142.0000000623986","images/stimuli/spore_stims/complex_03_A_b.gif","images/stimuli/spore_stims/complex_07_A_c.gif","","","","","0","complex_dissimilar","images/stimuli/spore_stims/complex_07_A_c.gif","left","","","","",""
"","2172.999999951571","html-keyboard-response","24","2375263","0.0-9.0","SS1613123127108","pref_question","","50","","","","","<video width ='960' height = '540' style='padding-top:8%' autoplay muted><source src='images/stimuli/wall_pref.mp4' type='video/mp4'></video>","2","middle","45%","0","","","","","","","",""
"","2864.999999990687","sequential-stimulus-presentation","25","2378950","0.0-10.0","SS1613123127108","pref_reveal","","40","800","3664.999999990687","null","null","","","","","0","","","","novel","","","",""
"","null","html-keyboard-response","26","2380203","0.0-11.0-0.0","SS1613123127108","","","null","","","","","<p><img src= images/blank.png width =""200"" height = ""200"" style = ""float:right""></p><p><img src=images/blank.png width =""800"" height = ""200""></p>","","","","","","","","","","","",""
"","288.99999998975545","sequential-stimulus-presentation","27","2381320","0.0-11.0-1.0","SS1613123127108","trial","","40","800","1088.9999999897555","images/stimuli/spore_stims/simple_08_A_a.gif","images/stimuli/spore_stims/simple_11_B_b.gif","","","","","1","simple_dissimilar","images/stimuli/spore_stims/simple_11_B_b.gif","left","","","","",""
"","null","html-keyboard-response","28","2382203","0.0-11.0-0.1","SS1613123127108","","","null","","","","","<p><img src= images/blank.png width =""200"" height = ""200"" style = ""float:right""></p><p><img src=images/blank.png width =""800"" height = ""200""></p>","","","","","","","","","","","",""
"","2645.0000000186265","sequential-stimulus-presentation","29","2385658","0.0-11.0-1.1","SS1613123127108","trial","","40","800","3445.0000000186265","images/stimuli/spore_stims/simple_08_A_a.gif","images/stimuli/spore_stims/simple_11_B_b.gif","","","","","1","simple_dissimilar","images/stimuli/spore_stims/simple_11_B_b.gif","left","","","","",""
"","null","html-keyboard-response","30","2386889","0.0-11.0-0.2","SS1613123127108","","","null","","","","","<p><img src= images/blank.png width =""200"" height = ""200"" style = ""float:right""></p><p><img src=images/blank.png width =""800"" height = ""200""></p>","","","","","","","","","","","",""
"","216.00000001490116","sequential-stimulus-presentation","31","2387963","0.0-11.0-1.2","SS1613123127108","trial","","40","800","1016.0000000149012","images/stimuli/spore_stims/simple_08_A_a.gif","images/stimuli/spore_stims/simple_11_B_b.gif","","","","","1","simple_dissimilar","images/stimuli/spore_stims/simple_08_A_a.gif","middle","","","","",""
"","null","html-keyboard-response","32","2389033","0.0-11.0-0.3","SS1613123127108","","","null","","","","","<p><img src= images/blank.png width =""200"" height = ""200"" style = ""float:right""></p><p><img src=images/blank.png width =""800"" height = ""200""></p>","","","","","","","","","","","",""
"","6492.9999999003485","sequential-stimulus-presentation","33","2396365","0.0-11.0-1.3","SS1613123127108","trial","","40","800","7292.9999999003485","images/stimuli/spore_stims/simple_08_A_a.gif","images/stimuli/spore_stims/simple_11_B_b.gif","","","","","1","simple_dissimilar","images/stimuli/spore_stims/simple_11_B_b.gif","left","","","","",""
"","null","html-keyboard-response","34","2397567","0.0-11.0-0.4","SS1613123127108","","","null","","","","","<p><img src= images/blank.png width =""200"" height = ""200"" style = ""float:right""></p><p><img src=images/blank.png width =""800"" height = ""200""></p>","","","","","","","","","","","",""
"","1042.0000000158325","sequential-stimulus-presentation","35","2399431","0.0-11.0-1.4","SS1613123127108","trial","","40","800","1842.0000000158325","images/stimuli/spore_stims/simple_08_A_a.gif","images/stimuli/spore_stims/simple_11_B_b.gif","","","","","1","simple_dissimilar","images/stimuli/spore_stims/simple_11_B_b.gif","left","","","","",""
"","null","html-keyboard-response","36","2400248","0.0-11.0-0.5","SS1613123127108","","","null","","","","","<p><img src= images/blank.png width =""200"" height = ""200"" style = ""float:right""></p><p><img src=images/blank.png width =""800"" height = ""200""></p>","","","","","","","","","","","",""
"","6219.99999997206","sequential-stimulus-presentation","37","2407281","0.0-11.0-1.5","SS1613123127108","trial","","40","800","7019.99999997206","images/stimuli/spore_stims/simple_08_A_a.gif","images/stimuli/spore_stims/simple_11_B_b.gif","","","","","1","simple_dissimilar","images/stimuli/spore_stims/simple_11_B_b.gif","left","","","","",""
"","null","html-keyboard-response","38","2408422","0.0-11.0-0.6","SS1613123127108","","","null","","","","","<p><img src= images/blank.png width =""200"" height = ""200"" style = ""float:right""></p><p><img src=images/blank.png width =""800"" height = ""200""></p>","","","","","","","","","","","",""
"","2353.999999933876","sequential-stimulus-presentation","39","2411590","0.0-11.0-1.6","SS1613123127108","trial","","40","800","3153.999999933876","images/stimuli/spore_stims/simple_08_A_a.gif","images/stimuli/spore_stims/simple_11_B_b.gif","","","","","1","simple_dissimilar","images/stimuli/spore_stims/simple_11_B_b.gif","left","","","","",""
"","null","html-keyboard-response","40","2412601","0.0-11.0-0.7","SS1613123127108","","","null","","","","","<p><img src= images/blank.png width =""200"" height = ""200"" style = ""float:right""></p><p><img src=images/blank.png width =""800"" height = ""200""></p>","","","","","","","","","","","",""
"","565.000000060536","sequential-stimulus-presentation","41","2413981","0.0-11.0-1.7","SS1613123127108","trial","","40","800","1365.000000060536","images/stimuli/spore_stims/simple_08_A_a.gif","images/stimuli/spore_stims/simple_11_B_b.gif","","","","","1","simple_dissimilar","images/stimuli/spore_stims/simple_11_B_b.gif","left","","","","",""
"","1993.0000000167638","html-keyboard-response","42","2415981","0.0-12.0","SS1613123127108","pref_question","","51","","","","","<video width ='960' height = '540' style='padding-top:8%' autoplay muted><source src='images/stimuli/wall_pref.mp4' type='video/mp4'></video>","3","right","66%","1","","","","","","","",""
"","2991.000000038184","sequential-stimulus-presentation","43","2419797","0.0-13.0","SS1613123127108","pref_reveal","","40","800","3791.000000038184","null","null","","","","","1","","","","novel","","","",""
"","null","html-keyboard-response","44","2420942","0.0-14.0-0.0","SS1613123127108","","","null","","","","","<p><img src= images/blank.png width =""200"" height = ""200"" style = ""float:right""></p><p><img src=images/blank.png width =""800"" height = ""200""></p>","","","","","","","","","","","",""
"","393.00000004004687","sequential-stimulus-presentation","45","2422150","0.0-14.0-1.0","SS1613123127108","trial","","40","800","1193.0000000400469","images/stimuli/spore_stims/simple_15_A_a.gif","images/stimuli/spore_stims/simple_15_B_a.gif","","","","","2","simple_similar","images/stimuli/spore_stims/simple_15_B_a.gif","right","","","","",""
"","null","html-keyboard-response","46","2423385","0.0-14.0-0.1","SS1613123127108","","","null","","","","","<p><img src= images/blank.png width =""200"" height = ""200"" style = ""float:right""></p><p><img src=images/blank.png width =""800"" height = ""200""></p>","","","","","","","","","","","",""
"","743.0000000167638","sequential-stimulus-presentation","47","2424940","0.0-14.0-1.1","SS1613123127108","trial","","40","800","1543.0000000167638","images/stimuli/spore_stims/simple_15_A_a.gif","images/stimuli/spore_stims/simple_15_B_a.gif","","","","","2","simple_similar","images/stimuli/spore_stims/simple_15_B_a.gif","right","","","","",""
"","null","html-keyboard-response","48","2425954","0.0-14.0-0.2","SS1613123127108","","","null","","","","","<p><img src= images/blank.png width =""200"" height = ""200"" style = ""float:right""></p><p><img src=images/blank.png width =""800"" height = ""200""></p>","","","","","","","","","","","",""
"","840.9999998984858","sequential-stimulus-presentation","49","2427609","0.0-14.0-1.2","SS1613123127108","trial","","40","800","1640.9999998984858","images/stimuli/spore_stims/simple_15_A_a.gif","images/stimuli/spore_stims/simple_15_B_a.gif","","","","","2","simple_similar","images/stimuli/spore_stims/simple_15_B_a.gif","right","","","","",""
"","null","html-keyboard-response","50","2428606","0.0-14.0-0.3","SS1613123127108","","","null","","","","","<p><img src= images/blank.png width =""200"" height = ""200"" style = ""float:right""></p><p><img src=images/blank.png width =""800"" height = ""200""></p>","","","","","","","","","","","",""
"","2451.0000000009313","sequential-stimulus-presentation","51","2431864","0.0-14.0-1.3","SS1613123127108","trial","","40","800","3251.0000000009313","images/stimuli/spore_stims/simple_15_A_a.gif","images/stimuli/spore_stims/simple_15_B_a.gif","","","","","2","simple_similar","images/stimuli/spore_stims/simple_15_A_a.gif","left","","","","",""
"","null","html-keyboard-response","52","2433086","0.0-14.0-0.4","SS1613123127108","","","null","","","","","<p><img src= images/blank.png width =""200"" height = ""200"" style = ""float:right""></p><p><img src=images/blank.png width =""800"" height = ""200""></p>","","","","","","","","","","","",""
"","1575.0000000698492","sequential-stimulus-presentation","53","2435486","0.0-14.0-1.4","SS1613123127108","trial","","40","800","2375.000000069849","images/stimuli/spore_stims/simple_15_A_a.gif","images/stimuli/spore_stims/simple_15_B_a.gif","","","","","2","simple_similar","images/stimuli/spore_stims/simple_15_B_a.gif","right","","","","",""
"","null","html-keyboard-response","54","2436604","0.0-14.0-0.5","SS1613123127108","","","null","","","","","<p><img src= images/blank.png width =""200"" height = ""200"" style = ""float:right""></p><p><img src=images/blank.png width =""800"" height = ""200""></p>","","","","","","","","","","","",""
"","5.000000004656613","sequential-stimulus-presentation","55","2437542","0.0-14.0-1.5","SS1613123127108","trial","","40","800","805.0000000046566","images/stimuli/spore_stims/simple_15_A_a.gif","images/stimuli/spore_stims/simple_15_B_a.gif","","","","","2","simple_similar","images/stimuli/spore_stims/simple_15_B_a.gif","right","","","","",""
"","null","html-keyboard-response","56","2438814","0.0-14.0-0.6","SS1613123127108","","","null","","","","","<p><img src= images/blank.png width =""200"" height = ""200"" style = ""float:right""></p><p><img src=images/blank.png width =""800"" height = ""200""></p>","","","","","","","","","","","",""
"","3407.0000000065193","sequential-stimulus-presentation","57","2443076","0.0-14.0-1.6","SS1613123127108","trial","","40","800","4207.000000006519","images/stimuli/spore_stims/simple_15_A_a.gif","images/stimuli/spore_stims/simple_15_B_a.gif","","","","","2","simple_similar","images/stimuli/spore_stims/simple_15_B_a.gif","right","","","","",""
"","null","html-keyboard-response","58","2444138","0.0-14.0-0.7","SS1613123127108","","","null","","","","","<p><img src= images/blank.png width =""200"" height = ""200"" style = ""float:right""></p><p><img src=images/blank.png width =""800"" height = ""200""></p>","","","","","","","","","","","",""
"","2733.0000000074506","sequential-stimulus-presentation","59","2447684","0.0-14.0-1.7","SS1613123127108","trial","","40","800","3533.0000000074506","images/stimuli/spore_stims/simple_15_A_a.gif","images/stimuli/spore_stims/simple_15_B_a.gif","","","","","2","simple_similar","images/stimuli/spore_stims/simple_15_B_a.gif","right","","","","",""
"","4256.999999983236","html-keyboard-response","60","2451951","0.0-15.0","SS1613123127108","pref_question","","50","","","","","<video width ='960' height = '540' style='padding-top:8%' autoplay muted><source src='images/stimuli/wall_pref.mp4' type='video/mp4'></video>","2","middle","45%","2","","","","","","","",""
"","2798.9999999990687","sequential-stimulus-presentation","61","2455562","0.0-16.0","SS1613123127108","pref_reveal","","40","800","3598.9999999990687","null","null","","","","","2","","","","novel","","","",""
"","null","html-keyboard-response","62","2456733","0.0-17.0-0.0","SS1613123127108","","","null","","","","","<p><img src= images/blank.png width =""200"" height = ""200"" style = ""float:right""></p><p><img src=images/blank.png width =""800"" height = ""200""></p>","","","","","","","","","","","",""
"","599.9999999767169","sequential-stimulus-presentation","63","2458157","0.0-17.0-1.0","SS1613123127108","trial","","40","800","1399.999999976717","images/stimuli/spore_stims/simple_07_A_b.gif","images/stimuli/spore_stims/simple_11_A_a.gif","","","","","3","simple_dissimilar","images/stimuli/spore_stims/simple_11_A_a.gif","right","","","","",""
"","null","html-keyboard-response","64","2459249","0.0-17.0-0.1","SS1613123127108","","","null","","","","","<p><img src= images/blank.png width =""200"" height = ""200"" style = ""float:right""></p><p><img src=images/blank.png width =""800"" height = ""200""></p>","","","","","","","","","","","",""
"","7273.0000000447035","sequential-stimulus-presentation","65","2467337","0.0-17.0-1.1","SS1613123127108","trial","","40","800","8073.0000000447035","images/stimuli/spore_stims/simple_07_A_b.gif","images/stimuli/spore_stims/simple_11_A_a.gif","","","","","3","simple_dissimilar","images/stimuli/spore_stims/simple_11_A_a.gif","right","","","","",""
"","null","html-keyboard-response","66","2468319","0.0-17.0-0.2","SS1613123127108","","","null","","","","","<p><img src= images/blank.png width =""200"" height = ""200"" style = ""float:right""></p><p><img src=images/blank.png width =""800"" height = ""200""></p>","","","","","","","","","","","",""
"","1494.9999999953434","sequential-stimulus-presentation","67","2470668","0.0-17.0-1.2","SS1613123127108","trial","","40","800","2294.9999999953434","images/stimuli/spore_stims/simple_07_A_b.gif","images/stimuli/spore_stims/simple_11_A_a.gif","","","","","3","simple_dissimilar","images/stimuli/spore_stims/simple_11_A_a.gif","right","","","","",""
"","null","html-keyboard-response","68","2471748","0.0-17.0-0.3","SS1613123127108","","","null","","","","","<p><img src= images/blank.png width =""200"" height = ""200"" style = ""float:right""></p><p><img src=images/blank.png width =""800"" height = ""200""></p>","","","","","","","","","","","",""
"","119.99999999534339","sequential-stimulus-presentation","69","2472689","0.0-17.0-1.3","SS1613123127108","trial","","40","800","919.9999999953434","images/stimuli/spore_stims/simple_07_A_b.gif","images/stimuli/spore_stims/simple_11_A_a.gif","","","","","3","simple_dissimilar","images/stimuli/spore_stims/simple_11_A_a.gif","right","","","","",""
"","null","html-keyboard-response","70","2473891","0.0-17.0-0.4","SS1613123127108","","","null","","","","","<p><img src= images/blank.png width =""200"" height = ""200"" style = ""float:right""></p><p><img src=images/blank.png width =""800"" height = ""200""></p>","","","","","","","","","","","",""
"","190.00000006053597","sequential-stimulus-presentation","71","2474899","0.0-17.0-1.4","SS1613123127108","trial","","40","800","990.000000060536","images/stimuli/spore_stims/simple_07_A_b.gif","images/stimuli/spore_stims/simple_11_A_a.gif","","","","","3","simple_dissimilar","images/stimuli/spore_stims/simple_07_A_b.gif","left","","","","",""
"","null","html-keyboard-response","72","2475903","0.0-17.0-0.5","SS1613123127108","","","null","","","","","<p><img src= images/blank.png width =""200"" height = ""200"" style = ""float:right""></p><p><img src=images/blank.png width =""800"" height = ""200""></p>","","","","","","","","","","","",""
"","2428.000000072643","sequential-stimulus-presentation","73","2479185","0.0-17.0-1.5","SS1613123127108","trial","","40","800","3228.000000072643","images/stimuli/spore_stims/simple_07_A_b.gif","images/stimuli/spore_stims/simple_11_A_a.gif","","","","","3","simple_dissimilar","images/stimuli/spore_stims/simple_11_A_a.gif","right","","","","",""
"","null","html-keyboard-response","74","2480279","0.0-17.0-0.6","SS1613123127108","","","null","","","","","<p><img src= images/blank.png width =""200"" height = ""200"" style = ""float:right""></p><p><img src=images/blank.png width =""800"" height = ""200""></p>","","","","","","","","","","","",""
"","705.0000000745058","sequential-stimulus-presentation","75","2481793","0.0-17.0-1.6","SS1613123127108","trial","","40","800","1505.0000000745058","images/stimuli/spore_stims/simple_07_A_b.gif","images/stimuli/spore_stims/simple_11_A_a.gif","","","","","3","simple_dissimilar","images/stimuli/spore_stims/simple_11_A_a.gif","right","","","","",""
"","null","html-keyboard-response","76","2483067","0.0-17.0-0.7","SS1613123127108","","","null","","","","","<p><img src= images/blank.png width =""200"" height = ""200"" style = ""float:right""></p><p><img src=images/blank.png width =""800"" height = ""200""></p>","","","","","","","","","","","",""
"","1836.0000000102445","sequential-stimulus-presentation","77","2485718","0.0-17.0-1.7","SS1613123127108","trial","","40","800","2636.0000000102445","images/stimuli/spore_stims/simple_07_A_b.gif","images/stimuli/spore_stims/simple_11_A_a.gif","","","","","3","simple_dissimilar","images/stimuli/spore_stims/simple_11_A_a.gif","right","","","","",""
"","2684.000000008382","html-keyboard-response","78","2488411","0.0-18.0","SS1613123127108","pref_question","","49","","","","","<video width ='960' height = '540' style='padding-top:8%' autoplay muted><source src='images/stimuli/wall_pref.mp4' type='video/mp4'></video>","1","left","25%","3","","","","","","","",""
"","1110.9999999171123","sequential-stimulus-presentation","79","2490338","0.0-19.0","SS1613123127108","pref_reveal","","40","800","1910.9999999171123","null","null","","","","","3","","","","deviant","","","",""
"","null","html-keyboard-response","80","2491203","0.0-20.0-0.0","SS1613123127108","","","null","","","","","<p><img src= images/blank.png width =""200"" height = ""200"" style = ""float:right""></p><p><img src=images/blank.png width =""800"" height = ""200""></p>","","","","","","","","","","","",""
"","2722.000000067055","sequential-stimulus-presentation","81","2494744","0.0-20.0-1.0","SS1613123127108","trial","","40","800","3522.000000067055","images/stimuli/spore_stims/simple_05_B_a.gif","images/stimuli/spore_stims/simple_05_A_a.gif","","","","","4","simple_similar","images/stimuli/spore_stims/simple_05_A_a.gif","left","","","","",""
"","null","html-keyboard-response","82","2495813","0.0-20.0-0.1","SS1613123127108","","","null","","","","","<p><img src= images/blank.png width =""200"" height = ""200"" style = ""float:right""></p><p><img src=images/blank.png width =""800"" height = ""200""></p>","","","","","","","","","","","",""
"","2336.9999999413267","sequential-stimulus-presentation","83","2499005","0.0-20.0-1.1","SS1613123127108","trial","","40","800","3136.9999999413267","images/stimuli/spore_stims/simple_05_B_a.gif","images/stimuli/spore_stims/simple_05_A_a.gif","","","","","4","simple_similar","images/stimuli/spore_stims/simple_05_A_a.gif","left","","","","",""
"","null","html-keyboard-response","84","2500173","0.0-20.0-0.2","SS1613123127108","","","null","","","","","<p><img src= images/blank.png width =""200"" height = ""200"" style = ""float:right""></p><p><img src=images/blank.png width =""800"" height = ""200""></p>","","","","","","","","","","","",""
"","2947.9999999748543","sequential-stimulus-presentation","85","2503979","0.0-20.0-1.2","SS1613123127108","trial","","40","800","3747.9999999748543","images/stimuli/spore_stims/simple_05_B_a.gif","images/stimuli/spore_stims/simple_05_A_a.gif","","","","","4","simple_similar","images/stimuli/spore_stims/simple_05_A_a.gif","left","","","","",""
"","null","html-keyboard-response","86","2504879","0.0-20.0-0.3","SS1613123127108","","","null","","","","","<p><img src= images/blank.png width =""200"" height = ""200"" style = ""float:right""></p><p><img src=images/blank.png width =""800"" height = ""200""></p>","","","","","","","","","","","",""
"","1951.9999999320135","sequential-stimulus-presentation","87","2507679","0.0-20.0-1.3","SS1613123127108","trial","","40","800","2751.9999999320135","images/stimuli/spore_stims/simple_05_B_a.gif","images/stimuli/spore_stims/simple_05_A_a.gif","","","","","4","simple_similar","images/stimuli/spore_stims/simple_05_A_a.gif","left","","","","",""
"","null","html-keyboard-response","88","2508619","0.0-20.0-0.4","SS1613123127108","","","null","","","","","<p><img src= images/blank.png width =""200"" height = ""200"" style = ""float:right""></p><p><img src=images/blank.png width =""800"" height = ""200""></p>","","","","","","","","","","","",""
"","82.00000005308539","sequential-stimulus-presentation","89","2509569","0.0-20.0-1.4","SS1613123127108","trial","","40","800","882.0000000530854","images/stimuli/spore_stims/simple_05_B_a.gif","images/stimuli/spore_stims/simple_05_A_a.gif","","","","","4","simple_similar","images/stimuli/spore_stims/simple_05_B_a.gif","right","","","","",""
"","null","html-keyboard-response","90","2510737","0.0-20.0-0.5","SS1613123127108","","","null","","","","","<p><img src= images/blank.png width =""200"" height = ""200"" style = ""float:right""></p><p><img src=images/blank.png width =""800"" height = ""200""></p>","","","","","","","","","","","",""
"","1998.0000000214204","sequential-stimulus-presentation","91","2513567","0.0-20.0-1.5","SS1613123127108","trial","","40","800","2798.0000000214204","images/stimuli/spore_stims/simple_05_B_a.gif","images/stimuli/spore_stims/simple_05_A_a.gif","","","","","4","simple_similar","images/stimuli/spore_stims/simple_05_A_a.gif","left","","","","",""
"","null","html-keyboard-response","92","2514417","0.0-20.0-0.6","SS1613123127108","","","null","","","","","<p><img src= images/blank.png width =""200"" height = ""200"" style = ""float:right""></p><p><img src=images/blank.png width =""800"" height = ""200""></p>","","","","","","","","","","","",""
"","1963.9999999199063","sequential-stimulus-presentation","93","2517230","0.0-20.0-1.6","SS1613123127108","trial","","40","800","2763.9999999199063","images/stimuli/spore_stims/simple_05_B_a.gif","images/stimuli/spore_stims/simple_05_A_a.gif","","","","","4","simple_similar","images/stimuli/spore_stims/simple_05_A_a.gif","left","","","","",""
"","null","html-keyboard-response","94","2518174","0.0-20.0-0.7","SS1613123127108","","","null","","","","","<p><img src= images/blank.png width =""200"" height = ""200"" style = ""float:right""></p><p><img src=images/blank.png width =""800"" height = ""200""></p>","","","","","","","","","","","",""
"","1474.999999976717","sequential-stimulus-presentation","95","2520480","0.0-20.0-1.7","SS1613123127108","trial","","40","800","2274.999999976717","images/stimuli/spore_stims/simple_05_B_a.gif","images/stimuli/spore_stims/simple_05_A_a.gif","","","","","4","simple_similar","images/stimuli/spore_stims/simple_05_A_a.gif","left","","","","",""
"","61717.0000000624","html-keyboard-response","96","2582205","0.0-21.0","SS1613123127108","pref_question","","50","","","","","<video width ='960' height = '540' style='padding-top:8%' autoplay muted><source src='images/stimuli/wall_pref.mp4' type='video/mp4'></video>","2","middle","45%","4","","","","","","","",""
"","4162.000000011176","sequential-stimulus-presentation","97","2587238","0.0-22.0","SS1613123127108","pref_reveal","","40","800","4962.000000011176","null","null","","","","","4","","","","novel","","","",""
"","null","html-keyboard-response","98","2588172","0.0-23.0-0.0","SS1613123127108","","","null","","","","","<p><img src= images/blank.png width =""200"" height = ""200"" style = ""float:right""></p><p><img src=images/blank.png width =""800"" height = ""200""></p>","","","","","","","","","","","",""
"","261.9999999878928","sequential-stimulus-presentation","99","2589251","0.0-23.0-1.0","SS1613123127108","trial","","40","800","1061.9999999878928","images/stimuli/spore_stims/complex_06_A_a.gif","images/stimuli/spore_stims/complex_06_B_a.gif","","","","","5","complex_similar","images/stimuli/spore_stims/complex_06_B_a.gif","right","","","","",""
"","null","html-keyboard-response","100","2590134","0.0-23.0-0.1","SS1613123127108","","","null","","","","","<p><img src= images/blank.png width =""200"" height = ""200"" style = ""float:right""></p><p><img src=images/blank.png width =""800"" height = ""200""></p>","","","","","","","","","","","",""
"","385.99999994039536","sequential-stimulus-presentation","101","2591343","0.0-23.0-1.1","SS1613123127108","trial","","40","800","1185.9999999403954","images/stimuli/spore_stims/complex_06_A_a.gif","images/stimuli/spore_stims/complex_06_B_a.gif","","","","","5","complex_similar","images/stimuli/spore_stims/complex_06_B_a.gif","right","","","","",""
"","null","html-keyboard-response","102","2592188","0.0-23.0-0.2","SS1613123127108","","","null","","","","","<p><img src= images/blank.png width =""200"" height = ""200"" style = ""float:right""></p><p><img src=images/blank.png width =""800"" height = ""200""></p>","","","","","","","","","","","",""
"","594.9999999720603","sequential-stimulus-presentation","103","2593597","0.0-23.0-1.2","SS1613123127108","trial","","40","800","1394.9999999720603","images/stimuli/spore_stims/complex_06_A_a.gif","images/stimuli/spore_stims/complex_06_B_a.gif","","","","","5","complex_similar","images/stimuli/spore_stims/complex_06_A_a.gif","middle","","","","",""
"","null","html-keyboard-response","104","2594604","0.0-23.0-0.3","SS1613123127108","","","null","","","","","<p><img src= images/blank.png width =""200"" height = ""200"" style = ""float:right""></p><p><img src=images/blank.png width =""800"" height = ""200""></p>","","","","","","","","","","","",""
"","52.00000002514571","sequential-stimulus-presentation","105","2595567","0.0-23.0-1.3","SS1613123127108","trial","","40","800","852.0000000251457","images/stimuli/spore_stims/complex_06_A_a.gif","images/stimuli/spore_stims/complex_06_B_a.gif","","","","","5","complex_similar","images/stimuli/spore_stims/complex_06_B_a.gif","right","","","","",""
"","null","html-keyboard-response","106","2596523","0.0-23.0-0.4","SS1613123127108","","","null","","","","","<p><img src= images/blank.png width =""200"" height = ""200"" style = ""float:right""></p><p><img src=images/blank.png width =""800"" height = ""200""></p>","","","","","","","","","","","",""
"","255.0000000046566","sequential-stimulus-presentation","107","2597599","0.0-23.0-1.4","SS1613123127108","trial","","40","800","1055.0000000046566","images/stimuli/spore_stims/complex_06_A_a.gif","images/stimuli/spore_stims/complex_06_B_a.gif","","","","","5","complex_similar","images/stimuli/spore_stims/complex_06_B_a.gif","right","","","","",""
"","null","html-keyboard-response","108","2598891","0.0-23.0-0.5","SS1613123127108","","","null","","","","","<p><img src= images/blank.png width =""200"" height = ""200"" style = ""float:right""></p><p><img src=images/blank.png width =""800"" height = ""200""></p>","","","","","","","","","","","",""
"","115.0000001071021","sequential-stimulus-presentation","109","2599828","0.0-23.0-1.5","SS1613123127108","trial","","40","800","915.0000001071021","images/stimuli/spore_stims/complex_06_A_a.gif","images/stimuli/spore_stims/complex_06_B_a.gif","","","","","5","complex_similar","images/stimuli/spore_stims/complex_06_B_a.gif","right","","","","",""
"","null","html-keyboard-response","110","2600951","0.0-23.0-0.6","SS1613123127108","","","null","","","","","<p><img src= images/blank.png width =""200"" height = ""200"" style = ""float:right""></p><p><img src=images/blank.png width =""800"" height = ""200""></p>","","","","","","","","","","","",""
"","57.99999996088445","sequential-stimulus-presentation","111","2601837","0.0-23.0-1.6","SS1613123127108","trial","","40","800","857.9999999608845","images/stimuli/spore_stims/complex_06_A_a.gif","images/stimuli/spore_stims/complex_06_B_a.gif","","","","","5","complex_similar","images/stimuli/spore_stims/complex_06_B_a.gif","right","","","","",""
"","null","html-keyboard-response","112","2602645","0.0-23.0-0.7","SS1613123127108","","","null","","","","","<p><img src= images/blank.png width =""200"" height = ""200"" style = ""float:right""></p><p><img src=images/blank.png width =""800"" height = ""200""></p>","","","","","","","","","","","",""
"","86.00000001024455","sequential-stimulus-presentation","113","2603562","0.0-23.0-1.7","SS1613123127108","trial","","40","800","886.0000000102445","images/stimuli/spore_stims/complex_06_A_a.gif","images/stimuli/spore_stims/complex_06_B_a.gif","","","","","5","complex_similar","images/stimuli/spore_stims/complex_06_B_a.gif","right","","","","",""
"","2497.999999905005","html-keyboard-response","114","2606071","0.0-24.0","SS1613123127108","pref_question","","51","","","","","<video width ='960' height = '540' style='padding-top:8%' autoplay muted><source src='images/stimuli/wall_pref.mp4' type='video/mp4'></video>","3","right","66%","5","","","","","","","",""
"","893.999999971129","sequential-stimulus-presentation","115","2607810","0.0-25.0","SS1613123127108","pref_reveal","","40","800","1693.999999971129","null","null","","","","","5","","","","background","","","",""
"","null","html-keyboard-response","116","2608755","0.0-26.0-0.0","SS1613123127108","","","null","","","","","<p><img src= images/blank.png width =""200"" height = ""200"" style = ""float:right""></p><p><img src=images/blank.png width =""800"" height = ""200""></p>","","","","","","","","","","","",""
"","97.99999999813735","sequential-stimulus-presentation","117","2609675","0.0-26.0-1.0","SS1613123127108","trial","","40","800","897.9999999981374","images/stimuli/spore_stims/simple_07_B_a.gif","images/stimuli/spore_stims/simple_02_A_b.gif","","","","","6","simple_dissimilar","images/stimuli/spore_stims/simple_02_A_b.gif","right","","","","",""
"","null","html-keyboard-response","118","2610858","0.0-26.0-0.1","SS1613123127108","","","null","","","","","<p><img src= images/blank.png width =""200"" height = ""200"" style = ""float:right""></p><p><img src=images/blank.png width =""800"" height = ""200""></p>","","","","","","","","","","","",""
"","3145.0000000186265","sequential-stimulus-presentation","119","2614818","0.0-26.0-1.1","SS1613123127108","trial","","40","800","3945.0000000186265","images/stimuli/spore_stims/simple_07_B_a.gif","images/stimuli/spore_stims/simple_02_A_b.gif","","","","","6","simple_dissimilar","images/stimuli/spore_stims/simple_02_A_b.gif","right","","","","",""
"","null","html-keyboard-response","120","2615874","0.0-26.0-0.2","SS1613123127108","","","null","","","","","<p><img src= images/blank.png width =""200"" height = ""200"" style = ""float:right""></p><p><img src=images/blank.png width =""800"" height = ""200""></p>","","","","","","","","","","","",""
"","1120.9999999264255","sequential-stimulus-presentation","121","2617836","0.0-26.0-1.2","SS1613123127108","trial","","40","800","1920.9999999264255","images/stimuli/spore_stims/simple_07_B_a.gif","images/stimuli/spore_stims/simple_02_A_b.gif","","","","","6","simple_dissimilar","images/stimuli/spore_stims/simple_02_A_b.gif","right","","","","",""
"","null","html-keyboard-response","122","2618865","0.0-26.0-0.3","SS1613123127108","","","null","","","","","<p><img src= images/blank.png width =""200"" height = ""200"" style = ""float:right""></p><p><img src=images/blank.png width =""800"" height = ""200""></p>","","","","","","","","","","","",""
"","2363.9999999431893","sequential-stimulus-presentation","123","2622049","0.0-26.0-1.3","SS1613123127108","trial","","40","800","3163.9999999431893","images/stimuli/spore_stims/simple_07_B_a.gif","images/stimuli/spore_stims/simple_02_A_b.gif","","","","","6","simple_dissimilar","images/stimuli/spore_stims/simple_07_B_a.gif","left","","","","",""
"","null","html-keyboard-response","124","2623068","0.0-26.0-0.4","SS1613123127108","","","null","","","","","<p><img src= images/blank.png width =""200"" height = ""200"" style = ""float:right""></p><p><img src=images/blank.png width =""800"" height = ""200""></p>","","","","","","","","","","","",""
"","11831.99999993667","sequential-stimulus-presentation","125","2635712","0.0-26.0-1.4","SS1613123127108","trial","","40","800","12631.99999993667","images/stimuli/spore_stims/simple_07_B_a.gif","images/stimuli/spore_stims/simple_02_A_b.gif","","","","","6","simple_dissimilar","images/stimuli/spore_stims/simple_02_A_b.gif","right","","","","",""
"","null","html-keyboard-response","126","2637009","0.0-26.0-0.5","SS1613123127108","","","null","","","","","<p><img src= images/blank.png width =""200"" height = ""200"" style = ""float:right""></p><p><img src=images/blank.png width =""800"" height = ""200""></p>","","","","","","","","","","","",""
"","1438.9999998966232","sequential-stimulus-presentation","127","2639306","0.0-26.0-1.5","SS1613123127108","trial","","40","800","2238.999999896623","images/stimuli/spore_stims/simple_07_B_a.gif","images/stimuli/spore_stims/simple_02_A_b.gif","","","","","6","simple_dissimilar","images/stimuli/spore_stims/simple_02_A_b.gif","right","","","","",""
"","null","html-keyboard-response","128","2640531","0.0-26.0-0.6","SS1613123127108","","","null","","","","","<p><img src= images/blank.png width =""200"" height = ""200"" style = ""float:right""></p><p><img src=images/blank.png width =""800"" height = ""200""></p>","","","","","","","","","","","",""
"","5731.999999959953","sequential-stimulus-presentation","129","2647078","0.0-26.0-1.6","SS1613123127108","trial","","40","800","6531.999999959953","images/stimuli/spore_stims/simple_07_B_a.gif","images/stimuli/spore_stims/simple_02_A_b.gif","","","","","6","simple_dissimilar","images/stimuli/spore_stims/simple_02_A_b.gif","right","","","","",""
"","null","html-keyboard-response","130","2647923","0.0-26.0-0.7","SS1613123127108","","","null","","","","","<p><img src= images/blank.png width =""200"" height = ""200"" style = ""float:right""></p><p><img src=images/blank.png width =""800"" height = ""200""></p>","","","","","","","","","","","",""
"","5839.000000036322","sequential-stimulus-presentation","131","2654583","0.0-26.0-1.7","SS1613123127108","trial","","40","800","6639.000000036322","images/stimuli/spore_stims/simple_07_B_a.gif","images/stimuli/spore_stims/simple_02_A_b.gif","","","","","6","simple_dissimilar","images/stimuli/spore_stims/simple_02_A_b.gif","right","","","","",""
"","2297.000000020489","html-keyboard-response","132","2656890","0.0-27.0","SS1613123127108","pref_question","","50","","","","","<video width ='960' height = '540' style='padding-top:8%' autoplay muted><source src='images/stimuli/wall_pref.mp4' type='video/mp4'></video>","2","middle","45%","6","","","","","","","",""
"","1841.0000000149012","sequential-stimulus-presentation","133","2659550","0.0-28.0","SS1613123127108","pref_reveal","","40","800","2641.000000014901","null","null","","","","","6","","","","novel","","","",""
"","null","html-keyboard-response","134","2660721","0.0-29.0-0.0","SS1613123127108","","","null","","","","","<p><img src= images/blank.png width =""200"" height = ""200"" style = ""float:right""></p><p><img src=images/blank.png width =""800"" height = ""200""></p>","","","","","","","","","","","",""
"","768.0000000400469","sequential-stimulus-presentation","135","2662316","0.0-29.0-1.0","SS1613123127108","trial","","40","800","1568.0000000400469","images/stimuli/spore_stims/simple_01_A_d.gif","images/stimuli/spore_stims/simple_16_B_d.gif","","","","","7","simple_dissimilar","images/stimuli/spore_stims/simple_16_B_d.gif","middle","","","","",""
"","null","html-keyboard-response","136","2663550","0.0-29.0-0.1","SS1613123127108","","","null","","","","","<p><img src= images/blank.png width =""200"" height = ""200"" style = ""float:right""></p><p><img src=images/blank.png width =""800"" height = ""200""></p>","","","","","","","","","","","",""
"","238.99999994318932","sequential-stimulus-presentation","137","2664609","0.0-29.0-1.1","SS1613123127108","trial","","40","800","1038.9999999431893","images/stimuli/spore_stims/simple_01_A_d.gif","images/stimuli/spore_stims/simple_16_B_d.gif","","","","","7","simple_dissimilar","images/stimuli/spore_stims/simple_16_B_d.gif","middle","","","","",""
"","null","html-keyboard-response","138","2665748","0.0-29.0-0.2","SS1613123127108","","","null","","","","","<p><img src= images/blank.png width =""200"" height = ""200"" style = ""float:right""></p><p><img src=images/blank.png width =""800"" height = ""200""></p>","","","","","","","","","","","",""
"","628.000000026077","sequential-stimulus-presentation","139","2667187","0.0-29.0-1.2","SS1613123127108","trial","","40","800","1428.000000026077","images/stimuli/spore_stims/simple_01_A_d.gif","images/stimuli/spore_stims/simple_16_B_d.gif","","","","","7","simple_dissimilar","images/stimuli/spore_stims/simple_16_B_d.gif","middle","","","","",""
"","null","html-keyboard-response","140","2668252","0.0-29.0-0.3","SS1613123127108","","","null","","","","","<p><img src= images/blank.png width =""200"" height = ""200"" style = ""float:right""></p><p><img src=images/blank.png width =""800"" height = ""200""></p>","","","","","","","","","","","",""
"","2089.9999999674037","sequential-stimulus-presentation","141","2671168","0.0-29.0-1.3","SS1613123127108","trial","","40","800","2889.9999999674037","images/stimuli/spore_stims/simple_01_A_d.gif","images/stimuli/spore_stims/simple_16_B_d.gif","","","","","7","simple_dissimilar","images/stimuli/spore_stims/simple_01_A_d.gif","left","","","","",""
"","null","html-keyboard-response","142","2672009","0.0-29.0-0.4","SS1613123127108","","","null","","","","","<p><img src= images/blank.png width =""200"" height = ""200"" style = ""float:right""></p><p><img src=images/blank.png width =""800"" height = ""200""></p>","","","","","","","","","","","",""
"","325.0000000698492","sequential-stimulus-presentation","143","2673144","0.0-29.0-1.4","SS1613123127108","trial","","40","800","1125.0000000698492","images/stimuli/spore_stims/simple_01_A_d.gif","images/stimuli/spore_stims/simple_16_B_d.gif","","","","","7","simple_dissimilar","images/stimuli/spore_stims/simple_16_B_d.gif","middle","","","","",""
"","null","html-keyboard-response","144","2674435","0.0-29.0-0.5","SS1613123127108","","","null","","","","","<p><img src= images/blank.png width =""200"" height = ""200"" style = ""float:right""></p><p><img src=images/blank.png width =""800"" height = ""200""></p>","","","","","","","","","","","",""
"","371.99999997392297","sequential-stimulus-presentation","145","2675672","0.0-29.0-1.5","SS1613123127108","trial","","40","800","1171.999999973923","images/stimuli/spore_stims/simple_01_A_d.gif","images/stimuli/spore_stims/simple_16_B_d.gif","","","","","7","simple_dissimilar","images/stimuli/spore_stims/simple_16_B_d.gif","middle","","","","",""
"","null","html-keyboard-response","146","2676814","0.0-29.0-0.6","SS1613123127108","","","null","","","","","<p><img src= images/blank.png width =""200"" height = ""200"" style = ""float:right""></p><p><img src=images/blank.png width =""800"" height = ""200""></p>","","","","","","","","","","","",""
"","81.00000000558794","sequential-stimulus-presentation","147","2677709","0.0-29.0-1.6","SS1613123127108","trial","","40","800","881.0000000055879","images/stimuli/spore_stims/simple_01_A_d.gif","images/stimuli/spore_stims/simple_16_B_d.gif","","","","","7","simple_dissimilar","images/stimuli/spore_stims/simple_16_B_d.gif","middle","","","","",""
"","null","html-keyboard-response","148","2678890","0.0-29.0-0.7","SS1613123127108","","","null","","","","","<p><img src= images/blank.png width =""200"" height = ""200"" style = ""float:right""></p><p><img src=images/blank.png width =""800"" height = ""200""></p>","","","","","","","","","","","",""
"","481.99999995995313","sequential-stimulus-presentation","149","2680190","0.0-29.0-1.7","SS1613123127108","trial","","40","800","1281.9999999599531","images/stimuli/spore_stims/simple_01_A_d.gif","images/stimuli/spore_stims/simple_16_B_d.gif","","","","","7","simple_dissimilar","images/stimuli/spore_stims/simple_16_B_d.gif","middle","","","","",""
"","2252.000000094995","html-keyboard-response","150","2682452","0.0-30.0","SS1613123127108","pref_question","","50","","","","","<video width ='960' height = '540' style='padding-top:8%' autoplay muted><source src='images/stimuli/wall_pref.mp4' type='video/mp4'></video>","2","middle","45%","7","","","","","","","",""
"","814.9999999441206","sequential-stimulus-presentation","151","2684090","0.0-31.0","SS1613123127108","pref_reveal","","40","800","1614.9999999441206","null","null","","","","","7","","","","background","","","",""
"","null","html-keyboard-response","152","2685333","0.0-32.0-0.0","SS1613123127108","","","null","","","","","<p><img src= images/blank.png width =""200"" height = ""200"" style = ""float:right""></p><p><img src=images/blank.png width =""800"" height = ""200""></p>","","","","","","","","","","","",""
"","2940.999999991618","sequential-stimulus-presentation","153","2689087","0.0-32.0-1.0","SS1613123127108","trial","","40","800","3740.999999991618","images/stimuli/spore_stims/complex_15_A_b.gif","images/stimuli/spore_stims/complex_05_A_c.gif","","","","","8","complex_dissimilar","images/stimuli/spore_stims/complex_05_A_c.gif","middle","","","","",""
"","null","html-keyboard-response","154","2690064","0.0-32.0-0.1","SS1613123127108","","","null","","","","","<p><img src= images/blank.png width =""200"" height = ""200"" style = ""float:right""></p><p><img src=images/blank.png width =""800"" height = ""200""></p>","","","","","","","","","","","",""
"","92.00000006239861","sequential-stimulus-presentation","155","2690981","0.0-32.0-1.1","SS1613123127108","trial","","40","800","892.0000000623986","images/stimuli/spore_stims/complex_15_A_b.gif","images/stimuli/spore_stims/complex_05_A_c.gif","","","","","8","complex_dissimilar","images/stimuli/spore_stims/complex_05_A_c.gif","middle","","","","",""
"","null","html-keyboard-response","156","2691959","0.0-32.0-0.2","SS1613123127108","","","null","","","","","<p><img src= images/blank.png width =""200"" height = ""200"" style = ""float:right""></p><p><img src=images/blank.png width =""800"" height = ""200""></p>","","","","","","","","","","","",""
"","1767.9999999236315","sequential-stimulus-presentation","157","2694543","0.0-32.0-1.2","SS1613123127108","trial","","40","800","2567.9999999236315","images/stimuli/spore_stims/complex_15_A_b.gif","images/stimuli/spore_stims/complex_05_A_c.gif","","","","","8","complex_dissimilar","images/stimuli/spore_stims/complex_15_A_b.gif","left","","","","",""
"","null","html-keyboard-response","158","2695702","0.0-32.0-0.3","SS1613123127108","","","null","","","","","<p><img src= images/blank.png width =""200"" height = ""200"" style = ""float:right""></p><p><img src=images/blank.png width =""800"" height = ""200""></p>","","","","","","","","","","","",""
"","699.9999999534339","sequential-stimulus-presentation","159","2697235","0.0-32.0-1.3","SS1613123127108","trial","","40","800","1499.9999999534339","images/stimuli/spore_stims/complex_15_A_b.gif","images/stimuli/spore_stims/complex_05_A_c.gif","","","","","8","complex_dissimilar","images/stimuli/spore_stims/complex_05_A_c.gif","middle","","","","",""
"","null","html-keyboard-response","160","2698437","0.0-32.0-0.4","SS1613123127108","","","null","","","","","<p><img src= images/blank.png width =""200"" height = ""200"" style = ""float:right""></p><p><img src=images/blank.png width =""800"" height = ""200""></p>","","","","","","","","","","","",""
"","157.00000000651926","sequential-stimulus-presentation","161","2699433","0.0-32.0-1.4","SS1613123127108","trial","","40","800","957.0000000065193","images/stimuli/spore_stims/complex_15_A_b.gif","images/stimuli/spore_stims/complex_05_A_c.gif","","","","","8","complex_dissimilar","images/stimuli/spore_stims/complex_05_A_c.gif","middle","","","","",""
"","null","html-keyboard-response","162","2700368","0.0-32.0-0.5","SS1613123127108","","","null","","","","","<p><img src= images/blank.png width =""200"" height = ""200"" style = ""float:right""></p><p><img src=images/blank.png width =""800"" height = ""200""></p>","","","","","","","","","","","",""
"","309.99999993946403","sequential-stimulus-presentation","163","2701537","0.0-32.0-1.5","SS1613123127108","trial","","40","800","1109.999999939464","images/stimuli/spore_stims/complex_15_A_b.gif","images/stimuli/spore_stims/complex_05_A_c.gif","","","","","8","complex_dissimilar","images/stimuli/spore_stims/complex_05_A_c.gif","middle","","","","",""
"","null","html-keyboard-response","164","2702843","0.0-32.0-0.6","SS1613123127108","","","null","","","","","<p><img src= images/blank.png width =""200"" height = ""200"" style = ""float:right""></p><p><img src=images/blank.png width =""800"" height = ""200""></p>","","","","","","","","","","","",""
"","1121.999999973923","sequential-stimulus-presentation","165","2704791","0.0-32.0-1.6","SS1613123127108","trial","","40","800","1921.999999973923","images/stimuli/spore_stims/complex_15_A_b.gif","images/stimuli/spore_stims/complex_05_A_c.gif","","","","","8","complex_dissimilar","images/stimuli/spore_stims/complex_05_A_c.gif","middle","","","","",""
"","null","html-keyboard-response","166","2705823","0.0-32.0-0.7","SS1613123127108","","","null","","","","","<p><img src= images/blank.png width =""200"" height = ""200"" style = ""float:right""></p><p><img src=images/blank.png width =""800"" height = ""200""></p>","","","","","","","","","","","",""
"","184.99999993946403","sequential-stimulus-presentation","167","2706829","0.0-32.0-1.7","SS1613123127108","trial","","40","800","984.999999939464","images/stimuli/spore_stims/complex_15_A_b.gif","images/stimuli/spore_stims/complex_05_A_c.gif","","","","","8","complex_dissimilar","images/stimuli/spore_stims/complex_05_A_c.gif","middle","","","","",""
"","2988.9999999431893","html-keyboard-response","168","2709839","0.0-33.0","SS1613123127108","pref_question","","51","","","","","<video width ='960' height = '540' style='padding-top:8%' autoplay muted><source src='images/stimuli/wall_pref.mp4' type='video/mp4'></video>","3","right","66%","8","","","","","","","",""
"","568.9999999012798","sequential-stimulus-presentation","169","2711230","0.0-34.0","SS1613123127108","pref_reveal","","40","800","1368.9999999012798","null","null","","","","","8","","","","novel","","","",""
"","null","html-keyboard-response","170","2712254","0.0-35.0-0.0","SS1613123127108","","","null","","","","","<p><img src= images/blank.png width =""200"" height = ""200"" style = ""float:right""></p><p><img src=images/blank.png width =""800"" height = ""200""></p>","","","","","","","","","","","",""
"","479.99999998137355","sequential-stimulus-presentation","171","2713577","0.0-35.0-1.0","SS1613123127108","trial","","40","800","1279.9999999813735","images/stimuli/spore_stims/simple_17_B_c.gif","images/stimuli/spore_stims/simple_17_A_c.gif","","","","","9","simple_similar","images/stimuli/spore_stims/simple_17_A_c.gif","middle","","","","",""
"","null","html-keyboard-response","172","2714500","0.0-35.0-0.1","SS1613123127108","","","null","","","","","<p><img src= images/blank.png width =""200"" height = ""200"" style = ""float:right""></p><p><img src=images/blank.png width =""800"" height = ""200""></p>","","","","","","","","","","","",""
"","2552.0000000251457","sequential-stimulus-presentation","173","2717878","0.0-35.0-1.1","SS1613123127108","trial","","40","800","3352.0000000251457","images/stimuli/spore_stims/simple_17_B_c.gif","images/stimuli/spore_stims/simple_17_A_c.gif","","","","","9","simple_similar","images/stimuli/spore_stims/simple_17_A_c.gif","middle","","","","",""
"","null","html-keyboard-response","174","2718914","0.0-35.0-0.2","SS1613123127108","","","null","","","","","<p><img src= images/blank.png width =""200"" height = ""200"" style = ""float:right""></p><p><img src=images/blank.png width =""800"" height = ""200""></p>","","","","","","","","","","","",""
"","9329.99999995809","sequential-stimulus-presentation","175","2729099","0.0-35.0-1.2","SS1613123127108","trial","","40","800","10129.99999995809","images/stimuli/spore_stims/simple_17_B_c.gif","images/stimuli/spore_stims/simple_17_A_c.gif","","","","","9","simple_similar","images/stimuli/spore_stims/simple_17_A_c.gif","middle","","","","",""
"","null","html-keyboard-response","176","2730390","0.0-35.0-0.3","SS1613123127108","","","null","","","","","<p><img src= images/blank.png width =""200"" height = ""200"" style = ""float:right""></p><p><img src=images/blank.png width =""800"" height = ""200""></p>","","","","","","","","","","","",""
"","353.00000000279397","sequential-stimulus-presentation","177","2731586","0.0-35.0-1.3","SS1613123127108","trial","","40","800","1153.000000002794","images/stimuli/spore_stims/simple_17_B_c.gif","images/stimuli/spore_stims/simple_17_A_c.gif","","","","","9","simple_similar","images/stimuli/spore_stims/simple_17_A_c.gif","middle","","","","",""
"","null","html-keyboard-response","178","2732800","0.0-35.0-0.4","SS1613123127108","","","null","","","","","<p><img src= images/blank.png width =""200"" height = ""200"" style = ""float:right""></p><p><img src=images/blank.png width =""800"" height = ""200""></p>","","","","","","","","","","","",""
"","274.00000009220093","sequential-stimulus-presentation","179","2733895","0.0-35.0-1.4","SS1613123127108","trial","","40","800","1074.000000092201","images/stimuli/spore_stims/simple_17_B_c.gif","images/stimuli/spore_stims/simple_17_A_c.gif","","","","","9","simple_similar","images/stimuli/spore_stims/simple_17_B_c.gif","right","","","","",""
"","null","html-keyboard-response","180","2734812","0.0-35.0-0.5","SS1613123127108","","","null","","","","","<p><img src= images/blank.png width =""200"" height = ""200"" style = ""float:right""></p><p><img src=images/blank.png width =""800"" height = ""200""></p>","","","","","","","","","","","",""
"","2910.9999999636784","sequential-stimulus-presentation","181","2738672","0.0-35.0-1.5","SS1613123127108","trial","","40","800","3710.9999999636784","images/stimuli/spore_stims/simple_17_B_c.gif","images/stimuli/spore_stims/simple_17_A_c.gif","","","","","9","simple_similar","images/stimuli/spore_stims/simple_17_A_c.gif","middle","","","","",""
"","null","html-keyboard-response","182","2739585","0.0-35.0-0.6","SS1613123127108","","","null","","","","","<p><img src= images/blank.png width =""200"" height = ""200"" style = ""float:right""></p><p><img src=images/blank.png width =""800"" height = ""200""></p>","","","","","","","","","","","",""
"","12699.000000022352","sequential-stimulus-presentation","183","2753157","0.0-35.0-1.6","SS1613123127108","trial","","40","800","13499.000000022352","images/stimuli/spore_stims/simple_17_B_c.gif","images/stimuli/spore_stims/simple_17_A_c.gif","","","","","9","simple_similar","images/stimuli/spore_stims/simple_17_A_c.gif","middle","","","","",""
"","null","html-keyboard-response","184","2754243","0.0-35.0-0.7","SS1613123127108","","","null","","","","","<p><img src= images/blank.png width =""200"" height = ""200"" style = ""float:right""></p><p><img src=images/blank.png width =""800"" height = ""200""></p>","","","","","","","","","","","",""
"","116.00000003818423","sequential-stimulus-presentation","185","2755212","0.0-35.0-1.7","SS1613123127108","trial","","40","800","916.0000000381842","images/stimuli/spore_stims/simple_17_B_c.gif","images/stimuli/spore_stims/simple_17_A_c.gif","","","","","9","simple_similar","images/stimuli/spore_stims/simple_17_A_c.gif","middle","","","","",""
"","18130.000000004657","html-keyboard-response","186","2773354","0.0-36.0","SS1613123127108","pref_question","","51","","","","","<video width ='960' height = '540' style='padding-top:8%' autoplay muted><source src='images/stimuli/wall_pref.mp4' type='video/mp4'></video>","3","right","66%","9","","","","","","","",""
"","880.0000000046566","sequential-stimulus-presentation","187","2775051","0.0-37.0","SS1613123127108","pref_reveal","","40","800","1680.0000000046566","null","null","","","","","9","","","","deviant","","","",""
"","null","html-keyboard-response","188","2776187","0.0-38.0-0.0","SS1613123127108","","","null","","","","","<p><img src= images/blank.png width =""200"" height = ""200"" style = ""float:right""></p><p><img src=images/blank.png width =""800"" height = ""200""></p>","","","","","","","","","","","",""
"","3461.9999999413267","sequential-stimulus-presentation","189","2780469","0.0-38.0-1.0","SS1613123127108","trial","","40","800","4261.999999941327","images/stimuli/spore_stims/complex_15_A_a.gif","images/stimuli/spore_stims/complex_15_B_a.gif","","","","","10","complex_similar","images/stimuli/spore_stims/complex_15_B_a.gif","middle","","","","",""
"","null","html-keyboard-response","190","2781303","0.0-38.0-0.1","SS1613123127108","","","null","","","","","<p><img src= images/blank.png width =""200"" height = ""200"" style = ""float:right""></p><p><img src=images/blank.png width =""800"" height = ""200""></p>","","","","","","","","","","","",""
"","299.9999999301508","sequential-stimulus-presentation","191","2782471","0.0-38.0-1.1","SS1613123127108","trial","","40","800","1099.9999999301508","images/stimuli/spore_stims/complex_15_A_a.gif","images/stimuli/spore_stims/complex_15_B_a.gif","","","","","10","complex_similar","images/stimuli/spore_stims/complex_15_B_a.gif","middle","","","","",""
"","null","html-keyboard-response","192","2783731","0.0-38.0-0.2","SS1613123127108","","","null","","","","","<p><img src= images/blank.png width =""200"" height = ""200"" style = ""float:right""></p><p><img src=images/blank.png width =""800"" height = ""200""></p>","","","","","","","","","","","",""
"","546.000000089407","sequential-stimulus-presentation","193","2785089","0.0-38.0-1.2","SS1613123127108","trial","","40","800","1346.000000089407","images/stimuli/spore_stims/complex_15_A_a.gif","images/stimuli/spore_stims/complex_15_B_a.gif","","","","","10","complex_similar","images/stimuli/spore_stims/complex_15_B_a.gif","middle","","","","",""
"","null","html-keyboard-response","194","2786293","0.0-38.0-0.3","SS1613123127108","","","null","","","","","<p><img src= images/blank.png width =""200"" height = ""200"" style = ""float:right""></p><p><img src=images/blank.png width =""800"" height = ""200""></p>","","","","","","","","","","","",""
"","1513.9999999664724","sequential-stimulus-presentation","195","2788659","0.0-38.0-1.3","SS1613123127108","trial","","40","800","2313.9999999664724","images/stimuli/spore_stims/complex_15_A_a.gif","images/stimuli/spore_stims/complex_15_B_a.gif","","","","","10","complex_similar","images/stimuli/spore_stims/complex_15_B_a.gif","middle","","","","",""
"","null","html-keyboard-response","196","2789816","0.0-38.0-0.4","SS1613123127108","","","null","","","","","<p><img src= images/blank.png width =""200"" height = ""200"" style = ""float:right""></p><p><img src=images/blank.png width =""800"" height = ""200""></p>","","","","","","","","","","","",""
"","284.00000010151416","sequential-stimulus-presentation","197","2790921","0.0-38.0-1.4","SS1613123127108","trial","","40","800","1084.0000001015142","images/stimuli/spore_stims/complex_15_A_a.gif","images/stimuli/spore_stims/complex_15_B_a.gif","","","","","10","complex_similar","images/stimuli/spore_stims/complex_15_B_a.gif","middle","","","","",""
"","null","html-keyboard-response","198","2792023","0.0-38.0-0.5","SS1613123127108","","","null","","","","","<p><img src= images/blank.png width =""200"" height = ""200"" style = ""float:right""></p><p><img src=images/blank.png width =""800"" height = ""200""></p>","","","","","","","","","","","",""
"","596.0000000195578","sequential-stimulus-presentation","199","2793436","0.0-38.0-1.5","SS1613123127108","trial","","40","800","1396.0000000195578","images/stimuli/spore_stims/complex_15_A_a.gif","images/stimuli/spore_stims/complex_15_B_a.gif","","","","","10","complex_similar","images/stimuli/spore_stims/complex_15_B_a.gif","middle","","","","",""
"","null","html-keyboard-response","200","2794725","0.0-38.0-0.6","SS1613123127108","","","null","","","","","<p><img src= images/blank.png width =""200"" height = ""200"" style = ""float:right""></p><p><img src=images/blank.png width =""800"" height = ""200""></p>","","","","","","","","","","","",""
"","1770.0000000186265","sequential-stimulus-presentation","201","2797309","0.0-38.0-1.6","SS1613123127108","trial","","40","800","2570.0000000186265","images/stimuli/spore_stims/complex_15_A_a.gif","images/stimuli/spore_stims/complex_15_B_a.gif","","","","","10","complex_similar","images/stimuli/spore_stims/complex_15_A_a.gif","right","","","","",""
"","null","html-keyboard-response","202","2798191","0.0-38.0-0.7","SS1613123127108","","","null","","","","","<p><img src= images/blank.png width =""200"" height = ""200"" style = ""float:right""></p><p><img src=images/blank.png width =""800"" height = ""200""></p>","","","","","","","","","","","",""
"","111.00000003352761","sequential-stimulus-presentation","203","2799123","0.0-38.0-1.7","SS1613123127108","trial","","40","800","911.0000000335276","images/stimuli/spore_stims/complex_15_A_a.gif","images/stimuli/spore_stims/complex_15_B_a.gif","","","","","10","complex_similar","images/stimuli/spore_stims/complex_15_B_a.gif","middle","","","","",""
"","2339.0000000363216","html-keyboard-response","204","2801475","0.0-39.0","SS1613123127108","pref_question","","51","","","","","<video width ='960' height = '540' style='padding-top:8%' autoplay muted><source src='images/stimuli/wall_pref.mp4' type='video/mp4'></video>","3","right","66%","10","","","","","","","",""
"","1384920.000000042","sequential-stimulus-presentation","205","4187212","0.0-40.0","SS1613123127108","pref_reveal","","40","800","1385720.000000042","null","null","","","","","10","","","","deviant","","","",""
"","null","html-keyboard-response","206","4188337","0.0-41.0-0.0","SS1613123127108","","","null","","","","","<p><img src= images/blank.png width =""200"" height = ""200"" style = ""float:right""></p><p><img src=images/blank.png width =""800"" height = ""200""></p>","","","","","","","","","","","",""
"","930.0000000512227","sequential-stimulus-presentation","207","4190099","0.0-41.0-1.0","SS1613123127108","trial","","40","800","1730.0000000512227","images/stimuli/spore_stims/complex_01_A_b.gif","images/stimuli/spore_stims/complex_18_A_d.gif","","","","","11","complex_dissimilar","images/stimuli/spore_stims/complex_18_A_d.gif","right","","","","",""
"","null","html-keyboard-response","208","4191033","0.0-41.0-0.1","SS1613123127108","","","null","","","","","<p><img src= images/blank.png width =""200"" height = ""200"" style = ""float:right""></p><p><img src=images/blank.png width =""800"" height = ""200""></p>","","","","","","","","","","","",""
"","168.99999999441206","sequential-stimulus-presentation","209","4192034","0.0-41.0-1.1","SS1613123127108","trial","","40","800","968.9999999944121","images/stimuli/spore_stims/complex_01_A_b.gif","images/stimuli/spore_stims/complex_18_A_d.gif","","","","","11","complex_dissimilar","images/stimuli/spore_stims/complex_18_A_d.gif","right","","","","",""
"","null","html-keyboard-response","210","4193308","0.0-41.0-0.2","SS1613123127108","","","null","","","","","<p><img src= images/blank.png width =""200"" height = ""200"" style = ""float:right""></p><p><img src=images/blank.png width =""800"" height = ""200""></p>","","","","","","","","","","","",""
"","871.999999973923","sequential-stimulus-presentation","211","4195016","0.0-41.0-1.2","SS1613123127108","trial","","40","800","1671.999999973923","images/stimuli/spore_stims/complex_01_A_b.gif","images/stimuli/spore_stims/complex_18_A_d.gif","","","","","11","complex_dissimilar","images/stimuli/spore_stims/complex_01_A_b.gif","middle","","","","",""
"","null","html-keyboard-response","212","4195965","0.0-41.0-0.3","SS1613123127108","","","null","","","","","<p><img src= images/blank.png width =""200"" height = ""200"" style = ""float:right""></p><p><img src=images/blank.png width =""800"" height = ""200""></p>","","","","","","","","","","","",""
"","324.00000002235174","sequential-stimulus-presentation","213","4197111","0.0-41.0-1.3","SS1613123127108","trial","","40","800","1124.0000000223517","images/stimuli/spore_stims/complex_01_A_b.gif","images/stimuli/spore_stims/complex_18_A_d.gif","","","","","11","complex_dissimilar","images/stimuli/spore_stims/complex_18_A_d.gif","right","","","","",""
"","null","html-keyboard-response","214","4198266","0.0-41.0-0.4","SS1613123127108","","","null","","","","","<p><img src= images/blank.png width =""200"" height = ""200"" style = ""float:right""></p><p><img src=images/blank.png width =""800"" height = ""200""></p>","","","","","","","","","","","",""
"","2055.999999982305","sequential-stimulus-presentation","215","4201140","0.0-41.0-1.4","SS1613123127108","trial","","40","800","2855.999999982305","images/stimuli/spore_stims/complex_01_A_b.gif","images/stimuli/spore_stims/complex_18_A_d.gif","","","","","11","complex_dissimilar","images/stimuli/spore_stims/complex_18_A_d.gif","right","","","","",""
"","null","html-keyboard-response","216","4202007","0.0-41.0-0.5","SS1613123127108","","","null","","","","","<p><img src= images/blank.png width =""200"" height = ""200"" style = ""float:right""></p><p><img src=images/blank.png width =""800"" height = ""200""></p>","","","","","","","","","","","",""
"","733.0000000074506","sequential-stimulus-presentation","217","4203563","0.0-41.0-1.5","SS1613123127108","trial","","40","800","1533.0000000074506","images/stimuli/spore_stims/complex_01_A_b.gif","images/stimuli/spore_stims/complex_18_A_d.gif","","","","","11","complex_dissimilar","images/stimuli/spore_stims/complex_18_A_d.gif","right","","","","",""
"","null","html-keyboard-response","218","4204442","0.0-41.0-0.6","SS1613123127108","","","null","","","","","<p><img src= images/blank.png width =""200"" height = ""200"" style = ""float:right""></p><p><img src=images/blank.png width =""800"" height = ""200""></p>","","","","","","","","","","","",""
"","1739.9999999906868","sequential-stimulus-presentation","219","4207011","0.0-41.0-1.6","SS1613123127108","trial","","40","800","2539.999999990687","images/stimuli/spore_stims/complex_01_A_b.gif","images/stimuli/spore_stims/complex_18_A_d.gif","","","","","11","complex_dissimilar","images/stimuli/spore_stims/complex_18_A_d.gif","right","","","","",""
"","null","html-keyboard-response","220","4208098","0.0-41.0-0.7","SS1613123127108","","","null","","","","","<p><img src= images/blank.png width =""200"" height = ""200"" style = ""float:right""></p><p><img src=images/blank.png width =""800"" height = ""200""></p>","","","","","","","","","","","",""
"","1167.0000000158325","sequential-stimulus-presentation","221","4210094","0.0-41.0-1.7","SS1613123127108","trial","","40","800","1967.0000000158325","images/stimuli/spore_stims/complex_01_A_b.gif","images/stimuli/spore_stims/complex_18_A_d.gif","","","","","11","complex_dissimilar","images/stimuli/spore_stims/complex_18_A_d.gif","right","","","","",""
"","6226.9999999552965","html-keyboard-response","222","4216341","0.0-42.0","SS1613123127108","pref_question","","51","","","","","<video width ='960' height = '540' style='padding-top:8%' autoplay muted><source src='images/stimuli/wall_pref.mp4' type='video/mp4'></video>","3","right","66%","11","","","","","","","",""
"","4042.0000000158325","sequential-stimulus-presentation","223","4221198","0.0-43.0","SS1613123127108","pref_reveal","","40","800","4842.0000000158325","null","null","","","","","11","","","","background","","","",""
"","null","html-keyboard-response","224","4222333","0.0-44.0-0.0","SS1613123127108","","","null","","","","","<p><img src= images/blank.png width =""200"" height = ""200"" style = ""float:right""></p><p><img src=images/blank.png width =""800"" height = ""200""></p>","","","","","","","","","","","",""
"","138.9999999664724","sequential-stimulus-presentation","225","4223533","0.0-44.0-1.0","SS1613123127108","trial","","40","800","938.9999999664724","images/stimuli/spore_stims/complex_12_B_d.gif","images/stimuli/spore_stims/complex_12_A_d.gif","","","","","12","complex_similar","images/stimuli/spore_stims/complex_12_A_d.gif","right","","","","",""
"","null","html-keyboard-response","226","4224351","0.0-44.0-0.1","SS1613123127108","","","null","","","","","<p><img src= images/blank.png width =""200"" height = ""200"" style = ""float:right""></p><p><img src=images/blank.png width =""800"" height = ""200""></p>","","","","","","","","","","","",""
"","131.00000005215406","sequential-stimulus-presentation","227","4225350","0.0-44.0-1.1","SS1613123127108","trial","","40","800","931.0000000521541","images/stimuli/spore_stims/complex_12_B_d.gif","images/stimuli/spore_stims/complex_12_A_d.gif","","","","","12","complex_similar","images/stimuli/spore_stims/complex_12_A_d.gif","right","","","","",""
"","null","html-keyboard-response","228","4226625","0.0-44.0-0.2","SS1613123127108","","","null","","","","","<p><img src= images/blank.png width =""200"" height = ""200"" style = ""float:right""></p><p><img src=images/blank.png width =""800"" height = ""200""></p>","","","","","","","","","","","",""
"","261273.0000000447","sequential-stimulus-presentation","229","4488774","0.0-44.0-1.2","SS1613123127108","trial","","40","800","262073.0000000447","images/stimuli/spore_stims/complex_12_B_d.gif","images/stimuli/spore_stims/complex_12_A_d.gif","","","","","12","complex_similar","images/stimuli/spore_stims/complex_12_B_d.gif","left","","","","",""
"","null","html-keyboard-response","230","4489750","0.0-44.0-0.3","SS1613123127108","","","null","","","","","<p><img src= images/blank.png width =""200"" height = ""200"" style = ""float:right""></p><p><img src=images/blank.png width =""800"" height = ""200""></p>","","","","","","","","","","","",""
"","89.00000003632158","sequential-stimulus-presentation","231","4490658","0.0-44.0-1.3","SS1613123127108","trial","","40","800","889.0000000363216","images/stimuli/spore_stims/complex_12_B_d.gif","images/stimuli/spore_stims/complex_12_A_d.gif","","","","","12","complex_similar","images/stimuli/spore_stims/complex_12_A_d.gif","right","","","","",""
"","null","html-keyboard-response","232","4491772","0.0-44.0-0.4","SS1613123127108","","","null","","","","","<p><img src= images/blank.png width =""200"" height = ""200"" style = ""float:right""></p><p><img src=images/blank.png width =""800"" height = ""200""></p>","","","","","","","","","","","",""
"","690.000000060536","sequential-stimulus-presentation","233","4493281","0.0-44.0-1.4","SS1613123127108","trial","","40","800","1490.000000060536","images/stimuli/spore_stims/complex_12_B_d.gif","images/stimuli/spore_stims/complex_12_A_d.gif","","","","","12","complex_similar","images/stimuli/spore_stims/complex_12_A_d.gif","right","","","","",""
"","null","html-keyboard-response","234","4494480","0.0-44.0-0.5","SS1613123127108","","","null","","","","","<p><img src= images/blank.png width =""200"" height = ""200"" style = ""float:right""></p><p><img src=images/blank.png width =""800"" height = ""200""></p>","","","","","","","","","","","",""
"","673.0000000679865","sequential-stimulus-presentation","235","4495967","0.0-44.0-1.5","SS1613123127108","trial","","40","800","1473.0000000679865","images/stimuli/spore_stims/complex_12_B_d.gif","images/stimuli/spore_stims/complex_12_A_d.gif","","","","","12","complex_similar","images/stimuli/spore_stims/complex_12_A_d.gif","right","","","","",""
"","null","html-keyboard-response","236","4496841","0.0-44.0-0.6","SS1613123127108","","","null","","","","","<p><img src= images/blank.png width =""200"" height = ""200"" style = ""float:right""></p><p><img src=images/blank.png width =""800"" height = ""200""></p>","","","","","","","","","","","",""
"","104.00000005029142","sequential-stimulus-presentation","237","4497764","0.0-44.0-1.6","SS1613123127108","trial","","40","800","904.0000000502914","images/stimuli/spore_stims/complex_12_B_d.gif","images/stimuli/spore_stims/complex_12_A_d.gif","","","","","12","complex_similar","images/stimuli/spore_stims/complex_12_A_d.gif","right","","","","",""
"","null","html-keyboard-response","238","4498807","0.0-44.0-0.7","SS1613123127108","","","null","","","","","<p><img src= images/blank.png width =""200"" height = ""200"" style = ""float:right""></p><p><img src=images/blank.png width =""800"" height = ""200""></p>","","","","","","","","","","","",""
"","110.99999991711229","sequential-stimulus-presentation","239","4499765","0.0-44.0-1.7","SS1613123127108","trial","","40","800","910.9999999171123","images/stimuli/spore_stims/complex_12_B_d.gif","images/stimuli/spore_stims/complex_12_A_d.gif","","","","","12","complex_similar","images/stimuli/spore_stims/complex_12_A_d.gif","right","","","","",""
"","3560.9999999869615","html-keyboard-response","240","4503364","0.0-45.0","SS1613123127108","pref_question","","50","","","","","<video width ='960' height = '540' style='padding-top:8%' autoplay muted><source src='images/stimuli/wall_pref.mp4' type='video/mp4'></video>","2","middle","45%","12","","","","","","","",""
"","475.00000009313226","sequential-stimulus-presentation","241","4504683","0.0-46.0","SS1613123127108","pref_reveal","","40","800","1275.0000000931323","null","null","","","","","12","","","","novel","","","",""
"","null","html-keyboard-response","242","4505783","0.0-47.0-0.0","SS1613123127108","","","null","","","","","<p><img src= images/blank.png width =""200"" height = ""200"" style = ""float:right""></p><p><img src=images/blank.png width =""800"" height = ""200""></p>","","","","","","","","","","","",""
"","959.9999999627471","sequential-stimulus-presentation","243","4507559","0.0-47.0-1.0","SS1613123127108","trial","","40","800","1759.999999962747","images/stimuli/spore_stims/complex_20_A_b.gif","images/stimuli/spore_stims/complex_10_B_d.gif","","","","","13","complex_dissimilar","images/stimuli/spore_stims/complex_10_B_d.gif","left","","","","",""
"","null","html-keyboard-response","244","4508376","0.0-47.0-0.1","SS1613123127108","","","null","","","","","<p><img src= images/blank.png width =""200"" height = ""200"" style = ""float:right""></p><p><img src=images/blank.png width =""800"" height = ""200""></p>","","","","","","","","","","","",""
"","2258.999999961816","sequential-stimulus-presentation","245","4511480","0.0-47.0-1.1","SS1613123127108","trial","","40","800","3058.999999961816","images/stimuli/spore_stims/complex_20_A_b.gif","images/stimuli/spore_stims/complex_10_B_d.gif","","","","","13","complex_dissimilar","images/stimuli/spore_stims/complex_10_B_d.gif","left","","","","",""
"","null","html-keyboard-response","246","4512454","0.0-47.0-0.2","SS1613123127108","","","null","","","","","<p><img src= images/blank.png width =""200"" height = ""200"" style = ""float:right""></p><p><img src=images/blank.png width =""800"" height = ""200""></p>","","","","","","","","","","","",""
"","4783.999999985099","sequential-stimulus-presentation","247","4518092","0.0-47.0-1.2","SS1613123127108","trial","","40","800","5583.999999985099","images/stimuli/spore_stims/complex_20_A_b.gif","images/stimuli/spore_stims/complex_10_B_d.gif","","","","","13","complex_dissimilar","images/stimuli/spore_stims/complex_10_B_d.gif","left","","","","",""
"","null","html-keyboard-response","248","4518914","0.0-47.0-0.3","SS1613123127108","","","null","","","","","<p><img src= images/blank.png width =""200"" height = ""200"" style = ""float:right""></p><p><img src=images/blank.png width =""800"" height = ""200""></p>","","","","","","","","","","","",""
"","1369.0000000642613","sequential-stimulus-presentation","249","4521104","0.0-47.0-1.3","SS1613123127108","trial","","40","800","2169.0000000642613","images/stimuli/spore_stims/complex_20_A_b.gif","images/stimuli/spore_stims/complex_10_B_d.gif","","","","","13","complex_dissimilar","images/stimuli/spore_stims/complex_10_B_d.gif","left","","","","",""
"","null","html-keyboard-response","250","4522215","0.0-47.0-0.4","SS1613123127108","","","null","","","","","<p><img src= images/blank.png width =""200"" height = ""200"" style = ""float:right""></p><p><img src=images/blank.png width =""800"" height = ""200""></p>","","","","","","","","","","","",""
"","711.0000000102445","sequential-stimulus-presentation","251","4523796","0.0-47.0-1.4","SS1613123127108","trial","","40","800","1511.0000000102445","images/stimuli/spore_stims/complex_20_A_b.gif","images/stimuli/spore_stims/complex_10_B_d.gif","","","","","13","complex_dissimilar","images/stimuli/spore_stims/complex_10_B_d.gif","left","","","","",""
"","null","html-keyboard-response","252","4524741","0.0-47.0-0.5","SS1613123127108","","","null","","","","","<p><img src= images/blank.png width =""200"" height = ""200"" style = ""float:right""></p><p><img src=images/blank.png width =""800"" height = ""200""></p>","","","","","","","","","","","",""
"","1998.0000000214204","sequential-stimulus-presentation","253","4527560","0.0-47.0-1.5","SS1613123127108","trial","","40","800","2798.0000000214204","images/stimuli/spore_stims/complex_20_A_b.gif","images/stimuli/spore_stims/complex_10_B_d.gif","","","","","13","complex_dissimilar","images/stimuli/spore_stims/complex_10_B_d.gif","left","","","","",""
"","null","html-keyboard-response","254","4528630","0.0-47.0-0.6","SS1613123127108","","","null","","","","","<p><img src= images/blank.png width =""200"" height = ""200"" style = ""float:right""></p><p><img src=images/blank.png width =""800"" height = ""200""></p>","","","","","","","","","","","",""
"","114.99999999068677","sequential-stimulus-presentation","255","4529568","0.0-47.0-1.6","SS1613123127108","trial","","40","800","914.9999999906868","images/stimuli/spore_stims/complex_20_A_b.gif","images/stimuli/spore_stims/complex_10_B_d.gif","","","","","13","complex_dissimilar","images/stimuli/spore_stims/complex_10_B_d.gif","left","","","","",""
"","null","html-keyboard-response","256","4530599","0.0-47.0-0.7","SS1613123127108","","","null","","","","","<p><img src= images/blank.png width =""200"" height = ""200"" style = ""float:right""></p><p><img src=images/blank.png width =""800"" height = ""200""></p>","","","","","","","","","","","",""
"","251.00000004749745","sequential-stimulus-presentation","257","4531668","0.0-47.0-1.7","SS1613123127108","trial","","40","800","1051.0000000474975","images/stimuli/spore_stims/complex_20_A_b.gif","images/stimuli/spore_stims/complex_10_B_d.gif","","","","","13","complex_dissimilar","images/stimuli/spore_stims/complex_20_A_b.gif","right","","","","",""
"","3097.9999999981374","html-keyboard-response","258","4534784","0.0-48.0","SS1613123127108","pref_question","","49","","","","","<video width ='960' height = '540' style='padding-top:8%' autoplay muted><source src='images/stimuli/wall_pref.mp4' type='video/mp4'></video>","1","left","25%","13","","","","","","","",""
"","1079.9999999580905","sequential-stimulus-presentation","259","4536680","0.0-49.0","SS1613123127108","pref_reveal","","40","800","1879.9999999580905","null","null","","","","","13","","","","background","","","",""
"","null","html-keyboard-response","260","4537835","0.0-50.0-0.0","SS1613123127108","","","null","","","","","<p><img src= images/blank.png width =""200"" height = ""200"" style = ""float:right""></p><p><img src=images/blank.png width =""800"" height = ""200""></p>","","","","","","","","","","","",""
"","446.99999992735684","sequential-stimulus-presentation","261","4539101","0.0-50.0-1.0","SS1613123127108","trial","","40","800","1246.9999999273568","images/stimuli/spore_stims/complex_13_A_d.gif","images/stimuli/spore_stims/complex_13_B_d.gif","","","","","14","complex_similar","images/stimuli/spore_stims/complex_13_B_d.gif","middle","","","","",""
"","null","html-keyboard-response","262","4540234","0.0-50.0-0.1","SS1613123127108","","","null","","","","","<p><img src= images/blank.png width =""200"" height = ""200"" style = ""float:right""></p><p><img src=images/blank.png width =""800"" height = ""200""></p>","","","","","","","","","","","",""
"","272.99999992828816","sequential-stimulus-presentation","263","4541328","0.0-50.0-1.1","SS1613123127108","trial","","40","800","1072.9999999282882","images/stimuli/spore_stims/complex_13_A_d.gif","images/stimuli/spore_stims/complex_13_B_d.gif","","","","","14","complex_similar","images/stimuli/spore_stims/complex_13_B_d.gif","middle","","","","",""
"","null","html-keyboard-response","264","4542168","0.0-50.0-0.2","SS1613123127108","","","null","","","","","<p><img src= images/blank.png width =""200"" height = ""200"" style = ""float:right""></p><p><img src=images/blank.png width =""800"" height = ""200""></p>","","","","","","","","","","","",""
"","53.00000007264316","sequential-stimulus-presentation","265","4543036","0.0-50.0-1.2","SS1613123127108","trial","","40","800","853.0000000726432","images/stimuli/spore_stims/complex_13_A_d.gif","images/stimuli/spore_stims/complex_13_B_d.gif","","","","","14","complex_similar","images/stimuli/spore_stims/complex_13_B_d.gif","middle","","","","",""
"","null","html-keyboard-response","266","4544153","0.0-50.0-0.3","SS1613123127108","","","null","","","","","<p><img src= images/blank.png width =""200"" height = ""200"" style = ""float:right""></p><p><img src=images/blank.png width =""800"" height = ""200""></p>","","","","","","","","","","","",""
"","499.00000006891787","sequential-stimulus-presentation","267","4545533","0.0-50.0-1.3","SS1613123127108","trial","","40","800","1299.0000000689179","images/stimuli/spore_stims/complex_13_A_d.gif","images/stimuli/spore_stims/complex_13_B_d.gif","","","","","14","complex_similar","images/stimuli/spore_stims/complex_13_B_d.gif","middle","","","","",""
"","null","html-keyboard-response","268","4546526","0.0-50.0-0.4","SS1613123127108","","","null","","","","","<p><img src= images/blank.png width =""200"" height = ""200"" style = ""float:right""></p><p><img src=images/blank.png width =""800"" height = ""200""></p>","","","","","","","","","","","",""
"","755.9999999357387","sequential-stimulus-presentation","269","4548114","0.0-50.0-1.4","SS1613123127108","trial","","40","800","1555.9999999357387","images/stimuli/spore_stims/complex_13_A_d.gif","images/stimuli/spore_stims/complex_13_B_d.gif","","","","","14","complex_similar","images/stimuli/spore_stims/complex_13_B_d.gif","middle","","","","",""
"","null","html-keyboard-response","270","4549016","0.0-50.0-0.5","SS1613123127108","","","null","","","","","<p><img src= images/blank.png width =""200"" height = ""200"" style = ""float:right""></p><p><img src=images/blank.png width =""800"" height = ""200""></p>","","","","","","","","","","","",""
"","1234.9999999860302","sequential-stimulus-presentation","271","4551070","0.0-50.0-1.5","SS1613123127108","trial","","40","800","2034.9999999860302","images/stimuli/spore_stims/complex_13_A_d.gif","images/stimuli/spore_stims/complex_13_B_d.gif","","","","","14","complex_similar","images/stimuli/spore_stims/complex_13_B_d.gif","middle","","","","",""
"","null","html-keyboard-response","272","4552034","0.0-50.0-0.6","SS1613123127108","","","null","","","","","<p><img src= images/blank.png width =""200"" height = ""200"" style = ""float:right""></p><p><img src=images/blank.png width =""800"" height = ""200""></p>","","","","","","","","","","","",""
"","421.00000008940697","sequential-stimulus-presentation","273","4553275","0.0-50.0-1.6","SS1613123127108","trial","","40","800","1221.000000089407","images/stimuli/spore_stims/complex_13_A_d.gif","images/stimuli/spore_stims/complex_13_B_d.gif","","","","","14","complex_similar","images/stimuli/spore_stims/complex_13_A_d.gif","right","","","","",""
"","null","html-keyboard-response","274","4554115","0.0-50.0-0.7","SS1613123127108","","","null","","","","","<p><img src= images/blank.png width =""200"" height = ""200"" style = ""float:right""></p><p><img src=images/blank.png width =""800"" height = ""200""></p>","","","","","","","","","","","",""
"","268.00000004004687","sequential-stimulus-presentation","275","4555218","0.0-50.0-1.7","SS1613123127108","trial","","40","800","1068.0000000400469","images/stimuli/spore_stims/complex_13_A_d.gif","images/stimuli/spore_stims/complex_13_B_d.gif","","","","","14","complex_similar","images/stimuli/spore_stims/complex_13_B_d.gif","middle","","","","",""
"","2797.000000020489","html-keyboard-response","276","4558031","0.0-51.0","SS1613123127108","pref_question","","51","","","","","<video width ='960' height = '540' style='padding-top:8%' autoplay muted><source src='images/stimuli/wall_pref.mp4' type='video/mp4'></video>","3","right","66%","14","","","","","","","",""
"","525.9999999543652","sequential-stimulus-presentation","277","4559407","0.0-52.0","SS1613123127108","pref_reveal","","40","800","1325.9999999543652","null","null","","","","","14","","","","deviant","","","",""
"","null","html-keyboard-response","278","4560292","0.0-53.0-0.0","SS1613123127108","","","null","","","","","<p><img src= images/blank.png width =""200"" height = ""200"" style = ""float:right""></p><p><img src=images/blank.png width =""800"" height = ""200""></p>","","","","","","","","","","","",""
"","109.99999998603016","sequential-stimulus-presentation","279","4561229","0.0-53.0-1.0","SS1613123127108","trial","","40","800","909.9999999860302","images/stimuli/spore_stims/complex_17_A_b.gif","images/stimuli/spore_stims/complex_17_B_b.gif","","","","","15","complex_similar","images/stimuli/spore_stims/complex_17_B_b.gif","middle","","","","",""
"","null","html-keyboard-response","280","4562132","0.0-53.0-0.1","SS1613123127108","","","null","","","","","<p><img src= images/blank.png width =""200"" height = ""200"" style = ""float:right""></p><p><img src=images/blank.png width =""800"" height = ""200""></p>","","","","","","","","","","","",""
"","782.0000000065193","sequential-stimulus-presentation","281","4563768","0.0-53.0-1.1","SS1613123127108","trial","","40","800","1582.0000000065193","images/stimuli/spore_stims/complex_17_A_b.gif","images/stimuli/spore_stims/complex_17_B_b.gif","","","","","15","complex_similar","images/stimuli/spore_stims/complex_17_B_b.gif","middle","","","","",""
"","null","html-keyboard-response","282","4565044","0.0-53.0-0.2","SS1613123127108","","","null","","","","","<p><img src= images/blank.png width =""200"" height = ""200"" style = ""float:right""></p><p><img src=images/blank.png width =""800"" height = ""200""></p>","","","","","","","","","","","",""
"","944.0000000176951","sequential-stimulus-presentation","283","4566819","0.0-53.0-1.2","SS1613123127108","trial","","40","800","1744.0000000176951","images/stimuli/spore_stims/complex_17_A_b.gif","images/stimuli/spore_stims/complex_17_B_b.gif","","","","","15","complex_similar","images/stimuli/spore_stims/complex_17_B_b.gif","middle","","","","",""
"","null","html-keyboard-response","284","4567736","0.0-53.0-0.3","SS1613123127108","","","null","","","","","<p><img src= images/blank.png width =""200"" height = ""200"" style = ""float:right""></p><p><img src=images/blank.png width =""800"" height = ""200""></p>","","","","","","","","","","","",""
"","223.99999992921948","sequential-stimulus-presentation","285","4568806","0.0-53.0-1.3","SS1613123127108","trial","","40","800","1023.9999999292195","images/stimuli/spore_stims/complex_17_A_b.gif","images/stimuli/spore_stims/complex_17_B_b.gif","","","","","15","complex_similar","images/stimuli/spore_stims/complex_17_A_b.gif","right","","","","",""
"","null","html-keyboard-response","286","4570063","0.0-53.0-0.4","SS1613123127108","","","null","","","","","<p><img src= images/blank.png width =""200"" height = ""200"" style = ""float:right""></p><p><img src=images/blank.png width =""800"" height = ""200""></p>","","","","","","","","","","","",""
"","45.000000041909516","sequential-stimulus-presentation","287","4570929","0.0-53.0-1.4","SS1613123127108","trial","","40","800","845.0000000419095","images/stimuli/spore_stims/complex_17_A_b.gif","images/stimuli/spore_stims/complex_17_B_b.gif","","","","","15","complex_similar","images/stimuli/spore_stims/complex_17_B_b.gif","middle","","","","",""
"","null","html-keyboard-response","288","4571754","0.0-53.0-0.5","SS1613123127108","","","null","","","","","<p><img src= images/blank.png width =""200"" height = ""200"" style = ""float:right""></p><p><img src=images/blank.png width =""800"" height = ""200""></p>","","","","","","","","","","","",""
"","74.99999995343387","sequential-stimulus-presentation","289","4572658","0.0-53.0-1.5","SS1613123127108","trial","","40","800","874.9999999534339","images/stimuli/spore_stims/complex_17_A_b.gif","images/stimuli/spore_stims/complex_17_B_b.gif","","","","","15","complex_similar","images/stimuli/spore_stims/complex_17_B_b.gif","middle","","","","",""
"","null","html-keyboard-response","290","4573935","0.0-53.0-0.6","SS1613123127108","","","null","","","","","<p><img src= images/blank.png width =""200"" height = ""200"" style = ""float:right""></p><p><img src=images/blank.png width =""800"" height = ""200""></p>","","","","","","","","","","","",""
"","474.0000000456348","sequential-stimulus-presentation","291","4575247","0.0-53.0-1.6","SS1613123127108","trial","","40","800","1274.0000000456348","images/stimuli/spore_stims/complex_17_A_b.gif","images/stimuli/spore_stims/complex_17_B_b.gif","","","","","15","complex_similar","images/stimuli/spore_stims/complex_17_B_b.gif","middle","","","","",""
"","null","html-keyboard-response","292","4576264","0.0-53.0-0.7","SS1613123127108","","","null","","","","","<p><img src= images/blank.png width =""200"" height = ""200"" style = ""float:right""></p><p><img src=images/blank.png width =""800"" height = ""200""></p>","","","","","","","","","","","",""
"","81.00000000558794","sequential-stimulus-presentation","293","4577231","0.0-53.0-1.7","SS1613123127108","trial","","40","800","881.0000000055879","images/stimuli/spore_stims/complex_17_A_b.gif","images/stimuli/spore_stims/complex_17_B_b.gif","","","","","15","complex_similar","images/stimuli/spore_stims/complex_17_B_b.gif","middle","","","","",""
"","2016.9999999925494","html-keyboard-response","294","4579276","0.0-54.0","SS1613123127108","pref_question","","50","","","","","<video width ='960' height = '540' style='padding-top:8%' autoplay muted><source src='images/stimuli/wall_pref.mp4' type='video/mp4'></video>","2","middle","45%","15","","","","","","","",""
"","496.99999997392297","sequential-stimulus-presentation","295","4580689","0.0-55.0","SS1613123127108","pref_reveal","","40","800","1296.999999973923","null","null","","","","","15","","","","background","","","",""
"","null","html-keyboard-response","296","4581543","0.0-56.0-0.0","SS1613123127108","","","null","","","","","<p><img src= images/blank.png width =""200"" height = ""200"" style = ""float:right""></p><p><img src=images/blank.png width =""800"" height = ""200""></p>","","","","","","","","","","","",""
"","1182.9999999608845","sequential-stimulus-presentation","297","4583588","0.0-56.0-1.0","SS1613123127108","trial","","40","800","1982.9999999608845","images/stimuli/spore_stims/simple_03_B_c.gif","images/stimuli/spore_stims/simple_14_B_c.gif","","","","","16","simple_dissimilar","images/stimuli/spore_stims/simple_14_B_c.gif","left","","","","",""
"","null","html-keyboard-response","298","4584719","0.0-56.0-0.1","SS1613123127108","","","null","","","","","<p><img src= images/blank.png width =""200"" height = ""200"" style = ""float:right""></p><p><img src=images/blank.png width =""800"" height = ""200""></p>","","","","","","","","","","","",""
"","1644.0000000875443","sequential-stimulus-presentation","299","4587197","0.0-56.0-1.1","SS1613123127108","trial","","40","800","2444.0000000875443","images/stimuli/spore_stims/simple_03_B_c.gif","images/stimuli/spore_stims/simple_14_B_c.gif","","","","","16","simple_dissimilar","images/stimuli/spore_stims/simple_14_B_c.gif","left","","","","",""
"","null","html-keyboard-response","300","4588450","0.0-56.0-0.2","SS1613123127108","","","null","","","","","<p><img src= images/blank.png width =""200"" height = ""200"" style = ""float:right""></p><p><img src=images/blank.png width =""800"" height = ""200""></p>","","","","","","","","","","","",""
"","315.9999999916181","sequential-stimulus-presentation","301","4589598","0.0-56.0-1.2","SS1613123127108","trial","","40","800","1115.999999991618","images/stimuli/spore_stims/simple_03_B_c.gif","images/stimuli/spore_stims/simple_14_B_c.gif","","","","","16","simple_dissimilar","images/stimuli/spore_stims/simple_14_B_c.gif","left","","","","",""
"","null","html-keyboard-response","302","4590579","0.0-56.0-0.3","SS1613123127108","","","null","","","","","<p><img src= images/blank.png width =""200"" height = ""200"" style = ""float:right""></p><p><img src=images/blank.png width =""800"" height = ""200""></p>","","","","","","","","","","","",""
"","243.99999994784594","sequential-stimulus-presentation","303","4591765","0.0-56.0-1.3","SS1613123127108","trial","","40","800","1043.999999947846","images/stimuli/spore_stims/simple_03_B_c.gif","images/stimuli/spore_stims/simple_14_B_c.gif","","","","","16","simple_dissimilar","images/stimuli/spore_stims/simple_14_B_c.gif","left","","","","",""
"","null","html-keyboard-response","304","4592688","0.0-56.0-0.4","SS1613123127108","","","null","","","","","<p><img src= images/blank.png width =""200"" height = ""200"" style = ""float:right""></p><p><img src=images/blank.png width =""800"" height = ""200""></p>","","","","","","","","","","","",""
"","966.0000000149012","sequential-stimulus-presentation","305","4594506","0.0-56.0-1.4","SS1613123127108","trial","","40","800","1766.0000000149012","images/stimuli/spore_stims/simple_03_B_c.gif","images/stimuli/spore_stims/simple_14_B_c.gif","","","","","16","simple_dissimilar","images/stimuli/spore_stims/simple_14_B_c.gif","left","","","","",""
"","null","html-keyboard-response","306","4595455","0.0-56.0-0.5","SS1613123127108","","","null","","","","","<p><img src= images/blank.png width =""200"" height = ""200"" style = ""float:right""></p><p><img src=images/blank.png width =""800"" height = ""200""></p>","","","","","","","","","","","",""
"","439.99999994412065","sequential-stimulus-presentation","307","4596756","0.0-56.0-1.5","SS1613123127108","trial","","40","800","1239.9999999441206","images/stimuli/spore_stims/simple_03_B_c.gif","images/stimuli/spore_stims/simple_14_B_c.gif","","","","","16","simple_dissimilar","images/stimuli/spore_stims/simple_14_B_c.gif","left","","","","",""
"","null","html-keyboard-response","308","4597877","0.0-56.0-0.6","SS1613123127108","","","null","","","","","<p><img src= images/blank.png width =""200"" height = ""200"" style = ""float:right""></p><p><img src=images/blank.png width =""800"" height = ""200""></p>","","","","","","","","","","","",""
"","94.0000000409782","sequential-stimulus-presentation","309","4598816","0.0-56.0-1.6","SS1613123127108","trial","","40","800","894.0000000409782","images/stimuli/spore_stims/simple_03_B_c.gif","images/stimuli/spore_stims/simple_14_B_c.gif","","","","","16","simple_dissimilar","images/stimuli/spore_stims/simple_14_B_c.gif","left","","","","",""
"","null","html-keyboard-response","310","4600067","0.0-56.0-0.7","SS1613123127108","","","null","","","","","<p><img src= images/blank.png width =""200"" height = ""200"" style = ""float:right""></p><p><img src=images/blank.png width =""800"" height = ""200""></p>","","","","","","","","","","","",""
