"view_history","rt","trial_type","trial_index","time_elapsed","internal_node_id","subject","stimulus_type","trial_stimulus","key_press","minimum_viewing_duration","trial_looking_time","block_deviant","block_background","stimulus","wall_pref","location","location_percent","block_number","block_type","stimulus_displayed","position_displayed","stim_type_selected","responses","question_order","stimulus_left","stimulus_right"
"[{""page_index"":0,""viewing_time"":22253.000000026077}]","22253.99999972433","instructions","0","22257","0.0-0.0","SS1613098704627","","","","","","","","","","","","","","","","","","","",""
"[{""page_index"":0,""viewing_time"":4205.000000074506},{""page_index"":1,""viewing_time"":5547.999999951571}]","9754.999999888241","instructions","1","34690","0.0-1.0","SS1613098704627","instructions","","","","","","","","","","","","","","","","","","",""
"","6236.000000033528","sequential-stimulus-presentation","2","41736","0.0-2.0","SS1613098704627","","","40","800","7036.000000033528","null","null","","","","","","","","","","","","",""
"","2594.000000040978","sequential-stimulus-presentation","3","45135","0.0-3.0","SS1613098704627","","","40","800","3394.000000040978","null","null","","","","","","","","","","","","",""
"[{""page_index"":0,""viewing_time"":1301.0000004433095}]","1302.000000141561","instructions","4","46438","0.0-4.0","SS1613098704627","instructions","","","","","","","","","","","","","","","","","","",""
"","3859.999999869615","html-keyboard-response","5","50306","0.0-5.0","SS1613098704627","instructions","","49","","","","","<video width ='960' height = '540' autoplay muted><source src='images/stimuli/wall_pref.mp4' type='video/mp4'></video>","1","left","25%","","","","","","","","",""
"","15106.999999843538","sequential-stimulus-presentation","6","66220","0.0-6.0","SS1613098704627","pref_reveal","","40","800","15906.999999843538","null","null","","","","","","","","","","","","",""
"[{""page_index"":0,""viewing_time"":3030.999999959022},{""page_index"":1,""viewing_time"":1253.000000026077},{""page_index"":2,""viewing_time"":1371.0000002756715},{""page_index"":3,""viewing_time"":905.9999999590218}]","6561.999999918044","instructions","7","72784","0.0-7.0","SS1613098704627","instructions","","","","","","","","","","","","","","","","","","",""
"","null","html-keyboard-response","8","74205","0.0-8.0-0.0","SS1613098704627","","","null","","","","","<p><img src= images/blank.png width =""200"" height = ""200"" style = ""float:right""></p><p><img src=images/blank.png width =""800"" height = ""200""></p>","","","","","","","","","","","",""
"","1149.9999999068677","sequential-stimulus-presentation","9","76165","0.0-8.0-1.0","SS1613098704627","trial","","40","800","1949.9999999068677","images/stimuli/spore_stims/simple_12_A_a.gif","images/stimuli/spore_stims/simple_10_A_b.gif","","","","","0","simple_dissimilar","images/stimuli/spore_stims/simple_10_A_b.gif","right","","","","",""
"","null","html-keyboard-response","10","77457","0.0-8.0-0.1","SS1613098704627","","","null","","","","","<p><img src= images/blank.png width =""200"" height = ""200"" style = ""float:right""></p><p><img src=images/blank.png width =""800"" height = ""200""></p>","","","","","","","","","","","",""
"","363.00000036135316","sequential-stimulus-presentation","11","78624","0.0-8.0-1.1","SS1613098704627","trial","","40","800","1163.0000003613532","images/stimuli/spore_stims/simple_12_A_a.gif","images/stimuli/spore_stims/simple_10_A_b.gif","","","","","0","simple_dissimilar","images/stimuli/spore_stims/simple_10_A_b.gif","right","","","","",""
"","null","html-keyboard-response","12","79569","0.0-8.0-0.2","SS1613098704627","","","null","","","","","<p><img src= images/blank.png width =""200"" height = ""200"" style = ""float:right""></p><p><img src=images/blank.png width =""800"" height = ""200""></p>","","","","","","","","","","","",""
"","401.999999769032","sequential-stimulus-presentation","13","80777","0.0-8.0-1.2","SS1613098704627","trial","","40","800","1201.999999769032","images/stimuli/spore_stims/simple_12_A_a.gif","images/stimuli/spore_stims/simple_10_A_b.gif","","","","","0","simple_dissimilar","images/stimuli/spore_stims/simple_10_A_b.gif","right","","","","",""
"","null","html-keyboard-response","14","81744","0.0-8.0-0.3","SS1613098704627","","","null","","","","","<p><img src= images/blank.png width =""200"" height = ""200"" style = ""float:right""></p><p><img src=images/blank.png width =""800"" height = ""200""></p>","","","","","","","","","","","",""
"","137.00000010430813","sequential-stimulus-presentation","15","82685","0.0-8.0-1.3","SS1613098704627","trial","","40","800","937.0000001043081","images/stimuli/spore_stims/simple_12_A_a.gif","images/stimuli/spore_stims/simple_10_A_b.gif","","","","","0","simple_dissimilar","images/stimuli/spore_stims/simple_10_A_b.gif","right","","","","",""
"","null","html-keyboard-response","16","83854","0.0-8.0-0.4","SS1613098704627","","","null","","","","","<p><img src= images/blank.png width =""200"" height = ""200"" style = ""float:right""></p><p><img src=images/blank.png width =""800"" height = ""200""></p>","","","","","","","","","","","",""
"","162.99999970942736","sequential-stimulus-presentation","17","84825","0.0-8.0-1.4","SS1613098704627","trial","","40","800","962.9999997094274","images/stimuli/spore_stims/simple_12_A_a.gif","images/stimuli/spore_stims/simple_10_A_b.gif","","","","","0","simple_dissimilar","images/stimuli/spore_stims/simple_10_A_b.gif","right","","","","",""
"","null","html-keyboard-response","18","85958","0.0-8.0-0.5","SS1613098704627","","","null","","","","","<p><img src= images/blank.png width =""200"" height = ""200"" style = ""float:right""></p><p><img src=images/blank.png width =""800"" height = ""200""></p>","","","","","","","","","","","",""
"","72.99999985843897","sequential-stimulus-presentation","19","86876","0.0-8.0-1.5","SS1613098704627","trial","","40","800","872.999999858439","images/stimuli/spore_stims/simple_12_A_a.gif","images/stimuli/spore_stims/simple_10_A_b.gif","","","","","0","simple_dissimilar","images/stimuli/spore_stims/simple_10_A_b.gif","right","","","","",""
"","null","html-keyboard-response","20","87697","0.0-8.0-0.6","SS1613098704627","","","null","","","","","<p><img src= images/blank.png width =""200"" height = ""200"" style = ""float:right""></p><p><img src=images/blank.png width =""800"" height = ""200""></p>","","","","","","","","","","","",""
"","86.99999982491136","sequential-stimulus-presentation","21","88598","0.0-8.0-1.6","SS1613098704627","trial","","40","800","886.9999998249114","images/stimuli/spore_stims/simple_12_A_a.gif","images/stimuli/spore_stims/simple_10_A_b.gif","","","","","0","simple_dissimilar","images/stimuli/spore_stims/simple_12_A_a.gif","middle","","","","",""
"","null","html-keyboard-response","22","89537","0.0-8.0-0.7","SS1613098704627","","","null","","","","","<p><img src= images/blank.png width =""200"" height = ""200"" style = ""float:right""></p><p><img src=images/blank.png width =""800"" height = ""200""></p>","","","","","","","","","","","",""
"","268.0000001564622","sequential-stimulus-presentation","23","90613","0.0-8.0-1.7","SS1613098704627","trial","","40","800","1068.0000001564622","images/stimuli/spore_stims/simple_12_A_a.gif","images/stimuli/spore_stims/simple_10_A_b.gif","","","","","0","simple_dissimilar","images/stimuli/spore_stims/simple_10_A_b.gif","right","","","","",""
"","89.99999985098839","html-keyboard-response","24","90707","0.0-9.0","SS1613098704627","pref_question","","49","","","","","<video width ='960' height = '540' style='padding-top:8%' autoplay muted><source src='images/stimuli/wall_pref.mp4' type='video/mp4'></video>","1","left","25%","0","","","","","","","",""
"","628.000000026077","sequential-stimulus-presentation","25","92142","0.0-10.0","SS1613098704627","pref_reveal","","40","800","1428.000000026077","null","null","","","","","0","","","","novel","","","",""
"","null","html-keyboard-response","26","93386","0.0-11.0-0.0","SS1613098704627","","","null","","","","","<p><img src= images/blank.png width =""200"" height = ""200"" style = ""float:right""></p><p><img src=images/blank.png width =""800"" height = ""200""></p>","","","","","","","","","","","",""
"","18.000000156462193","sequential-stimulus-presentation","27","94218","0.0-11.0-1.0","SS1613098704627","trial","","40","800","818.0000001564622","images/stimuli/spore_stims/simple_13_A_c.gif","images/stimuli/spore_stims/simple_13_B_c.gif","","","","","1","simple_similar","images/stimuli/spore_stims/simple_13_B_c.gif","middle","","","","",""
"","null","html-keyboard-response","28","95472","0.0-11.0-0.1","SS1613098704627","","","null","","","","","<p><img src= images/blank.png width =""200"" height = ""200"" style = ""float:right""></p><p><img src=images/blank.png width =""800"" height = ""200""></p>","","","","","","","","","","","",""
"","495.0000001117587","sequential-stimulus-presentation","29","96778","0.0-11.0-1.1","SS1613098704627","trial","","40","800","1295.0000001117587","images/stimuli/spore_stims/simple_13_A_c.gif","images/stimuli/spore_stims/simple_13_B_c.gif","","","","","1","simple_similar","images/stimuli/spore_stims/simple_13_B_c.gif","middle","","","","",""
"","null","html-keyboard-response","30","98046","0.0-11.0-0.2","SS1613098704627","","","null","","","","","<p><img src= images/blank.png width =""200"" height = ""200"" style = ""float:right""></p><p><img src=images/blank.png width =""800"" height = ""200""></p>","","","","","","","","","","","",""
"","381.00000005215406","sequential-stimulus-presentation","31","99233","0.0-11.0-1.2","SS1613098704627","trial","","40","800","1181.000000052154","images/stimuli/spore_stims/simple_13_A_c.gif","images/stimuli/spore_stims/simple_13_B_c.gif","","","","","1","simple_similar","images/stimuli/spore_stims/simple_13_B_c.gif","middle","","","","",""
"","null","html-keyboard-response","32","100187","0.0-11.0-0.3","SS1613098704627","","","null","","","","","<p><img src= images/blank.png width =""200"" height = ""200"" style = ""float:right""></p><p><img src=images/blank.png width =""800"" height = ""200""></p>","","","","","","","","","","","",""
"","317.9999999701977","sequential-stimulus-presentation","33","101318","0.0-11.0-1.3","SS1613098704627","trial","","40","800","1117.9999999701977","images/stimuli/spore_stims/simple_13_A_c.gif","images/stimuli/spore_stims/simple_13_B_c.gif","","","","","1","simple_similar","images/stimuli/spore_stims/simple_13_B_c.gif","middle","","","","",""
"","null","html-keyboard-response","34","102287","0.0-11.0-0.4","SS1613098704627","","","null","","","","","<p><img src= images/blank.png width =""200"" height = ""200"" style = ""float:right""></p><p><img src=images/blank.png width =""800"" height = ""200""></p>","","","","","","","","","","","",""
"","483.0000000074506","sequential-stimulus-presentation","35","103600","0.0-11.0-1.4","SS1613098704627","trial","","40","800","1283.0000000074506","images/stimuli/spore_stims/simple_13_A_c.gif","images/stimuli/spore_stims/simple_13_B_c.gif","","","","","1","simple_similar","images/stimuli/spore_stims/simple_13_A_c.gif","right","","","","",""
"","null","html-keyboard-response","36","104484","0.0-11.0-0.5","SS1613098704627","","","null","","","","","<p><img src= images/blank.png width =""200"" height = ""200"" style = ""float:right""></p><p><img src=images/blank.png width =""800"" height = ""200""></p>","","","","","","","","","","","",""
"","358.0000000074506","sequential-stimulus-presentation","37","105652","0.0-11.0-1.5","SS1613098704627","trial","","40","800","1158.0000000074506","images/stimuli/spore_stims/simple_13_A_c.gif","images/stimuli/spore_stims/simple_13_B_c.gif","","","","","1","simple_similar","images/stimuli/spore_stims/simple_13_B_c.gif","middle","","","","",""
"","null","html-keyboard-response","38","106781","0.0-11.0-0.6","SS1613098704627","","","null","","","","","<p><img src= images/blank.png width =""200"" height = ""200"" style = ""float:right""></p><p><img src=images/blank.png width =""800"" height = ""200""></p>","","","","","","","","","","","",""
"","45.99999962374568","sequential-stimulus-presentation","39","107643","0.0-11.0-1.6","SS1613098704627","trial","","40","800","845.9999996237457","images/stimuli/spore_stims/simple_13_A_c.gif","images/stimuli/spore_stims/simple_13_B_c.gif","","","","","1","simple_similar","images/stimuli/spore_stims/simple_13_B_c.gif","middle","","","","",""
"","null","html-keyboard-response","40","108777","0.0-11.0-0.7","SS1613098704627","","","null","","","","","<p><img src= images/blank.png width =""200"" height = ""200"" style = ""float:right""></p><p><img src=images/blank.png width =""800"" height = ""200""></p>","","","","","","","","","","","",""
"","515.0000001303852","sequential-stimulus-presentation","41","110098","0.0-11.0-1.7","SS1613098704627","trial","","40","800","1315.0000001303852","images/stimuli/spore_stims/simple_13_A_c.gif","images/stimuli/spore_stims/simple_13_B_c.gif","","","","","1","simple_similar","images/stimuli/spore_stims/simple_13_B_c.gif","middle","","","","",""
"","259.0000000782311","html-keyboard-response","42","110361","0.0-12.0","SS1613098704627","pref_question","","51","","","","","<video width ='960' height = '540' style='padding-top:8%' autoplay muted><source src='images/stimuli/wall_pref.mp4' type='video/mp4'></video>","3","right","66%","1","","","","","","","",""
"","336.00000012665987","sequential-stimulus-presentation","43","111503","0.0-13.0","SS1613098704627","pref_reveal","","40","800","1136.0000001266599","null","null","","","","","1","","","","deviant","","","",""
"","null","html-keyboard-response","44","112541","0.0-14.0-0.0","SS1613098704627","","","null","","","","","<p><img src= images/blank.png width =""200"" height = ""200"" style = ""float:right""></p><p><img src=images/blank.png width =""800"" height = ""200""></p>","","","","","","","","","","","",""
"","277.9999999329448","sequential-stimulus-presentation","45","113626","0.0-14.0-1.0","SS1613098704627","trial","","40","800","1077.9999999329448","images/stimuli/spore_stims/complex_10_B_c.gif","images/stimuli/spore_stims/complex_10_A_c.gif","","","","","2","complex_similar","images/stimuli/spore_stims/complex_10_A_c.gif","right","","","","",""
"","null","html-keyboard-response","46","114482","0.0-14.0-0.1","SS1613098704627","","","null","","","","","<p><img src= images/blank.png width =""200"" height = ""200"" style = ""float:right""></p><p><img src=images/blank.png width =""800"" height = ""200""></p>","","","","","","","","","","","",""
"","330.0000000745058","sequential-stimulus-presentation","47","115621","0.0-14.0-1.1","SS1613098704627","trial","","40","800","1130.0000000745058","images/stimuli/spore_stims/complex_10_B_c.gif","images/stimuli/spore_stims/complex_10_A_c.gif","","","","","2","complex_similar","images/stimuli/spore_stims/complex_10_A_c.gif","right","","","","",""
"","null","html-keyboard-response","48","116586","0.0-14.0-0.2","SS1613098704627","","","null","","","","","<p><img src= images/blank.png width =""200"" height = ""200"" style = ""float:right""></p><p><img src=images/blank.png width =""800"" height = ""200""></p>","","","","","","","","","","","",""
"","162.99999970942736","sequential-stimulus-presentation","49","117554","0.0-14.0-1.2","SS1613098704627","trial","","40","800","962.9999997094274","images/stimuli/spore_stims/complex_10_B_c.gif","images/stimuli/spore_stims/complex_10_A_c.gif","","","","","2","complex_similar","images/stimuli/spore_stims/complex_10_B_c.gif","middle","","","","",""
"","null","html-keyboard-response","50","118652","0.0-14.0-0.3","SS1613098704627","","","null","","","","","<p><img src= images/blank.png width =""200"" height = ""200"" style = ""float:right""></p><p><img src=images/blank.png width =""800"" height = ""200""></p>","","","","","","","","","","","",""
"","557.0000000298023","sequential-stimulus-presentation","51","120022","0.0-14.0-1.3","SS1613098704627","trial","","40","800","1357.0000000298023","images/stimuli/spore_stims/complex_10_B_c.gif","images/stimuli/spore_stims/complex_10_A_c.gif","","","","","2","complex_similar","images/stimuli/spore_stims/complex_10_A_c.gif","right","","","","",""
"","null","html-keyboard-response","52","121293","0.0-14.0-0.4","SS1613098704627","","","null","","","","","<p><img src= images/blank.png width =""200"" height = ""200"" style = ""float:right""></p><p><img src=images/blank.png width =""800"" height = ""200""></p>","","","","","","","","","","","",""
"","84.9999999627471","sequential-stimulus-presentation","53","122186","0.0-14.0-1.4","SS1613098704627","trial","","40","800","884.9999999627471","images/stimuli/spore_stims/complex_10_B_c.gif","images/stimuli/spore_stims/complex_10_A_c.gif","","","","","2","complex_similar","images/stimuli/spore_stims/complex_10_A_c.gif","right","","","","",""
"","null","html-keyboard-response","54","123163","0.0-14.0-0.5","SS1613098704627","","","null","","","","","<p><img src= images/blank.png width =""200"" height = ""200"" style = ""float:right""></p><p><img src=images/blank.png width =""800"" height = ""200""></p>","","","","","","","","","","","",""
"","230.99999967962503","sequential-stimulus-presentation","55","124200","0.0-14.0-1.5","SS1613098704627","trial","","40","800","1030.999999679625","images/stimuli/spore_stims/complex_10_B_c.gif","images/stimuli/spore_stims/complex_10_A_c.gif","","","","","2","complex_similar","images/stimuli/spore_stims/complex_10_A_c.gif","right","","","","",""
"","null","html-keyboard-response","56","125255","0.0-14.0-0.6","SS1613098704627","","","null","","","","","<p><img src= images/blank.png width =""200"" height = ""200"" style = ""float:right""></p><p><img src=images/blank.png width =""800"" height = ""200""></p>","","","","","","","","","","","",""
"","72.99999985843897","sequential-stimulus-presentation","57","126144","0.0-14.0-1.6","SS1613098704627","trial","","40","800","872.999999858439","images/stimuli/spore_stims/complex_10_B_c.gif","images/stimuli/spore_stims/complex_10_A_c.gif","","","","","2","complex_similar","images/stimuli/spore_stims/complex_10_A_c.gif","right","","","","",""
"","null","html-keyboard-response","58","127260","0.0-14.0-0.7","SS1613098704627","","","null","","","","","<p><img src= images/blank.png width =""200"" height = ""200"" style = ""float:right""></p><p><img src=images/blank.png width =""800"" height = ""200""></p>","","","","","","","","","","","",""
"","185.00000005587935","sequential-stimulus-presentation","59","128253","0.0-14.0-1.7","SS1613098704627","trial","","40","800","985.0000000558794","images/stimuli/spore_stims/complex_10_B_c.gif","images/stimuli/spore_stims/complex_10_A_c.gif","","","","","2","complex_similar","images/stimuli/spore_stims/complex_10_A_c.gif","right","","","","",""
"","242.00000008568168","html-keyboard-response","60","128499","0.0-15.0","SS1613098704627","pref_question","","49","","","","","<video width ='960' height = '540' style='padding-top:8%' autoplay muted><source src='images/stimuli/wall_pref.mp4' type='video/mp4'></video>","1","left","25%","2","","","","","","","",""
"","16.99999999254942","sequential-stimulus-presentation","61","129322","0.0-16.0","SS1613098704627","pref_reveal","","40","800","816.9999999925494","null","null","","","","","2","","","","novel","","","",""
"","null","html-keyboard-response","62","130524","0.0-17.0-0.0","SS1613098704627","","","null","","","","","<p><img src= images/blank.png width =""200"" height = ""200"" style = ""float:right""></p><p><img src=images/blank.png width =""800"" height = ""200""></p>","","","","","","","","","","","",""
"","304.0000000037253","sequential-stimulus-presentation","63","131642","0.0-17.0-1.0","SS1613098704627","trial","","40","800","1104.0000000037253","images/stimuli/spore_stims/simple_05_A_a.gif","images/stimuli/spore_stims/simple_05_B_a.gif","","","","","3","simple_similar","images/stimuli/spore_stims/simple_05_B_a.gif","left","","","","",""
"","null","html-keyboard-response","64","132887","0.0-17.0-0.1","SS1613098704627","","","null","","","","","<p><img src= images/blank.png width =""200"" height = ""200"" style = ""float:right""></p><p><img src=images/blank.png width =""800"" height = ""200""></p>","","","","","","","","","","","",""
"","100.00000009313226","sequential-stimulus-presentation","65","133793","0.0-17.0-1.1","SS1613098704627","trial","","40","800","900.0000000931323","images/stimuli/spore_stims/simple_05_A_a.gif","images/stimuli/spore_stims/simple_05_B_a.gif","","","","","3","simple_similar","images/stimuli/spore_stims/simple_05_B_a.gif","left","","","","",""
"","null","html-keyboard-response","66","135034","0.0-17.0-0.2","SS1613098704627","","","null","","","","","<p><img src= images/blank.png width =""200"" height = ""200"" style = ""float:right""></p><p><img src=images/blank.png width =""800"" height = ""200""></p>","","","","","","","","","","","",""
"","223.99999992921948","sequential-stimulus-presentation","67","136075","0.0-17.0-1.2","SS1613098704627","trial","","40","800","1023.9999999292195","images/stimuli/spore_stims/simple_05_A_a.gif","images/stimuli/spore_stims/simple_05_B_a.gif","","","","","3","simple_similar","images/stimuli/spore_stims/simple_05_A_a.gif","middle","","","","",""
"","null","html-keyboard-response","68","137053","0.0-17.0-0.3","SS1613098704627","","","null","","","","","<p><img src= images/blank.png width =""200"" height = ""200"" style = ""float:right""></p><p><img src=images/blank.png width =""800"" height = ""200""></p>","","","","","","","","","","","",""
"","237.0000001974404","sequential-stimulus-presentation","69","138104","0.0-17.0-1.3","SS1613098704627","trial","","40","800","1037.0000001974404","images/stimuli/spore_stims/simple_05_A_a.gif","images/stimuli/spore_stims/simple_05_B_a.gif","","","","","3","simple_similar","images/stimuli/spore_stims/simple_05_B_a.gif","left","","","","",""
"","null","html-keyboard-response","70","139025","0.0-17.0-0.4","SS1613098704627","","","null","","","","","<p><img src= images/blank.png width =""200"" height = ""200"" style = ""float:right""></p><p><img src=images/blank.png width =""800"" height = ""200""></p>","","","","","","","","","","","",""
"","262.0000001043081","sequential-stimulus-presentation","71","140095","0.0-17.0-1.4","SS1613098704627","trial","","40","800","1062.0000001043081","images/stimuli/spore_stims/simple_05_A_a.gif","images/stimuli/spore_stims/simple_05_B_a.gif","","","","","3","simple_similar","images/stimuli/spore_stims/simple_05_B_a.gif","left","","","","",""
"","null","html-keyboard-response","72","141104","0.0-17.0-0.5","SS1613098704627","","","null","","","","","<p><img src= images/blank.png width =""200"" height = ""200"" style = ""float:right""></p><p><img src=images/blank.png width =""800"" height = ""200""></p>","","","","","","","","","","","",""
"","162.00000001117587","sequential-stimulus-presentation","73","142071","0.0-17.0-1.5","SS1613098704627","trial","","40","800","962.0000000111759","images/stimuli/spore_stims/simple_05_A_a.gif","images/stimuli/spore_stims/simple_05_B_a.gif","","","","","3","simple_similar","images/stimuli/spore_stims/simple_05_B_a.gif","left","","","","",""
"","null","html-keyboard-response","74","143069","0.0-17.0-0.6","SS1613098704627","","","null","","","","","<p><img src= images/blank.png width =""200"" height = ""200"" style = ""float:right""></p><p><img src=images/blank.png width =""800"" height = ""200""></p>","","","","","","","","","","","",""
"","60.99999975413084","sequential-stimulus-presentation","75","143941","0.0-17.0-1.6","SS1613098704627","trial","","40","800","860.9999997541308","images/stimuli/spore_stims/simple_05_A_a.gif","images/stimuli/spore_stims/simple_05_B_a.gif","","","","","3","simple_similar","images/stimuli/spore_stims/simple_05_B_a.gif","left","","","","",""
"","null","html-keyboard-response","76","144875","0.0-17.0-0.7","SS1613098704627","","","null","","","","","<p><img src= images/blank.png width =""200"" height = ""200"" style = ""float:right""></p><p><img src=images/blank.png width =""800"" height = ""200""></p>","","","","","","","","","","","",""
"","557.9999997280538","sequential-stimulus-presentation","77","146245","0.0-17.0-1.7","SS1613098704627","trial","","40","800","1357.9999997280538","images/stimuli/spore_stims/simple_05_A_a.gif","images/stimuli/spore_stims/simple_05_B_a.gif","","","","","3","simple_similar","images/stimuli/spore_stims/simple_05_B_a.gif","left","","","","",""
"","310.00000005587935","html-keyboard-response","78","146559","0.0-18.0","SS1613098704627","pref_question","","51","","","","","<video width ='960' height = '540' style='padding-top:8%' autoplay muted><source src='images/stimuli/wall_pref.mp4' type='video/mp4'></video>","3","right","66%","3","","","","","","","",""
"","300.99999997764826","sequential-stimulus-presentation","79","147664","0.0-19.0","SS1613098704627","pref_reveal","","40","800","1100.9999999776483","null","null","","","","","3","","","","novel","","","",""
"","null","html-keyboard-response","80","148958","0.0-20.0-0.0","SS1613098704627","","","null","","","","","<p><img src= images/blank.png width =""200"" height = ""200"" style = ""float:right""></p><p><img src=images/blank.png width =""800"" height = ""200""></p>","","","","","","","","","","","",""
"","625","sequential-stimulus-presentation","81","150399","0.0-20.0-1.0","SS1613098704627","trial","","40","800","1425","images/stimuli/spore_stims/simple_15_A_a.gif","images/stimuli/spore_stims/simple_15_B_a.gif","","","","","4","simple_similar","images/stimuli/spore_stims/simple_15_B_a.gif","middle","","","","",""
"","null","html-keyboard-response","82","151666","0.0-20.0-0.1","SS1613098704627","","","null","","","","","<p><img src= images/blank.png width =""200"" height = ""200"" style = ""float:right""></p><p><img src=images/blank.png width =""800"" height = ""200""></p>","","","","","","","","","","","",""
"","464.9999998509884","sequential-stimulus-presentation","83","152947","0.0-20.0-1.1","SS1613098704627","trial","","40","800","1264.9999998509884","images/stimuli/spore_stims/simple_15_A_a.gif","images/stimuli/spore_stims/simple_15_B_a.gif","","","","","4","simple_similar","images/stimuli/spore_stims/simple_15_B_a.gif","middle","","","","",""
"","null","html-keyboard-response","84","154149","0.0-20.0-0.2","SS1613098704627","","","null","","","","","<p><img src= images/blank.png width =""200"" height = ""200"" style = ""float:right""></p><p><img src=images/blank.png width =""800"" height = ""200""></p>","","","","","","","","","","","",""
"","344.0000000409782","sequential-stimulus-presentation","85","155309","0.0-20.0-1.2","SS1613098704627","trial","","40","800","1144.0000000409782","images/stimuli/spore_stims/simple_15_A_a.gif","images/stimuli/spore_stims/simple_15_B_a.gif","","","","","4","simple_similar","images/stimuli/spore_stims/simple_15_B_a.gif","middle","","","","",""
"","null","html-keyboard-response","86","156461","0.0-20.0-0.3","SS1613098704627","","","null","","","","","<p><img src= images/blank.png width =""200"" height = ""200"" style = ""float:right""></p><p><img src=images/blank.png width =""800"" height = ""200""></p>","","","","","","","","","","","",""
"","259.0000000782311","sequential-stimulus-presentation","87","157534","0.0-20.0-1.3","SS1613098704627","trial","","40","800","1059.000000078231","images/stimuli/spore_stims/simple_15_A_a.gif","images/stimuli/spore_stims/simple_15_B_a.gif","","","","","4","simple_similar","images/stimuli/spore_stims/simple_15_B_a.gif","middle","","","","",""
"","null","html-keyboard-response","88","158379","0.0-20.0-0.4","SS1613098704627","","","null","","","","","<p><img src= images/blank.png width =""200"" height = ""200"" style = ""float:right""></p><p><img src=images/blank.png width =""800"" height = ""200""></p>","","","","","","","","","","","",""
"","328.00000021234155","sequential-stimulus-presentation","89","159520","0.0-20.0-1.4","SS1613098704627","trial","","40","800","1128.0000002123415","images/stimuli/spore_stims/simple_15_A_a.gif","images/stimuli/spore_stims/simple_15_B_a.gif","","","","","4","simple_similar","images/stimuli/spore_stims/simple_15_B_a.gif","middle","","","","",""
"","null","html-keyboard-response","90","160781","0.0-20.0-0.5","SS1613098704627","","","null","","","","","<p><img src= images/blank.png width =""200"" height = ""200"" style = ""float:right""></p><p><img src=images/blank.png width =""800"" height = ""200""></p>","","","","","","","","","","","",""
"","353.0000001192093","sequential-stimulus-presentation","91","161971","0.0-20.0-1.5","SS1613098704627","trial","","40","800","1153.0000001192093","images/stimuli/spore_stims/simple_15_A_a.gif","images/stimuli/spore_stims/simple_15_B_a.gif","","","","","4","simple_similar","images/stimuli/spore_stims/simple_15_B_a.gif","middle","","","","",""
"","null","html-keyboard-response","92","163090","0.0-20.0-0.6","SS1613098704627","","","null","","","","","<p><img src= images/blank.png width =""200"" height = ""200"" style = ""float:right""></p><p><img src=images/blank.png width =""800"" height = ""200""></p>","","","","","","","","","","","",""
"","729.0000002831221","sequential-stimulus-presentation","93","164624","0.0-20.0-1.6","SS1613098704627","trial","","40","800","1529.000000283122","images/stimuli/spore_stims/simple_15_A_a.gif","images/stimuli/spore_stims/simple_15_B_a.gif","","","","","4","simple_similar","images/stimuli/spore_stims/simple_15_B_a.gif","middle","","","","",""
"","null","html-keyboard-response","94","165727","0.0-20.0-0.7","SS1613098704627","","","null","","","","","<p><img src= images/blank.png width =""200"" height = ""200"" style = ""float:right""></p><p><img src=images/blank.png width =""800"" height = ""200""></p>","","","","","","","","","","","",""
"","187.0000003837049","sequential-stimulus-presentation","95","166719","0.0-20.0-1.7","SS1613098704627","trial","","40","800","987.0000003837049","images/stimuli/spore_stims/simple_15_A_a.gif","images/stimuli/spore_stims/simple_15_B_a.gif","","","","","4","simple_similar","images/stimuli/spore_stims/simple_15_A_a.gif","left","","","","",""
"","106.99999984353781","html-keyboard-response","96","166832","0.0-21.0","SS1613098704627","pref_question","","51","","","","","<video width ='960' height = '540' style='padding-top:8%' autoplay muted><source src='images/stimuli/wall_pref.mp4' type='video/mp4'></video>","3","right","66%","4","","","","","","","",""
"","285.0000001490116","sequential-stimulus-presentation","97","167922","0.0-22.0","SS1613098704627","pref_reveal","","40","800","1085.0000001490116","null","null","","","","","4","","","","novel","","","",""
"","null","html-keyboard-response","98","169063","0.0-23.0-0.0","SS1613098704627","","","null","","","","","<p><img src= images/blank.png width =""200"" height = ""200"" style = ""float:right""></p><p><img src=images/blank.png width =""800"" height = ""200""></p>","","","","","","","","","","","",""
"","22417.99999959767","sequential-stimulus-presentation","99","192622","0.0-23.0-1.0","SS1613098704627","trial","","40","800","23217.99999959767","images/stimuli/spore_stims/complex_08_A_d.gif","images/stimuli/spore_stims/complex_08_B_d.gif","","","","","5","complex_similar","images/stimuli/spore_stims/complex_08_B_d.gif","middle","","","","",""
"","null","html-keyboard-response","100","193734","0.0-23.0-0.1","SS1613098704627","","","null","","","","","<p><img src= images/blank.png width =""200"" height = ""200"" style = ""float:right""></p><p><img src=images/blank.png width =""800"" height = ""200""></p>","","","","","","","","","","","",""
"","153.99999963119626","sequential-stimulus-presentation","101","194697","0.0-23.0-1.1","SS1613098704627","trial","","40","800","953.9999996311963","images/stimuli/spore_stims/complex_08_A_d.gif","images/stimuli/spore_stims/complex_08_B_d.gif","","","","","5","complex_similar","images/stimuli/spore_stims/complex_08_B_d.gif","middle","","","","",""
"","null","html-keyboard-response","102","195591","0.0-23.0-0.2","SS1613098704627","","","null","","","","","<p><img src= images/blank.png width =""200"" height = ""200"" style = ""float:right""></p><p><img src=images/blank.png width =""800"" height = ""200""></p>","","","","","","","","","","","",""
"","260.99999994039536","sequential-stimulus-presentation","103","196663","0.0-23.0-1.2","SS1613098704627","trial","","40","800","1060.9999999403954","images/stimuli/spore_stims/complex_08_A_d.gif","images/stimuli/spore_stims/complex_08_B_d.gif","","","","","5","complex_similar","images/stimuli/spore_stims/complex_08_A_d.gif","left","","","","",""
"","null","html-keyboard-response","104","197575","0.0-23.0-0.3","SS1613098704627","","","null","","","","","<p><img src= images/blank.png width =""200"" height = ""200"" style = ""float:right""></p><p><img src=images/blank.png width =""800"" height = ""200""></p>","","","","","","","","","","","",""
"","211.99999982491136","sequential-stimulus-presentation","105","198592","0.0-23.0-1.3","SS1613098704627","trial","","40","800","1011.9999998249114","images/stimuli/spore_stims/complex_08_A_d.gif","images/stimuli/spore_stims/complex_08_B_d.gif","","","","","5","complex_similar","images/stimuli/spore_stims/complex_08_B_d.gif","middle","","","","",""
"","null","html-keyboard-response","106","199568","0.0-23.0-0.4","SS1613098704627","","","null","","","","","<p><img src= images/blank.png width =""200"" height = ""200"" style = ""float:right""></p><p><img src=images/blank.png width =""800"" height = ""200""></p>","","","","","","","","","","","",""
"","234.99999986961484","sequential-stimulus-presentation","107","200611","0.0-23.0-1.4","SS1613098704627","trial","","40","800","1034.9999998696148","images/stimuli/spore_stims/complex_08_A_d.gif","images/stimuli/spore_stims/complex_08_B_d.gif","","","","","5","complex_similar","images/stimuli/spore_stims/complex_08_B_d.gif","middle","","","","",""
"","null","html-keyboard-response","108","201559","0.0-23.0-0.5","SS1613098704627","","","null","","","","","<p><img src= images/blank.png width =""200"" height = ""200"" style = ""float:right""></p><p><img src=images/blank.png width =""800"" height = ""200""></p>","","","","","","","","","","","",""
"","254.9999998882413","sequential-stimulus-presentation","109","202621","0.0-23.0-1.5","SS1613098704627","trial","","40","800","1054.9999998882413","images/stimuli/spore_stims/complex_08_A_d.gif","images/stimuli/spore_stims/complex_08_B_d.gif","","","","","5","complex_similar","images/stimuli/spore_stims/complex_08_B_d.gif","middle","","","","",""
"","null","html-keyboard-response","110","203449","0.0-23.0-0.6","SS1613098704627","","","null","","","","","<p><img src= images/blank.png width =""200"" height = ""200"" style = ""float:right""></p><p><img src=images/blank.png width =""800"" height = ""200""></p>","","","","","","","","","","","",""
"","373.9999998360872","sequential-stimulus-presentation","111","204658","0.0-23.0-1.6","SS1613098704627","trial","","40","800","1173.9999998360872","images/stimuli/spore_stims/complex_08_A_d.gif","images/stimuli/spore_stims/complex_08_B_d.gif","","","","","5","complex_similar","images/stimuli/spore_stims/complex_08_B_d.gif","middle","","","","",""
"","null","html-keyboard-response","112","205830","0.0-23.0-0.7","SS1613098704627","","","null","","","","","<p><img src= images/blank.png width =""200"" height = ""200"" style = ""float:right""></p><p><img src=images/blank.png width =""800"" height = ""200""></p>","","","","","","","","","","","",""
"","456.99999993667006","sequential-stimulus-presentation","113","207094","0.0-23.0-1.7","SS1613098704627","trial","","40","800","1256.99999993667","images/stimuli/spore_stims/complex_08_A_d.gif","images/stimuli/spore_stims/complex_08_B_d.gif","","","","","5","complex_similar","images/stimuli/spore_stims/complex_08_B_d.gif","middle","","","","",""
"","276.0000000707805","html-keyboard-response","114","207375","0.0-24.0","SS1613098704627","pref_question","","51","","","","","<video width ='960' height = '540' style='padding-top:8%' autoplay muted><source src='images/stimuli/wall_pref.mp4' type='video/mp4'></video>","3","right","66%","5","","","","","","","",""
"","163.00000017508864","sequential-stimulus-presentation","115","208346","0.0-25.0","SS1613098704627","pref_reveal","","40","800","963.0000001750886","null","null","","","","","5","","","","novel","","","",""
"","null","html-keyboard-response","116","209226","0.0-26.0-0.0","SS1613098704627","","","null","","","","","<p><img src= images/blank.png width =""200"" height = ""200"" style = ""float:right""></p><p><img src=images/blank.png width =""800"" height = ""200""></p>","","","","","","","","","","","",""
"","50.00000027939677","sequential-stimulus-presentation","117","210082","0.0-26.0-1.0","SS1613098704627","trial","","40","800","850.0000002793968","images/stimuli/spore_stims/simple_11_B_c.gif","images/stimuli/spore_stims/simple_11_A_c.gif","","","","","6","simple_similar","images/stimuli/spore_stims/simple_11_A_c.gif","left","","","","",""
"","null","html-keyboard-response","118","211120","0.0-26.0-0.1","SS1613098704627","","","null","","","","","<p><img src= images/blank.png width =""200"" height = ""200"" style = ""float:right""></p><p><img src=images/blank.png width =""800"" height = ""200""></p>","","","","","","","","","","","",""
"","7.000000216066837","sequential-stimulus-presentation","119","211936","0.0-26.0-1.1","SS1613098704627","trial","","40","800","807.0000002160668","images/stimuli/spore_stims/simple_11_B_c.gif","images/stimuli/spore_stims/simple_11_A_c.gif","","","","","6","simple_similar","images/stimuli/spore_stims/simple_11_A_c.gif","left","","","","",""
"","null","html-keyboard-response","120","212766","0.0-26.0-0.2","SS1613098704627","","","null","","","","","<p><img src= images/blank.png width =""200"" height = ""200"" style = ""float:right""></p><p><img src=images/blank.png width =""800"" height = ""200""></p>","","","","","","","","","","","",""
"","423.9999996498227","sequential-stimulus-presentation","121","213997","0.0-26.0-1.2","SS1613098704627","trial","","40","800","1223.9999996498227","images/stimuli/spore_stims/simple_11_B_c.gif","images/stimuli/spore_stims/simple_11_A_c.gif","","","","","6","simple_similar","images/stimuli/spore_stims/simple_11_A_c.gif","left","","","","",""
"","null","html-keyboard-response","122","215180","0.0-26.0-0.3","SS1613098704627","","","null","","","","","<p><img src= images/blank.png width =""200"" height = ""200"" style = ""float:right""></p><p><img src=images/blank.png width =""800"" height = ""200""></p>","","","","","","","","","","","",""
"","399.99999990686774","sequential-stimulus-presentation","123","216388","0.0-26.0-1.3","SS1613098704627","trial","","40","800","1199.9999999068677","images/stimuli/spore_stims/simple_11_B_c.gif","images/stimuli/spore_stims/simple_11_A_c.gif","","","","","6","simple_similar","images/stimuli/spore_stims/simple_11_A_c.gif","left","","","","",""
"","null","html-keyboard-response","124","217300","0.0-26.0-0.4","SS1613098704627","","","null","","","","","<p><img src= images/blank.png width =""200"" height = ""200"" style = ""float:right""></p><p><img src=images/blank.png width =""800"" height = ""200""></p>","","","","","","","","","","","",""
"","276.0000000707805","sequential-stimulus-presentation","125","218396","0.0-26.0-1.4","SS1613098704627","trial","","40","800","1076.0000000707805","images/stimuli/spore_stims/simple_11_B_c.gif","images/stimuli/spore_stims/simple_11_A_c.gif","","","","","6","simple_similar","images/stimuli/spore_stims/simple_11_A_c.gif","left","","","","",""
"","null","html-keyboard-response","126","219268","0.0-26.0-0.5","SS1613098704627","","","null","","","","","<p><img src= images/blank.png width =""200"" height = ""200"" style = ""float:right""></p><p><img src=images/blank.png width =""800"" height = ""200""></p>","","","","","","","","","","","",""
"","4.999999888241291","sequential-stimulus-presentation","127","220137","0.0-26.0-1.5","SS1613098704627","trial","","40","800","804.9999998882413","images/stimuli/spore_stims/simple_11_B_c.gif","images/stimuli/spore_stims/simple_11_A_c.gif","","","","","6","simple_similar","images/stimuli/spore_stims/simple_11_B_c.gif","right","","","","",""
"","null","html-keyboard-response","128","221213","0.0-26.0-0.6","SS1613098704627","","","null","","","","","<p><img src= images/blank.png width =""200"" height = ""200"" style = ""float:right""></p><p><img src=images/blank.png width =""800"" height = ""200""></p>","","","","","","","","","","","",""
"","432.0000000298023","sequential-stimulus-presentation","129","222457","0.0-26.0-1.6","SS1613098704627","trial","","40","800","1232.0000000298023","images/stimuli/spore_stims/simple_11_B_c.gif","images/stimuli/spore_stims/simple_11_A_c.gif","","","","","6","simple_similar","images/stimuli/spore_stims/simple_11_A_c.gif","left","","","","",""
"","null","html-keyboard-response","130","223432","0.0-26.0-0.7","SS1613098704627","","","null","","","","","<p><img src= images/blank.png width =""200"" height = ""200"" style = ""float:right""></p><p><img src=images/blank.png width =""800"" height = ""200""></p>","","","","","","","","","","","",""
"","111.00000003352761","sequential-stimulus-presentation","131","224354","0.0-26.0-1.7","SS1613098704627","trial","","40","800","911.0000000335276","images/stimuli/spore_stims/simple_11_B_c.gif","images/stimuli/spore_stims/simple_11_A_c.gif","","","","","6","simple_similar","images/stimuli/spore_stims/simple_11_A_c.gif","left","","","","",""
"","206.99999993667006","html-keyboard-response","132","224568","0.0-27.0","SS1613098704627","pref_question","","49","","","","","<video width ='960' height = '540' style='padding-top:8%' autoplay muted><source src='images/stimuli/wall_pref.mp4' type='video/mp4'></video>","1","left","25%","6","","","","","","","",""
"","334.9999999627471","sequential-stimulus-presentation","133","225711","0.0-28.0","SS1613098704627","pref_reveal","","40","800","1134.999999962747","null","null","","","","","6","","","","background","","","",""
"","null","html-keyboard-response","134","226761","0.0-29.0-0.0","SS1613098704627","","","null","","","","","<p><img src= images/blank.png width =""200"" height = ""200"" style = ""float:right""></p><p><img src=images/blank.png width =""800"" height = ""200""></p>","","","","","","","","","","","",""
"","40.0000000372529","sequential-stimulus-presentation","135","227619","0.0-29.0-1.0","SS1613098704627","trial","","40","800","840.0000000372529","images/stimuli/spore_stims/complex_01_A_b.gif","images/stimuli/spore_stims/complex_11_A_b.gif","","","","","7","complex_dissimilar","images/stimuli/spore_stims/complex_11_A_b.gif","left","","","","",""
"","null","html-keyboard-response","136","228652","0.0-29.0-0.1","SS1613098704627","","","null","","","","","<p><img src= images/blank.png width =""200"" height = ""200"" style = ""float:right""></p><p><img src=images/blank.png width =""800"" height = ""200""></p>","","","","","","","","","","","",""
"","398.99999974295497","sequential-stimulus-presentation","137","229859","0.0-29.0-1.1","SS1613098704627","trial","","40","800","1198.999999742955","images/stimuli/spore_stims/complex_01_A_b.gif","images/stimuli/spore_stims/complex_11_A_b.gif","","","","","7","complex_dissimilar","images/stimuli/spore_stims/complex_11_A_b.gif","left","","","","",""
"","null","html-keyboard-response","138","230960","0.0-29.0-0.2","SS1613098704627","","","null","","","","","<p><img src= images/blank.png width =""200"" height = ""200"" style = ""float:right""></p><p><img src=images/blank.png width =""800"" height = ""200""></p>","","","","","","","","","","","",""
"","516.0000002942979","sequential-stimulus-presentation","139","232290","0.0-29.0-1.2","SS1613098704627","trial","","40","800","1316.000000294298","images/stimuli/spore_stims/complex_01_A_b.gif","images/stimuli/spore_stims/complex_11_A_b.gif","","","","","7","complex_dissimilar","images/stimuli/spore_stims/complex_11_A_b.gif","left","","","","",""
"","null","html-keyboard-response","140","233306","0.0-29.0-0.3","SS1613098704627","","","null","","","","","<p><img src= images/blank.png width =""200"" height = ""200"" style = ""float:right""></p><p><img src=images/blank.png width =""800"" height = ""200""></p>","","","","","","","","","","","",""
"","290.9999997355044","sequential-stimulus-presentation","141","234424","0.0-29.0-1.3","SS1613098704627","trial","","40","800","1090.9999997355044","images/stimuli/spore_stims/complex_01_A_b.gif","images/stimuli/spore_stims/complex_11_A_b.gif","","","","","7","complex_dissimilar","images/stimuli/spore_stims/complex_11_A_b.gif","left","","","","",""
"","null","html-keyboard-response","142","235659","0.0-29.0-0.4","SS1613098704627","","","null","","","","","<p><img src= images/blank.png width =""200"" height = ""200"" style = ""float:right""></p><p><img src=images/blank.png width =""800"" height = ""200""></p>","","","","","","","","","","","",""
"","114.99999975785613","sequential-stimulus-presentation","143","236603","0.0-29.0-1.4","SS1613098704627","trial","","40","800","914.9999997578561","images/stimuli/spore_stims/complex_01_A_b.gif","images/stimuli/spore_stims/complex_11_A_b.gif","","","","","7","complex_dissimilar","images/stimuli/spore_stims/complex_11_A_b.gif","left","","","","",""
"","null","html-keyboard-response","144","237569","0.0-29.0-0.5","SS1613098704627","","","null","","","","","<p><img src= images/blank.png width =""200"" height = ""200"" style = ""float:right""></p><p><img src=images/blank.png width =""800"" height = ""200""></p>","","","","","","","","","","","",""
"","225.00000009313226","sequential-stimulus-presentation","145","238602","0.0-29.0-1.5","SS1613098704627","trial","","40","800","1025.0000000931323","images/stimuli/spore_stims/complex_01_A_b.gif","images/stimuli/spore_stims/complex_11_A_b.gif","","","","","7","complex_dissimilar","images/stimuli/spore_stims/complex_01_A_b.gif","middle","","","","",""
"","null","html-keyboard-response","146","239847","0.0-29.0-0.6","SS1613098704627","","","null","","","","","<p><img src= images/blank.png width =""200"" height = ""200"" style = ""float:right""></p><p><img src=images/blank.png width =""800"" height = ""200""></p>","","","","","","","","","","","",""
"","189.99999994412065","sequential-stimulus-presentation","147","240846","0.0-29.0-1.6","SS1613098704627","trial","","40","800","989.9999999441206","images/stimuli/spore_stims/complex_01_A_b.gif","images/stimuli/spore_stims/complex_11_A_b.gif","","","","","7","complex_dissimilar","images/stimuli/spore_stims/complex_11_A_b.gif","left","","","","",""
"","null","html-keyboard-response","148","241709","0.0-29.0-0.7","SS1613098704627","","","null","","","","","<p><img src= images/blank.png width =""200"" height = ""200"" style = ""float:right""></p><p><img src=images/blank.png width =""800"" height = ""200""></p>","","","","","","","","","","","",""
"","229.00000028312206","sequential-stimulus-presentation","149","242746","0.0-29.0-1.7","SS1613098704627","trial","","40","800","1029.000000283122","images/stimuli/spore_stims/complex_01_A_b.gif","images/stimuli/spore_stims/complex_11_A_b.gif","","","","","7","complex_dissimilar","images/stimuli/spore_stims/complex_11_A_b.gif","left","","","","",""
"","133.9999996125698","html-keyboard-response","150","242886","0.0-30.0","SS1613098704627","pref_question","","51","","","","","<video width ='960' height = '540' style='padding-top:8%' autoplay muted><source src='images/stimuli/wall_pref.mp4' type='video/mp4'></video>","3","right","66%","7","","","","","","","",""
"","111.9999997317791","sequential-stimulus-presentation","151","243817","0.0-31.0","SS1613098704627","pref_reveal","","40","800","911.9999997317791","null","null","","","","","7","","","","novel","","","",""
"","null","html-keyboard-response","152","245069","0.0-32.0-0.0","SS1613098704627","","","null","","","","","<p><img src= images/blank.png width =""200"" height = ""200"" style = ""float:right""></p><p><img src=images/blank.png width =""800"" height = ""200""></p>","","","","","","","","","","","",""
"","347.0000000670552","sequential-stimulus-presentation","153","246224","0.0-32.0-1.0","SS1613098704627","trial","","40","800","1147.0000000670552","images/stimuli/spore_stims/complex_07_A_b.gif","images/stimuli/spore_stims/complex_11_B_b.gif","","","","","8","complex_dissimilar","images/stimuli/spore_stims/complex_11_B_b.gif","middle","","","","",""
"","null","html-keyboard-response","154","247205","0.0-32.0-0.1","SS1613098704627","","","null","","","","","<p><img src= images/blank.png width =""200"" height = ""200"" style = ""float:right""></p><p><img src=images/blank.png width =""800"" height = ""200""></p>","","","","","","","","","","","",""
"","379.9999998882413","sequential-stimulus-presentation","155","248392","0.0-32.0-1.1","SS1613098704627","trial","","40","800","1179.9999998882413","images/stimuli/spore_stims/complex_07_A_b.gif","images/stimuli/spore_stims/complex_11_B_b.gif","","","","","8","complex_dissimilar","images/stimuli/spore_stims/complex_11_B_b.gif","middle","","","","",""
"","null","html-keyboard-response","156","249602","0.0-32.0-0.2","SS1613098704627","","","null","","","","","<p><img src= images/blank.png width =""200"" height = ""200"" style = ""float:right""></p><p><img src=images/blank.png width =""800"" height = ""200""></p>","","","","","","","","","","","",""
"","205.0000000745058","sequential-stimulus-presentation","157","250616","0.0-32.0-1.2","SS1613098704627","trial","","40","800","1005.0000000745058","images/stimuli/spore_stims/complex_07_A_b.gif","images/stimuli/spore_stims/complex_11_B_b.gif","","","","","8","complex_dissimilar","images/stimuli/spore_stims/complex_11_B_b.gif","middle","","","","",""
"","null","html-keyboard-response","158","251511","0.0-32.0-0.3","SS1613098704627","","","null","","","","","<p><img src= images/blank.png width =""200"" height = ""200"" style = ""float:right""></p><p><img src=images/blank.png width =""800"" height = ""200""></p>","","","","","","","","","","","",""
"","384.0000000782311","sequential-stimulus-presentation","159","252717","0.0-32.0-1.3","SS1613098704627","trial","","40","800","1184.000000078231","images/stimuli/spore_stims/complex_07_A_b.gif","images/stimuli/spore_stims/complex_11_B_b.gif","","","","","8","complex_dissimilar","images/stimuli/spore_stims/complex_11_B_b.gif","middle","","","","",""
"","null","html-keyboard-response","160","253786","0.0-32.0-0.4","SS1613098704627","","","null","","","","","<p><img src= images/blank.png width =""200"" height = ""200"" style = ""float:right""></p><p><img src=images/blank.png width =""800"" height = ""200""></p>","","","","","","","","","","","",""
"","322.99999985843897","sequential-stimulus-presentation","161","254922","0.0-32.0-1.4","SS1613098704627","trial","","40","800","1122.999999858439","images/stimuli/spore_stims/complex_07_A_b.gif","images/stimuli/spore_stims/complex_11_B_b.gif","","","","","8","complex_dissimilar","images/stimuli/spore_stims/complex_07_A_b.gif","left","","","","",""
"","null","html-keyboard-response","162","256060","0.0-32.0-0.5","SS1613098704627","","","null","","","","","<p><img src= images/blank.png width =""200"" height = ""200"" style = ""float:right""></p><p><img src=images/blank.png width =""800"" height = ""200""></p>","","","","","","","","","","","",""
"","333.00000010058284","sequential-stimulus-presentation","163","257212","0.0-32.0-1.5","SS1613098704627","trial","","40","800","1133.0000001005828","images/stimuli/spore_stims/complex_07_A_b.gif","images/stimuli/spore_stims/complex_11_B_b.gif","","","","","8","complex_dissimilar","images/stimuli/spore_stims/complex_11_B_b.gif","middle","","","","",""
"","null","html-keyboard-response","164","258354","0.0-32.0-0.6","SS1613098704627","","","null","","","","","<p><img src= images/blank.png width =""200"" height = ""200"" style = ""float:right""></p><p><img src=images/blank.png width =""800"" height = ""200""></p>","","","","","","","","","","","",""
"","298.9999996498227","sequential-stimulus-presentation","165","259466","0.0-32.0-1.6","SS1613098704627","trial","","40","800","1098.9999996498227","images/stimuli/spore_stims/complex_07_A_b.gif","images/stimuli/spore_stims/complex_11_B_b.gif","","","","","8","complex_dissimilar","images/stimuli/spore_stims/complex_11_B_b.gif","middle","","","","",""
"","null","html-keyboard-response","166","260527","0.0-32.0-0.7","SS1613098704627","","","null","","","","","<p><img src= images/blank.png width =""200"" height = ""200"" style = ""float:right""></p><p><img src=images/blank.png width =""800"" height = ""200""></p>","","","","","","","","","","","",""
"","298.0000004172325","sequential-stimulus-presentation","167","261651","0.0-32.0-1.7","SS1613098704627","trial","","40","800","1098.0000004172325","images/stimuli/spore_stims/complex_07_A_b.gif","images/stimuli/spore_stims/complex_11_B_b.gif","","","","","8","complex_dissimilar","images/stimuli/spore_stims/complex_11_B_b.gif","middle","","","","",""
"","184.00000035762787","html-keyboard-response","168","261851","0.0-33.0","SS1613098704627","pref_question","","51","","","","","<video width ='960' height = '540' style='padding-top:8%' autoplay muted><source src='images/stimuli/wall_pref.mp4' type='video/mp4'></video>","3","right","66%","8","","","","","","","",""
"","174.000000115484","sequential-stimulus-presentation","169","262833","0.0-34.0","SS1613098704627","pref_reveal","","40","800","974.000000115484","null","null","","","","","8","","","","novel","","","",""
"","null","html-keyboard-response","170","264061","0.0-35.0-0.0","SS1613098704627","","","null","","","","","<p><img src= images/blank.png width =""200"" height = ""200"" style = ""float:right""></p><p><img src=images/blank.png width =""800"" height = ""200""></p>","","","","","","","","","","","",""
"","69.99999983236194","sequential-stimulus-presentation","171","264940","0.0-35.0-1.0","SS1613098704627","trial","","40","800","869.9999998323619","images/stimuli/spore_stims/simple_08_B_b.gif","images/stimuli/spore_stims/simple_16_B_d.gif","","","","","9","simple_dissimilar","images/stimuli/spore_stims/simple_16_B_d.gif","middle","","","","",""
"","null","html-keyboard-response","172","266222","0.0-35.0-0.1","SS1613098704627","","","null","","","","","<p><img src= images/blank.png width =""200"" height = ""200"" style = ""float:right""></p><p><img src=images/blank.png width =""800"" height = ""200""></p>","","","","","","","","","","","",""
"","7.999999914318323","sequential-stimulus-presentation","173","267043","0.0-35.0-1.1","SS1613098704627","trial","","40","800","807.9999999143183","images/stimuli/spore_stims/simple_08_B_b.gif","images/stimuli/spore_stims/simple_16_B_d.gif","","","","","9","simple_dissimilar","images/stimuli/spore_stims/simple_16_B_d.gif","middle","","","","",""
"","null","html-keyboard-response","174","267918","0.0-35.0-0.2","SS1613098704627","","","null","","","","","<p><img src= images/blank.png width =""200"" height = ""200"" style = ""float:right""></p><p><img src=images/blank.png width =""800"" height = ""200""></p>","","","","","","","","","","","",""
"","206.99999993667006","sequential-stimulus-presentation","175","268934","0.0-35.0-1.2","SS1613098704627","trial","","40","800","1006.9999999366701","images/stimuli/spore_stims/simple_08_B_b.gif","images/stimuli/spore_stims/simple_16_B_d.gif","","","","","9","simple_dissimilar","images/stimuli/spore_stims/simple_16_B_d.gif","middle","","","","",""
"","null","html-keyboard-response","176","270180","0.0-35.0-0.3","SS1613098704627","","","null","","","","","<p><img src= images/blank.png width =""200"" height = ""200"" style = ""float:right""></p><p><img src=images/blank.png width =""800"" height = ""200""></p>","","","","","","","","","","","",""
"","195.9999999962747","sequential-stimulus-presentation","177","271186","0.0-35.0-1.3","SS1613098704627","trial","","40","800","995.9999999962747","images/stimuli/spore_stims/simple_08_B_b.gif","images/stimuli/spore_stims/simple_16_B_d.gif","","","","","9","simple_dissimilar","images/stimuli/spore_stims/simple_08_B_b.gif","left","","","","",""
"","null","html-keyboard-response","178","272190","0.0-35.0-0.4","SS1613098704627","","","null","","","","","<p><img src= images/blank.png width =""200"" height = ""200"" style = ""float:right""></p><p><img src=images/blank.png width =""800"" height = ""200""></p>","","","","","","","","","","","",""
"","168.99999976158142","sequential-stimulus-presentation","179","273170","0.0-35.0-1.4","SS1613098704627","trial","","40","800","968.9999997615814","images/stimuli/spore_stims/simple_08_B_b.gif","images/stimuli/spore_stims/simple_16_B_d.gif","","","","","9","simple_dissimilar","images/stimuli/spore_stims/simple_16_B_d.gif","middle","","","","",""
"","null","html-keyboard-response","180","274116","0.0-35.0-0.5","SS1613098704627","","","null","","","","","<p><img src= images/blank.png width =""200"" height = ""200"" style = ""float:right""></p><p><img src=images/blank.png width =""800"" height = ""200""></p>","","","","","","","","","","","",""
"","260.99999994039536","sequential-stimulus-presentation","181","275186","0.0-35.0-1.5","SS1613098704627","trial","","40","800","1060.9999999403954","images/stimuli/spore_stims/simple_08_B_b.gif","images/stimuli/spore_stims/simple_16_B_d.gif","","","","","9","simple_dissimilar","images/stimuli/spore_stims/simple_16_B_d.gif","middle","","","","",""
"","null","html-keyboard-response","182","276243","0.0-35.0-0.6","SS1613098704627","","","null","","","","","<p><img src= images/blank.png width =""200"" height = ""200"" style = ""float:right""></p><p><img src=images/blank.png width =""800"" height = ""200""></p>","","","","","","","","","","","",""
"","248.00000013783574","sequential-stimulus-presentation","183","277333","0.0-35.0-1.6","SS1613098704627","trial","","40","800","1048.0000001378357","images/stimuli/spore_stims/simple_08_B_b.gif","images/stimuli/spore_stims/simple_16_B_d.gif","","","","","9","simple_dissimilar","images/stimuli/spore_stims/simple_16_B_d.gif","middle","","","","",""
"","null","html-keyboard-response","184","278181","0.0-35.0-0.7","SS1613098704627","","","null","","","","","<p><img src= images/blank.png width =""200"" height = ""200"" style = ""float:right""></p><p><img src=images/blank.png width =""800"" height = ""200""></p>","","","","","","","","","","","",""
"","185.00000005587935","sequential-stimulus-presentation","185","279182","0.0-35.0-1.7","SS1613098704627","trial","","40","800","985.0000000558794","images/stimuli/spore_stims/simple_08_B_b.gif","images/stimuli/spore_stims/simple_16_B_d.gif","","","","","9","simple_dissimilar","images/stimuli/spore_stims/simple_16_B_d.gif","middle","","","","",""
"","245.9999998100102","html-keyboard-response","186","279436","0.0-36.0","SS1613098704627","pref_question","","50","","","","","<video width ='960' height = '540' style='padding-top:8%' autoplay muted><source src='images/stimuli/wall_pref.mp4' type='video/mp4'></video>","2","middle","45%","9","","","","","","","",""
"","60.000000055879354","sequential-stimulus-presentation","187","280303","0.0-37.0","SS1613098704627","pref_reveal","","40","800","860.0000000558794","null","null","","","","","9","","","","background","","","",""
"","null","html-keyboard-response","188","281293","0.0-38.0-0.0","SS1613098704627","","","null","","","","","<p><img src= images/blank.png width =""200"" height = ""200"" style = ""float:right""></p><p><img src=images/blank.png width =""800"" height = ""200""></p>","","","","","","","","","","","",""
"","244.99999964609742","sequential-stimulus-presentation","189","282358","0.0-38.0-1.0","SS1613098704627","trial","","40","800","1044.9999996460974","images/stimuli/spore_stims/complex_04_A_a.gif","images/stimuli/spore_stims/complex_20_B_d.gif","","","","","10","complex_dissimilar","images/stimuli/spore_stims/complex_20_B_d.gif","left","","","","",""
"","null","html-keyboard-response","190","283363","0.0-38.0-0.1","SS1613098704627","","","null","","","","","<p><img src= images/blank.png width =""200"" height = ""200"" style = ""float:right""></p><p><img src=images/blank.png width =""800"" height = ""200""></p>","","","","","","","","","","","",""
"","214.9999998509884","sequential-stimulus-presentation","191","284396","0.0-38.0-1.1","SS1613098704627","trial","","40","800","1014.9999998509884","images/stimuli/spore_stims/complex_04_A_a.gif","images/stimuli/spore_stims/complex_20_B_d.gif","","","","","10","complex_dissimilar","images/stimuli/spore_stims/complex_20_B_d.gif","left","","","","",""
"","null","html-keyboard-response","192","285593","0.0-38.0-0.2","SS1613098704627","","","null","","","","","<p><img src= images/blank.png width =""200"" height = ""200"" style = ""float:right""></p><p><img src=images/blank.png width =""800"" height = ""200""></p>","","","","","","","","","","","",""
"","271.0000001825392","sequential-stimulus-presentation","193","286672","0.0-38.0-1.2","SS1613098704627","trial","","40","800","1071.0000001825392","images/stimuli/spore_stims/complex_04_A_a.gif","images/stimuli/spore_stims/complex_20_B_d.gif","","","","","10","complex_dissimilar","images/stimuli/spore_stims/complex_20_B_d.gif","left","","","","",""
"","null","html-keyboard-response","194","287749","0.0-38.0-0.3","SS1613098704627","","","null","","","","","<p><img src= images/blank.png width =""200"" height = ""200"" style = ""float:right""></p><p><img src=images/blank.png width =""800"" height = ""200""></p>","","","","","","","","","","","",""
"","193.99999966844916","sequential-stimulus-presentation","195","288773","0.0-38.0-1.3","SS1613098704627","trial","","40","800","993.9999996684492","images/stimuli/spore_stims/complex_04_A_a.gif","images/stimuli/spore_stims/complex_20_B_d.gif","","","","","10","complex_dissimilar","images/stimuli/spore_stims/complex_04_A_a.gif","middle","","","","",""
"","null","html-keyboard-response","196","289775","0.0-38.0-0.4","SS1613098704627","","","null","","","","","<p><img src= images/blank.png width =""200"" height = ""200"" style = ""float:right""></p><p><img src=images/blank.png width =""800"" height = ""200""></p>","","","","","","","","","","","",""
"","584.9999999627471","sequential-stimulus-presentation","197","291182","0.0-38.0-1.4","SS1613098704627","trial","","40","800","1384.999999962747","images/stimuli/spore_stims/complex_04_A_a.gif","images/stimuli/spore_stims/complex_20_B_d.gif","","","","","10","complex_dissimilar","images/stimuli/spore_stims/complex_20_B_d.gif","left","","","","",""
"","null","html-keyboard-response","198","292406","0.0-38.0-0.5","SS1613098704627","","","null","","","","","<p><img src= images/blank.png width =""200"" height = ""200"" style = ""float:right""></p><p><img src=images/blank.png width =""800"" height = ""200""></p>","","","","","","","","","","","",""
"","439.99999994412065","sequential-stimulus-presentation","199","293662","0.0-38.0-1.5","SS1613098704627","trial","","40","800","1239.9999999441206","images/stimuli/spore_stims/complex_04_A_a.gif","images/stimuli/spore_stims/complex_20_B_d.gif","","","","","10","complex_dissimilar","images/stimuli/spore_stims/complex_20_B_d.gif","left","","","","",""
"","null","html-keyboard-response","200","294580","0.0-38.0-0.6","SS1613098704627","","","null","","","","","<p><img src= images/blank.png width =""200"" height = ""200"" style = ""float:right""></p><p><img src=images/blank.png width =""800"" height = ""200""></p>","","","","","","","","","","","",""
"","271.9999998807907","sequential-stimulus-presentation","201","295666","0.0-38.0-1.6","SS1613098704627","trial","","40","800","1071.9999998807907","images/stimuli/spore_stims/complex_04_A_a.gif","images/stimuli/spore_stims/complex_20_B_d.gif","","","","","10","complex_dissimilar","images/stimuli/spore_stims/complex_20_B_d.gif","left","","","","",""
"","null","html-keyboard-response","202","296724","0.0-38.0-0.7","SS1613098704627","","","null","","","","","<p><img src= images/blank.png width =""200"" height = ""200"" style = ""float:right""></p><p><img src=images/blank.png width =""800"" height = ""200""></p>","","","","","","","","","","","",""
"","851.9999999552965","sequential-stimulus-presentation","203","298384","0.0-38.0-1.7","SS1613098704627","trial","","40","800","1651.9999999552965","images/stimuli/spore_stims/complex_04_A_a.gif","images/stimuli/spore_stims/complex_20_B_d.gif","","","","","10","complex_dissimilar","images/stimuli/spore_stims/complex_20_B_d.gif","left","","","","",""
"","361.0000000335276","html-keyboard-response","204","298752","0.0-39.0","SS1613098704627","pref_question","","51","","","","","<video width ='960' height = '540' style='padding-top:8%' autoplay muted><source src='images/stimuli/wall_pref.mp4' type='video/mp4'></video>","3","right","66%","10","","","","","","","",""
"","10.999999940395355","sequential-stimulus-presentation","205","299574","0.0-40.0","SS1613098704627","pref_reveal","","40","800","810.9999999403954","null","null","","","","","10","","","","novel","","","",""
"","null","html-keyboard-response","206","300461","0.0-41.0-0.0","SS1613098704627","","","null","","","","","<p><img src= images/blank.png width =""200"" height = ""200"" style = ""float:right""></p><p><img src=images/blank.png width =""800"" height = ""200""></p>","","","","","","","","","","","",""
"","146.9999998807907","sequential-stimulus-presentation","207","301430","0.0-41.0-1.0","SS1613098704627","trial","","40","800","946.9999998807907","images/stimuli/spore_stims/complex_13_A_b.gif","images/stimuli/spore_stims/complex_13_B_b.gif","","","","","11","complex_similar","images/stimuli/spore_stims/complex_13_B_b.gif","middle","","","","",""
"","null","html-keyboard-response","208","302727","0.0-41.0-0.1","SS1613098704627","","","null","","","","","<p><img src= images/blank.png width =""200"" height = ""200"" style = ""float:right""></p><p><img src=images/blank.png width =""800"" height = ""200""></p>","","","","","","","","","","","",""
"","16.000000294297934","sequential-stimulus-presentation","209","303551","0.0-41.0-1.1","SS1613098704627","trial","","40","800","816.0000002942979","images/stimuli/spore_stims/complex_13_A_b.gif","images/stimuli/spore_stims/complex_13_B_b.gif","","","","","11","complex_similar","images/stimuli/spore_stims/complex_13_B_b.gif","middle","","","","",""
"","null","html-keyboard-response","210","304429","0.0-41.0-0.2","SS1613098704627","","","null","","","","","<p><img src= images/blank.png width =""200"" height = ""200"" style = ""float:right""></p><p><img src=images/blank.png width =""800"" height = ""200""></p>","","","","","","","","","","","",""
"","301.99999967589974","sequential-stimulus-presentation","211","305543","0.0-41.0-1.2","SS1613098704627","trial","","40","800","1101.9999996758997","images/stimuli/spore_stims/complex_13_A_b.gif","images/stimuli/spore_stims/complex_13_B_b.gif","","","","","11","complex_similar","images/stimuli/spore_stims/complex_13_B_b.gif","middle","","","","",""
"","null","html-keyboard-response","212","306470","0.0-41.0-0.3","SS1613098704627","","","null","","","","","<p><img src= images/blank.png width =""200"" height = ""200"" style = ""float:right""></p><p><img src=images/blank.png width =""800"" height = ""200""></p>","","","","","","","","","","","",""
"","273.99999974295497","sequential-stimulus-presentation","213","307555","0.0-41.0-1.3","SS1613098704627","trial","","40","800","1073.999999742955","images/stimuli/spore_stims/complex_13_A_b.gif","images/stimuli/spore_stims/complex_13_B_b.gif","","","","","11","complex_similar","images/stimuli/spore_stims/complex_13_B_b.gif","middle","","","","",""
"","null","html-keyboard-response","214","308647","0.0-41.0-0.4","SS1613098704627","","","null","","","","","<p><img src= images/blank.png width =""200"" height = ""200"" style = ""float:right""></p><p><img src=images/blank.png width =""800"" height = ""200""></p>","","","","","","","","","","","",""
"","162.00000001117587","sequential-stimulus-presentation","215","309621","0.0-41.0-1.4","SS1613098704627","trial","","40","800","962.0000000111759","images/stimuli/spore_stims/complex_13_A_b.gif","images/stimuli/spore_stims/complex_13_B_b.gif","","","","","11","complex_similar","images/stimuli/spore_stims/complex_13_B_b.gif","middle","","","","",""
"","null","html-keyboard-response","216","310902","0.0-41.0-0.5","SS1613098704627","","","null","","","","","<p><img src= images/blank.png width =""200"" height = ""200"" style = ""float:right""></p><p><img src=images/blank.png width =""800"" height = ""200""></p>","","","","","","","","","","","",""
"","98.99999992921948","sequential-stimulus-presentation","217","311810","0.0-41.0-1.5","SS1613098704627","trial","","40","800","898.9999999292195","images/stimuli/spore_stims/complex_13_A_b.gif","images/stimuli/spore_stims/complex_13_B_b.gif","","","","","11","complex_similar","images/stimuli/spore_stims/complex_13_B_b.gif","middle","","","","",""
"","null","html-keyboard-response","218","312693","0.0-41.0-0.6","SS1613098704627","","","null","","","","","<p><img src= images/blank.png width =""200"" height = ""200"" style = ""float:right""></p><p><img src=images/blank.png width =""800"" height = ""200""></p>","","","","","","","","","","","",""
"","165.0000000372529","sequential-stimulus-presentation","219","313673","0.0-41.0-1.6","SS1613098704627","trial","","40","800","965.0000000372529","images/stimuli/spore_stims/complex_13_A_b.gif","images/stimuli/spore_stims/complex_13_B_b.gif","","","","","11","complex_similar","images/stimuli/spore_stims/complex_13_B_b.gif","middle","","","","",""
"","null","html-keyboard-response","220","314543","0.0-41.0-0.7","SS1613098704627","","","null","","","","","<p><img src= images/blank.png width =""200"" height = ""200"" style = ""float:right""></p><p><img src=images/blank.png width =""800"" height = ""200""></p>","","","","","","","","","","","",""
"","416.99999989941716","sequential-stimulus-presentation","221","315788","0.0-41.0-1.7","SS1613098704627","trial","","40","800","1216.9999998994172","images/stimuli/spore_stims/complex_13_A_b.gif","images/stimuli/spore_stims/complex_13_B_b.gif","","","","","11","complex_similar","images/stimuli/spore_stims/complex_13_A_b.gif","right","","","","",""
"","199.99999972060323","html-keyboard-response","222","315992","0.0-42.0","SS1613098704627","pref_question","","50","","","","","<video width ='960' height = '540' style='padding-top:8%' autoplay muted><source src='images/stimuli/wall_pref.mp4' type='video/mp4'></video>","2","middle","45%","11","","","","","","","",""
"","381.00000005215406","sequential-stimulus-presentation","223","317185","0.0-43.0","SS1613098704627","pref_reveal","","40","800","1181.000000052154","null","null","","","","","11","","","","background","","","",""
"","null","html-keyboard-response","224","318228","0.0-44.0-0.0","SS1613098704627","","","null","","","","","<p><img src= images/blank.png width =""200"" height = ""200"" style = ""float:right""></p><p><img src=images/blank.png width =""800"" height = ""200""></p>","","","","","","","","","","","",""
"","73.00000032410026","sequential-stimulus-presentation","225","319152","0.0-44.0-1.0","SS1613098704627","trial","","40","800","873.0000003241003","images/stimuli/spore_stims/simple_12_B_a.gif","images/stimuli/spore_stims/simple_19_A_a.gif","","","","","12","simple_dissimilar","images/stimuli/spore_stims/simple_19_A_a.gif","left","","","","",""
"","null","html-keyboard-response","226","320355","0.0-44.0-0.1","SS1613098704627","","","null","","","","","<p><img src= images/blank.png width =""200"" height = ""200"" style = ""float:right""></p><p><img src=images/blank.png width =""800"" height = ""200""></p>","","","","","","","","","","","",""
"","529.999999795109","sequential-stimulus-presentation","227","321791","0.0-44.0-1.1","SS1613098704627","trial","","40","800","1329.999999795109","images/stimuli/spore_stims/simple_12_B_a.gif","images/stimuli/spore_stims/simple_19_A_a.gif","","","","","12","simple_dissimilar","images/stimuli/spore_stims/simple_19_A_a.gif","left","","","","",""
"","null","html-keyboard-response","228","322803","0.0-44.0-0.2","SS1613098704627","","","null","","","","","<p><img src= images/blank.png width =""200"" height = ""200"" style = ""float:right""></p><p><img src=images/blank.png width =""800"" height = ""200""></p>","","","","","","","","","","","",""
"","304.9999997019768","sequential-stimulus-presentation","229","323921","0.0-44.0-1.2","SS1613098704627","trial","","40","800","1104.9999997019768","images/stimuli/spore_stims/simple_12_B_a.gif","images/stimuli/spore_stims/simple_19_A_a.gif","","","","","12","simple_dissimilar","images/stimuli/spore_stims/simple_19_A_a.gif","left","","","","",""
"","null","html-keyboard-response","230","324732","0.0-44.0-0.3","SS1613098704627","","","null","","","","","<p><img src= images/blank.png width =""200"" height = ""200"" style = ""float:right""></p><p><img src=images/blank.png width =""800"" height = ""200""></p>","","","","","","","","","","","",""
"","523.0000000447035","sequential-stimulus-presentation","231","326062","0.0-44.0-1.3","SS1613098704627","trial","","40","800","1323.0000000447035","images/stimuli/spore_stims/simple_12_B_a.gif","images/stimuli/spore_stims/simple_19_A_a.gif","","","","","12","simple_dissimilar","images/stimuli/spore_stims/simple_12_B_a.gif","right","","","","",""
"","null","html-keyboard-response","232","326892","0.0-44.0-0.4","SS1613098704627","","","null","","","","","<p><img src= images/blank.png width =""200"" height = ""200"" style = ""float:right""></p><p><img src=images/blank.png width =""800"" height = ""200""></p>","","","","","","","","","","","",""
"","371.99999997392297","sequential-stimulus-presentation","233","328074","0.0-44.0-1.4","SS1613098704627","trial","","40","800","1171.999999973923","images/stimuli/spore_stims/simple_12_B_a.gif","images/stimuli/spore_stims/simple_19_A_a.gif","","","","","12","simple_dissimilar","images/stimuli/spore_stims/simple_19_A_a.gif","left","","","","",""
"","null","html-keyboard-response","234","329297","0.0-44.0-0.5","SS1613098704627","","","null","","","","","<p><img src= images/blank.png width =""200"" height = ""200"" style = ""float:right""></p><p><img src=images/blank.png width =""800"" height = ""200""></p>","","","","","","","","","","","",""
"","138.0000002682209","sequential-stimulus-presentation","235","330247","0.0-44.0-1.5","SS1613098704627","trial","","40","800","938.0000002682209","images/stimuli/spore_stims/simple_12_B_a.gif","images/stimuli/spore_stims/simple_19_A_a.gif","","","","","12","simple_dissimilar","images/stimuli/spore_stims/simple_19_A_a.gif","left","","","","",""
"","null","html-keyboard-response","236","331549","0.0-44.0-0.6","SS1613098704627","","","null","","","","","<p><img src= images/blank.png width =""200"" height = ""200"" style = ""float:right""></p><p><img src=images/blank.png width =""800"" height = ""200""></p>","","","","","","","","","","","",""
"","58.000000193715096","sequential-stimulus-presentation","237","332428","0.0-44.0-1.6","SS1613098704627","trial","","40","800","858.0000001937151","images/stimuli/spore_stims/simple_12_B_a.gif","images/stimuli/spore_stims/simple_19_A_a.gif","","","","","12","simple_dissimilar","images/stimuli/spore_stims/simple_19_A_a.gif","left","","","","",""
"","null","html-keyboard-response","238","333315","0.0-44.0-0.7","SS1613098704627","","","null","","","","","<p><img src= images/blank.png width =""200"" height = ""200"" style = ""float:right""></p><p><img src=images/blank.png width =""800"" height = ""200""></p>","","","","","","","","","","","",""
"","243.99999994784594","sequential-stimulus-presentation","239","334375","0.0-44.0-1.7","SS1613098704627","trial","","40","800","1043.999999947846","images/stimuli/spore_stims/simple_12_B_a.gif","images/stimuli/spore_stims/simple_19_A_a.gif","","","","","12","simple_dissimilar","images/stimuli/spore_stims/simple_19_A_a.gif","left","","","","",""
"","49.000000115484","html-keyboard-response","240","334432","0.0-45.0","SS1613098704627","pref_question","","50","","","","","<video width ='960' height = '540' style='padding-top:8%' autoplay muted><source src='images/stimuli/wall_pref.mp4' type='video/mp4'></video>","2","middle","45%","12","","","","","","","",""
"","180.99999986588955","sequential-stimulus-presentation","241","335428","0.0-46.0","SS1613098704627","pref_reveal","","40","800","980.9999998658895","null","null","","","","","12","","","","novel","","","",""
"","null","html-keyboard-response","242","336429","0.0-47.0-0.0","SS1613098704627","","","null","","","","","<p><img src= images/blank.png width =""200"" height = ""200"" style = ""float:right""></p><p><img src=images/blank.png width =""800"" height = ""200""></p>","","","","","","","","","","","",""
"","1.999999862164259","sequential-stimulus-presentation","243","337244","0.0-47.0-1.0","SS1613098704627","trial","","40","800","801.9999998621643","images/stimuli/spore_stims/simple_16_A_a.gif","images/stimuli/spore_stims/simple_10_B_a.gif","","","","","13","simple_dissimilar","images/stimuli/spore_stims/simple_10_B_a.gif","right","","","","",""
"","null","html-keyboard-response","244","338480","0.0-47.0-0.1","SS1613098704627","","","null","","","","","<p><img src= images/blank.png width =""200"" height = ""200"" style = ""float:right""></p><p><img src=images/blank.png width =""800"" height = ""200""></p>","","","","","","","","","","","",""
"","370.0000001117587","sequential-stimulus-presentation","245","339662","0.0-47.0-1.1","SS1613098704627","trial","","40","800","1170.0000001117587","images/stimuli/spore_stims/simple_16_A_a.gif","images/stimuli/spore_stims/simple_10_B_a.gif","","","","","13","simple_dissimilar","images/stimuli/spore_stims/simple_10_B_a.gif","right","","","","",""
"","null","html-keyboard-response","246","340765","0.0-47.0-0.2","SS1613098704627","","","null","","","","","<p><img src= images/blank.png width =""200"" height = ""200"" style = ""float:right""></p><p><img src=images/blank.png width =""800"" height = ""200""></p>","","","","","","","","","","","",""
"","233.00000000745058","sequential-stimulus-presentation","247","341815","0.0-47.0-1.2","SS1613098704627","trial","","40","800","1033.0000000074506","images/stimuli/spore_stims/simple_16_A_a.gif","images/stimuli/spore_stims/simple_10_B_a.gif","","","","","13","simple_dissimilar","images/stimuli/spore_stims/simple_10_B_a.gif","right","","","","",""
"","null","html-keyboard-response","248","342947","0.0-47.0-0.3","SS1613098704627","","","null","","","","","<p><img src= images/blank.png width =""200"" height = ""200"" style = ""float:right""></p><p><img src=images/blank.png width =""800"" height = ""200""></p>","","","","","","","","","","","",""
"","256.00000005215406","sequential-stimulus-presentation","249","344017","0.0-47.0-1.3","SS1613098704627","trial","","40","800","1056.000000052154","images/stimuli/spore_stims/simple_16_A_a.gif","images/stimuli/spore_stims/simple_10_B_a.gif","","","","","13","simple_dissimilar","images/stimuli/spore_stims/simple_10_B_a.gif","right","","","","",""
"","null","html-keyboard-response","250","345300","0.0-47.0-0.4","SS1613098704627","","","null","","","","","<p><img src= images/blank.png width =""200"" height = ""200"" style = ""float:right""></p><p><img src=images/blank.png width =""800"" height = ""200""></p>","","","","","","","","","","","",""
"","154.00000009685755","sequential-stimulus-presentation","251","346270","0.0-47.0-1.4","SS1613098704627","trial","","40","800","954.0000000968575","images/stimuli/spore_stims/simple_16_A_a.gif","images/stimuli/spore_stims/simple_10_B_a.gif","","","","","13","simple_dissimilar","images/stimuli/spore_stims/simple_10_B_a.gif","right","","","","",""
"","null","html-keyboard-response","252","347318","0.0-47.0-0.5","SS1613098704627","","","null","","","","","<p><img src= images/blank.png width =""200"" height = ""200"" style = ""float:right""></p><p><img src=images/blank.png width =""800"" height = ""200""></p>","","","","","","","","","","","",""
"","412.00000001117587","sequential-stimulus-presentation","253","348540","0.0-47.0-1.5","SS1613098704627","trial","","40","800","1212.0000000111759","images/stimuli/spore_stims/simple_16_A_a.gif","images/stimuli/spore_stims/simple_10_B_a.gif","","","","","13","simple_dissimilar","images/stimuli/spore_stims/simple_10_B_a.gif","right","","","","",""
"","null","html-keyboard-response","254","349728","0.0-47.0-0.6","SS1613098704627","","","null","","","","","<p><img src= images/blank.png width =""200"" height = ""200"" style = ""float:right""></p><p><img src=images/blank.png width =""800"" height = ""200""></p>","","","","","","","","","","","",""
"","338.9999996870756","sequential-stimulus-presentation","255","350906","0.0-47.0-1.6","SS1613098704627","trial","","40","800","1138.9999996870756","images/stimuli/spore_stims/simple_16_A_a.gif","images/stimuli/spore_stims/simple_10_B_a.gif","","","","","13","simple_dissimilar","images/stimuli/spore_stims/simple_10_B_a.gif","right","","","","",""
"","null","html-keyboard-response","256","351825","0.0-47.0-0.7","SS1613098704627","","","null","","","","","<p><img src= images/blank.png width =""200"" height = ""200"" style = ""float:right""></p><p><img src=images/blank.png width =""800"" height = ""200""></p>","","","","","","","","","","","",""
"","308.0000001937151","sequential-stimulus-presentation","257","352963","0.0-47.0-1.7","SS1613098704627","trial","","40","800","1108.000000193715","images/stimuli/spore_stims/simple_16_A_a.gif","images/stimuli/spore_stims/simple_10_B_a.gif","","","","","13","simple_dissimilar","images/stimuli/spore_stims/simple_16_A_a.gif","middle","","","","",""
"","53.000000305473804","html-keyboard-response","258","353026","0.0-48.0","SS1613098704627","pref_question","","51","","","","","<video width ='960' height = '540' style='padding-top:8%' autoplay muted><source src='images/stimuli/wall_pref.mp4' type='video/mp4'></video>","3","right","66%","13","","","","","","","",""
"","61.99999991804361","sequential-stimulus-presentation","259","353901","0.0-49.0","SS1613098704627","pref_reveal","","40","800","861.9999999180436","null","null","","","","","13","","","","background","","","",""
"","null","html-keyboard-response","260","354888","0.0-50.0-0.0","SS1613098704627","","","null","","","","","<p><img src= images/blank.png width =""200"" height = ""200"" style = ""float:right""></p><p><img src=images/blank.png width =""800"" height = ""200""></p>","","","","","","","","","","","",""
"","52.00000014156103","sequential-stimulus-presentation","261","355749","0.0-50.0-1.0","SS1613098704627","trial","","40","800","852.000000141561","images/stimuli/spore_stims/complex_18_B_c.gif","images/stimuli/spore_stims/complex_06_A_a.gif","","","","","14","complex_dissimilar","images/stimuli/spore_stims/complex_06_A_a.gif","middle","","","","",""
"","null","html-keyboard-response","262","356672","0.0-50.0-0.1","SS1613098704627","","","null","","","","","<p><img src= images/blank.png width =""200"" height = ""200"" style = ""float:right""></p><p><img src=images/blank.png width =""800"" height = ""200""></p>","","","","","","","","","","","",""
"","24.999999906867743","sequential-stimulus-presentation","263","357529","0.0-50.0-1.1","SS1613098704627","trial","","40","800","824.9999999068677","images/stimuli/spore_stims/complex_18_B_c.gif","images/stimuli/spore_stims/complex_06_A_a.gif","","","","","14","complex_dissimilar","images/stimuli/spore_stims/complex_06_A_a.gif","middle","","","","",""
"","null","html-keyboard-response","264","358372","0.0-50.0-0.2","SS1613098704627","","","null","","","","","<p><img src= images/blank.png width =""200"" height = ""200"" style = ""float:right""></p><p><img src=images/blank.png width =""800"" height = ""200""></p>","","","","","","","","","","","",""
"","154.00000009685755","sequential-stimulus-presentation","265","359337","0.0-50.0-1.2","SS1613098704627","trial","","40","800","954.0000000968575","images/stimuli/spore_stims/complex_18_B_c.gif","images/stimuli/spore_stims/complex_06_A_a.gif","","","","","14","complex_dissimilar","images/stimuli/spore_stims/complex_06_A_a.gif","middle","","","","",""
"","null","html-keyboard-response","266","360236","0.0-50.0-0.3","SS1613098704627","","","null","","","","","<p><img src= images/blank.png width =""200"" height = ""200"" style = ""float:right""></p><p><img src=images/blank.png width =""800"" height = ""200""></p>","","","","","","","","","","","",""
"","220.99999990314245","sequential-stimulus-presentation","267","361284","0.0-50.0-1.3","SS1613098704627","trial","","40","800","1020.9999999031425","images/stimuli/spore_stims/complex_18_B_c.gif","images/stimuli/spore_stims/complex_06_A_a.gif","","","","","14","complex_dissimilar","images/stimuli/spore_stims/complex_06_A_a.gif","middle","","","","",""
"","null","html-keyboard-response","268","362594","0.0-50.0-0.4","SS1613098704627","","","null","","","","","<p><img src= images/blank.png width =""200"" height = ""200"" style = ""float:right""></p><p><img src=images/blank.png width =""800"" height = ""200""></p>","","","","","","","","","","","",""
"","23.99999974295497","sequential-stimulus-presentation","269","363429","0.0-50.0-1.4","SS1613098704627","trial","","40","800","823.999999742955","images/stimuli/spore_stims/complex_18_B_c.gif","images/stimuli/spore_stims/complex_06_A_a.gif","","","","","14","complex_dissimilar","images/stimuli/spore_stims/complex_06_A_a.gif","middle","","","","",""
"","null","html-keyboard-response","270","364603","0.0-50.0-0.5","SS1613098704627","","","null","","","","","<p><img src= images/blank.png width =""200"" height = ""200"" style = ""float:right""></p><p><img src=images/blank.png width =""800"" height = ""200""></p>","","","","","","","","","","","",""
"","347.0000000670552","sequential-stimulus-presentation","271","365783","0.0-50.0-1.5","SS1613098704627","trial","","40","800","1147.0000000670552","images/stimuli/spore_stims/complex_18_B_c.gif","images/stimuli/spore_stims/complex_06_A_a.gif","","","","","14","complex_dissimilar","images/stimuli/spore_stims/complex_06_A_a.gif","middle","","","","",""
"","null","html-keyboard-response","272","366678","0.0-50.0-0.6","SS1613098704627","","","null","","","","","<p><img src= images/blank.png width =""200"" height = ""200"" style = ""float:right""></p><p><img src=images/blank.png width =""800"" height = ""200""></p>","","","","","","","","","","","",""
"","129.0000001899898","sequential-stimulus-presentation","273","367625","0.0-50.0-1.6","SS1613098704627","trial","","40","800","929.0000001899898","images/stimuli/spore_stims/complex_18_B_c.gif","images/stimuli/spore_stims/complex_06_A_a.gif","","","","","14","complex_dissimilar","images/stimuli/spore_stims/complex_18_B_c.gif","right","","","","",""
"","null","html-keyboard-response","274","368929","0.0-50.0-0.7","SS1613098704627","","","null","","","","","<p><img src= images/blank.png width =""200"" height = ""200"" style = ""float:right""></p><p><img src=images/blank.png width =""800"" height = ""200""></p>","","","","","","","","","","","",""
"","200.00000018626451","sequential-stimulus-presentation","275","369948","0.0-50.0-1.7","SS1613098704627","trial","","40","800","1000.0000001862645","images/stimuli/spore_stims/complex_18_B_c.gif","images/stimuli/spore_stims/complex_06_A_a.gif","","","","","14","complex_dissimilar","images/stimuli/spore_stims/complex_06_A_a.gif","middle","","","","",""
"","103.99999981746078","html-keyboard-response","276","370061","0.0-51.0","SS1613098704627","pref_question","","49","","","","","<video width ='960' height = '540' style='padding-top:8%' autoplay muted><source src='images/stimuli/wall_pref.mp4' type='video/mp4'></video>","1","left","25%","14","","","","","","","",""
"","372.99999967217445","sequential-stimulus-presentation","277","371288","0.0-52.0","SS1613098704627","pref_reveal","","40","800","1172.9999996721745","null","null","","","","","14","","","","novel","","","",""
"","null","html-keyboard-response","278","372487","0.0-53.0-0.0","SS1613098704627","","","null","","","","","<p><img src= images/blank.png width =""200"" height = ""200"" style = ""float:right""></p><p><img src=images/blank.png width =""800"" height = ""200""></p>","","","","","","","","","","","",""
"","432.0000000298023","sequential-stimulus-presentation","279","373735","0.0-53.0-1.0","SS1613098704627","trial","","40","800","1232.0000000298023","images/stimuli/spore_stims/complex_12_B_b.gif","images/stimuli/spore_stims/complex_12_A_b.gif","","","","","15","complex_similar","images/stimuli/spore_stims/complex_12_A_b.gif","right","","","","",""
"","null","html-keyboard-response","280","374647","0.0-53.0-0.1","SS1613098704627","","","null","","","","","<p><img src= images/blank.png width =""200"" height = ""200"" style = ""float:right""></p><p><img src=images/blank.png width =""800"" height = ""200""></p>","","","","","","","","","","","",""
"","183.99999989196658","sequential-stimulus-presentation","281","375655","0.0-53.0-1.1","SS1613098704627","trial","","40","800","983.9999998919666","images/stimuli/spore_stims/complex_12_B_b.gif","images/stimuli/spore_stims/complex_12_A_b.gif","","","","","15","complex_similar","images/stimuli/spore_stims/complex_12_A_b.gif","right","","","","",""
"","null","html-keyboard-response","282","376917","0.0-53.0-0.2","SS1613098704627","","","null","","","","","<p><img src= images/blank.png width =""200"" height = ""200"" style = ""float:right""></p><p><img src=images/blank.png width =""800"" height = ""200""></p>","","","","","","","","","","","",""
"","145.00000001862645","sequential-stimulus-presentation","283","377872","0.0-53.0-1.2","SS1613098704627","trial","","40","800","945.0000000186265","images/stimuli/spore_stims/complex_12_B_b.gif","images/stimuli/spore_stims/complex_12_A_b.gif","","","","","15","complex_similar","images/stimuli/spore_stims/complex_12_A_b.gif","right","","","","",""
"","null","html-keyboard-response","284","379086","0.0-53.0-0.3","SS1613098704627","","","null","","","","","<p><img src= images/blank.png width =""200"" height = ""200"" style = ""float:right""></p><p><img src=images/blank.png width =""800"" height = ""200""></p>","","","","","","","","","","","",""
"","391.9999999925494","sequential-stimulus-presentation","285","380292","0.0-53.0-1.3","SS1613098704627","trial","","40","800","1191.9999999925494","images/stimuli/spore_stims/complex_12_B_b.gif","images/stimuli/spore_stims/complex_12_A_b.gif","","","","","15","complex_similar","images/stimuli/spore_stims/complex_12_A_b.gif","right","","","","",""
"","null","html-keyboard-response","286","381516","0.0-53.0-0.4","SS1613098704627","","","null","","","","","<p><img src= images/blank.png width =""200"" height = ""200"" style = ""float:right""></p><p><img src=images/blank.png width =""800"" height = ""200""></p>","","","","","","","","","","","",""
"","376.0000001639128","sequential-stimulus-presentation","287","382708","0.0-53.0-1.4","SS1613098704627","trial","","40","800","1176.0000001639128","images/stimuli/spore_stims/complex_12_B_b.gif","images/stimuli/spore_stims/complex_12_A_b.gif","","","","","15","complex_similar","images/stimuli/spore_stims/complex_12_A_b.gif","right","","","","",""
"","null","html-keyboard-response","288","383634","0.0-53.0-0.5","SS1613098704627","","","null","","","","","<p><img src= images/blank.png width =""200"" height = ""200"" style = ""float:right""></p><p><img src=images/blank.png width =""800"" height = ""200""></p>","","","","","","","","","","","",""
"","97.00000006705523","sequential-stimulus-presentation","289","384542","0.0-53.0-1.5","SS1613098704627","trial","","40","800","897.0000000670552","images/stimuli/spore_stims/complex_12_B_b.gif","images/stimuli/spore_stims/complex_12_A_b.gif","","","","","15","complex_similar","images/stimuli/spore_stims/complex_12_B_b.gif","middle","","","","",""
"","null","html-keyboard-response","290","385475","0.0-53.0-0.6","SS1613098704627","","","null","","","","","<p><img src= images/blank.png width =""200"" height = ""200"" style = ""float:right""></p><p><img src=images/blank.png width =""800"" height = ""200""></p>","","","","","","","","","","","",""
"","138.9999999664724","sequential-stimulus-presentation","291","386432","0.0-53.0-1.6","SS1613098704627","trial","","40","800","938.9999999664724","images/stimuli/spore_stims/complex_12_B_b.gif","images/stimuli/spore_stims/complex_12_A_b.gif","","","","","15","complex_similar","images/stimuli/spore_stims/complex_12_A_b.gif","right","","","","",""
"","null","html-keyboard-response","292","387636","0.0-53.0-0.7","SS1613098704627","","","null","","","","","<p><img src= images/blank.png width =""200"" height = ""200"" style = ""float:right""></p><p><img src=images/blank.png width =""800"" height = ""200""></p>","","","","","","","","","","","",""
"","124.00000030174851","sequential-stimulus-presentation","293","388593","0.0-53.0-1.7","SS1613098704627","trial","","40","800","924.0000003017485","images/stimuli/spore_stims/complex_12_B_b.gif","images/stimuli/spore_stims/complex_12_A_b.gif","","","","","15","complex_similar","images/stimuli/spore_stims/complex_12_A_b.gif","right","","","","",""
"","19.000000320374966","html-keyboard-response","294","388621","0.0-54.0","SS1613098704627","pref_question","","49","","","","","<video width ='960' height = '540' style='padding-top:8%' autoplay muted><source src='images/stimuli/wall_pref.mp4' type='video/mp4'></video>","1","left","25%","15","","","","","","","",""
"","375.9999996982515","sequential-stimulus-presentation","295","389811","0.0-55.0","SS1613098704627","pref_reveal","","40","800","1175.9999996982515","null","null","","","","","15","","","","novel","","","",""
"","null","html-keyboard-response","296","390841","0.0-56.0-0.0","SS1613098704627","","","null","","","","","<p><img src= images/blank.png width =""200"" height = ""200"" style = ""float:right""></p><p><img src=images/blank.png width =""800"" height = ""200""></p>","","","","","","","","","","","",""
"","435.99999975413084","sequential-stimulus-presentation","297","392089","0.0-56.0-1.0","SS1613098704627","trial","","40","800","1235.9999997541308","images/stimuli/spore_stims/simple_02_B_a.gif","images/stimuli/spore_stims/simple_02_A_a.gif","","","","","16","simple_similar","images/stimuli/spore_stims/simple_02_A_a.gif","left","","","","",""
"","null","html-keyboard-response","298","393057","0.0-56.0-0.1","SS1613098704627","","","null","","","","","<p><img src= images/blank.png width =""200"" height = ""200"" style = ""float:right""></p><p><img src=images/blank.png width =""800"" height = ""200""></p>","","","","","","","","","","","",""
"","114.99999975785613","sequential-stimulus-presentation","299","393982","0.0-56.0-1.1","SS1613098704627","trial","","40","800","914.9999997578561","images/stimuli/spore_stims/simple_02_B_a.gif","images/stimuli/spore_stims/simple_02_A_a.gif","","","","","16","simple_similar","images/stimuli/spore_stims/simple_02_A_a.gif","left","","","","",""
"","null","html-keyboard-response","300","394890","0.0-56.0-0.2","SS1613098704627","","","null","","","","","<p><img src= images/blank.png width =""200"" height = ""200"" style = ""float:right""></p><p><img src=images/blank.png width =""800"" height = ""200""></p>","","","","","","","","","","","",""
"","223.99999992921948","sequential-stimulus-presentation","301","395923","0.0-56.0-1.2","SS1613098704627","trial","","40","800","1023.9999999292195","images/stimuli/spore_stims/simple_02_B_a.gif","images/stimuli/spore_stims/simple_02_A_a.gif","","","","","16","simple_similar","images/stimuli/spore_stims/simple_02_A_a.gif","left","","","","",""
"","null","html-keyboard-response","302","396753","0.0-56.0-0.3","SS1613098704627","","","null","","","","","<p><img src= images/blank.png width =""200"" height = ""200"" style = ""float:right""></p><p><img src=images/blank.png width =""800"" height = ""200""></p>","","","","","","","","","","","",""
"","160.0000001490116","sequential-stimulus-presentation","303","397772","0.0-56.0-1.3","SS1613098704627","trial","","40","800","960.0000001490116","images/stimuli/spore_stims/simple_02_B_a.gif","images/stimuli/spore_stims/simple_02_A_a.gif","","","","","16","simple_similar","images/stimuli/spore_stims/simple_02_B_a.gif","middle","","","","",""
"","null","html-keyboard-response","304","398698","0.0-56.0-0.4","SS1613098704627","","","null","","","","","<p><img src= images/blank.png width =""200"" height = ""200"" style = ""float:right""></p><p><img src=images/blank.png width =""800"" height = ""200""></p>","","","","","","","","","","","",""
"","182.9999997280538","sequential-stimulus-presentation","305","399739","0.0-56.0-1.4","SS1613098704627","trial","","40","800","982.9999997280538","images/stimuli/spore_stims/simple_02_B_a.gif","images/stimuli/spore_stims/simple_02_A_a.gif","","","","","16","simple_similar","images/stimuli/spore_stims/simple_02_A_a.gif","left","","","","",""
"","null","html-keyboard-response","306","400639","0.0-56.0-0.5","SS1613098704627","","","null","","","","","<p><img src= images/blank.png width =""200"" height = ""200"" style = ""float:right""></p><p><img src=images/blank.png width =""800"" height = ""200""></p>","","","","","","","","","","","",""
"","4.000000189989805","sequential-stimulus-presentation","307","401555","0.0-56.0-1.5","SS1613098704627","trial","","40","800","804.0000001899898","images/stimuli/spore_stims/simple_02_B_a.gif","images/stimuli/spore_stims/simple_02_A_a.gif","","","","","16","simple_similar","images/stimuli/spore_stims/simple_02_A_a.gif","left","","","","",""
"","null","html-keyboard-response","308","402679","0.0-56.0-0.6","SS1613098704627","","","null","","","","","<p><img src= images/blank.png width =""200"" height = ""200"" style = ""float:right""></p><p><img src=images/blank.png width =""800"" height = ""200""></p>","","","","","","","","","","","",""
"","212.99999998882413","sequential-stimulus-presentation","309","403701","0.0-56.0-1.6","SS1613098704627","trial","","40","800","1012.9999999888241","images/stimuli/spore_stims/simple_02_B_a.gif","images/stimuli/spore_stims/simple_02_A_a.gif","","","","","16","simple_similar","images/stimuli/spore_stims/simple_02_A_a.gif","left","","","","",""
"","null","html-keyboard-response","310","405000","0.0-56.0-0.7","SS1613098704627","","","null","","","","","<p><img src= images/blank.png width =""200"" height = ""200"" style = ""float:right""></p><p><img src=images/blank.png width =""800"" height = ""200""></p>","","","","","","","","","","","",""
"","91.00000001490116","sequential-stimulus-presentation","311","405911","0.0-56.0-1.7","SS1613098704627","trial","","40","800","891.0000000149012","images/stimuli/spore_stims/simple_02_B_a.gif","images/stimuli/spore_stims/simple_02_A_a.gif","","","","","16","simple_similar","images/stimuli/spore_stims/simple_02_A_a.gif","left","","","","",""
"","132.99999991431832","html-keyboard-response","312","406050","0.0-57.0","SS1613098704627","pref_question","","51","","","","","<video width ='960' height = '540' style='padding-top:8%' autoplay muted><source src='images/stimuli/wall_pref.mp4' type='video/mp4'></video>","3","right","66%","16","","","","","","","",""
