"view_history","rt","trial_type","trial_index","time_elapsed","internal_node_id","subject","stimulus_type","trial_stimulus","key_press","minimum_viewing_duration","trial_looking_time","block_deviant","block_background","stimulus","wall_pref","location","location_percent","block_number","block_type","stimulus_displayed","position_displayed","stim_type_selected","responses","question_order","stimulus_left","stimulus_right"
"[{""page_index"":0,""viewing_time"":1865.5050000015763}]","1866.1700000011479","instructions","0","1869","0.0-0.0","SS1613100168141","","","","","","","","","","","","","","","","","","","",""
"[{""page_index"":0,""viewing_time"":1073.7799999988056},{""page_index"":1,""viewing_time"":2119.8050000020885}]","3194.0099999992526","instructions","1","7068","0.0-1.0","SS1613100168141","instructions","","","","","","","","","","","","","","","","","","",""
"","1652.1200000061071","sequential-stimulus-presentation","2","9530","0.0-2.0","SS1613100168141","","","40","800","2452.120000006107","null","null","","","","","","","","","","","","",""
"","660.0749999997788","sequential-stimulus-presentation","3","10995","0.0-3.0","SS1613100168141","","","40","800","1460.0749999997788","null","null","","","","","","","","","","","","",""
"[{""page_index"":0,""viewing_time"":1207.07499999844}]","1207.6000000015483","instructions","4","12204","0.0-4.0","SS1613100168141","instructions","","","","","","","","","","","","","","","","","","",""
"","2535.475000004226","html-keyboard-response","5","14748","0.0-5.0","SS1613100168141","instructions","","97","","","","","<video width ='960' height = '540' autoplay muted><source src='images/stimuli/wall_pref.mp4' type='video/mp4'></video>","1","left","25%","","","","","","","","",""
"","1102.6649999985239","sequential-stimulus-presentation","6","16659","0.0-6.0","SS1613100168141","pref_reveal","","40","800","1902.6649999985239","null","null","","","","","","","","","","","","",""
"[{""page_index"":0,""viewing_time"":1031.1749999964377},{""page_index"":1,""viewing_time"":2288.0950000035227},{""page_index"":2,""viewing_time"":1175.9899999960908},{""page_index"":3,""viewing_time"":1760.00500000373}]","6255.664999996952","instructions","7","22917","0.0-7.0","SS1613100168141","instructions","","","","","","","","","","","","","","","","","","",""
"","null","html-keyboard-response","8","23844","0.0-8.0-0.0","SS1613100168141","","","null","","","","","<p><img src= images/blank.png width =""200"" height = ""200"" style = ""float:right""></p><p><img src=images/blank.png width =""800"" height = ""200""></p>","","","","","","","","","","","",""
"","1030.6300000011106","sequential-stimulus-presentation","9","25683","0.0-8.0-1.0","SS1613100168141","trial","","40","800","1830.6300000011106","images/stimuli/spore_stims/simple_02_A_b.gif","images/stimuli/spore_stims/simple_02_B_b.gif","","","","","0","simple_similar","images/stimuli/spore_stims/simple_02_B_b.gif","left","","","","",""
"","null","html-keyboard-response","10","26852","0.0-8.0-0.1","SS1613100168141","","","null","","","","","<p><img src= images/blank.png width =""200"" height = ""200"" style = ""float:right""></p><p><img src=images/blank.png width =""800"" height = ""200""></p>","","","","","","","","","","","",""
"","359.12500000267755","sequential-stimulus-presentation","11","28019","0.0-8.0-1.1","SS1613100168141","trial","","40","800","1159.1250000026776","images/stimuli/spore_stims/simple_02_A_b.gif","images/stimuli/spore_stims/simple_02_B_b.gif","","","","","0","simple_similar","images/stimuli/spore_stims/simple_02_B_b.gif","left","","","","",""
"","null","html-keyboard-response","12","29276","0.0-8.0-0.2","SS1613100168141","","","null","","","","","<p><img src= images/blank.png width =""200"" height = ""200"" style = ""float:right""></p><p><img src=images/blank.png width =""800"" height = ""200""></p>","","","","","","","","","","","",""
"","328.50999999936903","sequential-stimulus-presentation","13","30411","0.0-8.0-1.2","SS1613100168141","trial","","40","800","1128.509999999369","images/stimuli/spore_stims/simple_02_A_b.gif","images/stimuli/spore_stims/simple_02_B_b.gif","","","","","0","simple_similar","images/stimuli/spore_stims/simple_02_B_b.gif","left","","","","",""
"","null","html-keyboard-response","14","31332","0.0-8.0-0.3","SS1613100168141","","","null","","","","","<p><img src= images/blank.png width =""200"" height = ""200"" style = ""float:right""></p><p><img src=images/blank.png width =""800"" height = ""200""></p>","","","","","","","","","","","",""
"","313.5150000016438","sequential-stimulus-presentation","15","32451","0.0-8.0-1.3","SS1613100168141","trial","","40","800","1113.5150000016438","images/stimuli/spore_stims/simple_02_A_b.gif","images/stimuli/spore_stims/simple_02_B_b.gif","","","","","0","simple_similar","images/stimuli/spore_stims/simple_02_B_b.gif","left","","","","",""
"","null","html-keyboard-response","16","33546","0.0-8.0-0.4","SS1613100168141","","","null","","","","","<p><img src= images/blank.png width =""200"" height = ""200"" style = ""float:right""></p><p><img src=images/blank.png width =""800"" height = ""200""></p>","","","","","","","","","","","",""
"","236.32999999972526","sequential-stimulus-presentation","17","34587","0.0-8.0-1.4","SS1613100168141","trial","","40","800","1036.3299999997253","images/stimuli/spore_stims/simple_02_A_b.gif","images/stimuli/spore_stims/simple_02_B_b.gif","","","","","0","simple_similar","images/stimuli/spore_stims/simple_02_B_b.gif","left","","","","",""
"","null","html-keyboard-response","18","35851","0.0-8.0-0.5","SS1613100168141","","","null","","","","","<p><img src= images/blank.png width =""200"" height = ""200"" style = ""float:right""></p><p><img src=images/blank.png width =""800"" height = ""200""></p>","","","","","","","","","","","",""
"","273.1449999992037","sequential-stimulus-presentation","19","36931","0.0-8.0-1.5","SS1613100168141","trial","","40","800","1073.1449999992037","images/stimuli/spore_stims/simple_02_A_b.gif","images/stimuli/spore_stims/simple_02_B_b.gif","","","","","0","simple_similar","images/stimuli/spore_stims/simple_02_B_b.gif","left","","","","",""
"","null","html-keyboard-response","20","37935","0.0-8.0-0.6","SS1613100168141","","","null","","","","","<p><img src= images/blank.png width =""200"" height = ""200"" style = ""float:right""></p><p><img src=images/blank.png width =""800"" height = ""200""></p>","","","","","","","","","","","",""
"","267.6500000015949","sequential-stimulus-presentation","21","39011","0.0-8.0-1.6","SS1613100168141","trial","","40","800","1067.650000001595","images/stimuli/spore_stims/simple_02_A_b.gif","images/stimuli/spore_stims/simple_02_B_b.gif","","","","","0","simple_similar","images/stimuli/spore_stims/simple_02_B_b.gif","left","","","","",""
"","null","html-keyboard-response","22","40035","0.0-8.0-0.7","SS1613100168141","","","null","","","","","<p><img src= images/blank.png width =""200"" height = ""200"" style = ""float:right""></p><p><img src=images/blank.png width =""800"" height = ""200""></p>","","","","","","","","","","","",""
"","249.30500000482425","sequential-stimulus-presentation","23","41091","0.0-8.0-1.7","SS1613100168141","trial","","40","800","1049.3050000048243","images/stimuli/spore_stims/simple_02_A_b.gif","images/stimuli/spore_stims/simple_02_B_b.gif","","","","","0","simple_similar","images/stimuli/spore_stims/simple_02_A_b.gif","right","","","","",""
"","1506.5949999989243","html-keyboard-response","24","42603","0.0-9.0","SS1613100168141","pref_question","","97","","","","","<video width ='960' height = '540' style='padding-top:8%' autoplay muted><source src='images/stimuli/wall_pref.mp4' type='video/mp4'></video>","1","left","25%","0","","","","","","","",""
"","360.5849999948987","sequential-stimulus-presentation","25","43772","0.0-10.0","SS1613100168141","pref_reveal","","40","800","1160.5849999948987","null","null","","","","","0","","","","background","","","",""
"","null","html-keyboard-response","26","44977","0.0-11.0-0.0","SS1613100168141","","","null","","","","","<p><img src= images/blank.png width =""200"" height = ""200"" style = ""float:right""></p><p><img src=images/blank.png width =""800"" height = ""200""></p>","","","","","","","","","","","",""
"","1499.455000004673","sequential-stimulus-presentation","27","47306","0.0-11.0-1.0","SS1613100168141","trial","","40","800","2299.455000004673","images/stimuli/spore_stims/complex_19_A_b.gif","images/stimuli/spore_stims/complex_19_B_b.gif","","","","","1","complex_similar","images/stimuli/spore_stims/complex_19_B_b.gif","right","","","","",""
"","null","html-keyboard-response","28","48525","0.0-11.0-0.1","SS1613100168141","","","null","","","","","<p><img src= images/blank.png width =""200"" height = ""200"" style = ""float:right""></p><p><img src=images/blank.png width =""800"" height = ""200""></p>","","","","","","","","","","","",""
"","494.08499999844935","sequential-stimulus-presentation","29","49826","0.0-11.0-1.1","SS1613100168141","trial","","40","800","1294.0849999984493","images/stimuli/spore_stims/complex_19_A_b.gif","images/stimuli/spore_stims/complex_19_B_b.gif","","","","","1","complex_similar","images/stimuli/spore_stims/complex_19_B_b.gif","right","","","","",""
"","null","html-keyboard-response","30","50695","0.0-11.0-0.2","SS1613100168141","","","null","","","","","<p><img src= images/blank.png width =""200"" height = ""200"" style = ""float:right""></p><p><img src=images/blank.png width =""800"" height = ""200""></p>","","","","","","","","","","","",""
"","378.5599999973783","sequential-stimulus-presentation","31","51882","0.0-11.0-1.2","SS1613100168141","trial","","40","800","1178.5599999973783","images/stimuli/spore_stims/complex_19_A_b.gif","images/stimuli/spore_stims/complex_19_B_b.gif","","","","","1","complex_similar","images/stimuli/spore_stims/complex_19_B_b.gif","right","","","","",""
"","null","html-keyboard-response","32","52780","0.0-11.0-0.3","SS1613100168141","","","null","","","","","<p><img src= images/blank.png width =""200"" height = ""200"" style = ""float:right""></p><p><img src=images/blank.png width =""800"" height = ""200""></p>","","","","","","","","","","","",""
"","341.9900000008056","sequential-stimulus-presentation","33","53931","0.0-11.0-1.3","SS1613100168141","trial","","40","800","1141.9900000008056","images/stimuli/spore_stims/complex_19_A_b.gif","images/stimuli/spore_stims/complex_19_B_b.gif","","","","","1","complex_similar","images/stimuli/spore_stims/complex_19_B_b.gif","right","","","","",""
"","null","html-keyboard-response","34","55032","0.0-11.0-0.4","SS1613100168141","","","null","","","","","<p><img src= images/blank.png width =""200"" height = ""200"" style = ""float:right""></p><p><img src=images/blank.png width =""800"" height = ""200""></p>","","","","","","","","","","","",""
"","738.8449999998556","sequential-stimulus-presentation","35","56578","0.0-11.0-1.4","SS1613100168141","trial","","40","800","1538.8449999998556","images/stimuli/spore_stims/complex_19_A_b.gif","images/stimuli/spore_stims/complex_19_B_b.gif","","","","","1","complex_similar","images/stimuli/spore_stims/complex_19_B_b.gif","right","","","","",""
"","null","html-keyboard-response","36","57780","0.0-11.0-0.5","SS1613100168141","","","null","","","","","<p><img src= images/blank.png width =""200"" height = ""200"" style = ""float:right""></p><p><img src=images/blank.png width =""800"" height = ""200""></p>","","","","","","","","","","","",""
"","1076.2549999999464","sequential-stimulus-presentation","37","59666","0.0-11.0-1.5","SS1613100168141","trial","","40","800","1876.2549999999464","images/stimuli/spore_stims/complex_19_A_b.gif","images/stimuli/spore_stims/complex_19_B_b.gif","","","","","1","complex_similar","images/stimuli/spore_stims/complex_19_A_b.gif","middle","","","","",""
"","null","html-keyboard-response","38","60598","0.0-11.0-0.6","SS1613100168141","","","null","","","","","<p><img src= images/blank.png width =""200"" height = ""200"" style = ""float:right""></p><p><img src=images/blank.png width =""800"" height = ""200""></p>","","","","","","","","","","","",""
"","26.259999998728745","sequential-stimulus-presentation","39","61433","0.0-11.0-1.6","SS1613100168141","trial","","40","800","826.2599999987287","images/stimuli/spore_stims/complex_19_A_b.gif","images/stimuli/spore_stims/complex_19_B_b.gif","","","","","1","complex_similar","images/stimuli/spore_stims/complex_19_B_b.gif","right","","","","",""
"","null","html-keyboard-response","40","62416","0.0-11.0-0.7","SS1613100168141","","","null","","","","","<p><img src= images/blank.png width =""200"" height = ""200"" style = ""float:right""></p><p><img src=images/blank.png width =""800"" height = ""200""></p>","","","","","","","","","","","",""
"","623.5000000015134","sequential-stimulus-presentation","41","63849","0.0-11.0-1.7","SS1613100168141","trial","","40","800","1423.5000000015134","images/stimuli/spore_stims/complex_19_A_b.gif","images/stimuli/spore_stims/complex_19_B_b.gif","","","","","1","complex_similar","images/stimuli/spore_stims/complex_19_B_b.gif","right","","","","",""
"","1603.9850000015576","html-keyboard-response","42","65458","0.0-12.0","SS1613100168141","pref_question","","98","","","","","<video width ='960' height = '540' style='padding-top:8%' autoplay muted><source src='images/stimuli/wall_pref.mp4' type='video/mp4'></video>","2","middle","45%","1","","","","","","","",""
"","354.8800000062329","sequential-stimulus-presentation","43","66625","0.0-13.0","SS1613100168141","pref_reveal","","40","800","1154.8800000062329","null","null","","","","","1","","","","deviant","","","",""
"","null","html-keyboard-response","44","67429","0.0-14.0-0.0","SS1613100168141","","","null","","","","","<p><img src= images/blank.png width =""200"" height = ""200"" style = ""float:right""></p><p><img src=images/blank.png width =""800"" height = ""200""></p>","","","","","","","","","","","",""
"","266.92000000184635","sequential-stimulus-presentation","45","68505","0.0-14.0-1.0","SS1613100168141","trial","","40","800","1066.9200000018463","images/stimuli/spore_stims/simple_06_B_c.gif","images/stimuli/spore_stims/simple_19_A_c.gif","","","","","2","simple_dissimilar","images/stimuli/spore_stims/simple_19_A_c.gif","middle","","","","",""
"","null","html-keyboard-response","46","69361","0.0-14.0-0.1","SS1613100168141","","","null","","","","","<p><img src= images/blank.png width =""200"" height = ""200"" style = ""float:right""></p><p><img src=images/blank.png width =""800"" height = ""200""></p>","","","","","","","","","","","",""
"","327.5549999962095","sequential-stimulus-presentation","47","70497","0.0-14.0-1.1","SS1613100168141","trial","","40","800","1127.5549999962095","images/stimuli/spore_stims/simple_06_B_c.gif","images/stimuli/spore_stims/simple_19_A_c.gif","","","","","2","simple_dissimilar","images/stimuli/spore_stims/simple_19_A_c.gif","middle","","","","",""
"","null","html-keyboard-response","48","71436","0.0-14.0-0.2","SS1613100168141","","","null","","","","","<p><img src= images/blank.png width =""200"" height = ""200"" style = ""float:right""></p><p><img src=images/blank.png width =""800"" height = ""200""></p>","","","","","","","","","","","",""
"","333.4949999989476","sequential-stimulus-presentation","49","72609","0.0-14.0-1.2","SS1613100168141","trial","","40","800","1133.4949999989476","images/stimuli/spore_stims/simple_06_B_c.gif","images/stimuli/spore_stims/simple_19_A_c.gif","","","","","2","simple_dissimilar","images/stimuli/spore_stims/simple_19_A_c.gif","middle","","","","",""
"","null","html-keyboard-response","50","73432","0.0-14.0-0.3","SS1613100168141","","","null","","","","","<p><img src= images/blank.png width =""200"" height = ""200"" style = ""float:right""></p><p><img src=images/blank.png width =""800"" height = ""200""></p>","","","","","","","","","","","",""
"","924.0799999970477","sequential-stimulus-presentation","51","75163","0.0-14.0-1.3","SS1613100168141","trial","","40","800","1724.0799999970477","images/stimuli/spore_stims/simple_06_B_c.gif","images/stimuli/spore_stims/simple_19_A_c.gif","","","","","2","simple_dissimilar","images/stimuli/spore_stims/simple_19_A_c.gif","middle","","","","",""
"","null","html-keyboard-response","52","76226","0.0-14.0-0.4","SS1613100168141","","","null","","","","","<p><img src= images/blank.png width =""200"" height = ""200"" style = ""float:right""></p><p><img src=images/blank.png width =""800"" height = ""200""></p>","","","","","","","","","","","",""
"","711.6499999974621","sequential-stimulus-presentation","53","77747","0.0-14.0-1.4","SS1613100168141","trial","","40","800","1511.6499999974621","images/stimuli/spore_stims/simple_06_B_c.gif","images/stimuli/spore_stims/simple_19_A_c.gif","","","","","2","simple_dissimilar","images/stimuli/spore_stims/simple_19_A_c.gif","middle","","","","",""
"","null","html-keyboard-response","54","78751","0.0-14.0-0.5","SS1613100168141","","","null","","","","","<p><img src= images/blank.png width =""200"" height = ""200"" style = ""float:right""></p><p><img src=images/blank.png width =""800"" height = ""200""></p>","","","","","","","","","","","",""
"","282.30999999505","sequential-stimulus-presentation","55","79843","0.0-14.0-1.5","SS1613100168141","trial","","40","800","1082.30999999505","images/stimuli/spore_stims/simple_06_B_c.gif","images/stimuli/spore_stims/simple_19_A_c.gif","","","","","2","simple_dissimilar","images/stimuli/spore_stims/simple_19_A_c.gif","middle","","","","",""
"","null","html-keyboard-response","56","80995","0.0-14.0-0.6","SS1613100168141","","","null","","","","","<p><img src= images/blank.png width =""200"" height = ""200"" style = ""float:right""></p><p><img src=images/blank.png width =""800"" height = ""200""></p>","","","","","","","","","","","",""
"","118.98000000655884","sequential-stimulus-presentation","57","81923","0.0-14.0-1.6","SS1613100168141","trial","","40","800","918.9800000065588","images/stimuli/spore_stims/simple_06_B_c.gif","images/stimuli/spore_stims/simple_19_A_c.gif","","","","","2","simple_dissimilar","images/stimuli/spore_stims/simple_19_A_c.gif","middle","","","","",""
"","null","html-keyboard-response","58","82972","0.0-14.0-0.7","SS1613100168141","","","null","","","","","<p><img src= images/blank.png width =""200"" height = ""200"" style = ""float:right""></p><p><img src=images/blank.png width =""800"" height = ""200""></p>","","","","","","","","","","","",""
"","330.31499999924563","sequential-stimulus-presentation","59","84113","0.0-14.0-1.7","SS1613100168141","trial","","40","800","1130.3149999992456","images/stimuli/spore_stims/simple_06_B_c.gif","images/stimuli/spore_stims/simple_19_A_c.gif","","","","","2","simple_dissimilar","images/stimuli/spore_stims/simple_06_B_c.gif","left","","","","",""
"","1677.5549999947543","html-keyboard-response","60","85795","0.0-15.0","SS1613100168141","pref_question","","99","","","","","<video width ='960' height = '540' style='padding-top:8%' autoplay muted><source src='images/stimuli/wall_pref.mp4' type='video/mp4'></video>","3","right","66%","2","","","","","","","",""
"","383.3749999976135","sequential-stimulus-presentation","61","86989","0.0-16.0","SS1613100168141","pref_reveal","","40","800","1183.3749999976135","null","null","","","","","2","","","","novel","","","",""
"","null","html-keyboard-response","62","87845","0.0-17.0-0.0","SS1613100168141","","","null","","","","","<p><img src= images/blank.png width =""200"" height = ""200"" style = ""float:right""></p><p><img src=images/blank.png width =""800"" height = ""200""></p>","","","","","","","","","","","",""
"","218.99999999732245","sequential-stimulus-presentation","63","88875","0.0-17.0-1.0","SS1613100168141","trial","","40","800","1018.9999999973224","images/stimuli/spore_stims/simple_01_A_c.gif","images/stimuli/spore_stims/simple_04_B_c.gif","","","","","3","simple_dissimilar","images/stimuli/spore_stims/simple_04_B_c.gif","left","","","","",""
"","null","html-keyboard-response","64","89850","0.0-17.0-0.1","SS1613100168141","","","null","","","","","<p><img src= images/blank.png width =""200"" height = ""200"" style = ""float:right""></p><p><img src=images/blank.png width =""800"" height = ""200""></p>","","","","","","","","","","","",""
"","87.52000000094995","sequential-stimulus-presentation","65","90746","0.0-17.0-1.1","SS1613100168141","trial","","40","800","887.52000000095","images/stimuli/spore_stims/simple_01_A_c.gif","images/stimuli/spore_stims/simple_04_B_c.gif","","","","","3","simple_dissimilar","images/stimuli/spore_stims/simple_04_B_c.gif","left","","","","",""
"","null","html-keyboard-response","66","91667","0.0-17.0-0.2","SS1613100168141","","","null","","","","","<p><img src= images/blank.png width =""200"" height = ""200"" style = ""float:right""></p><p><img src=images/blank.png width =""800"" height = ""200""></p>","","","","","","","","","","","",""
"","268.98500000243075","sequential-stimulus-presentation","67","92755","0.0-17.0-1.2","SS1613100168141","trial","","40","800","1068.9850000024308","images/stimuli/spore_stims/simple_01_A_c.gif","images/stimuli/spore_stims/simple_04_B_c.gif","","","","","3","simple_dissimilar","images/stimuli/spore_stims/simple_04_B_c.gif","left","","","","",""
"","null","html-keyboard-response","68","93863","0.0-17.0-0.3","SS1613100168141","","","null","","","","","<p><img src= images/blank.png width =""200"" height = ""200"" style = ""float:right""></p><p><img src=images/blank.png width =""800"" height = ""200""></p>","","","","","","","","","","","",""
"","251.51000000187196","sequential-stimulus-presentation","69","94922","0.0-17.0-1.3","SS1613100168141","trial","","40","800","1051.510000001872","images/stimuli/spore_stims/simple_01_A_c.gif","images/stimuli/spore_stims/simple_04_B_c.gif","","","","","3","simple_dissimilar","images/stimuli/spore_stims/simple_04_B_c.gif","left","","","","",""
"","null","html-keyboard-response","70","96089","0.0-17.0-0.4","SS1613100168141","","","null","","","","","<p><img src= images/blank.png width =""200"" height = ""200"" style = ""float:right""></p><p><img src=images/blank.png width =""800"" height = ""200""></p>","","","","","","","","","","","",""
"","657.2999999989406","sequential-stimulus-presentation","71","97554","0.0-17.0-1.4","SS1613100168141","trial","","40","800","1457.2999999989406","images/stimuli/spore_stims/simple_01_A_c.gif","images/stimuli/spore_stims/simple_04_B_c.gif","","","","","3","simple_dissimilar","images/stimuli/spore_stims/simple_04_B_c.gif","left","","","","",""
"","null","html-keyboard-response","72","98411","0.0-17.0-0.5","SS1613100168141","","","null","","","","","<p><img src= images/blank.png width =""200"" height = ""200"" style = ""float:right""></p><p><img src=images/blank.png width =""800"" height = ""200""></p>","","","","","","","","","","","",""
"","150.89499999885447","sequential-stimulus-presentation","73","99370","0.0-17.0-1.5","SS1613100168141","trial","","40","800","950.8949999988545","images/stimuli/spore_stims/simple_01_A_c.gif","images/stimuli/spore_stims/simple_04_B_c.gif","","","","","3","simple_dissimilar","images/stimuli/spore_stims/simple_04_B_c.gif","left","","","","",""
"","null","html-keyboard-response","74","100491","0.0-17.0-0.6","SS1613100168141","","","null","","","","","<p><img src= images/blank.png width =""200"" height = ""200"" style = ""float:right""></p><p><img src=images/blank.png width =""800"" height = ""200""></p>","","","","","","","","","","","",""
"","283.91499999997905","sequential-stimulus-presentation","75","101586","0.0-17.0-1.6","SS1613100168141","trial","","40","800","1083.914999999979","images/stimuli/spore_stims/simple_01_A_c.gif","images/stimuli/spore_stims/simple_04_B_c.gif","","","","","3","simple_dissimilar","images/stimuli/spore_stims/simple_04_B_c.gif","left","","","","",""
"","null","html-keyboard-response","76","102566","0.0-17.0-0.7","SS1613100168141","","","null","","","","","<p><img src= images/blank.png width =""200"" height = ""200"" style = ""float:right""></p><p><img src=images/blank.png width =""800"" height = ""200""></p>","","","","","","","","","","","",""
"","149.58499999920605","sequential-stimulus-presentation","77","103524","0.0-17.0-1.7","SS1613100168141","trial","","40","800","949.584999999206","images/stimuli/spore_stims/simple_01_A_c.gif","images/stimuli/spore_stims/simple_04_B_c.gif","","","","","3","simple_dissimilar","images/stimuli/spore_stims/simple_01_A_c.gif","right","","","","",""
"","2985.690000001341","html-keyboard-response","78","106514","0.0-18.0","SS1613100168141","pref_question","","98","","","","","<video width ='960' height = '540' style='padding-top:8%' autoplay muted><source src='images/stimuli/wall_pref.mp4' type='video/mp4'></video>","2","middle","45%","3","","","","","","","",""
"","567.670000004","sequential-stimulus-presentation","79","107890","0.0-19.0","SS1613100168141","pref_reveal","","40","800","1367.670000004","null","null","","","","","3","","","","novel","","","",""
"","null","html-keyboard-response","80","108722","0.0-20.0-0.0","SS1613100168141","","","null","","","","","<p><img src= images/blank.png width =""200"" height = ""200"" style = ""float:right""></p><p><img src=images/blank.png width =""800"" height = ""200""></p>","","","","","","","","","","","",""
"","285.6750000064494","sequential-stimulus-presentation","81","109818","0.0-20.0-1.0","SS1613100168141","trial","","40","800","1085.6750000064494","images/stimuli/spore_stims/simple_03_A_c.gif","images/stimuli/spore_stims/simple_03_B_b.gif","","","","","4","simple_dissimilar","images/stimuli/spore_stims/simple_03_B_b.gif","left","","","","",""
"","null","html-keyboard-response","82","111115","0.0-20.0-0.1","SS1613100168141","","","null","","","","","<p><img src= images/blank.png width =""200"" height = ""200"" style = ""float:right""></p><p><img src=images/blank.png width =""800"" height = ""200""></p>","","","","","","","","","","","",""
"","549.2650000014692","sequential-stimulus-presentation","83","112474","0.0-20.0-1.1","SS1613100168141","trial","","40","800","1349.2650000014692","images/stimuli/spore_stims/simple_03_A_c.gif","images/stimuli/spore_stims/simple_03_B_b.gif","","","","","4","simple_dissimilar","images/stimuli/spore_stims/simple_03_B_b.gif","left","","","","",""
"","null","html-keyboard-response","84","113662","0.0-20.0-0.2","SS1613100168141","","","null","","","","","<p><img src= images/blank.png width =""200"" height = ""200"" style = ""float:right""></p><p><img src=images/blank.png width =""800"" height = ""200""></p>","","","","","","","","","","","",""
"","932.0750000042608","sequential-stimulus-presentation","85","115403","0.0-20.0-1.2","SS1613100168141","trial","","40","800","1732.0750000042608","images/stimuli/spore_stims/simple_03_A_c.gif","images/stimuli/spore_stims/simple_03_B_b.gif","","","","","4","simple_dissimilar","images/stimuli/spore_stims/simple_03_A_c.gif","right","","","","",""
"","null","html-keyboard-response","86","116540","0.0-20.0-0.3","SS1613100168141","","","null","","","","","<p><img src= images/blank.png width =""200"" height = ""200"" style = ""float:right""></p><p><img src=images/blank.png width =""800"" height = ""200""></p>","","","","","","","","","","","",""
"","449.89999999961583","sequential-stimulus-presentation","87","117801","0.0-20.0-1.3","SS1613100168141","trial","","40","800","1249.8999999996158","images/stimuli/spore_stims/simple_03_A_c.gif","images/stimuli/spore_stims/simple_03_B_b.gif","","","","","4","simple_dissimilar","images/stimuli/spore_stims/simple_03_B_b.gif","left","","","","",""
"","null","html-keyboard-response","88","119105","0.0-20.0-0.4","SS1613100168141","","","null","","","","","<p><img src= images/blank.png width =""200"" height = ""200"" style = ""float:right""></p><p><img src=images/blank.png width =""800"" height = ""200""></p>","","","","","","","","","","","",""
"","1823.819999997795","sequential-stimulus-presentation","89","121738","0.0-20.0-1.4","SS1613100168141","trial","","40","800","2623.819999997795","images/stimuli/spore_stims/simple_03_A_c.gif","images/stimuli/spore_stims/simple_03_B_b.gif","","","","","4","simple_dissimilar","images/stimuli/spore_stims/simple_03_B_b.gif","left","","","","",""
"","null","html-keyboard-response","90","122737","0.0-20.0-0.5","SS1613100168141","","","null","","","","","<p><img src= images/blank.png width =""200"" height = ""200"" style = ""float:right""></p><p><img src=images/blank.png width =""800"" height = ""200""></p>","","","","","","","","","","","",""
"","909.814999999071","sequential-stimulus-presentation","91","124458","0.0-20.0-1.5","SS1613100168141","trial","","40","800","1709.814999999071","images/stimuli/spore_stims/simple_03_A_c.gif","images/stimuli/spore_stims/simple_03_B_b.gif","","","","","4","simple_dissimilar","images/stimuli/spore_stims/simple_03_B_b.gif","left","","","","",""
"","null","html-keyboard-response","92","125337","0.0-20.0-0.6","SS1613100168141","","","null","","","","","<p><img src= images/blank.png width =""200"" height = ""200"" style = ""float:right""></p><p><img src=images/blank.png width =""800"" height = ""200""></p>","","","","","","","","","","","",""
"","2995.054999999411","sequential-stimulus-presentation","93","129138","0.0-20.0-1.6","SS1613100168141","trial","","40","800","3795.054999999411","images/stimuli/spore_stims/simple_03_A_c.gif","images/stimuli/spore_stims/simple_03_B_b.gif","","","","","4","simple_dissimilar","images/stimuli/spore_stims/simple_03_B_b.gif","left","","","","",""
"","null","html-keyboard-response","94","130086","0.0-20.0-0.7","SS1613100168141","","","null","","","","","<p><img src= images/blank.png width =""200"" height = ""200"" style = ""float:right""></p><p><img src=images/blank.png width =""800"" height = ""200""></p>","","","","","","","","","","","",""
"","330.3500000038184","sequential-stimulus-presentation","95","131225","0.0-20.0-1.7","SS1613100168141","trial","","40","800","1130.3500000038184","images/stimuli/spore_stims/simple_03_A_c.gif","images/stimuli/spore_stims/simple_03_B_b.gif","","","","","4","simple_dissimilar","images/stimuli/spore_stims/simple_03_B_b.gif","left","","","","",""
"","1359.215000004042","html-keyboard-response","96","132593","0.0-21.0","SS1613100168141","pref_question","","99","","","","","<video width ='960' height = '540' style='padding-top:8%' autoplay muted><source src='images/stimuli/wall_pref.mp4' type='video/mp4'></video>","3","right","66%","4","","","","","","","",""
"","650.6349999981467","sequential-stimulus-presentation","97","134052","0.0-22.0","SS1613100168141","pref_reveal","","40","800","1450.6349999981467","null","null","","","","","4","","","","deviant","","","",""
"","null","html-keyboard-response","98","135049","0.0-23.0-0.0","SS1613100168141","","","null","","","","","<p><img src= images/blank.png width =""200"" height = ""200"" style = ""float:right""></p><p><img src=images/blank.png width =""800"" height = ""200""></p>","","","","","","","","","","","",""
"","222.8850000028615","sequential-stimulus-presentation","99","136084","0.0-23.0-1.0","SS1613100168141","trial","","40","800","1022.8850000028615","images/stimuli/spore_stims/complex_07_B_d.gif","images/stimuli/spore_stims/complex_13_A_c.gif","","","","","5","complex_dissimilar","images/stimuli/spore_stims/complex_13_A_c.gif","middle","","","","",""
"","null","html-keyboard-response","100","137206","0.0-23.0-0.1","SS1613100168141","","","null","","","","","<p><img src= images/blank.png width =""200"" height = ""200"" style = ""float:right""></p><p><img src=images/blank.png width =""800"" height = ""200""></p>","","","","","","","","","","","",""
"","388.0750000025728","sequential-stimulus-presentation","101","138403","0.0-23.0-1.1","SS1613100168141","trial","","40","800","1188.0750000025728","images/stimuli/spore_stims/complex_07_B_d.gif","images/stimuli/spore_stims/complex_13_A_c.gif","","","","","5","complex_dissimilar","images/stimuli/spore_stims/complex_13_A_c.gif","middle","","","","",""
"","null","html-keyboard-response","102","139234","0.0-23.0-0.2","SS1613100168141","","","null","","","","","<p><img src= images/blank.png width =""200"" height = ""200"" style = ""float:right""></p><p><img src=images/blank.png width =""800"" height = ""200""></p>","","","","","","","","","","","",""
"","831.1450000037439","sequential-stimulus-presentation","103","140899","0.0-23.0-1.2","SS1613100168141","trial","","40","800","1631.145000003744","images/stimuli/spore_stims/complex_07_B_d.gif","images/stimuli/spore_stims/complex_13_A_c.gif","","","","","5","complex_dissimilar","images/stimuli/spore_stims/complex_07_B_d.gif","right","","","","",""
"","null","html-keyboard-response","104","142190","0.0-23.0-0.3","SS1613100168141","","","null","","","","","<p><img src= images/blank.png width =""200"" height = ""200"" style = ""float:right""></p><p><img src=images/blank.png width =""800"" height = ""200""></p>","","","","","","","","","","","",""
"","379.4350000025588","sequential-stimulus-presentation","105","143379","0.0-23.0-1.3","SS1613100168141","trial","","40","800","1179.4350000025588","images/stimuli/spore_stims/complex_07_B_d.gif","images/stimuli/spore_stims/complex_13_A_c.gif","","","","","5","complex_dissimilar","images/stimuli/spore_stims/complex_13_A_c.gif","middle","","","","",""
"","null","html-keyboard-response","106","144522","0.0-23.0-0.4","SS1613100168141","","","null","","","","","<p><img src= images/blank.png width =""200"" height = ""200"" style = ""float:right""></p><p><img src=images/blank.png width =""800"" height = ""200""></p>","","","","","","","","","","","",""
"","78.88500000262866","sequential-stimulus-presentation","107","145411","0.0-23.0-1.4","SS1613100168141","trial","","40","800","878.8850000026287","images/stimuli/spore_stims/complex_07_B_d.gif","images/stimuli/spore_stims/complex_13_A_c.gif","","","","","5","complex_dissimilar","images/stimuli/spore_stims/complex_13_A_c.gif","middle","","","","",""
"","null","html-keyboard-response","108","146291","0.0-23.0-0.5","SS1613100168141","","","null","","","","","<p><img src= images/blank.png width =""200"" height = ""200"" style = ""float:right""></p><p><img src=images/blank.png width =""800"" height = ""200""></p>","","","","","","","","","","","",""
"","310.5799999975716","sequential-stimulus-presentation","109","147411","0.0-23.0-1.5","SS1613100168141","trial","","40","800","1110.5799999975716","images/stimuli/spore_stims/complex_07_B_d.gif","images/stimuli/spore_stims/complex_13_A_c.gif","","","","","5","complex_dissimilar","images/stimuli/spore_stims/complex_13_A_c.gif","middle","","","","",""
"","null","html-keyboard-response","110","148522","0.0-23.0-0.6","SS1613100168141","","","null","","","","","<p><img src= images/blank.png width =""200"" height = ""200"" style = ""float:right""></p><p><img src=images/blank.png width =""800"" height = ""200""></p>","","","","","","","","","","","",""
"","244.30500000016764","sequential-stimulus-presentation","111","149595","0.0-23.0-1.6","SS1613100168141","trial","","40","800","1044.3050000001676","images/stimuli/spore_stims/complex_07_B_d.gif","images/stimuli/spore_stims/complex_13_A_c.gif","","","","","5","complex_dissimilar","images/stimuli/spore_stims/complex_13_A_c.gif","middle","","","","",""
"","null","html-keyboard-response","112","150437","0.0-23.0-0.7","SS1613100168141","","","null","","","","","<p><img src= images/blank.png width =""200"" height = ""200"" style = ""float:right""></p><p><img src=images/blank.png width =""800"" height = ""200""></p>","","","","","","","","","","","",""
"","659.444999997504","sequential-stimulus-presentation","113","151907","0.0-23.0-1.7","SS1613100168141","trial","","40","800","1459.444999997504","images/stimuli/spore_stims/complex_07_B_d.gif","images/stimuli/spore_stims/complex_13_A_c.gif","","","","","5","complex_dissimilar","images/stimuli/spore_stims/complex_13_A_c.gif","middle","","","","",""
"","1454.955000001064","html-keyboard-response","114","153370","0.0-24.0","SS1613100168141","pref_question","","99","","","","","<video width ='960' height = '540' style='padding-top:8%' autoplay muted><source src='images/stimuli/wall_pref.mp4' type='video/mp4'></video>","3","right","66%","5","","","","","","","",""
"","177.800000004936","sequential-stimulus-presentation","115","154354","0.0-25.0","SS1613100168141","pref_reveal","","40","800","977.800000004936","null","null","","","","","5","","","","deviant","","","",""
"","null","html-keyboard-response","116","155580","0.0-26.0-0.0","SS1613100168141","","","null","","","","","<p><img src= images/blank.png width =""200"" height = ""200"" style = ""float:right""></p><p><img src=images/blank.png width =""800"" height = ""200""></p>","","","","","","","","","","","",""
"","252.9599999979837","sequential-stimulus-presentation","117","156667","0.0-26.0-1.0","SS1613100168141","trial","","40","800","1052.9599999979837","images/stimuli/spore_stims/complex_01_B_a.gif","images/stimuli/spore_stims/complex_16_B_c.gif","","","","","6","complex_dissimilar","images/stimuli/spore_stims/complex_16_B_c.gif","left","","","","",""
"","null","html-keyboard-response","118","157746","0.0-26.0-0.1","SS1613100168141","","","null","","","","","<p><img src= images/blank.png width =""200"" height = ""200"" style = ""float:right""></p><p><img src=images/blank.png width =""800"" height = ""200""></p>","","","","","","","","","","","",""
"","71.82499999908032","sequential-stimulus-presentation","119","158626","0.0-26.0-1.1","SS1613100168141","trial","","40","800","871.8249999990803","images/stimuli/spore_stims/complex_01_B_a.gif","images/stimuli/spore_stims/complex_16_B_c.gif","","","","","6","complex_dissimilar","images/stimuli/spore_stims/complex_16_B_c.gif","left","","","","",""
"","null","html-keyboard-response","120","159640","0.0-26.0-0.2","SS1613100168141","","","null","","","","","<p><img src= images/blank.png width =""200"" height = ""200"" style = ""float:right""></p><p><img src=images/blank.png width =""800"" height = ""200""></p>","","","","","","","","","","","",""
"","208.94000000407686","sequential-stimulus-presentation","121","160659","0.0-26.0-1.2","SS1613100168141","trial","","40","800","1008.9400000040769","images/stimuli/spore_stims/complex_01_B_a.gif","images/stimuli/spore_stims/complex_16_B_c.gif","","","","","6","complex_dissimilar","images/stimuli/spore_stims/complex_16_B_c.gif","left","","","","",""
"","null","html-keyboard-response","122","161824","0.0-26.0-0.3","SS1613100168141","","","null","","","","","<p><img src= images/blank.png width =""200"" height = ""200"" style = ""float:right""></p><p><img src=images/blank.png width =""800"" height = ""200""></p>","","","","","","","","","","","",""
"","1126.749999995809","sequential-stimulus-presentation","123","163763","0.0-26.0-1.3","SS1613100168141","trial","","40","800","1926.749999995809","images/stimuli/spore_stims/complex_01_B_a.gif","images/stimuli/spore_stims/complex_16_B_c.gif","","","","","6","complex_dissimilar","images/stimuli/spore_stims/complex_16_B_c.gif","left","","","","",""
"","null","html-keyboard-response","124","164632","0.0-26.0-0.4","SS1613100168141","","","null","","","","","<p><img src= images/blank.png width =""200"" height = ""200"" style = ""float:right""></p><p><img src=images/blank.png width =""800"" height = ""200""></p>","","","","","","","","","","","",""
"","228.51999999693362","sequential-stimulus-presentation","125","165690","0.0-26.0-1.4","SS1613100168141","trial","","40","800","1028.5199999969336","images/stimuli/spore_stims/complex_01_B_a.gif","images/stimuli/spore_stims/complex_16_B_c.gif","","","","","6","complex_dissimilar","images/stimuli/spore_stims/complex_16_B_c.gif","left","","","","",""
"","null","html-keyboard-response","126","166657","0.0-26.0-0.5","SS1613100168141","","","null","","","","","<p><img src= images/blank.png width =""200"" height = ""200"" style = ""float:right""></p><p><img src=images/blank.png width =""800"" height = ""200""></p>","","","","","","","","","","","",""
"","279.1700000016135","sequential-stimulus-presentation","127","167746","0.0-26.0-1.5","SS1613100168141","trial","","40","800","1079.1700000016135","images/stimuli/spore_stims/complex_01_B_a.gif","images/stimuli/spore_stims/complex_16_B_c.gif","","","","","6","complex_dissimilar","images/stimuli/spore_stims/complex_01_B_a.gif","middle","","","","",""
"","null","html-keyboard-response","128","168639","0.0-26.0-0.6","SS1613100168141","","","null","","","","","<p><img src= images/blank.png width =""200"" height = ""200"" style = ""float:right""></p><p><img src=images/blank.png width =""800"" height = ""200""></p>","","","","","","","","","","","",""
"","377.2099999987404","sequential-stimulus-presentation","129","169826","0.0-26.0-1.6","SS1613100168141","trial","","40","800","1177.2099999987404","images/stimuli/spore_stims/complex_01_B_a.gif","images/stimuli/spore_stims/complex_16_B_c.gif","","","","","6","complex_dissimilar","images/stimuli/spore_stims/complex_16_B_c.gif","left","","","","",""
"","null","html-keyboard-response","130","171089","0.0-26.0-0.7","SS1613100168141","","","null","","","","","<p><img src= images/blank.png width =""200"" height = ""200"" style = ""float:right""></p><p><img src=images/blank.png width =""800"" height = ""200""></p>","","","","","","","","","","","",""
"","340.73499999794876","sequential-stimulus-presentation","131","172243","0.0-26.0-1.7","SS1613100168141","trial","","40","800","1140.7349999979488","images/stimuli/spore_stims/complex_01_B_a.gif","images/stimuli/spore_stims/complex_16_B_c.gif","","","","","6","complex_dissimilar","images/stimuli/spore_stims/complex_16_B_c.gif","left","","","","",""
"","1302.4100000038743","html-keyboard-response","132","173554","0.0-27.0","SS1613100168141","pref_question","","97","","","","","<video width ='960' height = '540' style='padding-top:8%' autoplay muted><source src='images/stimuli/wall_pref.mp4' type='video/mp4'></video>","1","left","25%","6","","","","","","","",""
"","336.009999999078","sequential-stimulus-presentation","133","174698","0.0-28.0","SS1613100168141","pref_reveal","","40","800","1136.009999999078","null","null","","","","","6","","","","background","","","",""
"","null","html-keyboard-response","134","175835","0.0-29.0-0.0","SS1613100168141","","","null","","","","","<p><img src= images/blank.png width =""200"" height = ""200"" style = ""float:right""></p><p><img src=images/blank.png width =""800"" height = ""200""></p>","","","","","","","","","","","",""
"","416.96000000229105","sequential-stimulus-presentation","135","177066","0.0-29.0-1.0","SS1613100168141","trial","","40","800","1216.960000002291","images/stimuli/spore_stims/simple_05_B_a.gif","images/stimuli/spore_stims/simple_16_B_d.gif","","","","","7","simple_dissimilar","images/stimuli/spore_stims/simple_16_B_d.gif","left","","","","",""
"","null","html-keyboard-response","136","178178","0.0-29.0-0.1","SS1613100168141","","","null","","","","","<p><img src= images/blank.png width =""200"" height = ""200"" style = ""float:right""></p><p><img src=images/blank.png width =""800"" height = ""200""></p>","","","","","","","","","","","",""
"","1398.139999997511","sequential-stimulus-presentation","137","180386","0.0-29.0-1.1","SS1613100168141","trial","","40","800","2198.139999997511","images/stimuli/spore_stims/simple_05_B_a.gif","images/stimuli/spore_stims/simple_16_B_d.gif","","","","","7","simple_dissimilar","images/stimuli/spore_stims/simple_16_B_d.gif","left","","","","",""
"","null","html-keyboard-response","138","181464","0.0-29.0-0.2","SS1613100168141","","","null","","","","","<p><img src= images/blank.png width =""200"" height = ""200"" style = ""float:right""></p><p><img src=images/blank.png width =""800"" height = ""200""></p>","","","","","","","","","","","",""
"","483.0800000054296","sequential-stimulus-presentation","139","182762","0.0-29.0-1.2","SS1613100168141","trial","","40","800","1283.0800000054296","images/stimuli/spore_stims/simple_05_B_a.gif","images/stimuli/spore_stims/simple_16_B_d.gif","","","","","7","simple_dissimilar","images/stimuli/spore_stims/simple_16_B_d.gif","left","","","","",""
"","null","html-keyboard-response","140","183637","0.0-29.0-0.3","SS1613100168141","","","null","","","","","<p><img src= images/blank.png width =""200"" height = ""200"" style = ""float:right""></p><p><img src=images/blank.png width =""800"" height = ""200""></p>","","","","","","","","","","","",""
"","663.7449999980163","sequential-stimulus-presentation","141","185114","0.0-29.0-1.3","SS1613100168141","trial","","40","800","1463.7449999980163","images/stimuli/spore_stims/simple_05_B_a.gif","images/stimuli/spore_stims/simple_16_B_d.gif","","","","","7","simple_dissimilar","images/stimuli/spore_stims/simple_05_B_a.gif","middle","","","","",""
"","null","html-keyboard-response","142","186022","0.0-29.0-0.4","SS1613100168141","","","null","","","","","<p><img src= images/blank.png width =""200"" height = ""200"" style = ""float:right""></p><p><img src=images/blank.png width =""800"" height = ""200""></p>","","","","","","","","","","","",""
"","183.29999999696156","sequential-stimulus-presentation","143","187018","0.0-29.0-1.4","SS1613100168141","trial","","40","800","983.2999999969616","images/stimuli/spore_stims/simple_05_B_a.gif","images/stimuli/spore_stims/simple_16_B_d.gif","","","","","7","simple_dissimilar","images/stimuli/spore_stims/simple_16_B_d.gif","left","","","","",""
"","null","html-keyboard-response","144","188073","0.0-29.0-0.5","SS1613100168141","","","null","","","","","<p><img src= images/blank.png width =""200"" height = ""200"" style = ""float:right""></p><p><img src=images/blank.png width =""800"" height = ""200""></p>","","","","","","","","","","","",""
"","229.0800000046147","sequential-stimulus-presentation","145","189114","0.0-29.0-1.5","SS1613100168141","trial","","40","800","1029.0800000046147","images/stimuli/spore_stims/simple_05_B_a.gif","images/stimuli/spore_stims/simple_16_B_d.gif","","","","","7","simple_dissimilar","images/stimuli/spore_stims/simple_16_B_d.gif","left","","","","",""
"","null","html-keyboard-response","146","190420","0.0-29.0-0.6","SS1613100168141","","","null","","","","","<p><img src= images/blank.png width =""200"" height = ""200"" style = ""float:right""></p><p><img src=images/blank.png width =""800"" height = ""200""></p>","","","","","","","","","","","",""
"","294.915000005858","sequential-stimulus-presentation","147","191546","0.0-29.0-1.6","SS1613100168141","trial","","40","800","1094.915000005858","images/stimuli/spore_stims/simple_05_B_a.gif","images/stimuli/spore_stims/simple_16_B_d.gif","","","","","7","simple_dissimilar","images/stimuli/spore_stims/simple_16_B_d.gif","left","","","","",""
"","null","html-keyboard-response","148","192600","0.0-29.0-0.7","SS1613100168141","","","null","","","","","<p><img src= images/blank.png width =""200"" height = ""200"" style = ""float:right""></p><p><img src=images/blank.png width =""800"" height = ""200""></p>","","","","","","","","","","","",""
"","232.90499999711756","sequential-stimulus-presentation","149","193644","0.0-29.0-1.7","SS1613100168141","trial","","40","800","1032.9049999971176","images/stimuli/spore_stims/simple_05_B_a.gif","images/stimuli/spore_stims/simple_16_B_d.gif","","","","","7","simple_dissimilar","images/stimuli/spore_stims/simple_16_B_d.gif","left","","","","",""
"","1390.9500000008848","html-keyboard-response","150","195045","0.0-30.0","SS1613100168141","pref_question","","97","","","","","<video width ='960' height = '540' style='padding-top:8%' autoplay muted><source src='images/stimuli/wall_pref.mp4' type='video/mp4'></video>","1","left","25%","7","","","","","","","",""
"","492.0249999995576","sequential-stimulus-presentation","151","196348","0.0-31.0","SS1613100168141","pref_reveal","","40","800","1292.0249999995576","null","null","","","","","7","","","","background","","","",""
"","null","html-keyboard-response","152","197269","0.0-32.0-0.0","SS1613100168141","","","null","","","","","<p><img src= images/blank.png width =""200"" height = ""200"" style = ""float:right""></p><p><img src=images/blank.png width =""800"" height = ""200""></p>","","","","","","","","","","","",""
"","281.54499999800464","sequential-stimulus-presentation","153","198363","0.0-32.0-1.0","SS1613100168141","trial","","40","800","1081.5449999980046","images/stimuli/spore_stims/simple_09_A_b.gif","images/stimuli/spore_stims/simple_18_A_c.gif","","","","","8","simple_dissimilar","images/stimuli/spore_stims/simple_18_A_c.gif","left","","","","",""
"","null","html-keyboard-response","154","199212","0.0-32.0-0.1","SS1613100168141","","","null","","","","","<p><img src= images/blank.png width =""200"" height = ""200"" style = ""float:right""></p><p><img src=images/blank.png width =""800"" height = ""200""></p>","","","","","","","","","","","",""
"","322.87499999802094","sequential-stimulus-presentation","155","200347","0.0-32.0-1.1","SS1613100168141","trial","","40","800","1122.874999998021","images/stimuli/spore_stims/simple_09_A_b.gif","images/stimuli/spore_stims/simple_18_A_c.gif","","","","","8","simple_dissimilar","images/stimuli/spore_stims/simple_18_A_c.gif","left","","","","",""
"","null","html-keyboard-response","156","201532","0.0-32.0-0.2","SS1613100168141","","","null","","","","","<p><img src= images/blank.png width =""200"" height = ""200"" style = ""float:right""></p><p><img src=images/blank.png width =""800"" height = ""200""></p>","","","","","","","","","","","",""
"","340.5799999964074","sequential-stimulus-presentation","157","202683","0.0-32.0-1.2","SS1613100168141","trial","","40","800","1140.5799999964074","images/stimuli/spore_stims/simple_09_A_b.gif","images/stimuli/spore_stims/simple_18_A_c.gif","","","","","8","simple_dissimilar","images/stimuli/spore_stims/simple_18_A_c.gif","left","","","","",""
"","null","html-keyboard-response","158","203531","0.0-32.0-0.3","SS1613100168141","","","null","","","","","<p><img src= images/blank.png width =""200"" height = ""200"" style = ""float:right""></p><p><img src=images/blank.png width =""800"" height = ""200""></p>","","","","","","","","","","","",""
"","93.44499999861","sequential-stimulus-presentation","159","204435","0.0-32.0-1.3","SS1613100168141","trial","","40","800","893.44499999861","images/stimuli/spore_stims/simple_09_A_b.gif","images/stimuli/spore_stims/simple_18_A_c.gif","","","","","8","simple_dissimilar","images/stimuli/spore_stims/simple_18_A_c.gif","left","","","","",""
"","null","html-keyboard-response","160","205530","0.0-32.0-0.4","SS1613100168141","","","null","","","","","<p><img src= images/blank.png width =""200"" height = ""200"" style = ""float:right""></p><p><img src=images/blank.png width =""800"" height = ""200""></p>","","","","","","","","","","","",""
"","326.30000000062864","sequential-stimulus-presentation","161","206667","0.0-32.0-1.4","SS1613100168141","trial","","40","800","1126.3000000006286","images/stimuli/spore_stims/simple_09_A_b.gif","images/stimuli/spore_stims/simple_18_A_c.gif","","","","","8","simple_dissimilar","images/stimuli/spore_stims/simple_18_A_c.gif","left","","","","",""
"","null","html-keyboard-response","162","207544","0.0-32.0-0.5","SS1613100168141","","","null","","","","","<p><img src= images/blank.png width =""200"" height = ""200"" style = ""float:right""></p><p><img src=images/blank.png width =""800"" height = ""200""></p>","","","","","","","","","","","",""
"","344.34999999939464","sequential-stimulus-presentation","163","208699","0.0-32.0-1.5","SS1613100168141","trial","","40","800","1144.3499999993946","images/stimuli/spore_stims/simple_09_A_b.gif","images/stimuli/spore_stims/simple_18_A_c.gif","","","","","8","simple_dissimilar","images/stimuli/spore_stims/simple_18_A_c.gif","left","","","","",""
"","null","html-keyboard-response","164","209838","0.0-32.0-0.6","SS1613100168141","","","null","","","","","<p><img src= images/blank.png width =""200"" height = ""200"" style = ""float:right""></p><p><img src=images/blank.png width =""800"" height = ""200""></p>","","","","","","","","","","","",""
"","339.2500000045402","sequential-stimulus-presentation","165","210988","0.0-32.0-1.6","SS1613100168141","trial","","40","800","1139.2500000045402","images/stimuli/spore_stims/simple_09_A_b.gif","images/stimuli/spore_stims/simple_18_A_c.gif","","","","","8","simple_dissimilar","images/stimuli/spore_stims/simple_18_A_c.gif","left","","","","",""
"","null","html-keyboard-response","166","212108","0.0-32.0-0.7","SS1613100168141","","","null","","","","","<p><img src= images/blank.png width =""200"" height = ""200"" style = ""float:right""></p><p><img src=images/blank.png width =""800"" height = ""200""></p>","","","","","","","","","","","",""
"","76.19500000146218","sequential-stimulus-presentation","167","212995","0.0-32.0-1.7","SS1613100168141","trial","","40","800","876.1950000014622","images/stimuli/spore_stims/simple_09_A_b.gif","images/stimuli/spore_stims/simple_18_A_c.gif","","","","","8","simple_dissimilar","images/stimuli/spore_stims/simple_09_A_b.gif","middle","","","","",""
"","1513.939999997092","html-keyboard-response","168","214531","0.0-33.0","SS1613100168141","pref_question","","97","","","","","<video width ='960' height = '540' style='padding-top:8%' autoplay muted><source src='images/stimuli/wall_pref.mp4' type='video/mp4'></video>","1","left","25%","8","","","","","","","",""
"","345.45000000071013","sequential-stimulus-presentation","169","215691","0.0-34.0","SS1613100168141","pref_reveal","","40","800","1145.4500000007101","null","null","","","","","8","","","","background","","","",""
"","null","html-keyboard-response","170","216830","0.0-35.0-0.0","SS1613100168141","","","null","","","","","<p><img src= images/blank.png width =""200"" height = ""200"" style = ""float:right""></p><p><img src=images/blank.png width =""800"" height = ""200""></p>","","","","","","","","","","","",""
"","320.1649999973597","sequential-stimulus-presentation","171","217963","0.0-35.0-1.0","SS1613100168141","trial","","40","800","1120.1649999973597","images/stimuli/spore_stims/complex_06_A_b.gif","images/stimuli/spore_stims/complex_10_A_a.gif","","","","","9","complex_dissimilar","images/stimuli/spore_stims/complex_10_A_a.gif","left","","","","",""
"","null","html-keyboard-response","172","218891","0.0-35.0-0.1","SS1613100168141","","","null","","","","","<p><img src= images/blank.png width =""200"" height = ""200"" style = ""float:right""></p><p><img src=images/blank.png width =""800"" height = ""200""></p>","","","","","","","","","","","",""
"","252.26000000111526","sequential-stimulus-presentation","173","219955","0.0-35.0-1.1","SS1613100168141","trial","","40","800","1052.2600000011153","images/stimuli/spore_stims/complex_06_A_b.gif","images/stimuli/spore_stims/complex_10_A_a.gif","","","","","9","complex_dissimilar","images/stimuli/spore_stims/complex_10_A_a.gif","left","","","","",""
"","null","html-keyboard-response","174","221047","0.0-35.0-0.2","SS1613100168141","","","null","","","","","<p><img src= images/blank.png width =""200"" height = ""200"" style = ""float:right""></p><p><img src=images/blank.png width =""800"" height = ""200""></p>","","","","","","","","","","","",""
"","126.78999999479856","sequential-stimulus-presentation","175","221987","0.0-35.0-1.2","SS1613100168141","trial","","40","800","926.7899999947986","images/stimuli/spore_stims/complex_06_A_b.gif","images/stimuli/spore_stims/complex_10_A_a.gif","","","","","9","complex_dissimilar","images/stimuli/spore_stims/complex_10_A_a.gif","left","","","","",""
"","null","html-keyboard-response","176","223051","0.0-35.0-0.3","SS1613100168141","","","null","","","","","<p><img src= images/blank.png width =""200"" height = ""200"" style = ""float:right""></p><p><img src=images/blank.png width =""800"" height = ""200""></p>","","","","","","","","","","","",""
"","13336.009999999078","sequential-stimulus-presentation","177","237203","0.0-35.0-1.3","SS1613100168141","trial","","40","800","14136.009999999078","images/stimuli/spore_stims/complex_06_A_b.gif","images/stimuli/spore_stims/complex_10_A_a.gif","","","","","9","complex_dissimilar","images/stimuli/spore_stims/complex_10_A_a.gif","left","","","","",""
"","null","html-keyboard-response","178","238379","0.0-35.0-0.4","SS1613100168141","","","null","","","","","<p><img src= images/blank.png width =""200"" height = ""200"" style = ""float:right""></p><p><img src=images/blank.png width =""800"" height = ""200""></p>","","","","","","","","","","","",""
"","4743.200000004435","sequential-stimulus-presentation","179","244114","0.0-35.0-1.4","SS1613100168141","trial","","40","800","5543.200000004435","images/stimuli/spore_stims/complex_06_A_b.gif","images/stimuli/spore_stims/complex_10_A_a.gif","","","","","9","complex_dissimilar","images/stimuli/spore_stims/complex_10_A_a.gif","left","","","","",""
"","null","html-keyboard-response","180","245319","0.0-35.0-0.5","SS1613100168141","","","null","","","","","<p><img src= images/blank.png width =""200"" height = ""200"" style = ""float:right""></p><p><img src=images/blank.png width =""800"" height = ""200""></p>","","","","","","","","","","","",""
"","45517.579999999725","sequential-stimulus-presentation","181","291651","0.0-35.0-1.5","SS1613100168141","trial","","40","800","46317.579999999725","images/stimuli/spore_stims/complex_06_A_b.gif","images/stimuli/spore_stims/complex_10_A_a.gif","","","","","9","complex_dissimilar","images/stimuli/spore_stims/complex_10_A_a.gif","left","","","","",""
"","null","html-keyboard-response","182","292782","0.0-35.0-0.6","SS1613100168141","","","null","","","","","<p><img src= images/blank.png width =""200"" height = ""200"" style = ""float:right""></p><p><img src=images/blank.png width =""800"" height = ""200""></p>","","","","","","","","","","","",""
"","716.0899999944377","sequential-stimulus-presentation","183","294314","0.0-35.0-1.6","SS1613100168141","trial","","40","800","1516.0899999944377","images/stimuli/spore_stims/complex_06_A_b.gif","images/stimuli/spore_stims/complex_10_A_a.gif","","","","","9","complex_dissimilar","images/stimuli/spore_stims/complex_10_A_a.gif","left","","","","",""
"","null","html-keyboard-response","184","295591","0.0-35.0-0.7","SS1613100168141","","","null","","","","","<p><img src= images/blank.png width =""200"" height = ""200"" style = ""float:right""></p><p><img src=images/blank.png width =""800"" height = ""200""></p>","","","","","","","","","","","",""
"","677.4549999972805","sequential-stimulus-presentation","185","297081","0.0-35.0-1.7","SS1613100168141","trial","","40","800","1477.4549999972805","images/stimuli/spore_stims/complex_06_A_b.gif","images/stimuli/spore_stims/complex_10_A_a.gif","","","","","9","complex_dissimilar","images/stimuli/spore_stims/complex_06_A_b.gif","right","","","","",""
"","1289.920000002894","html-keyboard-response","186","298378","0.0-36.0","SS1613100168141","pref_question","","98","","","","","<video width ='960' height = '540' style='padding-top:8%' autoplay muted><source src='images/stimuli/wall_pref.mp4' type='video/mp4'></video>","2","middle","45%","9","","","","","","","",""
"","163.0650000006426","sequential-stimulus-presentation","187","299354","0.0-37.0","SS1613100168141","pref_reveal","","40","800","963.0650000006426","null","null","","","","","9","","","","novel","","","",""
"","null","html-keyboard-response","188","300321","0.0-38.0-0.0","SS1613100168141","","","null","","","","","<p><img src= images/blank.png width =""200"" height = ""200"" style = ""float:right""></p><p><img src=images/blank.png width =""800"" height = ""200""></p>","","","","","","","","","","","",""
"","282.82999999646563","sequential-stimulus-presentation","189","301418","0.0-38.0-1.0","SS1613100168141","trial","","40","800","1082.8299999964656","images/stimuli/spore_stims/complex_04_B_b.gif","images/stimuli/spore_stims/complex_04_A_b.gif","","","","","10","complex_similar","images/stimuli/spore_stims/complex_04_A_b.gif","left","","","","",""
"","null","html-keyboard-response","190","302263","0.0-38.0-0.1","SS1613100168141","","","null","","","","","<p><img src= images/blank.png width =""200"" height = ""200"" style = ""float:right""></p><p><img src=images/blank.png width =""800"" height = ""200""></p>","","","","","","","","","","","",""
"","571.909999998752","sequential-stimulus-presentation","191","303651","0.0-38.0-1.1","SS1613100168141","trial","","40","800","1371.909999998752","images/stimuli/spore_stims/complex_04_B_b.gif","images/stimuli/spore_stims/complex_04_A_b.gif","","","","","10","complex_similar","images/stimuli/spore_stims/complex_04_A_b.gif","left","","","","",""
"","null","html-keyboard-response","192","304927","0.0-38.0-0.2","SS1613100168141","","","null","","","","","<p><img src= images/blank.png width =""200"" height = ""200"" style = ""float:right""></p><p><img src=images/blank.png width =""800"" height = ""200""></p>","","","","","","","","","","","",""
"","398.4850000051665","sequential-stimulus-presentation","193","306138","0.0-38.0-1.2","SS1613100168141","trial","","40","800","1198.4850000051665","images/stimuli/spore_stims/complex_04_B_b.gif","images/stimuli/spore_stims/complex_04_A_b.gif","","","","","10","complex_similar","images/stimuli/spore_stims/complex_04_B_b.gif","middle","","","","",""
"","null","html-keyboard-response","194","307433","0.0-38.0-0.3","SS1613100168141","","","null","","","","","<p><img src= images/blank.png width =""200"" height = ""200"" style = ""float:right""></p><p><img src=images/blank.png width =""800"" height = ""200""></p>","","","","","","","","","","","",""
"","482.2749999948428","sequential-stimulus-presentation","195","308746","0.0-38.0-1.3","SS1613100168141","trial","","40","800","1282.2749999948428","images/stimuli/spore_stims/complex_04_B_b.gif","images/stimuli/spore_stims/complex_04_A_b.gif","","","","","10","complex_similar","images/stimuli/spore_stims/complex_04_A_b.gif","left","","","","",""
"","null","html-keyboard-response","196","310035","0.0-38.0-0.4","SS1613100168141","","","null","","","","","<p><img src= images/blank.png width =""200"" height = ""200"" style = ""float:right""></p><p><img src=images/blank.png width =""800"" height = ""200""></p>","","","","","","","","","","","",""
"","495.310000005702","sequential-stimulus-presentation","197","311346","0.0-38.0-1.4","SS1613100168141","trial","","40","800","1295.310000005702","images/stimuli/spore_stims/complex_04_B_b.gif","images/stimuli/spore_stims/complex_04_A_b.gif","","","","","10","complex_similar","images/stimuli/spore_stims/complex_04_A_b.gif","left","","","","",""
"","null","html-keyboard-response","198","312565","0.0-38.0-0.5","SS1613100168141","","","null","","","","","<p><img src= images/blank.png width =""200"" height = ""200"" style = ""float:right""></p><p><img src=images/blank.png width =""800"" height = ""200""></p>","","","","","","","","","","","",""
"","230.55500000191387","sequential-stimulus-presentation","199","313612","0.0-38.0-1.5","SS1613100168141","trial","","40","800","1030.5550000019139","images/stimuli/spore_stims/complex_04_B_b.gif","images/stimuli/spore_stims/complex_04_A_b.gif","","","","","10","complex_similar","images/stimuli/spore_stims/complex_04_A_b.gif","left","","","","",""
"","null","html-keyboard-response","200","314899","0.0-38.0-0.6","SS1613100168141","","","null","","","","","<p><img src= images/blank.png width =""200"" height = ""200"" style = ""float:right""></p><p><img src=images/blank.png width =""800"" height = ""200""></p>","","","","","","","","","","","",""
"","233.38999999396037","sequential-stimulus-presentation","201","315940","0.0-38.0-1.6","SS1613100168141","trial","","40","800","1033.3899999939604","images/stimuli/spore_stims/complex_04_B_b.gif","images/stimuli/spore_stims/complex_04_A_b.gif","","","","","10","complex_similar","images/stimuli/spore_stims/complex_04_A_b.gif","left","","","","",""
"","null","html-keyboard-response","202","317198","0.0-38.0-0.7","SS1613100168141","","","null","","","","","<p><img src= images/blank.png width =""200"" height = ""200"" style = ""float:right""></p><p><img src=images/blank.png width =""800"" height = ""200""></p>","","","","","","","","","","","",""
"","232.00999999971827","sequential-stimulus-presentation","203","318243","0.0-38.0-1.7","SS1613100168141","trial","","40","800","1032.0099999997183","images/stimuli/spore_stims/complex_04_B_b.gif","images/stimuli/spore_stims/complex_04_A_b.gif","","","","","10","complex_similar","images/stimuli/spore_stims/complex_04_A_b.gif","left","","","","",""
"","1662.4200000005658","html-keyboard-response","204","319916","0.0-39.0","SS1613100168141","pref_question","","97","","","","","<video width ='960' height = '540' style='padding-top:8%' autoplay muted><source src='images/stimuli/wall_pref.mp4' type='video/mp4'></video>","1","left","25%","10","","","","","","","",""
"","431.70500000269385","sequential-stimulus-presentation","205","321163","0.0-40.0","SS1613100168141","pref_reveal","","40","800","1231.7050000026939","null","null","","","","","10","","","","background","","","",""
"","null","html-keyboard-response","206","322099","0.0-41.0-0.0","SS1613100168141","","","null","","","","","<p><img src= images/blank.png width =""200"" height = ""200"" style = ""float:right""></p><p><img src=images/blank.png width =""800"" height = ""200""></p>","","","","","","","","","","","",""
"","522.4799999996321","sequential-stimulus-presentation","207","323443","0.0-41.0-1.0","SS1613100168141","trial","","40","800","1322.4799999996321","images/stimuli/spore_stims/simple_15_B_b.gif","images/stimuli/spore_stims/simple_15_A_b.gif","","","","","11","simple_similar","images/stimuli/spore_stims/simple_15_A_b.gif","right","","","","",""
"","null","html-keyboard-response","208","324564","0.0-41.0-0.1","SS1613100168141","","","null","","","","","<p><img src= images/blank.png width =""200"" height = ""200"" style = ""float:right""></p><p><img src=images/blank.png width =""800"" height = ""200""></p>","","","","","","","","","","","",""
"","183.81500000396045","sequential-stimulus-presentation","209","325563","0.0-41.0-1.1","SS1613100168141","trial","","40","800","983.8150000039604","images/stimuli/spore_stims/simple_15_B_b.gif","images/stimuli/spore_stims/simple_15_A_b.gif","","","","","11","simple_similar","images/stimuli/spore_stims/simple_15_A_b.gif","right","","","","",""
"","null","html-keyboard-response","210","326836","0.0-41.0-0.2","SS1613100168141","","","null","","","","","<p><img src= images/blank.png width =""200"" height = ""200"" style = ""float:right""></p><p><img src=images/blank.png width =""800"" height = ""200""></p>","","","","","","","","","","","",""
"","248.66499999916414","sequential-stimulus-presentation","211","327899","0.0-41.0-1.2","SS1613100168141","trial","","40","800","1048.6649999991641","images/stimuli/spore_stims/simple_15_B_b.gif","images/stimuli/spore_stims/simple_15_A_b.gif","","","","","11","simple_similar","images/stimuli/spore_stims/simple_15_A_b.gif","right","","","","",""
"","null","html-keyboard-response","212","329045","0.0-41.0-0.3","SS1613100168141","","","null","","","","","<p><img src= images/blank.png width =""200"" height = ""200"" style = ""float:right""></p><p><img src=images/blank.png width =""800"" height = ""200""></p>","","","","","","","","","","","",""
"","359.1549999982817","sequential-stimulus-presentation","213","330219","0.0-41.0-1.3","SS1613100168141","trial","","40","800","1159.1549999982817","images/stimuli/spore_stims/simple_15_B_b.gif","images/stimuli/spore_stims/simple_15_A_b.gif","","","","","11","simple_similar","images/stimuli/spore_stims/simple_15_A_b.gif","right","","","","",""
"","null","html-keyboard-response","214","331438","0.0-41.0-0.4","SS1613100168141","","","null","","","","","<p><img src= images/blank.png width =""200"" height = ""200"" style = ""float:right""></p><p><img src=images/blank.png width =""800"" height = ""200""></p>","","","","","","","","","","","",""
"","350.28500000044005","sequential-stimulus-presentation","215","332603","0.0-41.0-1.4","SS1613100168141","trial","","40","800","1150.28500000044","images/stimuli/spore_stims/simple_15_B_b.gif","images/stimuli/spore_stims/simple_15_A_b.gif","","","","","11","simple_similar","images/stimuli/spore_stims/simple_15_B_b.gif","left","","","","",""
"","null","html-keyboard-response","216","333437","0.0-41.0-0.5","SS1613100168141","","","null","","","","","<p><img src= images/blank.png width =""200"" height = ""200"" style = ""float:right""></p><p><img src=images/blank.png width =""800"" height = ""200""></p>","","","","","","","","","","","",""
"","534.444999997504","sequential-stimulus-presentation","217","334786","0.0-41.0-1.5","SS1613100168141","trial","","40","800","1334.444999997504","images/stimuli/spore_stims/simple_15_B_b.gif","images/stimuli/spore_stims/simple_15_A_b.gif","","","","","11","simple_similar","images/stimuli/spore_stims/simple_15_A_b.gif","right","","","","",""
"","null","html-keyboard-response","218","335748","0.0-41.0-0.6","SS1613100168141","","","null","","","","","<p><img src= images/blank.png width =""200"" height = ""200"" style = ""float:right""></p><p><img src=images/blank.png width =""800"" height = ""200""></p>","","","","","","","","","","","",""
"","287.17999999935273","sequential-stimulus-presentation","219","336851","0.0-41.0-1.6","SS1613100168141","trial","","40","800","1087.1799999993527","images/stimuli/spore_stims/simple_15_B_b.gif","images/stimuli/spore_stims/simple_15_A_b.gif","","","","","11","simple_similar","images/stimuli/spore_stims/simple_15_A_b.gif","right","","","","",""
"","null","html-keyboard-response","220","338139","0.0-41.0-0.7","SS1613100168141","","","null","","","","","<p><img src= images/blank.png width =""200"" height = ""200"" style = ""float:right""></p><p><img src=images/blank.png width =""800"" height = ""200""></p>","","","","","","","","","","","",""
"","313.334999998915","sequential-stimulus-presentation","221","339266","0.0-41.0-1.7","SS1613100168141","trial","","40","800","1113.334999998915","images/stimuli/spore_stims/simple_15_B_b.gif","images/stimuli/spore_stims/simple_15_A_b.gif","","","","","11","simple_similar","images/stimuli/spore_stims/simple_15_A_b.gif","right","","","","",""
"","1072.5900000034017","html-keyboard-response","222","340355","0.0-42.0","SS1613100168141","pref_question","","97","","","","","<video width ='960' height = '540' style='padding-top:8%' autoplay muted><source src='images/stimuli/wall_pref.mp4' type='video/mp4'></video>","1","left","25%","11","","","","","","","",""
"","404.6950000047218","sequential-stimulus-presentation","223","341579","0.0-43.0","SS1613100168141","pref_reveal","","40","800","1204.6950000047218","null","null","","","","","11","","","","deviant","","","",""
"","null","html-keyboard-response","224","342528","0.0-44.0-0.0","SS1613100168141","","","null","","","","","<p><img src= images/blank.png width =""200"" height = ""200"" style = ""float:right""></p><p><img src=images/blank.png width =""800"" height = ""200""></p>","","","","","","","","","","","",""
"","338.9850000021397","sequential-stimulus-presentation","225","343682","0.0-44.0-1.0","SS1613100168141","trial","","40","800","1138.9850000021397","images/stimuli/spore_stims/complex_01_A_c.gif","images/stimuli/spore_stims/complex_02_B_c.gif","","","","","12","complex_dissimilar","images/stimuli/spore_stims/complex_02_B_c.gif","left","","","","",""
"","null","html-keyboard-response","226","344984","0.0-44.0-0.1","SS1613100168141","","","null","","","","","<p><img src= images/blank.png width =""200"" height = ""200"" style = ""float:right""></p><p><img src=images/blank.png width =""800"" height = ""200""></p>","","","","","","","","","","","",""
"","202.9099999999744","sequential-stimulus-presentation","227","346003","0.0-44.0-1.1","SS1613100168141","trial","","40","800","1002.9099999999744","images/stimuli/spore_stims/complex_01_A_c.gif","images/stimuli/spore_stims/complex_02_B_c.gif","","","","","12","complex_dissimilar","images/stimuli/spore_stims/complex_02_B_c.gif","left","","","","",""
"","null","html-keyboard-response","228","346988","0.0-44.0-0.2","SS1613100168141","","","null","","","","","<p><img src= images/blank.png width =""200"" height = ""200"" style = ""float:right""></p><p><img src=images/blank.png width =""800"" height = ""200""></p>","","","","","","","","","","","",""
"","231.99000000022352","sequential-stimulus-presentation","229","348036","0.0-44.0-1.2","SS1613100168141","trial","","40","800","1031.9900000002235","images/stimuli/spore_stims/complex_01_A_c.gif","images/stimuli/spore_stims/complex_02_B_c.gif","","","","","12","complex_dissimilar","images/stimuli/spore_stims/complex_02_B_c.gif","left","","","","",""
"","null","html-keyboard-response","230","348899","0.0-44.0-0.3","SS1613100168141","","","null","","","","","<p><img src= images/blank.png width =""200"" height = ""200"" style = ""float:right""></p><p><img src=images/blank.png width =""800"" height = ""200""></p>","","","","","","","","","","","",""
"","89.54499999526888","sequential-stimulus-presentation","231","349804","0.0-44.0-1.3","SS1613100168141","trial","","40","800","889.5449999952689","images/stimuli/spore_stims/complex_01_A_c.gif","images/stimuli/spore_stims/complex_02_B_c.gif","","","","","12","complex_dissimilar","images/stimuli/spore_stims/complex_02_B_c.gif","left","","","","",""
"","null","html-keyboard-response","232","350779","0.0-44.0-0.4","SS1613100168141","","","null","","","","","<p><img src= images/blank.png width =""200"" height = ""200"" style = ""float:right""></p><p><img src=images/blank.png width =""800"" height = ""200""></p>","","","","","","","","","","","",""
"","1048.0549999992945","sequential-stimulus-presentation","233","352643","0.0-44.0-1.4","SS1613100168141","trial","","40","800","1848.0549999992945","images/stimuli/spore_stims/complex_01_A_c.gif","images/stimuli/spore_stims/complex_02_B_c.gif","","","","","12","complex_dissimilar","images/stimuli/spore_stims/complex_01_A_c.gif","middle","","","","",""
"","null","html-keyboard-response","234","353869","0.0-44.0-0.5","SS1613100168141","","","null","","","","","<p><img src= images/blank.png width =""200"" height = ""200"" style = ""float:right""></p><p><img src=images/blank.png width =""800"" height = ""200""></p>","","","","","","","","","","","",""
"","112.38500000035856","sequential-stimulus-presentation","235","354802","0.0-44.0-1.5","SS1613100168141","trial","","40","800","912.3850000003586","images/stimuli/spore_stims/complex_01_A_c.gif","images/stimuli/spore_stims/complex_02_B_c.gif","","","","","12","complex_dissimilar","images/stimuli/spore_stims/complex_02_B_c.gif","left","","","","",""
"","null","html-keyboard-response","236","355748","0.0-44.0-0.6","SS1613100168141","","","null","","","","","<p><img src= images/blank.png width =""200"" height = ""200"" style = ""float:right""></p><p><img src=images/blank.png width =""800"" height = ""200""></p>","","","","","","","","","","","",""
"","423.9099999977043","sequential-stimulus-presentation","237","356986","0.0-44.0-1.6","SS1613100168141","trial","","40","800","1223.9099999977043","images/stimuli/spore_stims/complex_01_A_c.gif","images/stimuli/spore_stims/complex_02_B_c.gif","","","","","12","complex_dissimilar","images/stimuli/spore_stims/complex_02_B_c.gif","left","","","","",""
"","null","html-keyboard-response","238","357904","0.0-44.0-0.7","SS1613100168141","","","null","","","","","<p><img src= images/blank.png width =""200"" height = ""200"" style = ""float:right""></p><p><img src=images/blank.png width =""800"" height = ""200""></p>","","","","","","","","","","","",""
"","34.42999999970198","sequential-stimulus-presentation","239","358754","0.0-44.0-1.7","SS1613100168141","trial","","40","800","834.429999999702","images/stimuli/spore_stims/complex_01_A_c.gif","images/stimuli/spore_stims/complex_02_B_c.gif","","","","","12","complex_dissimilar","images/stimuli/spore_stims/complex_02_B_c.gif","left","","","","",""
"","8007.21500000509","html-keyboard-response","240","366770","0.0-45.0","SS1613100168141","pref_question","","98","","","","","<video width ='960' height = '540' style='padding-top:8%' autoplay muted><source src='images/stimuli/wall_pref.mp4' type='video/mp4'></video>","2","middle","45%","12","","","","","","","",""
"","326.3050000023213","sequential-stimulus-presentation","241","367931","0.0-46.0","SS1613100168141","pref_reveal","","40","800","1126.3050000023213","null","null","","","","","12","","","","deviant","","","",""
"","null","html-keyboard-response","242","369148","0.0-47.0-0.0","SS1613100168141","","","null","","","","","<p><img src= images/blank.png width =""200"" height = ""200"" style = ""float:right""></p><p><img src=images/blank.png width =""800"" height = ""200""></p>","","","","","","","","","","","",""
"","388.6750000019674","sequential-stimulus-presentation","243","370354","0.0-47.0-1.0","SS1613100168141","trial","","40","800","1188.6750000019674","images/stimuli/spore_stims/complex_14_B_d.gif","images/stimuli/spore_stims/complex_14_A_d.gif","","","","","13","complex_similar","images/stimuli/spore_stims/complex_14_A_d.gif","middle","","","","",""
"","null","html-keyboard-response","244","371337","0.0-47.0-0.1","SS1613100168141","","","null","","","","","<p><img src= images/blank.png width =""200"" height = ""200"" style = ""float:right""></p><p><img src=images/blank.png width =""800"" height = ""200""></p>","","","","","","","","","","","",""
"","711.0449999963748","sequential-stimulus-presentation","245","372866","0.0-47.0-1.1","SS1613100168141","trial","","40","800","1511.0449999963748","images/stimuli/spore_stims/complex_14_B_d.gif","images/stimuli/spore_stims/complex_14_A_d.gif","","","","","13","complex_similar","images/stimuli/spore_stims/complex_14_A_d.gif","middle","","","","",""
"","null","html-keyboard-response","246","373864","0.0-47.0-0.2","SS1613100168141","","","null","","","","","<p><img src= images/blank.png width =""200"" height = ""200"" style = ""float:right""></p><p><img src=images/blank.png width =""800"" height = ""200""></p>","","","","","","","","","","","",""
"","1685.2450000005774","sequential-stimulus-presentation","247","376379","0.0-47.0-1.2","SS1613100168141","trial","","40","800","2485.2450000005774","images/stimuli/spore_stims/complex_14_B_d.gif","images/stimuli/spore_stims/complex_14_A_d.gif","","","","","13","complex_similar","images/stimuli/spore_stims/complex_14_A_d.gif","middle","","","","",""
"","null","html-keyboard-response","248","377472","0.0-47.0-0.3","SS1613100168141","","","null","","","","","<p><img src= images/blank.png width =""200"" height = ""200"" style = ""float:right""></p><p><img src=images/blank.png width =""800"" height = ""200""></p>","","","","","","","","","","","",""
"","547.8149999980815","sequential-stimulus-presentation","249","378836","0.0-47.0-1.3","SS1613100168141","trial","","40","800","1347.8149999980815","images/stimuli/spore_stims/complex_14_B_d.gif","images/stimuli/spore_stims/complex_14_A_d.gif","","","","","13","complex_similar","images/stimuli/spore_stims/complex_14_A_d.gif","middle","","","","",""
"","null","html-keyboard-response","250","379916","0.0-47.0-0.4","SS1613100168141","","","null","","","","","<p><img src= images/blank.png width =""200"" height = ""200"" style = ""float:right""></p><p><img src=images/blank.png width =""800"" height = ""200""></p>","","","","","","","","","","","",""
"","85.75500000006286","sequential-stimulus-presentation","251","380819","0.0-47.0-1.4","SS1613100168141","trial","","40","800","885.7550000000629","images/stimuli/spore_stims/complex_14_B_d.gif","images/stimuli/spore_stims/complex_14_A_d.gif","","","","","13","complex_similar","images/stimuli/spore_stims/complex_14_B_d.gif","right","","","","",""
"","null","html-keyboard-response","252","381728","0.0-47.0-0.5","SS1613100168141","","","null","","","","","<p><img src= images/blank.png width =""200"" height = ""200"" style = ""float:right""></p><p><img src=images/blank.png width =""800"" height = ""200""></p>","","","","","","","","","","","",""
"","300.07499999919673","sequential-stimulus-presentation","253","382843","0.0-47.0-1.5","SS1613100168141","trial","","40","800","1100.0749999991967","images/stimuli/spore_stims/complex_14_B_d.gif","images/stimuli/spore_stims/complex_14_A_d.gif","","","","","13","complex_similar","images/stimuli/spore_stims/complex_14_A_d.gif","middle","","","","",""
"","null","html-keyboard-response","254","383738","0.0-47.0-0.6","SS1613100168141","","","null","","","","","<p><img src= images/blank.png width =""200"" height = ""200"" style = ""float:right""></p><p><img src=images/blank.png width =""800"" height = ""200""></p>","","","","","","","","","","","",""
"","294.60500000277534","sequential-stimulus-presentation","255","384867","0.0-47.0-1.6","SS1613100168141","trial","","40","800","1094.6050000027753","images/stimuli/spore_stims/complex_14_B_d.gif","images/stimuli/spore_stims/complex_14_A_d.gif","","","","","13","complex_similar","images/stimuli/spore_stims/complex_14_A_d.gif","middle","","","","",""
"","null","html-keyboard-response","256","385716","0.0-47.0-0.7","SS1613100168141","","","null","","","","","<p><img src= images/blank.png width =""200"" height = ""200"" style = ""float:right""></p><p><img src=images/blank.png width =""800"" height = ""200""></p>","","","","","","","","","","","",""
"","382.1699999971315","sequential-stimulus-presentation","257","386915","0.0-47.0-1.7","SS1613100168141","trial","","40","800","1182.1699999971315","images/stimuli/spore_stims/complex_14_B_d.gif","images/stimuli/spore_stims/complex_14_A_d.gif","","","","","13","complex_similar","images/stimuli/spore_stims/complex_14_A_d.gif","middle","","","","",""
"","1135.6449999948381","html-keyboard-response","258","388059","0.0-48.0","SS1613100168141","pref_question","","97","","","","","<video width ='960' height = '540' style='padding-top:8%' autoplay muted><source src='images/stimuli/wall_pref.mp4' type='video/mp4'></video>","1","left","25%","13","","","","","","","",""
"","248.8999999986845","sequential-stimulus-presentation","259","389123","0.0-49.0","SS1613100168141","pref_reveal","","40","800","1048.8999999986845","null","null","","","","","13","","","","novel","","","",""
"","null","html-keyboard-response","260","390238","0.0-50.0-0.0","SS1613100168141","","","null","","","","","<p><img src= images/blank.png width =""200"" height = ""200"" style = ""float:right""></p><p><img src=images/blank.png width =""800"" height = ""200""></p>","","","","","","","","","","","",""
"","380.13499999942724","sequential-stimulus-presentation","261","391436","0.0-50.0-1.0","SS1613100168141","trial","","40","800","1180.1349999994272","images/stimuli/spore_stims/simple_17_B_c.gif","images/stimuli/spore_stims/simple_17_A_c.gif","","","","","14","simple_similar","images/stimuli/spore_stims/simple_17_A_c.gif","left","","","","",""
"","null","html-keyboard-response","262","392680","0.0-50.0-0.1","SS1613100168141","","","null","","","","","<p><img src= images/blank.png width =""200"" height = ""200"" style = ""float:right""></p><p><img src=images/blank.png width =""800"" height = ""200""></p>","","","","","","","","","","","",""
"","271.8950000053155","sequential-stimulus-presentation","263","393787","0.0-50.0-1.1","SS1613100168141","trial","","40","800","1071.8950000053155","images/stimuli/spore_stims/simple_17_B_c.gif","images/stimuli/spore_stims/simple_17_A_c.gif","","","","","14","simple_similar","images/stimuli/spore_stims/simple_17_A_c.gif","left","","","","",""
"","null","html-keyboard-response","264","394779","0.0-50.0-0.2","SS1613100168141","","","null","","","","","<p><img src= images/blank.png width =""200"" height = ""200"" style = ""float:right""></p><p><img src=images/blank.png width =""800"" height = ""200""></p>","","","","","","","","","","","",""
"","358.34500000055414","sequential-stimulus-presentation","265","395963","0.0-50.0-1.2","SS1613100168141","trial","","40","800","1158.3450000005541","images/stimuli/spore_stims/simple_17_B_c.gif","images/stimuli/spore_stims/simple_17_A_c.gif","","","","","14","simple_similar","images/stimuli/spore_stims/simple_17_A_c.gif","left","","","","",""
"","null","html-keyboard-response","266","396845","0.0-50.0-0.3","SS1613100168141","","","null","","","","","<p><img src= images/blank.png width =""200"" height = ""200"" style = ""float:right""></p><p><img src=images/blank.png width =""800"" height = ""200""></p>","","","","","","","","","","","",""
"","144.1149999955087","sequential-stimulus-presentation","267","397811","0.0-50.0-1.3","SS1613100168141","trial","","40","800","944.1149999955087","images/stimuli/spore_stims/simple_17_B_c.gif","images/stimuli/spore_stims/simple_17_A_c.gif","","","","","14","simple_similar","images/stimuli/spore_stims/simple_17_B_c.gif","middle","","","","",""
"","null","html-keyboard-response","268","398692","0.0-50.0-0.4","SS1613100168141","","","null","","","","","<p><img src= images/blank.png width =""200"" height = ""200"" style = ""float:right""></p><p><img src=images/blank.png width =""800"" height = ""200""></p>","","","","","","","","","","","",""
"","175.15499999717576","sequential-stimulus-presentation","269","399683","0.0-50.0-1.4","SS1613100168141","trial","","40","800","975.1549999971758","images/stimuli/spore_stims/simple_17_B_c.gif","images/stimuli/spore_stims/simple_17_A_c.gif","","","","","14","simple_similar","images/stimuli/spore_stims/simple_17_A_c.gif","left","","","","",""
"","null","html-keyboard-response","270","400977","0.0-50.0-0.5","SS1613100168141","","","null","","","","","<p><img src= images/blank.png width =""200"" height = ""200"" style = ""float:right""></p><p><img src=images/blank.png width =""800"" height = ""200""></p>","","","","","","","","","","","",""
"","201.4000000053784","sequential-stimulus-presentation","271","401995","0.0-50.0-1.5","SS1613100168141","trial","","40","800","1001.4000000053784","images/stimuli/spore_stims/simple_17_B_c.gif","images/stimuli/spore_stims/simple_17_A_c.gif","","","","","14","simple_similar","images/stimuli/spore_stims/simple_17_A_c.gif","left","","","","",""
"","null","html-keyboard-response","272","403084","0.0-50.0-0.6","SS1613100168141","","","null","","","","","<p><img src= images/blank.png width =""200"" height = ""200"" style = ""float:right""></p><p><img src=images/blank.png width =""800"" height = ""200""></p>","","","","","","","","","","","",""
"","211.59500000067055","sequential-stimulus-presentation","273","404106","0.0-50.0-1.6","SS1613100168141","trial","","40","800","1011.5950000006706","images/stimuli/spore_stims/simple_17_B_c.gif","images/stimuli/spore_stims/simple_17_A_c.gif","","","","","14","simple_similar","images/stimuli/spore_stims/simple_17_A_c.gif","left","","","","",""
"","null","html-keyboard-response","274","404945","0.0-50.0-0.7","SS1613100168141","","","null","","","","","<p><img src= images/blank.png width =""200"" height = ""200"" style = ""float:right""></p><p><img src=images/blank.png width =""800"" height = ""200""></p>","","","","","","","","","","","",""
"","298.88999999820953","sequential-stimulus-presentation","275","406059","0.0-50.0-1.7","SS1613100168141","trial","","40","800","1098.8899999982095","images/stimuli/spore_stims/simple_17_B_c.gif","images/stimuli/spore_stims/simple_17_A_c.gif","","","","","14","simple_similar","images/stimuli/spore_stims/simple_17_A_c.gif","left","","","","",""
"","1305.1049999994575","html-keyboard-response","276","407403","0.0-51.0","SS1613100168141","pref_question","","99","","","","","<video width ='960' height = '540' style='padding-top:8%' autoplay muted><source src='images/stimuli/wall_pref.mp4' type='video/mp4'></video>","3","right","66%","14","","","","","","","",""
"","846.720000001369","sequential-stimulus-presentation","277","409058","0.0-52.0","SS1613100168141","pref_reveal","","40","800","1646.720000001369","null","null","","","","","14","","","","novel","","","",""
"","null","html-keyboard-response","278","409922","0.0-53.0-0.0","SS1613100168141","","","null","","","","","<p><img src= images/blank.png width =""200"" height = ""200"" style = ""float:right""></p><p><img src=images/blank.png width =""800"" height = ""200""></p>","","","","","","","","","","","",""
"","191.5450000014971","sequential-stimulus-presentation","279","410930","0.0-53.0-1.0","SS1613100168141","trial","","40","800","991.5450000014971","images/stimuli/spore_stims/complex_11_B_a.gif","images/stimuli/spore_stims/complex_05_A_c.gif","","","","","15","complex_dissimilar","images/stimuli/spore_stims/complex_05_A_c.gif","right","","","","",""
"","null","html-keyboard-response","280","411985","0.0-53.0-0.1","SS1613100168141","","","null","","","","","<p><img src= images/blank.png width =""200"" height = ""200"" style = ""float:right""></p><p><img src=images/blank.png width =""800"" height = ""200""></p>","","","","","","","","","","","",""
"","384.57000000198605","sequential-stimulus-presentation","281","413187","0.0-53.0-1.1","SS1613100168141","trial","","40","800","1184.570000001986","images/stimuli/spore_stims/complex_11_B_a.gif","images/stimuli/spore_stims/complex_05_A_c.gif","","","","","15","complex_dissimilar","images/stimuli/spore_stims/complex_05_A_c.gif","right","","","","",""
"","null","html-keyboard-response","282","414253","0.0-53.0-0.2","SS1613100168141","","","null","","","","","<p><img src= images/blank.png width =""200"" height = ""200"" style = ""float:right""></p><p><img src=images/blank.png width =""800"" height = ""200""></p>","","","","","","","","","","","",""
"","145.76999999553664","sequential-stimulus-presentation","283","415213","0.0-53.0-1.2","SS1613100168141","trial","","40","800","945.7699999955366","images/stimuli/spore_stims/complex_11_B_a.gif","images/stimuli/spore_stims/complex_05_A_c.gif","","","","","15","complex_dissimilar","images/stimuli/spore_stims/complex_05_A_c.gif","right","","","","",""
"","null","html-keyboard-response","284","416200","0.0-53.0-0.3","SS1613100168141","","","null","","","","","<p><img src= images/blank.png width =""200"" height = ""200"" style = ""float:right""></p><p><img src=images/blank.png width =""800"" height = ""200""></p>","","","","","","","","","","","",""
"","185.57000000146218","sequential-stimulus-presentation","285","417203","0.0-53.0-1.3","SS1613100168141","trial","","40","800","985.5700000014622","images/stimuli/spore_stims/complex_11_B_a.gif","images/stimuli/spore_stims/complex_05_A_c.gif","","","","","15","complex_dissimilar","images/stimuli/spore_stims/complex_05_A_c.gif","right","","","","",""
"","null","html-keyboard-response","286","418133","0.0-53.0-0.4","SS1613100168141","","","null","","","","","<p><img src= images/blank.png width =""200"" height = ""200"" style = ""float:right""></p><p><img src=images/blank.png width =""800"" height = ""200""></p>","","","","","","","","","","","",""
"","118.38999999599764","sequential-stimulus-presentation","287","419067","0.0-53.0-1.4","SS1613100168141","trial","","40","800","918.3899999959976","images/stimuli/spore_stims/complex_11_B_a.gif","images/stimuli/spore_stims/complex_05_A_c.gif","","","","","15","complex_dissimilar","images/stimuli/spore_stims/complex_05_A_c.gif","right","","","","",""
"","null","html-keyboard-response","288","419931","0.0-53.0-0.5","SS1613100168141","","","null","","","","","<p><img src= images/blank.png width =""200"" height = ""200"" style = ""float:right""></p><p><img src=images/blank.png width =""800"" height = ""200""></p>","","","","","","","","","","","",""
"","206.24999999563443","sequential-stimulus-presentation","289","420954","0.0-53.0-1.5","SS1613100168141","trial","","40","800","1006.2499999956344","images/stimuli/spore_stims/complex_11_B_a.gif","images/stimuli/spore_stims/complex_05_A_c.gif","","","","","15","complex_dissimilar","images/stimuli/spore_stims/complex_11_B_a.gif","middle","","","","",""
"","null","html-keyboard-response","290","422248","0.0-53.0-0.6","SS1613100168141","","","null","","","","","<p><img src= images/blank.png width =""200"" height = ""200"" style = ""float:right""></p><p><img src=images/blank.png width =""800"" height = ""200""></p>","","","","","","","","","","","",""
"","178.72499999793945","sequential-stimulus-presentation","291","423242","0.0-53.0-1.6","SS1613100168141","trial","","40","800","978.7249999979394","images/stimuli/spore_stims/complex_11_B_a.gif","images/stimuli/spore_stims/complex_05_A_c.gif","","","","","15","complex_dissimilar","images/stimuli/spore_stims/complex_05_A_c.gif","right","","","","",""
"","null","html-keyboard-response","292","424236","0.0-53.0-0.7","SS1613100168141","","","null","","","","","<p><img src= images/blank.png width =""200"" height = ""200"" style = ""float:right""></p><p><img src=images/blank.png width =""800"" height = ""200""></p>","","","","","","","","","","","",""
"","200.7850000009057","sequential-stimulus-presentation","293","425250","0.0-53.0-1.7","SS1613100168141","trial","","40","800","1000.7850000009057","images/stimuli/spore_stims/complex_11_B_a.gif","images/stimuli/spore_stims/complex_05_A_c.gif","","","","","15","complex_dissimilar","images/stimuli/spore_stims/complex_05_A_c.gif","right","","","","",""
"","1384.8950000028708","html-keyboard-response","294","426650","0.0-54.0","SS1613100168141","pref_question","","97","","","","","<video width ='960' height = '540' style='padding-top:8%' autoplay muted><source src='images/stimuli/wall_pref.mp4' type='video/mp4'></video>","1","left","25%","15","","","","","","","",""
"","677.4650000006659","sequential-stimulus-presentation","295","428146","0.0-55.0","SS1613100168141","pref_reveal","","40","800","1477.465000000666","null","null","","","","","15","","","","novel","","","",""
"","null","html-keyboard-response","296","429051","0.0-56.0-0.0","SS1613100168141","","","null","","","","","<p><img src= images/blank.png width =""200"" height = ""200"" style = ""float:right""></p><p><img src=images/blank.png width =""800"" height = ""200""></p>","","","","","","","","","","","",""
"","493.480000004638","sequential-stimulus-presentation","297","430363","0.0-56.0-1.0","SS1613100168141","trial","","40","800","1293.480000004638","images/stimuli/spore_stims/complex_17_B_b.gif","images/stimuli/spore_stims/complex_17_A_b.gif","","","","","16","complex_similar","images/stimuli/spore_stims/complex_17_A_b.gif","right","","","","",""
"","null","html-keyboard-response","298","431211","0.0-56.0-0.1","SS1613100168141","","","null","","","","","<p><img src= images/blank.png width =""200"" height = ""200"" style = ""float:right""></p><p><img src=images/blank.png width =""800"" height = ""200""></p>","","","","","","","","","","","",""
"","510.0400000010268","sequential-stimulus-presentation","299","432538","0.0-56.0-1.1","SS1613100168141","trial","","40","800","1310.0400000010268","images/stimuli/spore_stims/complex_17_B_b.gif","images/stimuli/spore_stims/complex_17_A_b.gif","","","","","16","complex_similar","images/stimuli/spore_stims/complex_17_A_b.gif","right","","","","",""
"","null","html-keyboard-response","300","433558","0.0-56.0-0.2","SS1613100168141","","","null","","","","","<p><img src= images/blank.png width =""200"" height = ""200"" style = ""float:right""></p><p><img src=images/blank.png width =""800"" height = ""200""></p>","","","","","","","","","","","",""
"","237.58499999530613","sequential-stimulus-presentation","301","434610","0.0-56.0-1.2","SS1613100168141","trial","","40","800","1037.5849999953061","images/stimuli/spore_stims/complex_17_B_b.gif","images/stimuli/spore_stims/complex_17_A_b.gif","","","","","16","complex_similar","images/stimuli/spore_stims/complex_17_A_b.gif","right","","","","",""
"","null","html-keyboard-response","302","435514","0.0-56.0-0.3","SS1613100168141","","","null","","","","","<p><img src= images/blank.png width =""200"" height = ""200"" style = ""float:right""></p><p><img src=images/blank.png width =""800"" height = ""200""></p>","","","","","","","","","","","",""
"","264.72500000090804","sequential-stimulus-presentation","303","436594","0.0-56.0-1.3","SS1613100168141","trial","","40","800","1064.725000000908","images/stimuli/spore_stims/complex_17_B_b.gif","images/stimuli/spore_stims/complex_17_A_b.gif","","","","","16","complex_similar","images/stimuli/spore_stims/complex_17_A_b.gif","right","","","","",""
"","null","html-keyboard-response","304","437633","0.0-56.0-0.4","SS1613100168141","","","null","","","","","<p><img src= images/blank.png width =""200"" height = ""200"" style = ""float:right""></p><p><img src=images/blank.png width =""800"" height = ""200""></p>","","","","","","","","","","","",""
"","418.07499999413267","sequential-stimulus-presentation","305","438867","0.0-56.0-1.4","SS1613100168141","trial","","40","800","1218.0749999941327","images/stimuli/spore_stims/complex_17_B_b.gif","images/stimuli/spore_stims/complex_17_A_b.gif","","","","","16","complex_similar","images/stimuli/spore_stims/complex_17_A_b.gif","right","","","","",""
"","null","html-keyboard-response","306","439838","0.0-56.0-0.5","SS1613100168141","","","null","","","","","<p><img src= images/blank.png width =""200"" height = ""200"" style = ""float:right""></p><p><img src=images/blank.png width =""800"" height = ""200""></p>","","","","","","","","","","","",""
"","402.43500000360655","sequential-stimulus-presentation","307","441059","0.0-56.0-1.5","SS1613100168141","trial","","40","800","1202.4350000036065","images/stimuli/spore_stims/complex_17_B_b.gif","images/stimuli/spore_stims/complex_17_A_b.gif","","","","","16","complex_similar","images/stimuli/spore_stims/complex_17_A_b.gif","right","","","","",""
"","null","html-keyboard-response","308","442333","0.0-56.0-0.6","SS1613100168141","","","null","","","","","<p><img src= images/blank.png width =""200"" height = ""200"" style = ""float:right""></p><p><img src=images/blank.png width =""800"" height = ""200""></p>","","","","","","","","","","","",""
"","229.43500000110362","sequential-stimulus-presentation","309","443378","0.0-56.0-1.6","SS1613100168141","trial","","40","800","1029.4350000011036","images/stimuli/spore_stims/complex_17_B_b.gif","images/stimuli/spore_stims/complex_17_A_b.gif","","","","","16","complex_similar","images/stimuli/spore_stims/complex_17_A_b.gif","right","","","","",""
"","null","html-keyboard-response","310","444420","0.0-56.0-0.7","SS1613100168141","","","null","","","","","<p><img src= images/blank.png width =""200"" height = ""200"" style = ""float:right""></p><p><img src=images/blank.png width =""800"" height = ""200""></p>","","","","","","","","","","","",""
"","289.2050000009476","sequential-stimulus-presentation","311","445522","0.0-56.0-1.7","SS1613100168141","trial","","40","800","1089.2050000009476","images/stimuli/spore_stims/complex_17_B_b.gif","images/stimuli/spore_stims/complex_17_A_b.gif","","","","","16","complex_similar","images/stimuli/spore_stims/complex_17_B_b.gif","middle","","","","",""
"","1230.1799999986542","html-keyboard-response","312","446762","0.0-57.0","SS1613100168141","pref_question","","97","","","","","<video width ='960' height = '540' style='padding-top:8%' autoplay muted><source src='images/stimuli/wall_pref.mp4' type='video/mp4'></video>","1","left","25%","16","","","","","","","",""
