"view_history","rt","trial_type","trial_index","time_elapsed","internal_node_id","subject","stimulus_type","trial_stimulus","key_press","minimum_viewing_duration","trial_looking_time","stimulus","wall_pref","location","location_percent","block_number","block_type","stimulus_displayed","position_displayed","stim_type_selected","responses","question_order","stimulus_left","stimulus_right"
"[{""page_index"":0,""viewing_time"":6490.740000270307}]","6491.075000260025","instructions","0","6492","0.0-0.0","SS1612933311578","","","","","","","","","","","","","","","","","",""
"[{""page_index"":0,""viewing_time"":12037.525000050664},{""page_index"":1,""viewing_time"":7415.804999880493}]","19453.449999913573","instructions","1","27947","0.0-1.0","SS1612933311578","instructions","","","","","","","","","","","","","","","","",""
"","10660.644999705255","sequential-stimulus-presentation","2","39411","0.0-2.0","SS1612933311578","","","40","800","11460.644999705255","","","","","","","","","","","","",""
"","6486.430000048131","sequential-stimulus-presentation","3","46701","0.0-3.0","SS1612933311578","","","40","800","7286.430000048131","","","","","","","","","","","","",""
"[{""page_index"":0,""viewing_time"":2038.9950000680983}]","2039.094999898225","instructions","4","48741","0.0-4.0","SS1612933311578","instructions","","","","","","","","","","","","","","","","",""
"","4870.5950002186","html-keyboard-response","5","53613","0.0-5.0","SS1612933311578","instructions","","98","","","<video width ='960' height = '540' autoplay muted><source src='images/stimuli/wall_pref.mp4' type='video/mp4'></video>","2","middle","45%","","","","","","","","",""
"","3294.0599997527897","sequential-stimulus-presentation","6","57710","0.0-6.0","SS1612933311578","pref_reveal","","40","800","4094.0599997527897","","","","","","","","","","","","",""
"[{""page_index"":0,""viewing_time"":8959.664999973029},{""page_index"":1,""viewing_time"":4352.915000170469},{""page_index"":2,""viewing_time"":903.6349998787045},{""page_index"":3,""viewing_time"":712.1250000782311}]","14928.450000006706","instructions","7","72640","0.0-7.0","SS1612933311578","instructions","","","","","","","","","","","","","","","","",""
"","null","html-keyboard-response","8","73645","0.0-8.0-0.0","SS1612933311578","","","null","","","<p><img src= images/blank.png width =""200"" height = ""200"" style = ""float:right""></p><p><img src=images/blank.png width =""800"" height = ""200""></p>","","","","","","","","","","","",""
"","2879.850000143051","sequential-stimulus-presentation","9","77328","0.0-8.0-1.0","SS1612933311578","trial","","40","800","3679.850000143051","","","","","0","complex_similar","images/stimuli/spore_stims/complex_10_A_d.gif","right","","","","",""
"","null","html-keyboard-response","10","78296","0.0-8.0-0.1","SS1612933311578","","","null","","","<p><img src= images/blank.png width =""200"" height = ""200"" style = ""float:right""></p><p><img src=images/blank.png width =""800"" height = ""200""></p>","","","","","","","","","","","",""
"","2478.724999818951","sequential-stimulus-presentation","11","81578","0.0-8.0-1.1","SS1612933311578","trial","","40","800","3278.724999818951","","","","","0","complex_similar","images/stimuli/spore_stims/complex_10_A_d.gif","right","","","","",""
"","null","html-keyboard-response","12","82658","0.0-8.0-0.2","SS1612933311578","","","null","","","<p><img src= images/blank.png width =""200"" height = ""200"" style = ""float:right""></p><p><img src=images/blank.png width =""800"" height = ""200""></p>","","","","","","","","","","","",""
"","3491.8899997137487","sequential-stimulus-presentation","13","86954","0.0-8.0-1.2","SS1612933311578","trial","","40","800","4291.889999713749","","","","","0","complex_similar","images/stimuli/spore_stims/complex_10_A_d.gif","right","","","","",""
"","null","html-keyboard-response","14","88194","0.0-8.0-0.3","SS1612933311578","","","null","","","<p><img src= images/blank.png width =""200"" height = ""200"" style = ""float:right""></p><p><img src=images/blank.png width =""800"" height = ""200""></p>","","","","","","","","","","","",""
"","4662.294999696314","sequential-stimulus-presentation","15","93659","0.0-8.0-1.3","SS1612933311578","trial","","40","800","5462.294999696314","","","","","0","complex_similar","images/stimuli/spore_stims/complex_10_A_d.gif","right","","","","",""
"","null","html-keyboard-response","16","94582","0.0-8.0-0.4","SS1612933311578","","","null","","","<p><img src= images/blank.png width =""200"" height = ""200"" style = ""float:right""></p><p><img src=images/blank.png width =""800"" height = ""200""></p>","","","","","","","","","","","",""
"","2995.0350001454353","sequential-stimulus-presentation","17","98380","0.0-8.0-1.4","SS1612933311578","trial","","40","800","3795.0350001454353","","","","","0","complex_similar","images/stimuli/spore_stims/complex_10_B_d.gif","left","","","","",""
"","null","html-keyboard-response","18","99661","0.0-8.0-0.5","SS1612933311578","","","null","","","<p><img src= images/blank.png width =""200"" height = ""200"" style = ""float:right""></p><p><img src=images/blank.png width =""800"" height = ""200""></p>","","","","","","","","","","","",""
"","2890.6700001098216","sequential-stimulus-presentation","19","103356","0.0-8.0-1.5","SS1612933311578","trial","","40","800","3690.6700001098216","","","","","0","complex_similar","images/stimuli/spore_stims/complex_10_A_d.gif","right","","","","",""
"","null","html-keyboard-response","20","104188","0.0-8.0-0.6","SS1612933311578","","","null","","","<p><img src= images/blank.png width =""200"" height = ""200"" style = ""float:right""></p><p><img src=images/blank.png width =""800"" height = ""200""></p>","","","","","","","","","","","",""
"","2629.620000254363","sequential-stimulus-presentation","21","107621","0.0-8.0-1.6","SS1612933311578","trial","","40","800","3429.620000254363","","","","","0","complex_similar","images/stimuli/spore_stims/complex_10_A_d.gif","right","","","","",""
"","null","html-keyboard-response","22","108801","0.0-8.0-0.7","SS1612933311578","","","null","","","<p><img src= images/blank.png width =""200"" height = ""200"" style = ""float:right""></p><p><img src=images/blank.png width =""800"" height = ""200""></p>","","","","","","","","","","","",""
"","1079.630000051111","sequential-stimulus-presentation","23","110685","0.0-8.0-1.7","SS1612933311578","trial","","40","800","1879.630000051111","","","","","0","complex_similar","images/stimuli/spore_stims/complex_10_A_d.gif","right","","","","",""
"","3229.0400001220405","html-keyboard-response","24","113917","0.0-9.0","SS1612933311578","pref_question","","98","","","<video width ='960' height = '540' style='padding-top:8%' autoplay muted><source src='images/stimuli/wall_pref.mp4' type='video/mp4'></video>","2","middle","45%","0","","","","","","","",""
"","2868.565000128001","sequential-stimulus-presentation","25","117590","0.0-10.0","SS1612933311578","pref_reveal","","40","800","3668.565000128001","","","","","0","","","","novel","","","",""
"","null","html-keyboard-response","26","118748","0.0-11.0-0.0","SS1612933311578","","","null","","","<p><img src= images/blank.png width =""200"" height = ""200"" style = ""float:right""></p><p><img src=images/blank.png width =""800"" height = ""200""></p>","","","","","","","","","","","",""
"","2470.499999821186","sequential-stimulus-presentation","27","122023","0.0-11.0-1.0","SS1612933311578","trial","","40","800","3270.499999821186","","","","","1","complex_similar","images/stimuli/spore_stims/complex_01_B_b.gif","left","","","","",""
"","null","html-keyboard-response","28","122869","0.0-11.0-0.1","SS1612933311578","","","null","","","<p><img src= images/blank.png width =""200"" height = ""200"" style = ""float:right""></p><p><img src=images/blank.png width =""800"" height = ""200""></p>","","","","","","","","","","","",""
"","1349.639999680221","sequential-stimulus-presentation","29","125022","0.0-11.0-1.1","SS1612933311578","trial","","40","800","2149.639999680221","","","","","1","complex_similar","images/stimuli/spore_stims/complex_01_B_b.gif","left","","","","",""
"","null","html-keyboard-response","30","126036","0.0-11.0-0.2","SS1612933311578","","","null","","","<p><img src= images/blank.png width =""200"" height = ""200"" style = ""float:right""></p><p><img src=images/blank.png width =""800"" height = ""200""></p>","","","","","","","","","","","",""
"","1503.1849998049438","sequential-stimulus-presentation","31","128343","0.0-11.0-1.2","SS1612933311578","trial","","40","800","2303.184999804944","","","","","1","complex_similar","images/stimuli/spore_stims/complex_01_B_b.gif","left","","","","",""
"","null","html-keyboard-response","32","129539","0.0-11.0-0.3","SS1612933311578","","","null","","","<p><img src= images/blank.png width =""200"" height = ""200"" style = ""float:right""></p><p><img src=images/blank.png width =""800"" height = ""200""></p>","","","","","","","","","","","",""
"","1024.3950001895428","sequential-stimulus-presentation","33","131367","0.0-11.0-1.3","SS1612933311578","trial","","40","800","1824.3950001895428","","","","","1","complex_similar","images/stimuli/spore_stims/complex_01_B_b.gif","left","","","","",""
"","null","html-keyboard-response","34","132255","0.0-11.0-0.4","SS1612933311578","","","null","","","<p><img src= images/blank.png width =""200"" height = ""200"" style = ""float:right""></p><p><img src=images/blank.png width =""800"" height = ""200""></p>","","","","","","","","","","","",""
"","16022.764999885112","sequential-stimulus-presentation","35","149082","0.0-11.0-1.4","SS1612933311578","trial","","40","800","16822.764999885112","","","","","1","complex_similar","images/stimuli/spore_stims/complex_01_B_b.gif","left","","","","",""
"","null","html-keyboard-response","36","150178","0.0-11.0-0.5","SS1612933311578","","","null","","","<p><img src= images/blank.png width =""200"" height = ""200"" style = ""float:right""></p><p><img src=images/blank.png width =""800"" height = ""200""></p>","","","","","","","","","","","",""
"","3692.769999615848","sequential-stimulus-presentation","37","154674","0.0-11.0-1.5","SS1612933311578","trial","","40","800","4492.769999615848","","","","","1","complex_similar","images/stimuli/spore_stims/complex_01_B_b.gif","left","","","","",""
"","null","html-keyboard-response","38","155743","0.0-11.0-0.6","SS1612933311578","","","null","","","<p><img src= images/blank.png width =""200"" height = ""200"" style = ""float:right""></p><p><img src=images/blank.png width =""800"" height = ""200""></p>","","","","","","","","","","","",""
"","1120.1150002889335","sequential-stimulus-presentation","39","157667","0.0-11.0-1.6","SS1612933311578","trial","","40","800","1920.1150002889335","","","","","1","complex_similar","images/stimuli/spore_stims/complex_01_B_b.gif","left","","","","",""
"","null","html-keyboard-response","40","158492","0.0-11.0-0.7","SS1612933311578","","","null","","","<p><img src= images/blank.png width =""200"" height = ""200"" style = ""float:right""></p><p><img src=images/blank.png width =""800"" height = ""200""></p>","","","","","","","","","","","",""
"","1915.5700001865625","sequential-stimulus-presentation","41","161212","0.0-11.0-1.7","SS1612933311578","trial","","40","800","2715.5700001865625","","","","","1","complex_similar","images/stimuli/spore_stims/complex_01_A_b.gif","right","","","","",""
"","1636.8449996225536","html-keyboard-response","42","162852","0.0-12.0","SS1612933311578","pref_question","","98","","","<video width ='960' height = '540' style='padding-top:8%' autoplay muted><source src='images/stimuli/wall_pref.mp4' type='video/mp4'></video>","2","middle","45%","1","","","","","","","",""
"","1667.699999641627","sequential-stimulus-presentation","43","165324","0.0-13.0","SS1612933311578","pref_reveal","","40","800","2467.699999641627","","","","","1","","","","novel","","","",""
"","null","html-keyboard-response","44","166261","0.0-14.0-0.0","SS1612933311578","","","null","","","<p><img src= images/blank.png width =""200"" height = ""200"" style = ""float:right""></p><p><img src=images/blank.png width =""800"" height = ""200""></p>","","","","","","","","","","","",""
"","3259.349999949336","sequential-stimulus-presentation","45","170324","0.0-14.0-1.0","SS1612933311578","trial","","40","800","4059.349999949336","","","","","2","simple_dissimilar","images/stimuli/spore_stims/simple_07_A_a.gif","left","","","","",""
"","null","html-keyboard-response","46","171160","0.0-14.0-0.1","SS1612933311578","","","null","","","<p><img src= images/blank.png width =""200"" height = ""200"" style = ""float:right""></p><p><img src=images/blank.png width =""800"" height = ""200""></p>","","","","","","","","","","","",""
"","1472.7950002998114","sequential-stimulus-presentation","47","173437","0.0-14.0-1.1","SS1612933311578","trial","","40","800","2272.7950002998114","","","","","2","simple_dissimilar","images/stimuli/spore_stims/simple_07_A_a.gif","left","","","","",""
"","null","html-keyboard-response","48","174461","0.0-14.0-0.2","SS1612933311578","","","null","","","<p><img src= images/blank.png width =""200"" height = ""200"" style = ""float:right""></p><p><img src=images/blank.png width =""800"" height = ""200""></p>","","","","","","","","","","","",""
"","1580.5399999953806","sequential-stimulus-presentation","49","176845","0.0-14.0-1.2","SS1612933311578","trial","","40","800","2380.5399999953806","","","","","2","simple_dissimilar","images/stimuli/spore_stims/simple_07_A_a.gif","left","","","","",""
"","null","html-keyboard-response","50","177989","0.0-14.0-0.3","SS1612933311578","","","null","","","<p><img src= images/blank.png width =""200"" height = ""200"" style = ""float:right""></p><p><img src=images/blank.png width =""800"" height = ""200""></p>","","","","","","","","","","","",""
"","1227.7000001631677","sequential-stimulus-presentation","51","180022","0.0-14.0-1.3","SS1612933311578","trial","","40","800","2027.7000001631677","","","","","2","simple_dissimilar","images/stimuli/spore_stims/simple_07_A_a.gif","left","","","","",""
"","null","html-keyboard-response","52","181283","0.0-14.0-0.4","SS1612933311578","","","null","","","<p><img src= images/blank.png width =""200"" height = ""200"" style = ""float:right""></p><p><img src=images/blank.png width =""800"" height = ""200""></p>","","","","","","","","","","","",""
"","2079.7850000672042","sequential-stimulus-presentation","53","184167","0.0-14.0-1.4","SS1612933311578","trial","","40","800","2879.7850000672042","","","","","2","simple_dissimilar","images/stimuli/spore_stims/simple_07_A_a.gif","left","","","","",""
"","null","html-keyboard-response","54","185387","0.0-14.0-0.5","SS1612933311578","","","null","","","<p><img src= images/blank.png width =""200"" height = ""200"" style = ""float:right""></p><p><img src=images/blank.png width =""800"" height = ""200""></p>","","","","","","","","","","","",""
"","2999.7600000351667","sequential-stimulus-presentation","55","189191","0.0-14.0-1.5","SS1612933311578","trial","","40","800","3799.7600000351667","","","","","2","simple_dissimilar","images/stimuli/spore_stims/simple_07_A_a.gif","left","","","","",""
"","null","html-keyboard-response","56","190259","0.0-14.0-0.6","SS1612933311578","","","null","","","<p><img src= images/blank.png width =""200"" height = ""200"" style = ""float:right""></p><p><img src=images/blank.png width =""800"" height = ""200""></p>","","","","","","","","","","","",""
"","958.6850004270673","sequential-stimulus-presentation","57","192023","0.0-14.0-1.6","SS1612933311578","trial","","40","800","1758.6850004270673","","","","","2","simple_dissimilar","images/stimuli/spore_stims/simple_07_A_a.gif","left","","","","",""
"","null","html-keyboard-response","58","193080","0.0-14.0-0.7","SS1612933311578","","","null","","","<p><img src= images/blank.png width =""200"" height = ""200"" style = ""float:right""></p><p><img src=images/blank.png width =""800"" height = ""200""></p>","","","","","","","","","","","",""
"","1756.095000077039","sequential-stimulus-presentation","59","195641","0.0-14.0-1.7","SS1612933311578","trial","","40","800","2556.095000077039","","","","","2","simple_dissimilar","images/stimuli/spore_stims/simple_01_B_a.gif","middle","","","","",""
"","1282.1749998256564","html-keyboard-response","60","196928","0.0-15.0","SS1612933311578","pref_question","","99","","","<video width ='960' height = '540' style='padding-top:8%' autoplay muted><source src='images/stimuli/wall_pref.mp4' type='video/mp4'></video>","3","right","66%","2","","","","","","","",""
"","1499.559999909252","sequential-stimulus-presentation","61","199232","0.0-16.0","SS1612933311578","pref_reveal","","40","800","2299.559999909252","","","","","2","","","","novel","","","",""
"","null","html-keyboard-response","62","200392","0.0-17.0-0.0","SS1612933311578","","","null","","","<p><img src= images/blank.png width =""200"" height = ""200"" style = ""float:right""></p><p><img src=images/blank.png width =""800"" height = ""200""></p>","","","","","","","","","","","",""
"","2003.434999845922","sequential-stimulus-presentation","63","203201","0.0-17.0-1.0","SS1612933311578","trial","","40","800","2803.434999845922","","","","","3","complex_similar","images/stimuli/spore_stims/complex_13_A_d.gif","middle","","","","",""
"","null","html-keyboard-response","64","204144","0.0-17.0-0.1","SS1612933311578","","","null","","","<p><img src= images/blank.png width =""200"" height = ""200"" style = ""float:right""></p><p><img src=images/blank.png width =""800"" height = ""200""></p>","","","","","","","","","","","",""
"","4044.7799996472895","sequential-stimulus-presentation","65","208994","0.0-17.0-1.1","SS1612933311578","trial","","40","800","4844.7799996472895","","","","","3","complex_similar","images/stimuli/spore_stims/complex_13_A_d.gif","middle","","","","",""
"","null","html-keyboard-response","66","209941","0.0-17.0-0.2","SS1612933311578","","","null","","","<p><img src= images/blank.png width =""200"" height = ""200"" style = ""float:right""></p><p><img src=images/blank.png width =""800"" height = ""200""></p>","","","","","","","","","","","",""
"","1509.4000003300607","sequential-stimulus-presentation","67","212258","0.0-17.0-1.2","SS1612933311578","trial","","40","800","2309.4000003300607","","","","","3","complex_similar","images/stimuli/spore_stims/complex_13_A_d.gif","middle","","","","",""
"","null","html-keyboard-response","68","213288","0.0-17.0-0.3","SS1612933311578","","","null","","","<p><img src= images/blank.png width =""200"" height = ""200"" style = ""float:right""></p><p><img src=images/blank.png width =""800"" height = ""200""></p>","","","","","","","","","","","",""
"","1316.8999999761581","sequential-stimulus-presentation","69","215410","0.0-17.0-1.3","SS1612933311578","trial","","40","800","2116.899999976158","","","","","3","complex_similar","images/stimuli/spore_stims/complex_13_B_d.gif","right","","","","",""
"","null","html-keyboard-response","70","216577","0.0-17.0-0.4","SS1612933311578","","","null","","","<p><img src= images/blank.png width =""200"" height = ""200"" style = ""float:right""></p><p><img src=images/blank.png width =""800"" height = ""200""></p>","","","","","","","","","","","",""
"","1252.3500001989305","sequential-stimulus-presentation","71","218635","0.0-17.0-1.4","SS1612933311578","trial","","40","800","2052.3500001989305","","","","","3","complex_similar","images/stimuli/spore_stims/complex_13_A_d.gif","middle","","","","",""
"","null","html-keyboard-response","72","219696","0.0-17.0-0.5","SS1612933311578","","","null","","","<p><img src= images/blank.png width =""200"" height = ""200"" style = ""float:right""></p><p><img src=images/blank.png width =""800"" height = ""200""></p>","","","","","","","","","","","",""
"","1070.4000000841916","sequential-stimulus-presentation","73","221572","0.0-17.0-1.5","SS1612933311578","trial","","40","800","1870.4000000841916","","","","","3","complex_similar","images/stimuli/spore_stims/complex_13_A_d.gif","middle","","","","",""
"","null","html-keyboard-response","74","222412","0.0-17.0-0.6","SS1612933311578","","","null","","","<p><img src= images/blank.png width =""200"" height = ""200"" style = ""float:right""></p><p><img src=images/blank.png width =""800"" height = ""200""></p>","","","","","","","","","","","",""
"","1070.7350000739098","sequential-stimulus-presentation","75","224292","0.0-17.0-1.6","SS1612933311578","trial","","40","800","1870.7350000739098","","","","","3","complex_similar","images/stimuli/spore_stims/complex_13_A_d.gif","middle","","","","",""
"","null","html-keyboard-response","76","225413","0.0-17.0-0.7","SS1612933311578","","","null","","","<p><img src= images/blank.png width =""200"" height = ""200"" style = ""float:right""></p><p><img src=images/blank.png width =""800"" height = ""200""></p>","","","","","","","","","","","",""
"","610.5349999852479","sequential-stimulus-presentation","77","226828","0.0-17.0-1.7","SS1612933311578","trial","","40","800","1410.5349999852479","","","","","3","complex_similar","images/stimuli/spore_stims/complex_13_A_d.gif","middle","","","","",""
"","1395.6299996934831","html-keyboard-response","78","228229","0.0-18.0","SS1612933311578","pref_question","","97","","","<video width ='960' height = '540' style='padding-top:8%' autoplay muted><source src='images/stimuli/wall_pref.mp4' type='video/mp4'></video>","1","left","25%","3","","","","","","","",""
"","2267.400000244379","sequential-stimulus-presentation","79","231301","0.0-19.0","SS1612933311578","pref_reveal","","40","800","3067.400000244379","","","","","3","","","","novel","","","",""
"","null","html-keyboard-response","80","232459","0.0-20.0-0.0","SS1612933311578","","","null","","","<p><img src= images/blank.png width =""200"" height = ""200"" style = ""float:right""></p><p><img src=images/blank.png width =""800"" height = ""200""></p>","","","","","","","","","","","",""
"","2437.7650003880262","sequential-stimulus-presentation","81","235702","0.0-20.0-1.0","SS1612933311578","trial","","40","800","3237.7650003880262","","","","","4","simple_similar","images/stimuli/spore_stims/simple_04_A_b.gif","right","","","","",""
"","null","html-keyboard-response","82","236563","0.0-20.0-0.1","SS1612933311578","","","null","","","<p><img src= images/blank.png width =""200"" height = ""200"" style = ""float:right""></p><p><img src=images/blank.png width =""800"" height = ""200""></p>","","","","","","","","","","","",""
"","2037.9449999891222","sequential-stimulus-presentation","83","239406","0.0-20.0-1.1","SS1612933311578","trial","","40","800","2837.944999989122","","","","","4","simple_similar","images/stimuli/spore_stims/simple_04_A_b.gif","right","","","","",""
"","null","html-keyboard-response","84","240684","0.0-20.0-0.2","SS1612933311578","","","null","","","<p><img src= images/blank.png width =""200"" height = ""200"" style = ""float:right""></p><p><img src=images/blank.png width =""800"" height = ""200""></p>","","","","","","","","","","","",""
"","1892.8049998357892","sequential-stimulus-presentation","85","243382","0.0-20.0-1.2","SS1612933311578","trial","","40","800","2692.804999835789","","","","","4","simple_similar","images/stimuli/spore_stims/simple_04_A_b.gif","right","","","","",""
"","null","html-keyboard-response","86","244294","0.0-20.0-0.3","SS1612933311578","","","null","","","<p><img src= images/blank.png width =""200"" height = ""200"" style = ""float:right""></p><p><img src=images/blank.png width =""800"" height = ""200""></p>","","","","","","","","","","","",""
"","1684.6350003033876","sequential-stimulus-presentation","87","246784","0.0-20.0-1.3","SS1612933311578","trial","","40","800","2484.6350003033876","","","","","4","simple_similar","images/stimuli/spore_stims/simple_04_A_b.gif","right","","","","",""
"","null","html-keyboard-response","88","247726","0.0-20.0-0.4","SS1612933311578","","","null","","","<p><img src= images/blank.png width =""200"" height = ""200"" style = ""float:right""></p><p><img src=images/blank.png width =""800"" height = ""200""></p>","","","","","","","","","","","",""
"","2075.3350001759827","sequential-stimulus-presentation","89","250607","0.0-20.0-1.4","SS1612933311578","trial","","40","800","2875.3350001759827","","","","","4","simple_similar","images/stimuli/spore_stims/simple_04_B_b.gif","left","","","","",""
"","null","html-keyboard-response","90","251890","0.0-20.0-0.5","SS1612933311578","","","null","","","<p><img src= images/blank.png width =""200"" height = ""200"" style = ""float:right""></p><p><img src=images/blank.png width =""800"" height = ""200""></p>","","","","","","","","","","","",""
"","2848.1899998150766","sequential-stimulus-presentation","91","255544","0.0-20.0-1.5","SS1612933311578","trial","","40","800","3648.1899998150766","","","","","4","simple_similar","images/stimuli/spore_stims/simple_04_A_b.gif","right","","","","",""
"","null","html-keyboard-response","92","256405","0.0-20.0-0.6","SS1612933311578","","","null","","","<p><img src= images/blank.png width =""200"" height = ""200"" style = ""float:right""></p><p><img src=images/blank.png width =""800"" height = ""200""></p>","","","","","","","","","","","",""
"","781.8899997510016","sequential-stimulus-presentation","93","257993","0.0-20.0-1.6","SS1612933311578","trial","","40","800","1581.8899997510016","","","","","4","simple_similar","images/stimuli/spore_stims/simple_04_A_b.gif","right","","","","",""
"","null","html-keyboard-response","94","259076","0.0-20.0-0.7","SS1612933311578","","","null","","","<p><img src= images/blank.png width =""200"" height = ""200"" style = ""float:right""></p><p><img src=images/blank.png width =""800"" height = ""200""></p>","","","","","","","","","","","",""
"","1294.4099996238947","sequential-stimulus-presentation","95","261177","0.0-20.0-1.7","SS1612933311578","trial","","40","800","2094.4099996238947","","","","","4","simple_similar","images/stimuli/spore_stims/simple_04_A_b.gif","right","","","","",""
"","1216.3100000470877","html-keyboard-response","96","262402","0.0-21.0","SS1612933311578","pref_question","","98","","","<video width ='960' height = '540' style='padding-top:8%' autoplay muted><source src='images/stimuli/wall_pref.mp4' type='video/mp4'></video>","2","middle","45%","4","","","","","","","",""
"","3081.104999873787","sequential-stimulus-presentation","97","266289","0.0-22.0","SS1612933311578","pref_reveal","","40","800","3881.104999873787","","","","","4","","","","novel","","","",""
"","null","html-keyboard-response","98","267461","0.0-23.0-0.0","SS1612933311578","","","null","","","<p><img src= images/blank.png width =""200"" height = ""200"" style = ""float:right""></p><p><img src=images/blank.png width =""800"" height = ""200""></p>","","","","","","","","","","","",""
"","3911.7600000463426","sequential-stimulus-presentation","99","272179","0.0-23.0-1.0","SS1612933311578","trial","","40","800","4711.760000046343","","","","","5","simple_similar","images/stimuli/spore_stims/simple_02_A_d.gif","left","","","","",""
"","null","html-keyboard-response","100","273366","0.0-23.0-0.1","SS1612933311578","","","null","","","<p><img src= images/blank.png width =""200"" height = ""200"" style = ""float:right""></p><p><img src=images/blank.png width =""800"" height = ""200""></p>","","","","","","","","","","","",""
"","3518.6499999836087","sequential-stimulus-presentation","101","277691","0.0-23.0-1.1","SS1612933311578","trial","","40","800","4318.649999983609","","","","","5","simple_similar","images/stimuli/spore_stims/simple_02_A_d.gif","left","","","","",""
"","null","html-keyboard-response","102","278980","0.0-23.0-0.2","SS1612933311578","","","null","","","<p><img src= images/blank.png width =""200"" height = ""200"" style = ""float:right""></p><p><img src=images/blank.png width =""800"" height = ""200""></p>","","","","","","","","","","","",""
"","2737.670000176877","sequential-stimulus-presentation","103","282524","0.0-23.0-1.2","SS1612933311578","trial","","40","800","3537.670000176877","","","","","5","simple_similar","images/stimuli/spore_stims/simple_02_A_d.gif","left","","","","",""
"","null","html-keyboard-response","104","283534","0.0-23.0-0.3","SS1612933311578","","","null","","","<p><img src= images/blank.png width =""200"" height = ""200"" style = ""float:right""></p><p><img src=images/blank.png width =""800"" height = ""200""></p>","","","","","","","","","","","",""
"","2581.7749998532236","sequential-stimulus-presentation","105","286924","0.0-23.0-1.3","SS1612933311578","trial","","40","800","3381.7749998532236","","","","","5","simple_similar","images/stimuli/spore_stims/simple_02_B_d.gif","right","","","","",""
"","null","html-keyboard-response","106","287796","0.0-23.0-0.4","SS1612933311578","","","null","","","<p><img src= images/blank.png width =""200"" height = ""200"" style = ""float:right""></p><p><img src=images/blank.png width =""800"" height = ""200""></p>","","","","","","","","","","","",""
"","1642.1550000086427","sequential-stimulus-presentation","107","290244","0.0-23.0-1.4","SS1612933311578","trial","","40","800","2442.1550000086427","","","","","5","simple_similar","images/stimuli/spore_stims/simple_02_A_d.gif","left","","","","",""
"","null","html-keyboard-response","108","291465","0.0-23.0-0.5","SS1612933311578","","","null","","","<p><img src= images/blank.png width =""200"" height = ""200"" style = ""float:right""></p><p><img src=images/blank.png width =""800"" height = ""200""></p>","","","","","","","","","","","",""
"","1302.7599998749793","sequential-stimulus-presentation","109","293573","0.0-23.0-1.5","SS1612933311578","trial","","40","800","2102.7599998749793","","","","","5","simple_similar","images/stimuli/spore_stims/simple_02_A_d.gif","left","","","","",""
"","null","html-keyboard-response","110","294557","0.0-23.0-0.6","SS1612933311578","","","null","","","<p><img src= images/blank.png width =""200"" height = ""200"" style = ""float:right""></p><p><img src=images/blank.png width =""800"" height = ""200""></p>","","","","","","","","","","","",""
"","1474.914999678731","sequential-stimulus-presentation","111","296837","0.0-23.0-1.6","SS1612933311578","trial","","40","800","2274.914999678731","","","","","5","simple_similar","images/stimuli/spore_stims/simple_02_A_d.gif","left","","","","",""
"","null","html-keyboard-response","112","297702","0.0-23.0-0.7","SS1612933311578","","","null","","","<p><img src= images/blank.png width =""200"" height = ""200"" style = ""float:right""></p><p><img src=images/blank.png width =""800"" height = ""200""></p>","","","","","","","","","","","",""
"","352.37500024959445","sequential-stimulus-presentation","113","298862","0.0-23.0-1.7","SS1612933311578","trial","","40","800","1152.3750002495944","","","","","5","simple_similar","images/stimuli/spore_stims/simple_02_A_d.gif","left","","","","",""
"","1338.1599998101592","html-keyboard-response","114","300206","0.0-24.0","SS1612933311578","pref_question","","98","","","<video width ='960' height = '540' style='padding-top:8%' autoplay muted><source src='images/stimuli/wall_pref.mp4' type='video/mp4'></video>","2","middle","45%","5","","","","","","","",""
"","2401.670000050217","sequential-stimulus-presentation","115","303414","0.0-25.0","SS1612933311578","pref_reveal","","40","800","3201.670000050217","","","","","5","","","","novel","","","",""
"","null","html-keyboard-response","116","304563","0.0-26.0-0.0","SS1612933311578","","","null","","","<p><img src= images/blank.png width =""200"" height = ""200"" style = ""float:right""></p><p><img src=images/blank.png width =""800"" height = ""200""></p>","","","","","","","","","","","",""
"","3061.9149999693036","sequential-stimulus-presentation","117","308431","0.0-26.0-1.0","SS1612933311578","trial","","40","800","3861.9149999693036","","","","","6","simple_dissimilar","images/stimuli/spore_stims/simple_20_B_a.gif","left","","","","",""
"","null","html-keyboard-response","118","309316","0.0-26.0-0.1","SS1612933311578","","","null","","","<p><img src= images/blank.png width =""200"" height = ""200"" style = ""float:right""></p><p><img src=images/blank.png width =""800"" height = ""200""></p>","","","","","","","","","","","",""
"","2036.5150002762675","sequential-stimulus-presentation","119","312159","0.0-26.0-1.1","SS1612933311578","trial","","40","800","2836.5150002762675","","","","","6","simple_dissimilar","images/stimuli/spore_stims/simple_20_B_a.gif","left","","","","",""
"","null","html-keyboard-response","120","313342","0.0-26.0-0.2","SS1612933311578","","","null","","","<p><img src= images/blank.png width =""200"" height = ""200"" style = ""float:right""></p><p><img src=images/blank.png width =""800"" height = ""200""></p>","","","","","","","","","","","",""
"","2416.579999960959","sequential-stimulus-presentation","121","316568","0.0-26.0-1.2","SS1612933311578","trial","","40","800","3216.579999960959","","","","","6","simple_dissimilar","images/stimuli/spore_stims/simple_05_A_b.gif","right","","","","",""
"","null","html-keyboard-response","122","317445","0.0-26.0-0.3","SS1612933311578","","","null","","","<p><img src= images/blank.png width =""200"" height = ""200"" style = ""float:right""></p><p><img src=images/blank.png width =""800"" height = ""200""></p>","","","","","","","","","","","",""
"","1788.7099999934435","sequential-stimulus-presentation","123","320041","0.0-26.0-1.3","SS1612933311578","trial","","40","800","2588.7099999934435","","","","","6","simple_dissimilar","images/stimuli/spore_stims/simple_20_B_a.gif","left","","","","",""
"","null","html-keyboard-response","124","320973","0.0-26.0-0.4","SS1612933311578","","","null","","","<p><img src= images/blank.png width =""200"" height = ""200"" style = ""float:right""></p><p><img src=images/blank.png width =""800"" height = ""200""></p>","","","","","","","","","","","",""
"","341.31000004708767","sequential-stimulus-presentation","125","322121","0.0-26.0-1.4","SS1612933311578","trial","","40","800","1141.3100000470877","","","","","6","simple_dissimilar","images/stimuli/spore_stims/simple_20_B_a.gif","left","","","","",""
"","null","html-keyboard-response","126","323093","0.0-26.0-0.5","SS1612933311578","","","null","","","<p><img src= images/blank.png width =""200"" height = ""200"" style = ""float:right""></p><p><img src=images/blank.png width =""800"" height = ""200""></p>","","","","","","","","","","","",""
"","444.67499991878867","sequential-stimulus-presentation","127","324345","0.0-26.0-1.5","SS1612933311578","trial","","40","800","1244.6749999187887","","","","","6","simple_dissimilar","images/stimuli/spore_stims/simple_20_B_a.gif","left","","","","",""
"","null","html-keyboard-response","128","325397","0.0-26.0-0.6","SS1612933311578","","","null","","","<p><img src= images/blank.png width =""200"" height = ""200"" style = ""float:right""></p><p><img src=images/blank.png width =""800"" height = ""200""></p>","","","","","","","","","","","",""
"","301.7099997960031","sequential-stimulus-presentation","129","326505","0.0-26.0-1.6","SS1612933311578","trial","","40","800","1101.709999796003","","","","","6","simple_dissimilar","images/stimuli/spore_stims/simple_20_B_a.gif","left","","","","",""
"","null","html-keyboard-response","130","327764","0.0-26.0-0.7","SS1612933311578","","","null","","","<p><img src= images/blank.png width =""200"" height = ""200"" style = ""float:right""></p><p><img src=images/blank.png width =""800"" height = ""200""></p>","","","","","","","","","","","",""
"","262.9749998450279","sequential-stimulus-presentation","131","328834","0.0-26.0-1.7","SS1612933311578","trial","","40","800","1062.974999845028","","","","","6","simple_dissimilar","images/stimuli/spore_stims/simple_20_B_a.gif","left","","","","",""
"","1202.7799999341369","html-keyboard-response","132","330042","0.0-27.0","SS1612933311578","pref_question","","98","","","<video width ='960' height = '540' style='padding-top:8%' autoplay muted><source src='images/stimuli/wall_pref.mp4' type='video/mp4'></video>","2","middle","45%","6","","","","","","","",""
"","2368.5549995861948","sequential-stimulus-presentation","133","333218","0.0-28.0","SS1612933311578","pref_reveal","","40","800","3168.5549995861948","","","","","6","","","","novel","","","",""
"","null","html-keyboard-response","134","334229","0.0-29.0-0.0","SS1612933311578","","","null","","","<p><img src= images/blank.png width =""200"" height = ""200"" style = ""float:right""></p><p><img src=images/blank.png width =""800"" height = ""200""></p>","","","","","","","","","","","",""
"","5215.119999833405","sequential-stimulus-presentation","135","340252","0.0-29.0-1.0","SS1612933311578","trial","","40","800","6015.119999833405","","","","","7","complex_similar","images/stimuli/spore_stims/complex_12_A_c.gif","left","","","","",""
"","null","html-keyboard-response","136","341475","0.0-29.0-0.1","SS1612933311578","","","null","","","<p><img src= images/blank.png width =""200"" height = ""200"" style = ""float:right""></p><p><img src=images/blank.png width =""800"" height = ""200""></p>","","","","","","","","","","","",""
"","5354.119999799877","sequential-stimulus-presentation","137","347636","0.0-29.0-1.1","SS1612933311578","trial","","40","800","6154.119999799877","","","","","7","complex_similar","images/stimuli/spore_stims/complex_12_A_c.gif","left","","","","",""
"","null","html-keyboard-response","138","348623","0.0-29.0-0.2","SS1612933311578","","","null","","","<p><img src= images/blank.png width =""200"" height = ""200"" style = ""float:right""></p><p><img src=images/blank.png width =""800"" height = ""200""></p>","","","","","","","","","","","",""
"","2109.560000244528","sequential-stimulus-presentation","139","351541","0.0-29.0-1.2","SS1612933311578","trial","","40","800","2909.560000244528","","","","","7","complex_similar","images/stimuli/spore_stims/complex_12_A_c.gif","left","","","","",""
"","null","html-keyboard-response","140","352680","0.0-29.0-0.3","SS1612933311578","","","null","","","<p><img src= images/blank.png width =""200"" height = ""200"" style = ""float:right""></p><p><img src=images/blank.png width =""800"" height = ""200""></p>","","","","","","","","","","","",""
"","2119.010000023991","sequential-stimulus-presentation","141","355605","0.0-29.0-1.3","SS1612933311578","trial","","40","800","2919.010000023991","","","","","7","complex_similar","images/stimuli/spore_stims/complex_12_A_c.gif","left","","","","",""
"","null","html-keyboard-response","142","356621","0.0-29.0-0.4","SS1612933311578","","","null","","","<p><img src= images/blank.png width =""200"" height = ""200"" style = ""float:right""></p><p><img src=images/blank.png width =""800"" height = ""200""></p>","","","","","","","","","","","",""
"","4113.6500001885","sequential-stimulus-presentation","143","361543","0.0-29.0-1.4","SS1612933311578","trial","","40","800","4913.6500001885","","","","","7","complex_similar","images/stimuli/spore_stims/complex_12_A_c.gif","left","","","","",""
"","null","html-keyboard-response","144","362585","0.0-29.0-0.5","SS1612933311578","","","null","","","<p><img src= images/blank.png width =""200"" height = ""200"" style = ""float:right""></p><p><img src=images/blank.png width =""800"" height = ""200""></p>","","","","","","","","","","","",""
"","3262.524999678135","sequential-stimulus-presentation","145","366655","0.0-29.0-1.5","SS1612933311578","trial","","40","800","4062.524999678135","","","","","7","complex_similar","images/stimuli/spore_stims/complex_12_A_c.gif","left","","","","",""
"","null","html-keyboard-response","146","367752","0.0-29.0-0.6","SS1612933311578","","","null","","","<p><img src= images/blank.png width =""200"" height = ""200"" style = ""float:right""></p><p><img src=images/blank.png width =""800"" height = ""200""></p>","","","","","","","","","","","",""
"","1223.1350000947714","sequential-stimulus-presentation","147","369783","0.0-29.0-1.6","SS1612933311578","trial","","40","800","2023.1350000947714","","","","","7","complex_similar","images/stimuli/spore_stims/complex_12_A_c.gif","left","","","","",""
"","null","html-keyboard-response","148","370666","0.0-29.0-0.7","SS1612933311578","","","null","","","<p><img src= images/blank.png width =""200"" height = ""200"" style = ""float:right""></p><p><img src=images/blank.png width =""800"" height = ""200""></p>","","","","","","","","","","","",""
"","3413.7149997986853","sequential-stimulus-presentation","149","374888","0.0-29.0-1.7","SS1612933311578","trial","","40","800","4213.714999798685","","","","","7","complex_similar","images/stimuli/spore_stims/complex_12_B_c.gif","right","","","","",""
"","1228.9499999023974","html-keyboard-response","150","376129","0.0-30.0","SS1612933311578","pref_question","","98","","","<video width ='960' height = '540' style='padding-top:8%' autoplay muted><source src='images/stimuli/wall_pref.mp4' type='video/mp4'></video>","2","middle","45%","7","","","","","","","",""
"","2032.8100002370775","sequential-stimulus-presentation","151","378969","0.0-31.0","SS1612933311578","pref_reveal","","40","800","2832.8100002370775","","","","","7","","","","novel","","","",""
"","null","html-keyboard-response","152","380225","0.0-32.0-0.0","SS1612933311578","","","null","","","<p><img src= images/blank.png width =""200"" height = ""200"" style = ""float:right""></p><p><img src=images/blank.png width =""800"" height = ""200""></p>","","","","","","","","","","","",""
"","2247.589999809861","sequential-stimulus-presentation","153","383281","0.0-32.0-1.0","SS1612933311578","trial","","40","800","3047.589999809861","","","","","8","complex_similar","images/stimuli/spore_stims/complex_19_B_c.gif","left","","","","",""
"","null","html-keyboard-response","154","384423","0.0-32.0-0.1","SS1612933311578","","","null","","","<p><img src= images/blank.png width =""200"" height = ""200"" style = ""float:right""></p><p><img src=images/blank.png width =""800"" height = ""200""></p>","","","","","","","","","","","",""
"","1722.8900003246963","sequential-stimulus-presentation","155","386954","0.0-32.0-1.1","SS1612933311578","trial","","40","800","2522.8900003246963","","","","","8","complex_similar","images/stimuli/spore_stims/complex_19_B_c.gif","left","","","","",""
"","null","html-keyboard-response","156","388238","0.0-32.0-0.2","SS1612933311578","","","null","","","<p><img src= images/blank.png width =""200"" height = ""200"" style = ""float:right""></p><p><img src=images/blank.png width =""800"" height = ""200""></p>","","","","","","","","","","","",""
"","868.2349999435246","sequential-stimulus-presentation","157","389914","0.0-32.0-1.2","SS1612933311578","trial","","40","800","1668.2349999435246","","","","","8","complex_similar","images/stimuli/spore_stims/complex_19_B_c.gif","left","","","","",""
"","null","html-keyboard-response","158","391049","0.0-32.0-0.3","SS1612933311578","","","null","","","<p><img src= images/blank.png width =""200"" height = ""200"" style = ""float:right""></p><p><img src=images/blank.png width =""800"" height = ""200""></p>","","","","","","","","","","","",""
"","13155.264999717474","sequential-stimulus-presentation","159","405013","0.0-32.0-1.3","SS1612933311578","trial","","40","800","13955.264999717474","","","","","8","complex_similar","images/stimuli/spore_stims/complex_19_B_c.gif","left","","","","",""
"","null","html-keyboard-response","160","406295","0.0-32.0-0.4","SS1612933311578","","","null","","","<p><img src= images/blank.png width =""200"" height = ""200"" style = ""float:right""></p><p><img src=images/blank.png width =""800"" height = ""200""></p>","","","","","","","","","","","",""
"","1517.4750001169741","sequential-stimulus-presentation","161","408621","0.0-32.0-1.4","SS1612933311578","trial","","40","800","2317.475000116974","","","","","8","complex_similar","images/stimuli/spore_stims/complex_19_B_c.gif","left","","","","",""
"","null","html-keyboard-response","162","409834","0.0-32.0-0.5","SS1612933311578","","","null","","","<p><img src= images/blank.png width =""200"" height = ""200"" style = ""float:right""></p><p><img src=images/blank.png width =""800"" height = ""200""></p>","","","","","","","","","","","",""
"","3858.8849999941885","sequential-stimulus-presentation","163","414501","0.0-32.0-1.5","SS1612933311578","trial","","40","800","4658.884999994189","","","","","8","complex_similar","images/stimuli/spore_stims/complex_19_B_c.gif","left","","","","",""
"","null","html-keyboard-response","164","415469","0.0-32.0-0.6","SS1612933311578","","","null","","","<p><img src= images/blank.png width =""200"" height = ""200"" style = ""float:right""></p><p><img src=images/blank.png width =""800"" height = ""200""></p>","","","","","","","","","","","",""
"","3280.97500000149","sequential-stimulus-presentation","165","419558","0.0-32.0-1.6","SS1612933311578","trial","","40","800","4080.97500000149","","","","","8","complex_similar","images/stimuli/spore_stims/complex_19_A_c.gif","right","","","","",""
"","null","html-keyboard-response","166","420841","0.0-32.0-0.7","SS1612933311578","","","null","","","<p><img src= images/blank.png width =""200"" height = ""200"" style = ""float:right""></p><p><img src=images/blank.png width =""800"" height = ""200""></p>","","","","","","","","","","","",""
"","1132.149999961257","sequential-stimulus-presentation","167","422782","0.0-32.0-1.7","SS1612933311578","trial","","40","800","1932.149999961257","","","","","8","complex_similar","images/stimuli/spore_stims/complex_19_B_c.gif","left","","","","",""
"","1232.5349999591708","html-keyboard-response","168","424023","0.0-33.0","SS1612933311578","pref_question","","98","","","<video width ='960' height = '540' style='padding-top:8%' autoplay muted><source src='images/stimuli/wall_pref.mp4' type='video/mp4'></video>","2","middle","45%","8","","","","","","","",""
"","1868.6700002290308","sequential-stimulus-presentation","169","426703","0.0-34.0","SS1612933311578","pref_reveal","","40","800","2668.670000229031","","","","","8","","","","novel","","","",""
"","null","html-keyboard-response","170","427916","0.0-35.0-0.0","SS1612933311578","","","null","","","<p><img src= images/blank.png width =""200"" height = ""200"" style = ""float:right""></p><p><img src=images/blank.png width =""800"" height = ""200""></p>","","","","","","","","","","","",""
"","1443.1350002996624","sequential-stimulus-presentation","171","430168","0.0-35.0-1.0","SS1612933311578","trial","","40","800","2243.1350002996624","","","","","9","complex_dissimilar","images/stimuli/spore_stims/complex_11_A_d.gif","right","","","","",""
"","null","html-keyboard-response","172","431454","0.0-35.0-0.1","SS1612933311578","","","null","","","<p><img src= images/blank.png width =""200"" height = ""200"" style = ""float:right""></p><p><img src=images/blank.png width =""800"" height = ""200""></p>","","","","","","","","","","","",""
"","1336.870000232011","sequential-stimulus-presentation","173","433600","0.0-35.0-1.1","SS1612933311578","trial","","40","800","2136.870000232011","","","","","9","complex_dissimilar","images/stimuli/spore_stims/complex_11_A_d.gif","right","","","","",""
"","null","html-keyboard-response","174","434759","0.0-35.0-0.2","SS1612933311578","","","null","","","<p><img src= images/blank.png width =""200"" height = ""200"" style = ""float:right""></p><p><img src=images/blank.png width =""800"" height = ""200""></p>","","","","","","","","","","","",""
"","937.2100001201034","sequential-stimulus-presentation","175","436504","0.0-35.0-1.2","SS1612933311578","trial","","40","800","1737.2100001201034","","","","","9","complex_dissimilar","images/stimuli/spore_stims/complex_11_A_d.gif","right","","","","",""
"","null","html-keyboard-response","176","437484","0.0-35.0-0.3","SS1612933311578","","","null","","","<p><img src= images/blank.png width =""200"" height = ""200"" style = ""float:right""></p><p><img src=images/blank.png width =""800"" height = ""200""></p>","","","","","","","","","","","",""
"","483.1449999473989","sequential-stimulus-presentation","177","438777","0.0-35.0-1.3","SS1612933311578","trial","","40","800","1283.144999947399","","","","","9","complex_dissimilar","images/stimuli/spore_stims/complex_11_A_d.gif","right","","","","",""
"","null","html-keyboard-response","178","439985","0.0-35.0-0.4","SS1612933311578","","","null","","","<p><img src= images/blank.png width =""200"" height = ""200"" style = ""float:right""></p><p><img src=images/blank.png width =""800"" height = ""200""></p>","","","","","","","","","","","",""
"","631.6450000740588","sequential-stimulus-presentation","179","441425","0.0-35.0-1.4","SS1612933311578","trial","","40","800","1431.6450000740588","","","","","9","complex_dissimilar","images/stimuli/spore_stims/complex_11_A_d.gif","right","","","","",""
"","null","html-keyboard-response","180","442637","0.0-35.0-0.5","SS1612933311578","","","null","","","<p><img src= images/blank.png width =""200"" height = ""200"" style = ""float:right""></p><p><img src=images/blank.png width =""800"" height = ""200""></p>","","","","","","","","","","","",""
"","395.0650002807379","sequential-stimulus-presentation","181","443841","0.0-35.0-1.5","SS1612933311578","trial","","40","800","1195.0650002807379","","","","","9","complex_dissimilar","images/stimuli/spore_stims/complex_11_A_d.gif","right","","","","",""
"","null","html-keyboard-response","182","445065","0.0-35.0-0.6","SS1612933311578","","","null","","","<p><img src= images/blank.png width =""200"" height = ""200"" style = ""float:right""></p><p><img src=images/blank.png width =""800"" height = ""200""></p>","","","","","","","","","","","",""
"","3159.535000100732","sequential-stimulus-presentation","183","449034","0.0-35.0-1.6","SS1612933311578","trial","","40","800","3959.535000100732","","","","","9","complex_dissimilar","images/stimuli/spore_stims/complex_11_B_c.gif","left","","","","",""
"","null","html-keyboard-response","184","449853","0.0-35.0-0.7","SS1612933311578","","","null","","","<p><img src= images/blank.png width =""200"" height = ""200"" style = ""float:right""></p><p><img src=images/blank.png width =""800"" height = ""200""></p>","","","","","","","","","","","",""
"","1557.1349998936057","sequential-stimulus-presentation","185","452219","0.0-35.0-1.7","SS1612933311578","trial","","40","800","2357.1349998936057","","","","","9","complex_dissimilar","images/stimuli/spore_stims/complex_11_A_d.gif","right","","","","",""
"","1332.454999908805","html-keyboard-response","186","453563","0.0-36.0","SS1612933311578","pref_question","","98","","","<video width ='960' height = '540' style='padding-top:8%' autoplay muted><source src='images/stimuli/wall_pref.mp4' type='video/mp4'></video>","2","middle","45%","9","","","","","","","",""
"","1934.760000091046","sequential-stimulus-presentation","187","456307","0.0-37.0","SS1612933311578","pref_reveal","","40","800","2734.760000091046","","","","","9","","","","novel","","","",""
"","null","html-keyboard-response","188","457334","0.0-38.0-0.0","SS1612933311578","","","null","","","<p><img src= images/blank.png width =""200"" height = ""200"" style = ""float:right""></p><p><img src=images/blank.png width =""800"" height = ""200""></p>","","","","","","","","","","","",""
"","1872.9249997995794","sequential-stimulus-presentation","189","460019","0.0-38.0-1.0","SS1612933311578","trial","","40","800","2672.9249997995794","","","","","10","simple_dissimilar","images/stimuli/spore_stims/simple_06_A_a.gif","middle","","","","",""
"","null","html-keyboard-response","190","461251","0.0-38.0-0.1","SS1612933311578","","","null","","","<p><img src= images/blank.png width =""200"" height = ""200"" style = ""float:right""></p><p><img src=images/blank.png width =""800"" height = ""200""></p>","","","","","","","","","","","",""
"","1400.4049999639392","sequential-stimulus-presentation","191","463460","0.0-38.0-1.1","SS1612933311578","trial","","40","800","2200.404999963939","","","","","10","simple_dissimilar","images/stimuli/spore_stims/simple_06_A_a.gif","middle","","","","",""
"","null","html-keyboard-response","192","464312","0.0-38.0-0.2","SS1612933311578","","","null","","","<p><img src= images/blank.png width =""200"" height = ""200"" style = ""float:right""></p><p><img src=images/blank.png width =""800"" height = ""200""></p>","","","","","","","","","","","",""
"","858.2899998873472","sequential-stimulus-presentation","193","465980","0.0-38.0-1.2","SS1612933311578","trial","","40","800","1658.2899998873472","","","","","10","simple_dissimilar","images/stimuli/spore_stims/simple_06_A_a.gif","middle","","","","",""
"","null","html-keyboard-response","194","466822","0.0-38.0-0.3","SS1612933311578","","","null","","","<p><img src= images/blank.png width =""200"" height = ""200"" style = ""float:right""></p><p><img src=images/blank.png width =""800"" height = ""200""></p>","","","","","","","","","","","",""
"","1020.469999872148","sequential-stimulus-presentation","195","468652","0.0-38.0-1.3","SS1612933311578","trial","","40","800","1820.469999872148","","","","","10","simple_dissimilar","images/stimuli/spore_stims/simple_06_A_a.gif","middle","","","","",""
"","null","html-keyboard-response","196","469929","0.0-38.0-0.4","SS1612933311578","","","null","","","<p><img src= images/blank.png width =""200"" height = ""200"" style = ""float:right""></p><p><img src=images/blank.png width =""800"" height = ""200""></p>","","","","","","","","","","","",""
"","2290.144999977201","sequential-stimulus-presentation","197","473029","0.0-38.0-1.4","SS1612933311578","trial","","40","800","3090.144999977201","","","","","10","simple_dissimilar","images/stimuli/spore_stims/simple_09_A_d.gif","left","","","","",""
"","null","html-keyboard-response","198","474333","0.0-38.0-0.5","SS1612933311578","","","null","","","<p><img src= images/blank.png width =""200"" height = ""200"" style = ""float:right""></p><p><img src=images/blank.png width =""800"" height = ""200""></p>","","","","","","","","","","","",""
"","968.044999986887","sequential-stimulus-presentation","199","476110","0.0-38.0-1.5","SS1612933311578","trial","","40","800","1768.044999986887","","","","","10","simple_dissimilar","images/stimuli/spore_stims/simple_06_A_a.gif","middle","","","","",""
"","null","html-keyboard-response","200","477327","0.0-38.0-0.6","SS1612933311578","","","null","","","<p><img src= images/blank.png width =""200"" height = ""200"" style = ""float:right""></p><p><img src=images/blank.png width =""800"" height = ""200""></p>","","","","","","","","","","","",""
"","733.2049999386072","sequential-stimulus-presentation","201","478870","0.0-38.0-1.6","SS1612933311578","trial","","40","800","1533.2049999386072","","","","","10","simple_dissimilar","images/stimuli/spore_stims/simple_06_A_a.gif","middle","","","","",""
"","null","html-keyboard-response","202","480030","0.0-38.0-0.7","SS1612933311578","","","null","","","<p><img src= images/blank.png width =""200"" height = ""200"" style = ""float:right""></p><p><img src=images/blank.png width =""800"" height = ""200""></p>","","","","","","","","","","","",""
"","591.0999998450279","sequential-stimulus-presentation","203","481430","0.0-38.0-1.7","SS1612933311578","trial","","40","800","1391.099999845028","","","","","10","simple_dissimilar","images/stimuli/spore_stims/simple_06_A_a.gif","middle","","","","",""
"","1436.174999922514","html-keyboard-response","204","482878","0.0-39.0","SS1612933311578","pref_question","","99","","","<video width ='960' height = '540' style='padding-top:8%' autoplay muted><source src='images/stimuli/wall_pref.mp4' type='video/mp4'></video>","3","right","66%","10","","","","","","","",""
"","1254.0099998004735","sequential-stimulus-presentation","205","484943","0.0-40.0","SS1612933311578","pref_reveal","","40","800","2054.0099998004735","","","","","10","","","","novel","","","",""
"","null","html-keyboard-response","206","486120","0.0-41.0-0.0","SS1612933311578","","","null","","","<p><img src= images/blank.png width =""200"" height = ""200"" style = ""float:right""></p><p><img src=images/blank.png width =""800"" height = ""200""></p>","","","","","","","","","","","",""
"","2487.115000374615","sequential-stimulus-presentation","207","489416","0.0-41.0-1.0","SS1612933311578","trial","","40","800","3287.115000374615","","","","","11","complex_dissimilar","images/stimuli/spore_stims/complex_14_B_c.gif","left","","","","",""
"","null","html-keyboard-response","208","490453","0.0-41.0-0.1","SS1612933311578","","","null","","","<p><img src= images/blank.png width =""200"" height = ""200"" style = ""float:right""></p><p><img src=images/blank.png width =""800"" height = ""200""></p>","","","","","","","","","","","",""
"","1176.119999960065","sequential-stimulus-presentation","209","492440","0.0-41.0-1.1","SS1612933311578","trial","","40","800","1976.119999960065","","","","","11","complex_dissimilar","images/stimuli/spore_stims/complex_14_B_c.gif","left","","","","",""
"","null","html-keyboard-response","210","493312","0.0-41.0-0.2","SS1612933311578","","","null","","","<p><img src= images/blank.png width =""200"" height = ""200"" style = ""float:right""></p><p><img src=images/blank.png width =""800"" height = ""200""></p>","","","","","","","","","","","",""
"","670.0199996121228","sequential-stimulus-presentation","211","494792","0.0-41.0-1.2","SS1612933311578","trial","","40","800","1470.0199996121228","","","","","11","complex_dissimilar","images/stimuli/spore_stims/complex_14_B_c.gif","left","","","","",""
"","null","html-keyboard-response","212","495878","0.0-41.0-0.3","SS1612933311578","","","null","","","<p><img src= images/blank.png width =""200"" height = ""200"" style = ""float:right""></p><p><img src=images/blank.png width =""800"" height = ""200""></p>","","","","","","","","","","","",""
"","720.849999692291","sequential-stimulus-presentation","213","497408","0.0-41.0-1.3","SS1612933311578","trial","","40","800","1520.849999692291","","","","","11","complex_dissimilar","images/stimuli/spore_stims/complex_14_B_c.gif","left","","","","",""
"","null","html-keyboard-response","214","498326","0.0-41.0-0.4","SS1612933311578","","","null","","","<p><img src= images/blank.png width =""200"" height = ""200"" style = ""float:right""></p><p><img src=images/blank.png width =""800"" height = ""200""></p>","","","","","","","","","","","",""
"","690.5549997463822","sequential-stimulus-presentation","215","499825","0.0-41.0-1.4","SS1612933311578","trial","","40","800","1490.5549997463822","","","","","11","complex_dissimilar","images/stimuli/spore_stims/complex_14_B_c.gif","left","","","","",""
"","null","html-keyboard-response","216","500847","0.0-41.0-0.5","SS1612933311578","","","null","","","<p><img src= images/blank.png width =""200"" height = ""200"" style = ""float:right""></p><p><img src=images/blank.png width =""800"" height = ""200""></p>","","","","","","","","","","","",""
"","2568.2749999687076","sequential-stimulus-presentation","217","504225","0.0-41.0-1.5","SS1612933311578","trial","","40","800","3368.2749999687076","","","","","11","complex_dissimilar","images/stimuli/spore_stims/complex_04_B_d.gif","middle","","","","",""
"","null","html-keyboard-response","218","505085","0.0-41.0-0.6","SS1612933311578","","","null","","","<p><img src= images/blank.png width =""200"" height = ""200"" style = ""float:right""></p><p><img src=images/blank.png width =""800"" height = ""200""></p>","","","","","","","","","","","",""
"","1991.8999997898936","sequential-stimulus-presentation","219","507890","0.0-41.0-1.6","SS1612933311578","trial","","40","800","2791.8999997898936","","","","","11","complex_dissimilar","images/stimuli/spore_stims/complex_14_B_c.gif","left","","","","",""
"","null","html-keyboard-response","220","508716","0.0-41.0-0.7","SS1612933311578","","","null","","","<p><img src= images/blank.png width =""200"" height = ""200"" style = ""float:right""></p><p><img src=images/blank.png width =""800"" height = ""200""></p>","","","","","","","","","","","",""
"","628.3800001256168","sequential-stimulus-presentation","221","510154","0.0-41.0-1.7","SS1612933311578","trial","","40","800","1428.3800001256168","","","","","11","complex_dissimilar","images/stimuli/spore_stims/complex_14_B_c.gif","left","","","","",""
"","1430.8299999684095","html-keyboard-response","222","511594","0.0-42.0","SS1612933311578","pref_question","","99","","","<video width ='960' height = '540' style='padding-top:8%' autoplay muted><source src='images/stimuli/wall_pref.mp4' type='video/mp4'></video>","3","right","66%","11","","","","","","","",""
"","1973.8350003026426","sequential-stimulus-presentation","223","514378","0.0-43.0","SS1612933311578","pref_reveal","","40","800","2773.8350003026426","","","","","11","","","","novel","","","",""
"","null","html-keyboard-response","224","515651","0.0-44.0-0.0","SS1612933311578","","","null","","","<p><img src= images/blank.png width =""200"" height = ""200"" style = ""float:right""></p><p><img src=images/blank.png width =""800"" height = ""200""></p>","","","","","","","","","","","",""
"","1869.6300000883639","sequential-stimulus-presentation","225","518331","0.0-44.0-1.0","SS1612933311578","trial","","40","800","2669.630000088364","","","","","12","simple_dissimilar","images/stimuli/spore_stims/simple_12_B_a.gif","right","","","","",""
"","null","html-keyboard-response","226","519605","0.0-44.0-0.1","SS1612933311578","","","null","","","<p><img src= images/blank.png width =""200"" height = ""200"" style = ""float:right""></p><p><img src=images/blank.png width =""800"" height = ""200""></p>","","","","","","","","","","","",""
"","508.9750001206994","sequential-stimulus-presentation","227","520924","0.0-44.0-1.1","SS1612933311578","trial","","40","800","1308.9750001206994","","","","","12","simple_dissimilar","images/stimuli/spore_stims/simple_12_B_a.gif","right","","","","",""
"","null","html-keyboard-response","228","522157","0.0-44.0-0.2","SS1612933311578","","","null","","","<p><img src= images/blank.png width =""200"" height = ""200"" style = ""float:right""></p><p><img src=images/blank.png width =""800"" height = ""200""></p>","","","","","","","","","","","",""
"","388.4649998508394","sequential-stimulus-presentation","229","523356","0.0-44.0-1.2","SS1612933311578","trial","","40","800","1188.4649998508394","","","","","12","simple_dissimilar","images/stimuli/spore_stims/simple_12_B_a.gif","right","","","","",""
"","null","html-keyboard-response","230","524290","0.0-44.0-0.3","SS1612933311578","","","null","","","<p><img src= images/blank.png width =""200"" height = ""200"" style = ""float:right""></p><p><img src=images/blank.png width =""800"" height = ""200""></p>","","","","","","","","","","","",""
"","422.7350000292063","sequential-stimulus-presentation","231","525524","0.0-44.0-1.3","SS1612933311578","trial","","40","800","1222.7350000292063","","","","","12","simple_dissimilar","images/stimuli/spore_stims/simple_12_B_a.gif","right","","","","",""
"","null","html-keyboard-response","232","526702","0.0-44.0-0.4","SS1612933311578","","","null","","","<p><img src= images/blank.png width =""200"" height = ""200"" style = ""float:right""></p><p><img src=images/blank.png width =""800"" height = ""200""></p>","","","","","","","","","","","",""
"","2796.259999740869","sequential-stimulus-presentation","233","530309","0.0-44.0-1.4","SS1612933311578","trial","","40","800","3596.259999740869","","","","","12","simple_dissimilar","images/stimuli/spore_stims/simple_14_A_c.gif","middle","","","","",""
"","null","html-keyboard-response","234","531495","0.0-44.0-0.5","SS1612933311578","","","null","","","<p><img src= images/blank.png width =""200"" height = ""200"" style = ""float:right""></p><p><img src=images/blank.png width =""800"" height = ""200""></p>","","","","","","","","","","","",""
"","1008.7899998761714","sequential-stimulus-presentation","235","533317","0.0-44.0-1.5","SS1612933311578","trial","","40","800","1808.7899998761714","","","","","12","simple_dissimilar","images/stimuli/spore_stims/simple_12_B_a.gif","right","","","","",""
"","null","html-keyboard-response","236","534447","0.0-44.0-0.6","SS1612933311578","","","null","","","<p><img src= images/blank.png width =""200"" height = ""200"" style = ""float:right""></p><p><img src=images/blank.png width =""800"" height = ""200""></p>","","","","","","","","","","","",""
"","1739.0949996188283","sequential-stimulus-presentation","237","536997","0.0-44.0-1.6","SS1612933311578","trial","","40","800","2539.0949996188283","","","","","12","simple_dissimilar","images/stimuli/spore_stims/simple_12_B_a.gif","right","","","","",""
"","null","html-keyboard-response","238","538205","0.0-44.0-0.7","SS1612933311578","","","null","","","<p><img src= images/blank.png width =""200"" height = ""200"" style = ""float:right""></p><p><img src=images/blank.png width =""800"" height = ""200""></p>","","","","","","","","","","","",""
"","3006.380000151694","sequential-stimulus-presentation","239","542022","0.0-44.0-1.7","SS1612933311578","trial","","40","800","3806.380000151694","","","","","12","simple_dissimilar","images/stimuli/spore_stims/simple_12_B_a.gif","right","","","","",""
"","1246.2499998509884","html-keyboard-response","240","543279","0.0-45.0","SS1612933311578","pref_question","","97","","","<video width ='960' height = '540' style='padding-top:8%' autoplay muted><source src='images/stimuli/wall_pref.mp4' type='video/mp4'></video>","1","left","25%","12","","","","","","","",""
"","2021.9100001268089","sequential-stimulus-presentation","241","546111","0.0-46.0","SS1612933311578","pref_reveal","","40","800","2821.910000126809","","","","","12","","","","novel","","","",""
"","null","html-keyboard-response","242","547273","0.0-47.0-0.0","SS1612933311578","","","null","","","<p><img src= images/blank.png width =""200"" height = ""200"" style = ""float:right""></p><p><img src=images/blank.png width =""800"" height = ""200""></p>","","","","","","","","","","","",""
"","5052.625000011176","sequential-stimulus-presentation","243","553136","0.0-47.0-1.0","SS1612933311578","trial","","40","800","5852.625000011176","","","","","13","complex_dissimilar","images/stimuli/spore_stims/complex_06_B_d.gif","left","","","","",""
"","null","html-keyboard-response","244","554251","0.0-47.0-0.1","SS1612933311578","","","null","","","<p><img src= images/blank.png width =""200"" height = ""200"" style = ""float:right""></p><p><img src=images/blank.png width =""800"" height = ""200""></p>","","","","","","","","","","","",""
"","1954.339999705553","sequential-stimulus-presentation","245","557017","0.0-47.0-1.1","SS1612933311578","trial","","40","800","2754.339999705553","","","","","13","complex_dissimilar","images/stimuli/spore_stims/complex_06_B_d.gif","left","","","","",""
"","null","html-keyboard-response","246","558301","0.0-47.0-0.2","SS1612933311578","","","null","","","<p><img src= images/blank.png width =""200"" height = ""200"" style = ""float:right""></p><p><img src=images/blank.png width =""800"" height = ""200""></p>","","","","","","","","","","","",""
"","824.5050003752112","sequential-stimulus-presentation","247","559937","0.0-47.0-1.2","SS1612933311578","trial","","40","800","1624.5050003752112","","","","","13","complex_dissimilar","images/stimuli/spore_stims/complex_06_B_d.gif","left","","","","",""
"","null","html-keyboard-response","248","561223","0.0-47.0-0.3","SS1612933311578","","","null","","","<p><img src= images/blank.png width =""200"" height = ""200"" style = ""float:right""></p><p><img src=images/blank.png width =""800"" height = ""200""></p>","","","","","","","","","","","",""
"","2303.5750002600253","sequential-stimulus-presentation","249","564337","0.0-47.0-1.3","SS1612933311578","trial","","40","800","3103.5750002600253","","","","","13","complex_dissimilar","images/stimuli/spore_stims/complex_06_B_d.gif","left","","","","",""
"","null","html-keyboard-response","250","565295","0.0-47.0-0.4","SS1612933311578","","","null","","","<p><img src= images/blank.png width =""200"" height = ""200"" style = ""float:right""></p><p><img src=images/blank.png width =""800"" height = ""200""></p>","","","","","","","","","","","",""
"","1214.5500001497567","sequential-stimulus-presentation","251","567322","0.0-47.0-1.4","SS1612933311578","trial","","40","800","2014.5500001497567","","","","","13","complex_dissimilar","images/stimuli/spore_stims/complex_06_B_d.gif","left","","","","",""
"","null","html-keyboard-response","252","568558","0.0-47.0-0.5","SS1612933311578","","","null","","","<p><img src= images/blank.png width =""200"" height = ""200"" style = ""float:right""></p><p><img src=images/blank.png width =""800"" height = ""200""></p>","","","","","","","","","","","",""
"","6425.294999964535","sequential-stimulus-presentation","253","575795","0.0-47.0-1.5","SS1612933311578","trial","","40","800","7225.294999964535","","","","","13","complex_dissimilar","images/stimuli/spore_stims/complex_14_A_c.gif","middle","","","","",""
"","null","html-keyboard-response","254","576654","0.0-47.0-0.6","SS1612933311578","","","null","","","<p><img src= images/blank.png width =""200"" height = ""200"" style = ""float:right""></p><p><img src=images/blank.png width =""800"" height = ""200""></p>","","","","","","","","","","","",""
"","577.8049998916686","sequential-stimulus-presentation","255","578043","0.0-47.0-1.6","SS1612933311578","trial","","40","800","1377.8049998916686","","","","","13","complex_dissimilar","images/stimuli/spore_stims/complex_06_B_d.gif","left","","","","",""
"","null","html-keyboard-response","256","579176","0.0-47.0-0.7","SS1612933311578","","","null","","","<p><img src= images/blank.png width =""200"" height = ""200"" style = ""float:right""></p><p><img src=images/blank.png width =""800"" height = ""200""></p>","","","","","","","","","","","",""
"","1144.4199997931719","sequential-stimulus-presentation","257","581131","0.0-47.0-1.7","SS1612933311578","trial","","40","800","1944.4199997931719","","","","","13","complex_dissimilar","images/stimuli/spore_stims/complex_06_B_d.gif","left","","","","",""
"","1798.0000004172325","html-keyboard-response","258","582940","0.0-48.0","SS1612933311578","pref_question","","99","","","<video width ='960' height = '540' style='padding-top:8%' autoplay muted><source src='images/stimuli/wall_pref.mp4' type='video/mp4'></video>","3","right","66%","13","","","","","","","",""
"","1449.48499975726","sequential-stimulus-presentation","259","585204","0.0-49.0","SS1612933311578","pref_reveal","","40","800","2249.48499975726","","","","","13","","","","novel","","","",""
"","null","html-keyboard-response","260","586316","0.0-50.0-0.0","SS1612933311578","","","null","","","<p><img src= images/blank.png width =""200"" height = ""200"" style = ""float:right""></p><p><img src=images/blank.png width =""800"" height = ""200""></p>","","","","","","","","","","","",""
"","4525.994999799877","sequential-stimulus-presentation","261","591653","0.0-50.0-1.0","SS1612933311578","trial","","40","800","5325.994999799877","","","","","14","simple_similar","images/stimuli/spore_stims/simple_11_A_b.gif","left","","","","",""
"","null","html-keyboard-response","262","592486","0.0-50.0-0.1","SS1612933311578","","","null","","","<p><img src= images/blank.png width =""200"" height = ""200"" style = ""float:right""></p><p><img src=images/blank.png width =""800"" height = ""200""></p>","","","","","","","","","","","",""
"","1179.0700000710785","sequential-stimulus-presentation","263","594477","0.0-50.0-1.1","SS1612933311578","trial","","40","800","1979.0700000710785","","","","","14","simple_similar","images/stimuli/spore_stims/simple_11_A_b.gif","left","","","","",""
"","null","html-keyboard-response","264","595414","0.0-50.0-0.2","SS1612933311578","","","null","","","<p><img src= images/blank.png width =""200"" height = ""200"" style = ""float:right""></p><p><img src=images/blank.png width =""800"" height = ""200""></p>","","","","","","","","","","","",""
"","483.7099998258054","sequential-stimulus-presentation","265","596709","0.0-50.0-1.2","SS1612933311578","trial","","40","800","1283.7099998258054","","","","","14","simple_similar","images/stimuli/spore_stims/simple_11_A_b.gif","left","","","","",""
"","null","html-keyboard-response","266","597913","0.0-50.0-0.3","SS1612933311578","","","null","","","<p><img src= images/blank.png width =""200"" height = ""200"" style = ""float:right""></p><p><img src=images/blank.png width =""800"" height = ""200""></p>","","","","","","","","","","","",""
"","687.865000218153","sequential-stimulus-presentation","267","599414","0.0-50.0-1.3","SS1612933311578","trial","","40","800","1487.865000218153","","","","","14","simple_similar","images/stimuli/spore_stims/simple_11_A_b.gif","left","","","","",""
"","null","html-keyboard-response","268","600275","0.0-50.0-0.4","SS1612933311578","","","null","","","<p><img src= images/blank.png width =""200"" height = ""200"" style = ""float:right""></p><p><img src=images/blank.png width =""800"" height = ""200""></p>","","","","","","","","","","","",""
"","2352.714999578893","sequential-stimulus-presentation","269","603439","0.0-50.0-1.4","SS1612933311578","trial","","40","800","3152.714999578893","","","","","14","simple_similar","images/stimuli/spore_stims/simple_11_B_b.gif","middle","","","","",""
"","null","html-keyboard-response","270","604657","0.0-50.0-0.5","SS1612933311578","","","null","","","<p><img src= images/blank.png width =""200"" height = ""200"" style = ""float:right""></p><p><img src=images/blank.png width =""800"" height = ""200""></p>","","","","","","","","","","","",""
"","577.5449997745454","sequential-stimulus-presentation","271","606047","0.0-50.0-1.5","SS1612933311578","trial","","40","800","1377.5449997745454","","","","","14","simple_similar","images/stimuli/spore_stims/simple_11_A_b.gif","left","","","","",""
"","null","html-keyboard-response","272","607197","0.0-50.0-0.6","SS1612933311578","","","null","","","<p><img src= images/blank.png width =""200"" height = ""200"" style = ""float:right""></p><p><img src=images/blank.png width =""800"" height = ""200""></p>","","","","","","","","","","","",""
"","3382.9300003126264","sequential-stimulus-presentation","273","611391","0.0-50.0-1.6","SS1612933311578","trial","","40","800","4182.930000312626","","","","","14","simple_similar","images/stimuli/spore_stims/simple_11_A_b.gif","left","","","","",""
"","null","html-keyboard-response","274","612255","0.0-50.0-0.7","SS1612933311578","","","null","","","<p><img src= images/blank.png width =""200"" height = ""200"" style = ""float:right""></p><p><img src=images/blank.png width =""800"" height = ""200""></p>","","","","","","","","","","","",""
"","3069.4949999451637","sequential-stimulus-presentation","275","616136","0.0-50.0-1.7","SS1612933311578","trial","","40","800","3869.4949999451637","","","","","14","simple_similar","images/stimuli/spore_stims/simple_11_A_b.gif","left","","","","",""
"","1297.0950002782047","html-keyboard-response","276","617448","0.0-51.0","SS1612933311578","pref_question","","99","","","<video width ='960' height = '540' style='padding-top:8%' autoplay muted><source src='images/stimuli/wall_pref.mp4' type='video/mp4'></video>","3","right","66%","14","","","","","","","",""
"","1747.8500003926456","sequential-stimulus-presentation","277","620008","0.0-52.0","SS1612933311578","pref_reveal","","40","800","2547.8500003926456","","","","","14","","","","novel","","","",""
"","null","html-keyboard-response","278","621112","0.0-53.0-0.0","SS1612933311578","","","null","","","<p><img src= images/blank.png width =""200"" height = ""200"" style = ""float:right""></p><p><img src=images/blank.png width =""800"" height = ""200""></p>","","","","","","","","","","","",""
"","1052.8500000946224","sequential-stimulus-presentation","279","622977","0.0-53.0-1.0","SS1612933311578","trial","","40","800","1852.8500000946224","","","","","15","simple_similar","images/stimuli/spore_stims/simple_15_A_b.gif","left","","","","",""
"","null","html-keyboard-response","280","623984","0.0-53.0-0.1","SS1612933311578","","","null","","","<p><img src= images/blank.png width =""200"" height = ""200"" style = ""float:right""></p><p><img src=images/blank.png width =""800"" height = ""200""></p>","","","","","","","","","","","",""
"","1109.740000218153","sequential-stimulus-presentation","281","625905","0.0-53.0-1.1","SS1612933311578","trial","","40","800","1909.740000218153","","","","","15","simple_similar","images/stimuli/spore_stims/simple_15_A_b.gif","left","","","","",""
"","null","html-keyboard-response","282","627144","0.0-53.0-0.2","SS1612933311578","","","null","","","<p><img src= images/blank.png width =""200"" height = ""200"" style = ""float:right""></p><p><img src=images/blank.png width =""800"" height = ""200""></p>","","","","","","","","","","","",""
"","621.6150000691414","sequential-stimulus-presentation","283","628578","0.0-53.0-1.2","SS1612933311578","trial","","40","800","1421.6150000691414","","","","","15","simple_similar","images/stimuli/spore_stims/simple_15_A_b.gif","left","","","","",""
"","null","html-keyboard-response","284","629740","0.0-53.0-0.3","SS1612933311578","","","null","","","<p><img src= images/blank.png width =""200"" height = ""200"" style = ""float:right""></p><p><img src=images/blank.png width =""800"" height = ""200""></p>","","","","","","","","","","","",""
"","937.2349996119738","sequential-stimulus-presentation","285","631490","0.0-53.0-1.3","SS1612933311578","trial","","40","800","1737.2349996119738","","","","","15","simple_similar","images/stimuli/spore_stims/simple_15_B_b.gif","right","","","","",""
"","null","html-keyboard-response","286","632728","0.0-53.0-0.4","SS1612933311578","","","null","","","<p><img src= images/blank.png width =""200"" height = ""200"" style = ""float:right""></p><p><img src=images/blank.png width =""800"" height = ""200""></p>","","","","","","","","","","","",""
"","598.9399999380112","sequential-stimulus-presentation","287","634138","0.0-53.0-1.4","SS1612933311578","trial","","40","800","1398.9399999380112","","","","","15","simple_similar","images/stimuli/spore_stims/simple_15_A_b.gif","left","","","","",""
"","null","html-keyboard-response","288","634952","0.0-53.0-0.5","SS1612933311578","","","null","","","<p><img src= images/blank.png width =""200"" height = ""200"" style = ""float:right""></p><p><img src=images/blank.png width =""800"" height = ""200""></p>","","","","","","","","","","","",""
"","1175.2200000919402","sequential-stimulus-presentation","289","636939","0.0-53.0-1.5","SS1612933311578","trial","","40","800","1975.2200000919402","","","","","15","simple_similar","images/stimuli/spore_stims/simple_15_A_b.gif","left","","","","",""
"","null","html-keyboard-response","290","638129","0.0-53.0-0.6","SS1612933311578","","","null","","","<p><img src= images/blank.png width =""200"" height = ""200"" style = ""float:right""></p><p><img src=images/blank.png width =""800"" height = ""200""></p>","","","","","","","","","","","",""
"","407.09999995306134","sequential-stimulus-presentation","291","639348","0.0-53.0-1.6","SS1612933311578","trial","","40","800","1207.0999999530613","","","","","15","simple_similar","images/stimuli/spore_stims/simple_15_A_b.gif","left","","","","",""
"","null","html-keyboard-response","292","640313","0.0-53.0-0.7","SS1612933311578","","","null","","","<p><img src= images/blank.png width =""200"" height = ""200"" style = ""float:right""></p><p><img src=images/blank.png width =""800"" height = ""200""></p>","","","","","","","","","","","",""
"","317.85500003024936","sequential-stimulus-presentation","293","641443","0.0-53.0-1.7","SS1612933311578","trial","","40","800","1117.8550000302494","","","","","15","simple_similar","images/stimuli/spore_stims/simple_15_A_b.gif","left","","","","",""
"","1813.5250001214445","html-keyboard-response","294","643268","0.0-54.0","SS1612933311578","pref_question","","98","","","<video width ='960' height = '540' style='padding-top:8%' autoplay muted><source src='images/stimuli/wall_pref.mp4' type='video/mp4'></video>","2","middle","45%","15","","","","","","","",""
"","1171.6999998316169","sequential-stimulus-presentation","295","645251","0.0-55.0","SS1612933311578","pref_reveal","","40","800","1971.6999998316169","","","","","15","","","","novel","","","",""
"","null","html-keyboard-response","296","646378","0.0-56.0-0.0","SS1612933311578","","","null","","","<p><img src= images/blank.png width =""200"" height = ""200"" style = ""float:right""></p><p><img src=images/blank.png width =""800"" height = ""200""></p>","","","","","","","","","","","",""
"","790.2250001206994","sequential-stimulus-presentation","297","647980","0.0-56.0-1.0","SS1612933311578","trial","","40","800","1590.2250001206994","","","","","16","simple_dissimilar","images/stimuli/spore_stims/simple_12_A_c.gif","middle","","","","",""
"","null","html-keyboard-response","298","649293","0.0-56.0-0.1","SS1612933311578","","","null","","","<p><img src= images/blank.png width =""200"" height = ""200"" style = ""float:right""></p><p><img src=images/blank.png width =""800"" height = ""200""></p>","","","","","","","","","","","",""
"","323.4049999155104","sequential-stimulus-presentation","299","650429","0.0-56.0-1.1","SS1612933311578","trial","","40","800","1123.4049999155104","","","","","16","simple_dissimilar","images/stimuli/spore_stims/simple_12_A_c.gif","middle","","","","",""
"","null","html-keyboard-response","300","651678","0.0-56.0-0.2","SS1612933311578","","","null","","","<p><img src= images/blank.png width =""200"" height = ""200"" style = ""float:right""></p><p><img src=images/blank.png width =""800"" height = ""200""></p>","","","","","","","","","","","",""
"","249.03499986976385","sequential-stimulus-presentation","301","652740","0.0-56.0-1.2","SS1612933311578","trial","","40","800","1049.0349998697639","","","","","16","simple_dissimilar","images/stimuli/spore_stims/simple_12_A_c.gif","middle","","","","",""
"","null","html-keyboard-response","302","653676","0.0-56.0-0.3","SS1612933311578","","","null","","","<p><img src= images/blank.png width =""200"" height = ""200"" style = ""float:right""></p><p><img src=images/blank.png width =""800"" height = ""200""></p>","","","","","","","","","","","",""
"","291.5099998936057","sequential-stimulus-presentation","303","654781","0.0-56.0-1.3","SS1612933311578","trial","","40","800","1091.5099998936057","","","","","16","simple_dissimilar","images/stimuli/spore_stims/simple_12_A_c.gif","middle","","","","",""
"","null","html-keyboard-response","304","655716","0.0-56.0-0.4","SS1612933311578","","","null","","","<p><img src= images/blank.png width =""200"" height = ""200"" style = ""float:right""></p><p><img src=images/blank.png width =""800"" height = ""200""></p>","","","","","","","","","","","",""
"","324.93000011891127","sequential-stimulus-presentation","305","656853","0.0-56.0-1.4","SS1612933311578","trial","","40","800","1124.9300001189113","","","","","16","simple_dissimilar","images/stimuli/spore_stims/simple_12_A_c.gif","middle","","","","",""
"","null","html-keyboard-response","306","657889","0.0-56.0-0.5","SS1612933311578","","","null","","","<p><img src= images/blank.png width =""200"" height = ""200"" style = ""float:right""></p><p><img src=images/blank.png width =""800"" height = ""200""></p>","","","","","","","","","","","",""
"","283.2300001755357","sequential-stimulus-presentation","307","658989","0.0-56.0-1.5","SS1612933311578","trial","","40","800","1083.2300001755357","","","","","16","simple_dissimilar","images/stimuli/spore_stims/simple_10_A_b.gif","right","","","","",""
"","null","html-keyboard-response","308","660149","0.0-56.0-0.6","SS1612933311578","","","null","","","<p><img src= images/blank.png width =""200"" height = ""200"" style = ""float:right""></p><p><img src=images/blank.png width =""800"" height = ""200""></p>","","","","","","","","","","","",""
"","243.98500006645918","sequential-stimulus-presentation","309","661206","0.0-56.0-1.6","SS1612933311578","trial","","40","800","1043.9850000664592","","","","","16","simple_dissimilar","images/stimuli/spore_stims/simple_12_A_c.gif","middle","","","","",""
"","null","html-keyboard-response","310","662430","0.0-56.0-0.7","SS1612933311578","","","null","","","<p><img src= images/blank.png width =""200"" height = ""200"" style = ""float:right""></p><p><img src=images/blank.png width =""800"" height = ""200""></p>","","","","","","","","","","","",""
"","332.02499989420176","sequential-stimulus-presentation","311","663574","0.0-56.0-1.7","SS1612933311578","trial","","40","800","1132.0249998942018","","","","","16","simple_dissimilar","images/stimuli/spore_stims/simple_12_A_c.gif","middle","","","","",""
"","1208.8750000111759","html-keyboard-response","312","664798","0.0-57.0","SS1612933311578","pref_question","","97","","","<video width ='960' height = '540' style='padding-top:8%' autoplay muted><source src='images/stimuli/wall_pref.mp4' type='video/mp4'></video>","1","left","25%","16","","","","","","","",""
"","418.9450000412762","sequential-stimulus-presentation","313","666030","0.0-58.0","SS1612933311578","pref_reveal","","40","800","1218.9450000412762","","","","","16","","","","novel","","","",""
"","null","html-keyboard-response","314","667048","0.0-59.0-0.0","SS1612933311578","","","null","","","<p><img src= images/blank.png width =""200"" height = ""200"" style = ""float:right""></p><p><img src=images/blank.png width =""800"" height = ""200""></p>","","","","","","","","","","","",""
"","241.15499993786216","sequential-stimulus-presentation","315","668103","0.0-59.0-1.0","SS1612933311578","trial","","40","800","1041.1549999378622","","","","","17","simple_similar","images/stimuli/spore_stims/simple_19_B_d.gif","middle","","","","",""
"","null","html-keyboard-response","316","669104","0.0-59.0-0.1","SS1612933311578","","","null","","","<p><img src= images/blank.png width =""200"" height = ""200"" style = ""float:right""></p><p><img src=images/blank.png width =""800"" height = ""200""></p>","","","","","","","","","","","",""
"","226.56500013545156","sequential-stimulus-presentation","317","670143","0.0-59.0-1.1","SS1612933311578","trial","","40","800","1026.5650001354516","","","","","17","simple_similar","images/stimuli/spore_stims/simple_19_B_d.gif","middle","","","","",""
"","null","html-keyboard-response","318","671444","0.0-59.0-0.2","SS1612933311578","","","null","","","<p><img src= images/blank.png width =""200"" height = ""200"" style = ""float:right""></p><p><img src=images/blank.png width =""800"" height = ""200""></p>","","","","","","","","","","","",""
"","75.21000038832426","sequential-stimulus-presentation","319","672336","0.0-59.0-1.2","SS1612933311578","trial","","40","800","875.2100003883243","","","","","17","simple_similar","images/stimuli/spore_stims/simple_19_B_d.gif","middle","","","","",""
"","null","html-keyboard-response","320","673562","0.0-59.0-0.3","SS1612933311578","","","null","","","<p><img src= images/blank.png width =""200"" height = ""200"" style = ""float:right""></p><p><img src=images/blank.png width =""800"" height = ""200""></p>","","","","","","","","","","","",""
"","112.07500007003546","sequential-stimulus-presentation","321","674487","0.0-59.0-1.3","SS1612933311578","trial","","40","800","912.0750000700355","","","","","17","simple_similar","images/stimuli/spore_stims/simple_19_B_d.gif","middle","","","","",""
"","null","html-keyboard-response","322","675302","0.0-59.0-0.4","SS1612933311578","","","null","","","<p><img src= images/blank.png width =""200"" height = ""200"" style = ""float:right""></p><p><img src=images/blank.png width =""800"" height = ""200""></p>","","","","","","","","","","","",""
"","244.72499964758754","sequential-stimulus-presentation","323","676359","0.0-59.0-1.4","SS1612933311578","trial","","40","800","1044.7249996475875","","","","","17","simple_similar","images/stimuli/spore_stims/simple_19_A_d.gif","left","","","","",""
"","null","html-keyboard-response","324","677225","0.0-59.0-0.5","SS1612933311578","","","null","","","<p><img src= images/blank.png width =""200"" height = ""200"" style = ""float:right""></p><p><img src=images/blank.png width =""800"" height = ""200""></p>","","","","","","","","","","","",""
"","259.3100001104176","sequential-stimulus-presentation","325","678296","0.0-59.0-1.5","SS1612933311578","trial","","40","800","1059.3100001104176","","","","","17","simple_similar","images/stimuli/spore_stims/simple_19_B_d.gif","middle","","","","",""
"","null","html-keyboard-response","326","679425","0.0-59.0-0.6","SS1612933311578","","","null","","","<p><img src= images/blank.png width =""200"" height = ""200"" style = ""float:right""></p><p><img src=images/blank.png width =""800"" height = ""200""></p>","","","","","","","","","","","",""
"","153.53000024333596","sequential-stimulus-presentation","327","680392","0.0-59.0-1.6","SS1612933311578","trial","","40","800","953.530000243336","","","","","17","simple_similar","images/stimuli/spore_stims/simple_19_B_d.gif","middle","","","","",""
"","null","html-keyboard-response","328","681432","0.0-59.0-0.7","SS1612933311578","","","null","","","<p><img src= images/blank.png width =""200"" height = ""200"" style = ""float:right""></p><p><img src=images/blank.png width =""800"" height = ""200""></p>","","","","","","","","","","","",""
"","195.48000022768974","sequential-stimulus-presentation","329","682441","0.0-59.0-1.7","SS1612933311578","trial","","40","800","995.4800002276897","","","","","17","simple_similar","images/stimuli/spore_stims/simple_19_B_d.gif","middle","","","","",""
"","1080.324999988079","html-keyboard-response","330","683537","0.0-60.0","SS1612933311578","pref_question","","99","","","<video width ='960' height = '540' style='padding-top:8%' autoplay muted><source src='images/stimuli/wall_pref.mp4' type='video/mp4'></video>","3","right","66%","17","","","","","","","",""
"","419.4450001232326","sequential-stimulus-presentation","331","684769","0.0-61.0","SS1612933311578","pref_reveal","","40","800","1219.4450001232326","","","","","17","","","","novel","","","",""
"","null","html-keyboard-response","332","685691","0.0-62.0-0.0","SS1612933311578","","","null","","","<p><img src= images/blank.png width =""200"" height = ""200"" style = ""float:right""></p><p><img src=images/blank.png width =""800"" height = ""200""></p>","","","","","","","","","","","",""
"","176.72000033780932","sequential-stimulus-presentation","333","686681","0.0-62.0-1.0","SS1612933311578","trial","","40","800","976.7200003378093","","","","","18","complex_dissimilar","images/stimuli/spore_stims/complex_20_A_c.gif","right","","","","",""
"","null","html-keyboard-response","334","687525","0.0-62.0-0.1","SS1612933311578","","","null","","","<p><img src= images/blank.png width =""200"" height = ""200"" style = ""float:right""></p><p><img src=images/blank.png width =""800"" height = ""200""></p>","","","","","","","","","","","",""
"","182.28500010445714","sequential-stimulus-presentation","335","688521","0.0-62.0-1.1","SS1612933311578","trial","","40","800","982.2850001044571","","","","","18","complex_dissimilar","images/stimuli/spore_stims/complex_20_A_c.gif","right","","","","",""
"","null","html-keyboard-response","336","689519","0.0-62.0-0.2","SS1612933311578","","","null","","","<p><img src= images/blank.png width =""200"" height = ""200"" style = ""float:right""></p><p><img src=images/blank.png width =""800"" height = ""200""></p>","","","","","","","","","","","",""
"","165.7749996520579","sequential-stimulus-presentation","337","690497","0.0-62.0-1.2","SS1612933311578","trial","","40","800","965.7749996520579","","","","","18","complex_dissimilar","images/stimuli/spore_stims/complex_20_A_c.gif","right","","","","",""
"","null","html-keyboard-response","338","691641","0.0-62.0-0.3","SS1612933311578","","","null","","","<p><img src= images/blank.png width =""200"" height = ""200"" style = ""float:right""></p><p><img src=images/blank.png width =""800"" height = ""200""></p>","","","","","","","","","","","",""
"","172.65000008046627","sequential-stimulus-presentation","339","692626","0.0-62.0-1.3","SS1612933311578","trial","","40","800","972.6500000804663","","","","","18","complex_dissimilar","images/stimuli/spore_stims/complex_20_A_c.gif","right","","","","",""
"","null","html-keyboard-response","340","693923","0.0-62.0-0.4","SS1612933311578","","","null","","","<p><img src= images/blank.png width =""200"" height = ""200"" style = ""float:right""></p><p><img src=images/blank.png width =""800"" height = ""200""></p>","","","","","","","","","","","",""
"","152.35499991104007","sequential-stimulus-presentation","341","694890","0.0-62.0-1.4","SS1612933311578","trial","","40","800","952.3549999110401","","","","","18","complex_dissimilar","images/stimuli/spore_stims/complex_20_A_c.gif","right","","","","",""
"","null","html-keyboard-response","342","695975","0.0-62.0-0.5","SS1612933311578","","","null","","","<p><img src= images/blank.png width =""200"" height = ""200"" style = ""float:right""></p><p><img src=images/blank.png width =""800"" height = ""200""></p>","","","","","","","","","","","",""
"","206.7599999718368","sequential-stimulus-presentation","343","696994","0.0-62.0-1.5","SS1612933311578","trial","","40","800","1006.7599999718368","","","","","18","complex_dissimilar","images/stimuli/spore_stims/complex_07_B_d.gif","left","","","","",""
"","null","html-keyboard-response","344","697860","0.0-62.0-0.6","SS1612933311578","","","null","","","<p><img src= images/blank.png width =""200"" height = ""200"" style = ""float:right""></p><p><img src=images/blank.png width =""800"" height = ""200""></p>","","","","","","","","","","","",""
"","321.3100000284612","sequential-stimulus-presentation","345","698995","0.0-62.0-1.6","SS1612933311578","trial","","40","800","1121.3100000284612","","","","","18","complex_dissimilar","images/stimuli/spore_stims/complex_20_A_c.gif","right","","","","",""
"","null","html-keyboard-response","346","700195","0.0-62.0-0.7","SS1612933311578","","","null","","","<p><img src= images/blank.png width =""200"" height = ""200"" style = ""float:right""></p><p><img src=images/blank.png width =""800"" height = ""200""></p>","","","","","","","","","","","",""
"","162.46500005945563","sequential-stimulus-presentation","347","701171","0.0-62.0-1.7","SS1612933311578","trial","","40","800","962.4650000594556","","","","","18","complex_dissimilar","images/stimuli/spore_stims/complex_20_A_c.gif","right","","","","",""
"","1058.0449998378754","html-keyboard-response","348","702243","0.0-63.0","SS1612933311578","pref_question","","98","","","<video width ='960' height = '540' style='padding-top:8%' autoplay muted><source src='images/stimuli/wall_pref.mp4' type='video/mp4'></video>","2","middle","45%","18","","","","","","","",""
"","418.45500003546476","sequential-stimulus-presentation","349","703476","0.0-64.0","SS1612933311578","pref_reveal","","40","800","1218.4550000354648","","","","","18","","","","novel","","","",""
"","null","html-keyboard-response","350","704374","0.0-65.0-0.0","SS1612933311578","","","null","","","<p><img src= images/blank.png width =""200"" height = ""200"" style = ""float:right""></p><p><img src=images/blank.png width =""800"" height = ""200""></p>","","","","","","","","","","","",""
"","223.21499977260828","sequential-stimulus-presentation","351","705412","0.0-65.0-1.0","SS1612933311578","trial","","40","800","1023.2149997726083","","","","","19","complex_dissimilar","images/stimuli/spore_stims/complex_18_B_a.gif","left","","","","",""
"","null","html-keyboard-response","352","706653","0.0-65.0-0.1","SS1612933311578","","","null","","","<p><img src= images/blank.png width =""200"" height = ""200"" style = ""float:right""></p><p><img src=images/blank.png width =""800"" height = ""200""></p>","","","","","","","","","","","",""
"","169.73500000312924","sequential-stimulus-presentation","353","707636","0.0-65.0-1.1","SS1612933311578","trial","","40","800","969.7350000031292","","","","","19","complex_dissimilar","images/stimuli/spore_stims/complex_18_B_a.gif","left","","","","",""
"","null","html-keyboard-response","354","708668","0.0-65.0-0.2","SS1612933311578","","","null","","","<p><img src= images/blank.png width =""200"" height = ""200"" style = ""float:right""></p><p><img src=images/blank.png width =""800"" height = ""200""></p>","","","","","","","","","","","",""
"","234.179999679327","sequential-stimulus-presentation","355","709717","0.0-65.0-1.2","SS1612933311578","trial","","40","800","1034.179999679327","","","","","19","complex_dissimilar","images/stimuli/spore_stims/complex_18_B_a.gif","left","","","","",""
"","null","html-keyboard-response","356","710596","0.0-65.0-0.3","SS1612933311578","","","null","","","<p><img src= images/blank.png width =""200"" height = ""200"" style = ""float:right""></p><p><img src=images/blank.png width =""800"" height = ""200""></p>","","","","","","","","","","","",""
"","170.4799998551607","sequential-stimulus-presentation","357","711581","0.0-65.0-1.3","SS1612933311578","trial","","40","800","970.4799998551607","","","","","19","complex_dissimilar","images/stimuli/spore_stims/complex_18_B_a.gif","left","","","","",""
"","null","html-keyboard-response","358","712571","0.0-65.0-0.4","SS1612933311578","","","null","","","<p><img src= images/blank.png width =""200"" height = ""200"" style = ""float:right""></p><p><img src=images/blank.png width =""800"" height = ""200""></p>","","","","","","","","","","","",""
"","124.4099996984005","sequential-stimulus-presentation","359","713509","0.0-65.0-1.4","SS1612933311578","trial","","40","800","924.4099996984005","","","","","19","complex_dissimilar","images/stimuli/spore_stims/complex_18_B_a.gif","left","","","","",""
"","null","html-keyboard-response","360","714542","0.0-65.0-0.5","SS1612933311578","","","null","","","<p><img src= images/blank.png width =""200"" height = ""200"" style = ""float:right""></p><p><img src=images/blank.png width =""800"" height = ""200""></p>","","","","","","","","","","","",""
"","105.43999960646033","sequential-stimulus-presentation","361","715461","0.0-65.0-1.5","SS1612933311578","trial","","40","800","905.4399996064603","","","","","19","complex_dissimilar","images/stimuli/spore_stims/complex_09_A_b.gif","right","","","","",""
"","null","html-keyboard-response","362","716596","0.0-65.0-0.6","SS1612933311578","","","null","","","<p><img src= images/blank.png width =""200"" height = ""200"" style = ""float:right""></p><p><img src=images/blank.png width =""800"" height = ""200""></p>","","","","","","","","","","","",""
"","3.7299999967217445","sequential-stimulus-presentation","363","717413","0.0-65.0-1.6","SS1612933311578","trial","","40","800","803.7299999967217","","","","","19","complex_dissimilar","images/stimuli/spore_stims/complex_18_B_a.gif","left","","","","",""
"","null","html-keyboard-response","364","718503","0.0-65.0-0.7","SS1612933311578","","","null","","","<p><img src= images/blank.png width =""200"" height = ""200"" style = ""float:right""></p><p><img src=images/blank.png width =""800"" height = ""200""></p>","","","","","","","","","","","",""
