"view_history","rt","trial_type","trial_index","time_elapsed","internal_node_id","subject","stimulus_type","trial_stimulus","key_press","minimum_viewing_duration","trial_looking_time","block_deviant","block_background","stimulus","wall_pref","location","location_percent","block_number","block_type","stimulus_displayed","position_displayed","stim_type_selected","responses","question_order","stimulus_left","stimulus_right"
"[{""page_index"":0,""viewing_time"":1103.9700000001176}]","1104.1750000003958","instructions","0","1105","0.0-0.0","SS1613138178446","","","","","","","","","","","","","","","","","","","",""
"[{""page_index"":0,""viewing_time"":13130.829999998241},{""page_index"":1,""viewing_time"":6285.775000000285}]","19416.88499999873","instructions","1","22524","0.0-1.0","SS1613138178446","instructions","","","","","","","","","","","","","","","","","","",""
"","7171.330000001035","sequential-stimulus-presentation","2","30501","0.0-2.0","SS1613138178446","","","40","800","7971.330000001035","null","null","","","","","","","","","","","","",""
"","3300.555000001623","sequential-stimulus-presentation","3","34604","0.0-3.0","SS1613138178446","","","40","800","4100.555000001623","null","null","","","","","","","","","","","","",""
"[{""page_index"":0,""viewing_time"":3257.775000001857}]","3257.949999999255","instructions","4","37863","0.0-4.0","SS1613138178446","instructions","","","","","","","","","","","","","","","","","","",""
"","11242.904999999155","html-keyboard-response","5","49108","0.0-5.0","SS1613138178446","instructions","","49","","","","","<video width ='960' height = '540' autoplay muted><source src='images/stimuli/wall_pref.mp4' type='video/mp4'></video>","1","left","25%","","","","","","","","",""
"","4251.625000000786","sequential-stimulus-presentation","6","54163","0.0-6.0","SS1613138178446","pref_reveal","","40","800","5051.625000000786","null","null","","","","","","","","","","","","",""
"[{""page_index"":0,""viewing_time"":8085.504999999102},{""page_index"":1,""viewing_time"":4519.159999999829},{""page_index"":2,""viewing_time"":1370.0449999996636},{""page_index"":3,""viewing_time"":1725.6600000000617}]","15700.600000000122","instructions","7","69864","0.0-7.0","SS1613138178446","instructions","","","","","","","","","","","","","","","","","","",""
"","null","html-keyboard-response","8","71159","0.0-8.0-0.0","SS1613138178446","","","null","","","","","<p><img src= images/blank.png width =""200"" height = ""200"" style = ""float:right""></p><p><img src=images/blank.png width =""800"" height = ""200""></p>","","","","","","","","","","","",""
"","2931.140000000596","sequential-stimulus-presentation","9","74893","0.0-8.0-1.0","SS1613138178446","trial","","40","800","3731.140000000596","images/stimuli/spore_stims/simple_04_A_b.gif","images/stimuli/spore_stims/simple_15_A_a.gif","","","","","0","simple_dissimilar","images/stimuli/spore_stims/simple_15_A_a.gif","right","","","","",""
"","null","html-keyboard-response","10","75987","0.0-8.0-0.1","SS1613138178446","","","null","","","","","<p><img src= images/blank.png width =""200"" height = ""200"" style = ""float:right""></p><p><img src=images/blank.png width =""800"" height = ""200""></p>","","","","","","","","","","","",""
"","2173.1199999994715","sequential-stimulus-presentation","11","78963","0.0-8.0-1.1","SS1613138178446","trial","","40","800","2973.1199999994715","images/stimuli/spore_stims/simple_04_A_b.gif","images/stimuli/spore_stims/simple_15_A_a.gif","","","","","0","simple_dissimilar","images/stimuli/spore_stims/simple_15_A_a.gif","right","","","","",""
"","null","html-keyboard-response","12","79920","0.0-8.0-0.2","SS1613138178446","","","null","","","","","<p><img src= images/blank.png width =""200"" height = ""200"" style = ""float:right""></p><p><img src=images/blank.png width =""800"" height = ""200""></p>","","","","","","","","","","","",""
"","2359.870000000228","sequential-stimulus-presentation","13","83083","0.0-8.0-1.2","SS1613138178446","trial","","40","800","3159.870000000228","images/stimuli/spore_stims/simple_04_A_b.gif","images/stimuli/spore_stims/simple_15_A_a.gif","","","","","0","simple_dissimilar","images/stimuli/spore_stims/simple_15_A_a.gif","right","","","","",""
"","null","html-keyboard-response","14","83921","0.0-8.0-0.3","SS1613138178446","","","null","","","","","<p><img src= images/blank.png width =""200"" height = ""200"" style = ""float:right""></p><p><img src=images/blank.png width =""800"" height = ""200""></p>","","","","","","","","","","","",""
"","414.9500000021362","sequential-stimulus-presentation","15","85140","0.0-8.0-1.3","SS1613138178446","trial","","40","800","1214.9500000021362","images/stimuli/spore_stims/simple_04_A_b.gif","images/stimuli/spore_stims/simple_15_A_a.gif","","","","","0","simple_dissimilar","images/stimuli/spore_stims/simple_15_A_a.gif","right","","","","",""
"","null","html-keyboard-response","16","86357","0.0-8.0-0.4","SS1613138178446","","","null","","","","","<p><img src= images/blank.png width =""200"" height = ""200"" style = ""float:right""></p><p><img src=images/blank.png width =""800"" height = ""200""></p>","","","","","","","","","","","",""
"","297.8800000018964","sequential-stimulus-presentation","17","87459","0.0-8.0-1.4","SS1613138178446","trial","","40","800","1097.8800000018964","images/stimuli/spore_stims/simple_04_A_b.gif","images/stimuli/spore_stims/simple_15_A_a.gif","","","","","0","simple_dissimilar","images/stimuli/spore_stims/simple_15_A_a.gif","right","","","","",""
"","null","html-keyboard-response","18","88268","0.0-8.0-0.5","SS1613138178446","","","null","","","","","<p><img src= images/blank.png width =""200"" height = ""200"" style = ""float:right""></p><p><img src=images/blank.png width =""800"" height = ""200""></p>","","","","","","","","","","","",""
"","524.2050000015297","sequential-stimulus-presentation","19","89595","0.0-8.0-1.5","SS1613138178446","trial","","40","800","1324.2050000015297","images/stimuli/spore_stims/simple_04_A_b.gif","images/stimuli/spore_stims/simple_15_A_a.gif","","","","","0","simple_dissimilar","images/stimuli/spore_stims/simple_15_A_a.gif","right","","","","",""
"","null","html-keyboard-response","20","90421","0.0-8.0-0.6","SS1613138178446","","","null","","","","","<p><img src= images/blank.png width =""200"" height = ""200"" style = ""float:right""></p><p><img src=images/blank.png width =""800"" height = ""200""></p>","","","","","","","","","","","",""
"","4265.8100000007835","sequential-stimulus-presentation","21","95491","0.0-8.0-1.6","SS1613138178446","trial","","40","800","5065.8100000007835","images/stimuli/spore_stims/simple_04_A_b.gif","images/stimuli/spore_stims/simple_15_A_a.gif","","","","","0","simple_dissimilar","images/stimuli/spore_stims/simple_04_A_b.gif","left","","","","",""
"","null","html-keyboard-response","22","96457","0.0-8.0-0.7","SS1613138178446","","","null","","","","","<p><img src= images/blank.png width =""200"" height = ""200"" style = ""float:right""></p><p><img src=images/blank.png width =""800"" height = ""200""></p>","","","","","","","","","","","",""
"","262.4099999993632","sequential-stimulus-presentation","23","97524","0.0-8.0-1.7","SS1613138178446","trial","","40","800","1062.4099999993632","images/stimuli/spore_stims/simple_04_A_b.gif","images/stimuli/spore_stims/simple_15_A_a.gif","","","","","0","simple_dissimilar","images/stimuli/spore_stims/simple_15_A_a.gif","right","","","","",""
"","1478.0700000010256","html-keyboard-response","24","99004","0.0-9.0","SS1613138178446","pref_question","","50","","","","","<video width ='960' height = '540' style='padding-top:8%' autoplay muted><source src='images/stimuli/wall_pref.mp4' type='video/mp4'></video>","2","middle","45%","0","","","","","","","",""
"","1556.1349999989034","sequential-stimulus-presentation","25","101364","0.0-10.0","SS1613138178446","pref_reveal","","40","800","2356.1349999989034","null","null","","","","","0","","","","novel","","","",""
"","null","html-keyboard-response","26","102566","0.0-11.0-0.0","SS1613138178446","","","null","","","","","<p><img src= images/blank.png width =""200"" height = ""200"" style = ""float:right""></p><p><img src=images/blank.png width =""800"" height = ""200""></p>","","","","","","","","","","","",""
"","3297.435000000405","sequential-stimulus-presentation","27","106668","0.0-11.0-1.0","SS1613138178446","trial","","40","800","4097.435000000405","images/stimuli/spore_stims/simple_01_B_b.gif","images/stimuli/spore_stims/simple_06_A_c.gif","","","","","1","simple_dissimilar","images/stimuli/spore_stims/simple_06_A_c.gif","middle","","","","",""
"","null","html-keyboard-response","28","107702","0.0-11.0-0.1","SS1613138178446","","","null","","","","","<p><img src= images/blank.png width =""200"" height = ""200"" style = ""float:right""></p><p><img src=images/blank.png width =""800"" height = ""200""></p>","","","","","","","","","","","",""
"","841.6450000004261","sequential-stimulus-presentation","29","109348","0.0-11.0-1.1","SS1613138178446","trial","","40","800","1641.645000000426","images/stimuli/spore_stims/simple_01_B_b.gif","images/stimuli/spore_stims/simple_06_A_c.gif","","","","","1","simple_dissimilar","images/stimuli/spore_stims/simple_06_A_c.gif","middle","","","","",""
"","null","html-keyboard-response","30","110242","0.0-11.0-0.2","SS1613138178446","","","null","","","","","<p><img src= images/blank.png width =""200"" height = ""200"" style = ""float:right""></p><p><img src=images/blank.png width =""800"" height = ""200""></p>","","","","","","","","","","","",""
"","501.38999999762746","sequential-stimulus-presentation","31","111548","0.0-11.0-1.2","SS1613138178446","trial","","40","800","1301.3899999976275","images/stimuli/spore_stims/simple_01_B_b.gif","images/stimuli/spore_stims/simple_06_A_c.gif","","","","","1","simple_dissimilar","images/stimuli/spore_stims/simple_06_A_c.gif","middle","","","","",""
"","null","html-keyboard-response","32","112767","0.0-11.0-0.3","SS1613138178446","","","null","","","","","<p><img src= images/blank.png width =""200"" height = ""200"" style = ""float:right""></p><p><img src=images/blank.png width =""800"" height = ""200""></p>","","","","","","","","","","","",""
"","200.925000001007","sequential-stimulus-presentation","33","113772","0.0-11.0-1.3","SS1613138178446","trial","","40","800","1000.925000001007","images/stimuli/spore_stims/simple_01_B_b.gif","images/stimuli/spore_stims/simple_06_A_c.gif","","","","","1","simple_dissimilar","images/stimuli/spore_stims/simple_06_A_c.gif","middle","","","","",""
"","null","html-keyboard-response","34","114953","0.0-11.0-0.4","SS1613138178446","","","null","","","","","<p><img src= images/blank.png width =""200"" height = ""200"" style = ""float:right""></p><p><img src=images/blank.png width =""800"" height = ""200""></p>","","","","","","","","","","","",""
"","247.64999999752035","sequential-stimulus-presentation","35","116004","0.0-11.0-1.4","SS1613138178446","trial","","40","800","1047.6499999975204","images/stimuli/spore_stims/simple_01_B_b.gif","images/stimuli/spore_stims/simple_06_A_c.gif","","","","","1","simple_dissimilar","images/stimuli/spore_stims/simple_06_A_c.gif","middle","","","","",""
"","null","html-keyboard-response","36","117092","0.0-11.0-0.5","SS1613138178446","","","null","","","","","<p><img src= images/blank.png width =""200"" height = ""200"" style = ""float:right""></p><p><img src=images/blank.png width =""800"" height = ""200""></p>","","","","","","","","","","","",""
"","260.2050000023155","sequential-stimulus-presentation","37","118156","0.0-11.0-1.5","SS1613138178446","trial","","40","800","1060.2050000023155","images/stimuli/spore_stims/simple_01_B_b.gif","images/stimuli/spore_stims/simple_06_A_c.gif","","","","","1","simple_dissimilar","images/stimuli/spore_stims/simple_06_A_c.gif","middle","","","","",""
"","null","html-keyboard-response","38","119395","0.0-11.0-0.6","SS1613138178446","","","null","","","","","<p><img src= images/blank.png width =""200"" height = ""200"" style = ""float:right""></p><p><img src=images/blank.png width =""800"" height = ""200""></p>","","","","","","","","","","","",""
"","5334.969999999885","sequential-stimulus-presentation","39","125533","0.0-11.0-1.6","SS1613138178446","trial","","40","800","6134.969999999885","images/stimuli/spore_stims/simple_01_B_b.gif","images/stimuli/spore_stims/simple_06_A_c.gif","","","","","1","simple_dissimilar","images/stimuli/spore_stims/simple_01_B_b.gif","left","","","","",""
"","null","html-keyboard-response","40","126614","0.0-11.0-0.7","SS1613138178446","","","null","","","","","<p><img src= images/blank.png width =""200"" height = ""200"" style = ""float:right""></p><p><img src=images/blank.png width =""800"" height = ""200""></p>","","","","","","","","","","","",""
"","697.1750000011525","sequential-stimulus-presentation","41","128116","0.0-11.0-1.7","SS1613138178446","trial","","40","800","1497.1750000011525","images/stimuli/spore_stims/simple_01_B_b.gif","images/stimuli/spore_stims/simple_06_A_c.gif","","","","","1","simple_dissimilar","images/stimuli/spore_stims/simple_06_A_c.gif","middle","","","","",""
"","1109.7349999981816","html-keyboard-response","42","129228","0.0-12.0","SS1613138178446","pref_question","","51","","","","","<video width ='960' height = '540' style='padding-top:8%' autoplay muted><source src='images/stimuli/wall_pref.mp4' type='video/mp4'></video>","3","right","66%","1","","","","","","","",""
"","1964.7700000023178","sequential-stimulus-presentation","43","131996","0.0-13.0","SS1613138178446","pref_reveal","","40","800","2764.770000002318","null","null","","","","","1","","","","novel","","","",""
"","null","html-keyboard-response","44","132843","0.0-14.0-0.0","SS1613138178446","","","null","","","","","<p><img src= images/blank.png width =""200"" height = ""200"" style = ""float:right""></p><p><img src=images/blank.png width =""800"" height = ""200""></p>","","","","","","","","","","","",""
"","925.2650000016729","sequential-stimulus-presentation","45","134572","0.0-14.0-1.0","SS1613138178446","trial","","40","800","1725.265000001673","images/stimuli/spore_stims/complex_15_B_b.gif","images/stimuli/spore_stims/complex_06_B_c.gif","","","","","2","complex_dissimilar","images/stimuli/spore_stims/complex_06_B_c.gif","right","","","","",""
"","null","html-keyboard-response","46","135598","0.0-14.0-0.1","SS1613138178446","","","null","","","","","<p><img src= images/blank.png width =""200"" height = ""200"" style = ""float:right""></p><p><img src=images/blank.png width =""800"" height = ""200""></p>","","","","","","","","","","","",""
"","38.75499999776366","sequential-stimulus-presentation","47","136444","0.0-14.0-1.1","SS1613138178446","trial","","40","800","838.7549999977637","images/stimuli/spore_stims/complex_15_B_b.gif","images/stimuli/spore_stims/complex_06_B_c.gif","","","","","2","complex_dissimilar","images/stimuli/spore_stims/complex_06_B_c.gif","right","","","","",""
"","null","html-keyboard-response","48","137687","0.0-14.0-0.2","SS1613138178446","","","null","","","","","<p><img src= images/blank.png width =""200"" height = ""200"" style = ""float:right""></p><p><img src=images/blank.png width =""800"" height = ""200""></p>","","","","","","","","","","","",""
"","144.81999999770778","sequential-stimulus-presentation","49","138636","0.0-14.0-1.2","SS1613138178446","trial","","40","800","944.8199999977078","images/stimuli/spore_stims/complex_15_B_b.gif","images/stimuli/spore_stims/complex_06_B_c.gif","","","","","2","complex_dissimilar","images/stimuli/spore_stims/complex_06_B_c.gif","right","","","","",""
"","null","html-keyboard-response","50","139753","0.0-14.0-0.3","SS1613138178446","","","null","","","","","<p><img src= images/blank.png width =""200"" height = ""200"" style = ""float:right""></p><p><img src=images/blank.png width =""800"" height = ""200""></p>","","","","","","","","","","","",""
"","31.515000002400484","sequential-stimulus-presentation","51","140588","0.0-14.0-1.3","SS1613138178446","trial","","40","800","831.5150000024005","images/stimuli/spore_stims/complex_15_B_b.gif","images/stimuli/spore_stims/complex_06_B_c.gif","","","","","2","complex_dissimilar","images/stimuli/spore_stims/complex_06_B_c.gif","right","","","","",""
"","null","html-keyboard-response","52","141798","0.0-14.0-0.4","SS1613138178446","","","null","","","","","<p><img src= images/blank.png width =""200"" height = ""200"" style = ""float:right""></p><p><img src=images/blank.png width =""800"" height = ""200""></p>","","","","","","","","","","","",""
"","98.25500000079046","sequential-stimulus-presentation","53","142701","0.0-14.0-1.4","SS1613138178446","trial","","40","800","898.2550000007905","images/stimuli/spore_stims/complex_15_B_b.gif","images/stimuli/spore_stims/complex_06_B_c.gif","","","","","2","complex_dissimilar","images/stimuli/spore_stims/complex_06_B_c.gif","right","","","","",""
"","null","html-keyboard-response","54","143627","0.0-14.0-0.5","SS1613138178446","","","null","","","","","<p><img src= images/blank.png width =""200"" height = ""200"" style = ""float:right""></p><p><img src=images/blank.png width =""800"" height = ""200""></p>","","","","","","","","","","","",""
"","43.81999999895925","sequential-stimulus-presentation","55","144475","0.0-14.0-1.5","SS1613138178446","trial","","40","800","843.8199999989592","images/stimuli/spore_stims/complex_15_B_b.gif","images/stimuli/spore_stims/complex_06_B_c.gif","","","","","2","complex_dissimilar","images/stimuli/spore_stims/complex_06_B_c.gif","right","","","","",""
"","null","html-keyboard-response","56","145774","0.0-14.0-0.6","SS1613138178446","","","null","","","","","<p><img src= images/blank.png width =""200"" height = ""200"" style = ""float:right""></p><p><img src=images/blank.png width =""800"" height = ""200""></p>","","","","","","","","","","","",""
"","8.074999997916166","sequential-stimulus-presentation","57","146588","0.0-14.0-1.6","SS1613138178446","trial","","40","800","808.0749999979162","images/stimuli/spore_stims/complex_15_B_b.gif","images/stimuli/spore_stims/complex_06_B_c.gif","","","","","2","complex_dissimilar","images/stimuli/spore_stims/complex_06_B_c.gif","right","","","","",""
"","null","html-keyboard-response","58","147804","0.0-14.0-0.7","SS1613138178446","","","null","","","","","<p><img src= images/blank.png width =""200"" height = ""200"" style = ""float:right""></p><p><img src=images/blank.png width =""800"" height = ""200""></p>","","","","","","","","","","","",""
"","3139.1700000021956","sequential-stimulus-presentation","59","151747","0.0-14.0-1.7","SS1613138178446","trial","","40","800","3939.1700000021956","images/stimuli/spore_stims/complex_15_B_b.gif","images/stimuli/spore_stims/complex_06_B_c.gif","","","","","2","complex_dissimilar","images/stimuli/spore_stims/complex_15_B_b.gif","middle","","","","",""
"","923.4849999993457","html-keyboard-response","60","152676","0.0-15.0","SS1613138178446","pref_question","","50","","","","","<video width ='960' height = '540' style='padding-top:8%' autoplay muted><source src='images/stimuli/wall_pref.mp4' type='video/mp4'></video>","2","middle","45%","2","","","","","","","",""
"","2355.1100000004226","sequential-stimulus-presentation","61","155837","0.0-16.0","SS1613138178446","pref_reveal","","40","800","3155.1100000004226","null","null","","","","","2","","","","deviant","","","",""
"","null","html-keyboard-response","62","156957","0.0-17.0-0.0","SS1613138178446","","","null","","","","","<p><img src= images/blank.png width =""200"" height = ""200"" style = ""float:right""></p><p><img src=images/blank.png width =""800"" height = ""200""></p>","","","","","","","","","","","",""
"","883.1849999987753","sequential-stimulus-presentation","63","158644","0.0-17.0-1.0","SS1613138178446","trial","","40","800","1683.1849999987753","images/stimuli/spore_stims/complex_05_B_a.gif","images/stimuli/spore_stims/complex_03_B_c.gif","","","","","3","complex_dissimilar","images/stimuli/spore_stims/complex_03_B_c.gif","middle","","","","",""
"","null","html-keyboard-response","64","159583","0.0-17.0-0.1","SS1613138178446","","","null","","","","","<p><img src= images/blank.png width =""200"" height = ""200"" style = ""float:right""></p><p><img src=images/blank.png width =""800"" height = ""200""></p>","","","","","","","","","","","",""
"","3153.42000000237","sequential-stimulus-presentation","65","163541","0.0-17.0-1.1","SS1613138178446","trial","","40","800","3953.42000000237","images/stimuli/spore_stims/complex_05_B_a.gif","images/stimuli/spore_stims/complex_03_B_c.gif","","","","","3","complex_dissimilar","images/stimuli/spore_stims/complex_03_B_c.gif","middle","","","","",""
"","null","html-keyboard-response","66","164393","0.0-17.0-0.2","SS1613138178446","","","null","","","","","<p><img src= images/blank.png width =""200"" height = ""200"" style = ""float:right""></p><p><img src=images/blank.png width =""800"" height = ""200""></p>","","","","","","","","","","","",""
"","207.23499999803607","sequential-stimulus-presentation","67","165404","0.0-17.0-1.2","SS1613138178446","trial","","40","800","1007.2349999980361","images/stimuli/spore_stims/complex_05_B_a.gif","images/stimuli/spore_stims/complex_03_B_c.gif","","","","","3","complex_dissimilar","images/stimuli/spore_stims/complex_03_B_c.gif","middle","","","","",""
"","null","html-keyboard-response","68","166233","0.0-17.0-0.3","SS1613138178446","","","null","","","","","<p><img src= images/blank.png width =""200"" height = ""200"" style = ""float:right""></p><p><img src=images/blank.png width =""800"" height = ""200""></p>","","","","","","","","","","","",""
"","94.57499999916763","sequential-stimulus-presentation","69","167132","0.0-17.0-1.3","SS1613138178446","trial","","40","800","894.5749999991676","images/stimuli/spore_stims/complex_05_B_a.gif","images/stimuli/spore_stims/complex_03_B_c.gif","","","","","3","complex_dissimilar","images/stimuli/spore_stims/complex_03_B_c.gif","middle","","","","",""
"","null","html-keyboard-response","70","168396","0.0-17.0-0.4","SS1613138178446","","","null","","","","","<p><img src= images/blank.png width =""200"" height = ""200"" style = ""float:right""></p><p><img src=images/blank.png width =""800"" height = ""200""></p>","","","","","","","","","","","",""
"","204.36500000141677","sequential-stimulus-presentation","71","169404","0.0-17.0-1.4","SS1613138178446","trial","","40","800","1004.3650000014168","images/stimuli/spore_stims/complex_05_B_a.gif","images/stimuli/spore_stims/complex_03_B_c.gif","","","","","3","complex_dissimilar","images/stimuli/spore_stims/complex_03_B_c.gif","middle","","","","",""
"","null","html-keyboard-response","72","170655","0.0-17.0-0.5","SS1613138178446","","","null","","","","","<p><img src= images/blank.png width =""200"" height = ""200"" style = ""float:right""></p><p><img src=images/blank.png width =""800"" height = ""200""></p>","","","","","","","","","","","",""
"","3872.4900000015623","sequential-stimulus-presentation","73","175332","0.0-17.0-1.5","SS1613138178446","trial","","40","800","4672.490000001562","images/stimuli/spore_stims/complex_05_B_a.gif","images/stimuli/spore_stims/complex_03_B_c.gif","","","","","3","complex_dissimilar","images/stimuli/spore_stims/complex_05_B_a.gif","right","","","","",""
"","null","html-keyboard-response","74","176208","0.0-17.0-0.6","SS1613138178446","","","null","","","","","<p><img src= images/blank.png width =""200"" height = ""200"" style = ""float:right""></p><p><img src=images/blank.png width =""800"" height = ""200""></p>","","","","","","","","","","","",""
"","272.1400000009453","sequential-stimulus-presentation","75","177284","0.0-17.0-1.6","SS1613138178446","trial","","40","800","1072.1400000009453","images/stimuli/spore_stims/complex_05_B_a.gif","images/stimuli/spore_stims/complex_03_B_c.gif","","","","","3","complex_dissimilar","images/stimuli/spore_stims/complex_03_B_c.gif","middle","","","","",""
"","null","html-keyboard-response","76","178294","0.0-17.0-0.7","SS1613138178446","","","null","","","","","<p><img src= images/blank.png width =""200"" height = ""200"" style = ""float:right""></p><p><img src=images/blank.png width =""800"" height = ""200""></p>","","","","","","","","","","","",""
"","202.48500000161584","sequential-stimulus-presentation","77","179300","0.0-17.0-1.7","SS1613138178446","trial","","40","800","1002.4850000016158","images/stimuli/spore_stims/complex_05_B_a.gif","images/stimuli/spore_stims/complex_03_B_c.gif","","","","","3","complex_dissimilar","images/stimuli/spore_stims/complex_03_B_c.gif","middle","","","","",""
"","715.940000001865","html-keyboard-response","78","180021","0.0-18.0","SS1613138178446","pref_question","","49","","","","","<video width ='960' height = '540' style='padding-top:8%' autoplay muted><source src='images/stimuli/wall_pref.mp4' type='video/mp4'></video>","1","left","25%","3","","","","","","","",""
"","4778.650000000198","sequential-stimulus-presentation","79","185604","0.0-19.0","SS1613138178446","pref_reveal","","40","800","5578.650000000198","null","null","","","","","3","","","","novel","","","",""
"","null","html-keyboard-response","80","186505","0.0-20.0-0.0","SS1613138178446","","","null","","","","","<p><img src= images/blank.png width =""200"" height = ""200"" style = ""float:right""></p><p><img src=images/blank.png width =""800"" height = ""200""></p>","","","","","","","","","","","",""
"","3390.865000001213","sequential-stimulus-presentation","81","190700","0.0-20.0-1.0","SS1613138178446","trial","","40","800","4190.865000001213","images/stimuli/spore_stims/complex_14_B_a.gif","images/stimuli/spore_stims/complex_14_A_a.gif","","","","","4","complex_similar","images/stimuli/spore_stims/complex_14_A_a.gif","right","","","","",""
"","null","html-keyboard-response","82","191816","0.0-20.0-0.1","SS1613138178446","","","null","","","","","<p><img src= images/blank.png width =""200"" height = ""200"" style = ""float:right""></p><p><img src=images/blank.png width =""800"" height = ""200""></p>","","","","","","","","","","","",""
"","255.7699999997567","sequential-stimulus-presentation","83","192876","0.0-20.0-1.1","SS1613138178446","trial","","40","800","1055.7699999997567","images/stimuli/spore_stims/complex_14_B_a.gif","images/stimuli/spore_stims/complex_14_A_a.gif","","","","","4","complex_similar","images/stimuli/spore_stims/complex_14_A_a.gif","right","","","","",""
"","null","html-keyboard-response","84","193829","0.0-20.0-0.2","SS1613138178446","","","null","","","","","<p><img src= images/blank.png width =""200"" height = ""200"" style = ""float:right""></p><p><img src=images/blank.png width =""800"" height = ""200""></p>","","","","","","","","","","","",""
"","76.50500000090688","sequential-stimulus-presentation","85","194709","0.0-20.0-1.2","SS1613138178446","trial","","40","800","876.5050000009069","images/stimuli/spore_stims/complex_14_B_a.gif","images/stimuli/spore_stims/complex_14_A_a.gif","","","","","4","complex_similar","images/stimuli/spore_stims/complex_14_A_a.gif","right","","","","",""
"","null","html-keyboard-response","86","195769","0.0-20.0-0.3","SS1613138178446","","","null","","","","","<p><img src= images/blank.png width =""200"" height = ""200"" style = ""float:right""></p><p><img src=images/blank.png width =""800"" height = ""200""></p>","","","","","","","","","","","",""
"","334.04000000155065","sequential-stimulus-presentation","87","196909","0.0-20.0-1.3","SS1613138178446","trial","","40","800","1134.0400000015507","images/stimuli/spore_stims/complex_14_B_a.gif","images/stimuli/spore_stims/complex_14_A_a.gif","","","","","4","complex_similar","images/stimuli/spore_stims/complex_14_A_a.gif","right","","","","",""
"","null","html-keyboard-response","88","198084","0.0-20.0-0.4","SS1613138178446","","","null","","","","","<p><img src= images/blank.png width =""200"" height = ""200"" style = ""float:right""></p><p><img src=images/blank.png width =""800"" height = ""200""></p>","","","","","","","","","","","",""
"","260.9149999989313","sequential-stimulus-presentation","89","199148","0.0-20.0-1.4","SS1613138178446","trial","","40","800","1060.9149999989313","images/stimuli/spore_stims/complex_14_B_a.gif","images/stimuli/spore_stims/complex_14_A_a.gif","","","","","4","complex_similar","images/stimuli/spore_stims/complex_14_A_a.gif","right","","","","",""
"","null","html-keyboard-response","90","200110","0.0-20.0-0.5","SS1613138178446","","","null","","","","","<p><img src= images/blank.png width =""200"" height = ""200"" style = ""float:right""></p><p><img src=images/blank.png width =""800"" height = ""200""></p>","","","","","","","","","","","",""
"","3961.2949999973353","sequential-stimulus-presentation","91","204876","0.0-20.0-1.5","SS1613138178446","trial","","40","800","4761.294999997335","images/stimuli/spore_stims/complex_14_B_a.gif","images/stimuli/spore_stims/complex_14_A_a.gif","","","","","4","complex_similar","images/stimuli/spore_stims/complex_14_B_a.gif","left","","","","",""
"","null","html-keyboard-response","92","206158","0.0-20.0-0.6","SS1613138178446","","","null","","","","","<p><img src= images/blank.png width =""200"" height = ""200"" style = ""float:right""></p><p><img src=images/blank.png width =""800"" height = ""200""></p>","","","","","","","","","","","",""
"","394.4000000010419","sequential-stimulus-presentation","93","207356","0.0-20.0-1.6","SS1613138178446","trial","","40","800","1194.400000001042","images/stimuli/spore_stims/complex_14_B_a.gif","images/stimuli/spore_stims/complex_14_A_a.gif","","","","","4","complex_similar","images/stimuli/spore_stims/complex_14_A_a.gif","right","","","","",""
"","null","html-keyboard-response","94","208302","0.0-20.0-0.7","SS1613138178446","","","null","","","","","<p><img src= images/blank.png width =""200"" height = ""200"" style = ""float:right""></p><p><img src=images/blank.png width =""800"" height = ""200""></p>","","","","","","","","","","","",""
"","49.85500000111642","sequential-stimulus-presentation","95","209156","0.0-20.0-1.7","SS1613138178446","trial","","40","800","849.8550000011164","images/stimuli/spore_stims/complex_14_B_a.gif","images/stimuli/spore_stims/complex_14_A_a.gif","","","","","4","complex_similar","images/stimuli/spore_stims/complex_14_A_a.gif","right","","","","",""
"","874.4450000012876","html-keyboard-response","96","210036","0.0-21.0","SS1613138178446","pref_question","","50","","","","","<video width ='960' height = '540' style='padding-top:8%' autoplay muted><source src='images/stimuli/wall_pref.mp4' type='video/mp4'></video>","2","middle","45%","4","","","","","","","",""
"","2091.3499999987835","sequential-stimulus-presentation","97","212932","0.0-22.0","SS1613138178446","pref_reveal","","40","800","2891.3499999987835","null","null","","","","","4","","","","novel","","","",""
"","null","html-keyboard-response","98","213919","0.0-23.0-0.0","SS1613138178446","","","null","","","","","<p><img src= images/blank.png width =""200"" height = ""200"" style = ""float:right""></p><p><img src=images/blank.png width =""800"" height = ""200""></p>","","","","","","","","","","","",""
"","4545.40999999881","sequential-stimulus-presentation","99","219269","0.0-23.0-1.0","SS1613138178446","trial","","40","800","5345.40999999881","images/stimuli/spore_stims/simple_07_B_a.gif","images/stimuli/spore_stims/simple_07_A_a.gif","","","","","5","simple_similar","images/stimuli/spore_stims/simple_07_A_a.gif","left","","","","",""
"","null","html-keyboard-response","100","220380","0.0-23.0-0.1","SS1613138178446","","","null","","","","","<p><img src= images/blank.png width =""200"" height = ""200"" style = ""float:right""></p><p><img src=images/blank.png width =""800"" height = ""200""></p>","","","","","","","","","","","",""
"","569.8299999967276","sequential-stimulus-presentation","101","221756","0.0-23.0-1.1","SS1613138178446","trial","","40","800","1369.8299999967276","images/stimuli/spore_stims/simple_07_B_a.gif","images/stimuli/spore_stims/simple_07_A_a.gif","","","","","5","simple_similar","images/stimuli/spore_stims/simple_07_A_a.gif","left","","","","",""
"","null","html-keyboard-response","102","223050","0.0-23.0-0.2","SS1613138178446","","","null","","","","","<p><img src= images/blank.png width =""200"" height = ""200"" style = ""float:right""></p><p><img src=images/blank.png width =""800"" height = ""200""></p>","","","","","","","","","","","",""
"","4158.625000000029","sequential-stimulus-presentation","103","228012","0.0-23.0-1.2","SS1613138178446","trial","","40","800","4958.625000000029","images/stimuli/spore_stims/simple_07_B_a.gif","images/stimuli/spore_stims/simple_07_A_a.gif","","","","","5","simple_similar","images/stimuli/spore_stims/simple_07_B_a.gif","middle","","","","",""
"","null","html-keyboard-response","104","228979","0.0-23.0-0.3","SS1613138178446","","","null","","","","","<p><img src= images/blank.png width =""200"" height = ""200"" style = ""float:right""></p><p><img src=images/blank.png width =""800"" height = ""200""></p>","","","","","","","","","","","",""
"","1835.784999999305","sequential-stimulus-presentation","105","231620","0.0-23.0-1.3","SS1613138178446","trial","","40","800","2635.784999999305","images/stimuli/spore_stims/simple_07_B_a.gif","images/stimuli/spore_stims/simple_07_A_a.gif","","","","","5","simple_similar","images/stimuli/spore_stims/simple_07_A_a.gif","left","","","","",""
"","null","html-keyboard-response","106","232712","0.0-23.0-0.4","SS1613138178446","","","null","","","","","<p><img src= images/blank.png width =""200"" height = ""200"" style = ""float:right""></p><p><img src=images/blank.png width =""800"" height = ""200""></p>","","","","","","","","","","","",""
"","325.50499999706517","sequential-stimulus-presentation","107","233844","0.0-23.0-1.4","SS1613138178446","trial","","40","800","1125.5049999970652","images/stimuli/spore_stims/simple_07_B_a.gif","images/stimuli/spore_stims/simple_07_A_a.gif","","","","","5","simple_similar","images/stimuli/spore_stims/simple_07_A_a.gif","left","","","","",""
"","null","html-keyboard-response","108","234844","0.0-23.0-0.5","SS1613138178446","","","null","","","","","<p><img src= images/blank.png width =""200"" height = ""200"" style = ""float:right""></p><p><img src=images/blank.png width =""800"" height = ""200""></p>","","","","","","","","","","","",""
"","258.0899999993562","sequential-stimulus-presentation","109","235908","0.0-23.0-1.5","SS1613138178446","trial","","40","800","1058.0899999993562","images/stimuli/spore_stims/simple_07_B_a.gif","images/stimuli/spore_stims/simple_07_A_a.gif","","","","","5","simple_similar","images/stimuli/spore_stims/simple_07_A_a.gif","left","","","","",""
"","null","html-keyboard-response","110","237149","0.0-23.0-0.6","SS1613138178446","","","null","","","","","<p><img src= images/blank.png width =""200"" height = ""200"" style = ""float:right""></p><p><img src=images/blank.png width =""800"" height = ""200""></p>","","","","","","","","","","","",""
"","912.8549999986717","sequential-stimulus-presentation","111","238867","0.0-23.0-1.6","SS1613138178446","trial","","40","800","1712.8549999986717","images/stimuli/spore_stims/simple_07_B_a.gif","images/stimuli/spore_stims/simple_07_A_a.gif","","","","","5","simple_similar","images/stimuli/spore_stims/simple_07_A_a.gif","left","","","","",""
"","null","html-keyboard-response","112","239779","0.0-23.0-0.7","SS1613138178446","","","null","","","","","<p><img src= images/blank.png width =""200"" height = ""200"" style = ""float:right""></p><p><img src=images/blank.png width =""800"" height = ""200""></p>","","","","","","","","","","","",""
"","621.0850000024948","sequential-stimulus-presentation","113","241204","0.0-23.0-1.7","SS1613138178446","trial","","40","800","1421.0850000024948","images/stimuli/spore_stims/simple_07_B_a.gif","images/stimuli/spore_stims/simple_07_A_a.gif","","","","","5","simple_similar","images/stimuli/spore_stims/simple_07_A_a.gif","left","","","","",""
"","865.4499999975087","html-keyboard-response","114","242077","0.0-24.0","SS1613138178446","pref_question","","51","","","","","<video width ='960' height = '540' style='padding-top:8%' autoplay muted><source src='images/stimuli/wall_pref.mp4' type='video/mp4'></video>","3","right","66%","5","","","","","","","",""
"","3859.0149999981804","sequential-stimulus-presentation","115","246740","0.0-25.0","SS1613138178446","pref_reveal","","40","800","4659.01499999818","null","null","","","","","5","","","","novel","","","",""
"","null","html-keyboard-response","116","247980","0.0-26.0-0.0","SS1613138178446","","","null","","","","","<p><img src= images/blank.png width =""200"" height = ""200"" style = ""float:right""></p><p><img src=images/blank.png width =""800"" height = ""200""></p>","","","","","","","","","","","",""
"","3914.840000001306","sequential-stimulus-presentation","117","252700","0.0-26.0-1.0","SS1613138178446","trial","","40","800","4714.840000001306","images/stimuli/spore_stims/complex_10_A_d.gif","images/stimuli/spore_stims/complex_09_B_a.gif","","","","","6","complex_dissimilar","images/stimuli/spore_stims/complex_09_B_a.gif","left","","","","",""
"","null","html-keyboard-response","118","253985","0.0-26.0-0.1","SS1613138178446","","","null","","","","","<p><img src= images/blank.png width =""200"" height = ""200"" style = ""float:right""></p><p><img src=images/blank.png width =""800"" height = ""200""></p>","","","","","","","","","","","",""
"","387.20500000275206","sequential-stimulus-presentation","119","255181","0.0-26.0-1.1","SS1613138178446","trial","","40","800","1187.205000002752","images/stimuli/spore_stims/complex_10_A_d.gif","images/stimuli/spore_stims/complex_09_B_a.gif","","","","","6","complex_dissimilar","images/stimuli/spore_stims/complex_09_B_a.gif","left","","","","",""
"","null","html-keyboard-response","120","256016","0.0-26.0-0.2","SS1613138178446","","","null","","","","","<p><img src= images/blank.png width =""200"" height = ""200"" style = ""float:right""></p><p><img src=images/blank.png width =""800"" height = ""200""></p>","","","","","","","","","","","",""
"","206.78000000037719","sequential-stimulus-presentation","121","257028","0.0-26.0-1.2","SS1613138178446","trial","","40","800","1006.7800000003772","images/stimuli/spore_stims/complex_10_A_d.gif","images/stimuli/spore_stims/complex_09_B_a.gif","","","","","6","complex_dissimilar","images/stimuli/spore_stims/complex_09_B_a.gif","left","","","","",""
"","null","html-keyboard-response","122","258035","0.0-26.0-0.3","SS1613138178446","","","null","","","","","<p><img src= images/blank.png width =""200"" height = ""200"" style = ""float:right""></p><p><img src=images/blank.png width =""800"" height = ""200""></p>","","","","","","","","","","","",""
"","156.48499999952037","sequential-stimulus-presentation","123","258995","0.0-26.0-1.3","SS1613138178446","trial","","40","800","956.4849999995204","images/stimuli/spore_stims/complex_10_A_d.gif","images/stimuli/spore_stims/complex_09_B_a.gif","","","","","6","complex_dissimilar","images/stimuli/spore_stims/complex_09_B_a.gif","left","","","","",""
"","null","html-keyboard-response","124","260038","0.0-26.0-0.4","SS1613138178446","","","null","","","","","<p><img src= images/blank.png width =""200"" height = ""200"" style = ""float:right""></p><p><img src=images/blank.png width =""800"" height = ""200""></p>","","","","","","","","","","","",""
"","4328.714999999676","sequential-stimulus-presentation","125","265172","0.0-26.0-1.4","SS1613138178446","trial","","40","800","5128.714999999676","images/stimuli/spore_stims/complex_10_A_d.gif","images/stimuli/spore_stims/complex_09_B_a.gif","","","","","6","complex_dissimilar","images/stimuli/spore_stims/complex_10_A_d.gif","right","","","","",""
"","null","html-keyboard-response","126","266147","0.0-26.0-0.5","SS1613138178446","","","null","","","","","<p><img src= images/blank.png width =""200"" height = ""200"" style = ""float:right""></p><p><img src=images/blank.png width =""800"" height = ""200""></p>","","","","","","","","","","","",""
"","380.4049999999115","sequential-stimulus-presentation","127","267333","0.0-26.0-1.5","SS1613138178446","trial","","40","800","1180.4049999999115","images/stimuli/spore_stims/complex_10_A_d.gif","images/stimuli/spore_stims/complex_09_B_a.gif","","","","","6","complex_dissimilar","images/stimuli/spore_stims/complex_09_B_a.gif","left","","","","",""
"","null","html-keyboard-response","128","268302","0.0-26.0-0.6","SS1613138178446","","","null","","","","","<p><img src= images/blank.png width =""200"" height = ""200"" style = ""float:right""></p><p><img src=images/blank.png width =""800"" height = ""200""></p>","","","","","","","","","","","",""
"","160.00499999790918","sequential-stimulus-presentation","129","269268","0.0-26.0-1.6","SS1613138178446","trial","","40","800","960.0049999979092","images/stimuli/spore_stims/complex_10_A_d.gif","images/stimuli/spore_stims/complex_09_B_a.gif","","","","","6","complex_dissimilar","images/stimuli/spore_stims/complex_09_B_a.gif","left","","","","",""
"","null","html-keyboard-response","130","270189","0.0-26.0-0.7","SS1613138178446","","","null","","","","","<p><img src= images/blank.png width =""200"" height = ""200"" style = ""float:right""></p><p><img src=images/blank.png width =""800"" height = ""200""></p>","","","","","","","","","","","",""
"","89.87499999784632","sequential-stimulus-presentation","131","271084","0.0-26.0-1.7","SS1613138178446","trial","","40","800","889.8749999978463","images/stimuli/spore_stims/complex_10_A_d.gif","images/stimuli/spore_stims/complex_09_B_a.gif","","","","","6","complex_dissimilar","images/stimuli/spore_stims/complex_09_B_a.gif","left","","","","",""
"","811.5900000011898","html-keyboard-response","132","271900","0.0-27.0","SS1613138178446","pref_question","","50","","","","","<video width ='960' height = '540' style='padding-top:8%' autoplay muted><source src='images/stimuli/wall_pref.mp4' type='video/mp4'></video>","2","middle","45%","6","","","","","","","",""
"","3625.980000000738","sequential-stimulus-presentation","133","276332","0.0-28.0","SS1613138178446","pref_reveal","","40","800","4425.980000000738","null","null","","","","","6","","","","novel","","","",""
"","null","html-keyboard-response","134","277330","0.0-29.0-0.0","SS1613138178446","","","null","","","","","<p><img src= images/blank.png width =""200"" height = ""200"" style = ""float:right""></p><p><img src=images/blank.png width =""800"" height = ""200""></p>","","","","","","","","","","","",""
"","6444.625000000058","sequential-stimulus-presentation","135","284579","0.0-29.0-1.0","SS1613138178446","trial","","40","800","7244.625000000058","images/stimuli/spore_stims/complex_11_A_d.gif","images/stimuli/spore_stims/complex_11_B_d.gif","","","","","7","complex_similar","images/stimuli/spore_stims/complex_11_B_d.gif","left","","","","",""
"","null","html-keyboard-response","136","285717","0.0-29.0-0.1","SS1613138178446","","","null","","","","","<p><img src= images/blank.png width =""200"" height = ""200"" style = ""float:right""></p><p><img src=images/blank.png width =""800"" height = ""200""></p>","","","","","","","","","","","",""
"","154.4800000010291","sequential-stimulus-presentation","137","286676","0.0-29.0-1.1","SS1613138178446","trial","","40","800","954.4800000010291","images/stimuli/spore_stims/complex_11_A_d.gif","images/stimuli/spore_stims/complex_11_B_d.gif","","","","","7","complex_similar","images/stimuli/spore_stims/complex_11_B_d.gif","left","","","","",""
"","null","html-keyboard-response","138","287783","0.0-29.0-0.2","SS1613138178446","","","null","","","","","<p><img src= images/blank.png width =""200"" height = ""200"" style = ""float:right""></p><p><img src=images/blank.png width =""800"" height = ""200""></p>","","","","","","","","","","","",""
"","159.28499999793712","sequential-stimulus-presentation","139","288747","0.0-29.0-1.2","SS1613138178446","trial","","40","800","959.2849999979371","images/stimuli/spore_stims/complex_11_A_d.gif","images/stimuli/spore_stims/complex_11_B_d.gif","","","","","7","complex_similar","images/stimuli/spore_stims/complex_11_B_d.gif","left","","","","",""
"","null","html-keyboard-response","140","289955","0.0-29.0-0.3","SS1613138178446","","","null","","","","","<p><img src= images/blank.png width =""200"" height = ""200"" style = ""float:right""></p><p><img src=images/blank.png width =""800"" height = ""200""></p>","","","","","","","","","","","",""
"","64.58500000007916","sequential-stimulus-presentation","141","290828","0.0-29.0-1.3","SS1613138178446","trial","","40","800","864.5850000000792","images/stimuli/spore_stims/complex_11_A_d.gif","images/stimuli/spore_stims/complex_11_B_d.gif","","","","","7","complex_similar","images/stimuli/spore_stims/complex_11_B_d.gif","left","","","","",""
"","null","html-keyboard-response","142","292097","0.0-29.0-0.4","SS1613138178446","","","null","","","","","<p><img src= images/blank.png width =""200"" height = ""200"" style = ""float:right""></p><p><img src=images/blank.png width =""800"" height = ""200""></p>","","","","","","","","","","","",""
"","213.36499999958323","sequential-stimulus-presentation","143","293115","0.0-29.0-1.4","SS1613138178446","trial","","40","800","1013.3649999995832","images/stimuli/spore_stims/complex_11_A_d.gif","images/stimuli/spore_stims/complex_11_B_d.gif","","","","","7","complex_similar","images/stimuli/spore_stims/complex_11_B_d.gif","left","","","","",""
"","null","html-keyboard-response","144","294391","0.0-29.0-0.5","SS1613138178446","","","null","","","","","<p><img src= images/blank.png width =""200"" height = ""200"" style = ""float:right""></p><p><img src=images/blank.png width =""800"" height = ""200""></p>","","","","","","","","","","","",""
"","4647.080000002461","sequential-stimulus-presentation","145","299843","0.0-29.0-1.5","SS1613138178446","trial","","40","800","5447.080000002461","images/stimuli/spore_stims/complex_11_A_d.gif","images/stimuli/spore_stims/complex_11_B_d.gif","","","","","7","complex_similar","images/stimuli/spore_stims/complex_11_A_d.gif","middle","","","","",""
"","null","html-keyboard-response","146","300763","0.0-29.0-0.6","SS1613138178446","","","null","","","","","<p><img src= images/blank.png width =""200"" height = ""200"" style = ""float:right""></p><p><img src=images/blank.png width =""800"" height = ""200""></p>","","","","","","","","","","","",""
"","18.849999996775296","sequential-stimulus-presentation","147","301587","0.0-29.0-1.6","SS1613138178446","trial","","40","800","818.8499999967753","images/stimuli/spore_stims/complex_11_A_d.gif","images/stimuli/spore_stims/complex_11_B_d.gif","","","","","7","complex_similar","images/stimuli/spore_stims/complex_11_B_d.gif","left","","","","",""
"","null","html-keyboard-response","148","302887","0.0-29.0-0.7","SS1613138178446","","","null","","","","","<p><img src= images/blank.png width =""200"" height = ""200"" style = ""float:right""></p><p><img src=images/blank.png width =""800"" height = ""200""></p>","","","","","","","","","","","",""
"","111.80999999854248","sequential-stimulus-presentation","149","303802","0.0-29.0-1.7","SS1613138178446","trial","","40","800","911.8099999985425","images/stimuli/spore_stims/complex_11_A_d.gif","images/stimuli/spore_stims/complex_11_B_d.gif","","","","","7","complex_similar","images/stimuli/spore_stims/complex_11_B_d.gif","left","","","","",""
"","1241.135000000184","html-keyboard-response","150","305051","0.0-30.0","SS1613138178446","pref_question","","51","","","","","<video width ='960' height = '540' style='padding-top:8%' autoplay muted><source src='images/stimuli/wall_pref.mp4' type='video/mp4'></video>","3","right","66%","7","","","","","","","",""
"","3723.900000000838","sequential-stimulus-presentation","151","309579","0.0-31.0","SS1613138178446","pref_reveal","","40","800","4523.900000000838","null","null","","","","","7","","","","novel","","","",""
"","null","html-keyboard-response","152","310626","0.0-32.0-0.0","SS1613138178446","","","null","","","","","<p><img src= images/blank.png width =""200"" height = ""200"" style = ""float:right""></p><p><img src=images/blank.png width =""800"" height = ""200""></p>","","","","","","","","","","","",""
"","316.43500000063796","sequential-stimulus-presentation","153","311748","0.0-32.0-1.0","SS1613138178446","trial","","40","800","1116.435000000638","images/stimuli/spore_stims/complex_20_B_b.gif","images/stimuli/spore_stims/complex_20_A_b.gif","","","","","8","complex_similar","images/stimuli/spore_stims/complex_20_A_b.gif","middle","","","","",""
"","null","html-keyboard-response","154","312616","0.0-32.0-0.1","SS1613138178446","","","null","","","","","<p><img src= images/blank.png width =""200"" height = ""200"" style = ""float:right""></p><p><img src=images/blank.png width =""800"" height = ""200""></p>","","","","","","","","","","","",""
"","1774.4449999991339","sequential-stimulus-presentation","155","315194","0.0-32.0-1.1","SS1613138178446","trial","","40","800","2574.444999999134","images/stimuli/spore_stims/complex_20_B_b.gif","images/stimuli/spore_stims/complex_20_A_b.gif","","","","","8","complex_similar","images/stimuli/spore_stims/complex_20_A_b.gif","middle","","","","",""
"","null","html-keyboard-response","156","316109","0.0-32.0-0.2","SS1613138178446","","","null","","","","","<p><img src= images/blank.png width =""200"" height = ""200"" style = ""float:right""></p><p><img src=images/blank.png width =""800"" height = ""200""></p>","","","","","","","","","","","",""
"","1559.2600000018138","sequential-stimulus-presentation","157","318475","0.0-32.0-1.2","SS1613138178446","trial","","40","800","2359.2600000018138","images/stimuli/spore_stims/complex_20_B_b.gif","images/stimuli/spore_stims/complex_20_A_b.gif","","","","","8","complex_similar","images/stimuli/spore_stims/complex_20_B_b.gif","left","","","","",""
"","null","html-keyboard-response","158","319373","0.0-32.0-0.3","SS1613138178446","","","null","","","","","<p><img src= images/blank.png width =""200"" height = ""200"" style = ""float:right""></p><p><img src=images/blank.png width =""800"" height = ""200""></p>","","","","","","","","","","","",""
"","538.7699999992037","sequential-stimulus-presentation","159","320716","0.0-32.0-1.3","SS1613138178446","trial","","40","800","1338.7699999992037","images/stimuli/spore_stims/complex_20_B_b.gif","images/stimuli/spore_stims/complex_20_A_b.gif","","","","","8","complex_similar","images/stimuli/spore_stims/complex_20_A_b.gif","middle","","","","",""
"","null","html-keyboard-response","160","321592","0.0-32.0-0.4","SS1613138178446","","","null","","","","","<p><img src= images/blank.png width =""200"" height = ""200"" style = ""float:right""></p><p><img src=images/blank.png width =""800"" height = ""200""></p>","","","","","","","","","","","",""
"","534.5149999994319","sequential-stimulus-presentation","161","322932","0.0-32.0-1.4","SS1613138178446","trial","","40","800","1334.514999999432","images/stimuli/spore_stims/complex_20_B_b.gif","images/stimuli/spore_stims/complex_20_A_b.gif","","","","","8","complex_similar","images/stimuli/spore_stims/complex_20_A_b.gif","middle","","","","",""
"","null","html-keyboard-response","162","324153","0.0-32.0-0.5","SS1613138178446","","","null","","","","","<p><img src= images/blank.png width =""200"" height = ""200"" style = ""float:right""></p><p><img src=images/blank.png width =""800"" height = ""200""></p>","","","","","","","","","","","",""
"","565.4549999999581","sequential-stimulus-presentation","163","325523","0.0-32.0-1.5","SS1613138178446","trial","","40","800","1365.454999999958","images/stimuli/spore_stims/complex_20_B_b.gif","images/stimuli/spore_stims/complex_20_A_b.gif","","","","","8","complex_similar","images/stimuli/spore_stims/complex_20_A_b.gif","middle","","","","",""
"","null","html-keyboard-response","164","326822","0.0-32.0-0.6","SS1613138178446","","","null","","","","","<p><img src= images/blank.png width =""200"" height = ""200"" style = ""float:right""></p><p><img src=images/blank.png width =""800"" height = ""200""></p>","","","","","","","","","","","",""
"","432.05500000109896","sequential-stimulus-presentation","165","328060","0.0-32.0-1.6","SS1613138178446","trial","","40","800","1232.055000001099","images/stimuli/spore_stims/complex_20_B_b.gif","images/stimuli/spore_stims/complex_20_A_b.gif","","","","","8","complex_similar","images/stimuli/spore_stims/complex_20_A_b.gif","middle","","","","",""
"","null","html-keyboard-response","166","329273","0.0-32.0-0.7","SS1613138178446","","","null","","","","","<p><img src= images/blank.png width =""200"" height = ""200"" style = ""float:right""></p><p><img src=images/blank.png width =""800"" height = ""200""></p>","","","","","","","","","","","",""
"","301.64499999955297","sequential-stimulus-presentation","167","330380","0.0-32.0-1.7","SS1613138178446","trial","","40","800","1101.644999999553","images/stimuli/spore_stims/complex_20_B_b.gif","images/stimuli/spore_stims/complex_20_A_b.gif","","","","","8","complex_similar","images/stimuli/spore_stims/complex_20_A_b.gif","middle","","","","",""
"","833.1350000008242","html-keyboard-response","168","331219","0.0-33.0","SS1613138178446","pref_question","","51","","","","","<video width ='960' height = '540' style='padding-top:8%' autoplay muted><source src='images/stimuli/wall_pref.mp4' type='video/mp4'></video>","3","right","66%","8","","","","","","","",""
"","1354.8800000025658","sequential-stimulus-presentation","169","333379","0.0-34.0","SS1613138178446","pref_reveal","","40","800","2154.880000002566","null","null","","","","","8","","","","novel","","","",""
"","null","html-keyboard-response","170","334321","0.0-35.0-0.0","SS1613138178446","","","null","","","","","<p><img src= images/blank.png width =""200"" height = ""200"" style = ""float:right""></p><p><img src=images/blank.png width =""800"" height = ""200""></p>","","","","","","","","","","","",""
"","445.25500000233296","sequential-stimulus-presentation","171","335571","0.0-35.0-1.0","SS1613138178446","trial","","40","800","1245.255000002333","images/stimuli/spore_stims/simple_08_B_b.gif","images/stimuli/spore_stims/simple_08_A_b.gif","","","","","9","simple_similar","images/stimuli/spore_stims/simple_08_A_b.gif","middle","","","","",""
"","null","html-keyboard-response","172","336496","0.0-35.0-0.1","SS1613138178446","","","null","","","","","<p><img src= images/blank.png width =""200"" height = ""200"" style = ""float:right""></p><p><img src=images/blank.png width =""800"" height = ""200""></p>","","","","","","","","","","","",""
"","4039.2849999989267","sequential-stimulus-presentation","173","341339","0.0-35.0-1.1","SS1613138178446","trial","","40","800","4839.284999998927","images/stimuli/spore_stims/simple_08_B_b.gif","images/stimuli/spore_stims/simple_08_A_b.gif","","","","","9","simple_similar","images/stimuli/spore_stims/simple_08_A_b.gif","middle","","","","",""
"","null","html-keyboard-response","174","342416","0.0-35.0-0.2","SS1613138178446","","","null","","","","","<p><img src= images/blank.png width =""200"" height = ""200"" style = ""float:right""></p><p><img src=images/blank.png width =""800"" height = ""200""></p>","","","","","","","","","","","",""
"","566.8949999999022","sequential-stimulus-presentation","175","343788","0.0-35.0-1.2","SS1613138178446","trial","","40","800","1366.8949999999022","images/stimuli/spore_stims/simple_08_B_b.gif","images/stimuli/spore_stims/simple_08_A_b.gif","","","","","9","simple_similar","images/stimuli/spore_stims/simple_08_A_b.gif","middle","","","","",""
"","null","html-keyboard-response","176","345049","0.0-35.0-0.3","SS1613138178446","","","null","","","","","<p><img src= images/blank.png width =""200"" height = ""200"" style = ""float:right""></p><p><img src=images/blank.png width =""800"" height = ""200""></p>","","","","","","","","","","","",""
"","358.1049999993411","sequential-stimulus-presentation","177","346212","0.0-35.0-1.3","SS1613138178446","trial","","40","800","1158.104999999341","images/stimuli/spore_stims/simple_08_B_b.gif","images/stimuli/spore_stims/simple_08_A_b.gif","","","","","9","simple_similar","images/stimuli/spore_stims/simple_08_A_b.gif","middle","","","","",""
"","null","html-keyboard-response","178","347232","0.0-35.0-0.4","SS1613138178446","","","null","","","","","<p><img src= images/blank.png width =""200"" height = ""200"" style = ""float:right""></p><p><img src=images/blank.png width =""800"" height = ""200""></p>","","","","","","","","","","","",""
"","438.09499999770196","sequential-stimulus-presentation","179","348475","0.0-35.0-1.4","SS1613138178446","trial","","40","800","1238.094999997702","images/stimuli/spore_stims/simple_08_B_b.gif","images/stimuli/spore_stims/simple_08_A_b.gif","","","","","9","simple_similar","images/stimuli/spore_stims/simple_08_A_b.gif","middle","","","","",""
"","null","html-keyboard-response","180","349437","0.0-35.0-0.5","SS1613138178446","","","null","","","","","<p><img src= images/blank.png width =""200"" height = ""200"" style = ""float:right""></p><p><img src=images/blank.png width =""800"" height = ""200""></p>","","","","","","","","","","","",""
"","400.86499999958323","sequential-stimulus-presentation","181","350643","0.0-35.0-1.5","SS1613138178446","trial","","40","800","1200.8649999995832","images/stimuli/spore_stims/simple_08_B_b.gif","images/stimuli/spore_stims/simple_08_A_b.gif","","","","","9","simple_similar","images/stimuli/spore_stims/simple_08_A_b.gif","middle","","","","",""
"","null","html-keyboard-response","182","351881","0.0-35.0-0.6","SS1613138178446","","","null","","","","","<p><img src= images/blank.png width =""200"" height = ""200"" style = ""float:right""></p><p><img src=images/blank.png width =""800"" height = ""200""></p>","","","","","","","","","","","",""
"","4270.370000001974","sequential-stimulus-presentation","183","356956","0.0-35.0-1.6","SS1613138178446","trial","","40","800","5070.370000001974","images/stimuli/spore_stims/simple_08_B_b.gif","images/stimuli/spore_stims/simple_08_A_b.gif","","","","","9","simple_similar","images/stimuli/spore_stims/simple_08_B_b.gif","right","","","","",""
"","null","html-keyboard-response","184","357846","0.0-35.0-0.7","SS1613138178446","","","null","","","","","<p><img src= images/blank.png width =""200"" height = ""200"" style = ""float:right""></p><p><img src=images/blank.png width =""800"" height = ""200""></p>","","","","","","","","","","","",""
"","335.5699999993085","sequential-stimulus-presentation","185","358988","0.0-35.0-1.7","SS1613138178446","trial","","40","800","1135.5699999993085","images/stimuli/spore_stims/simple_08_B_b.gif","images/stimuli/spore_stims/simple_08_A_b.gif","","","","","9","simple_similar","images/stimuli/spore_stims/simple_08_A_b.gif","middle","","","","",""
"","1111.3599999989965","html-keyboard-response","186","360108","0.0-36.0","SS1613138178446","pref_question","","49","","","","","<video width ='960' height = '540' style='padding-top:8%' autoplay muted><source src='images/stimuli/wall_pref.mp4' type='video/mp4'></video>","1","left","25%","9","","","","","","","",""
"","1035.0199999993201","sequential-stimulus-presentation","187","361947","0.0-37.0","SS1613138178446","pref_reveal","","40","800","1835.0199999993201","null","null","","","","","9","","","","novel","","","",""
"","null","html-keyboard-response","188","363208","0.0-38.0-0.0","SS1613138178446","","","null","","","","","<p><img src= images/blank.png width =""200"" height = ""200"" style = ""float:right""></p><p><img src=images/blank.png width =""800"" height = ""200""></p>","","","","","","","","","","","",""
"","1125.674999999348","sequential-stimulus-presentation","189","365139","0.0-38.0-1.0","SS1613138178446","trial","","40","800","1925.674999999348","images/stimuli/spore_stims/complex_18_B_d.gif","images/stimuli/spore_stims/complex_18_A_d.gif","","","","","10","complex_similar","images/stimuli/spore_stims/complex_18_A_d.gif","middle","","","","",""
"","null","html-keyboard-response","190","365978","0.0-38.0-0.1","SS1613138178446","","","null","","","","","<p><img src= images/blank.png width =""200"" height = ""200"" style = ""float:right""></p><p><img src=images/blank.png width =""800"" height = ""200""></p>","","","","","","","","","","","",""
"","564.7300000019022","sequential-stimulus-presentation","191","367348","0.0-38.0-1.1","SS1613138178446","trial","","40","800","1364.7300000019022","images/stimuli/spore_stims/complex_18_B_d.gif","images/stimuli/spore_stims/complex_18_A_d.gif","","","","","10","complex_similar","images/stimuli/spore_stims/complex_18_A_d.gif","middle","","","","",""
"","null","html-keyboard-response","192","368508","0.0-38.0-0.2","SS1613138178446","","","null","","","","","<p><img src= images/blank.png width =""200"" height = ""200"" style = ""float:right""></p><p><img src=images/blank.png width =""800"" height = ""200""></p>","","","","","","","","","","","",""
"","475.24499999778345","sequential-stimulus-presentation","193","369788","0.0-38.0-1.2","SS1613138178446","trial","","40","800","1275.2449999977835","images/stimuli/spore_stims/complex_18_B_d.gif","images/stimuli/spore_stims/complex_18_A_d.gif","","","","","10","complex_similar","images/stimuli/spore_stims/complex_18_A_d.gif","middle","","","","",""
"","null","html-keyboard-response","194","370905","0.0-38.0-0.3","SS1613138178446","","","null","","","","","<p><img src= images/blank.png width =""200"" height = ""200"" style = ""float:right""></p><p><img src=images/blank.png width =""800"" height = ""200""></p>","","","","","","","","","","","",""
"","253.77999999909662","sequential-stimulus-presentation","195","371963","0.0-38.0-1.3","SS1613138178446","trial","","40","800","1053.7799999990966","images/stimuli/spore_stims/complex_18_B_d.gif","images/stimuli/spore_stims/complex_18_A_d.gif","","","","","10","complex_similar","images/stimuli/spore_stims/complex_18_A_d.gif","middle","","","","",""
"","null","html-keyboard-response","196","373015","0.0-38.0-0.4","SS1613138178446","","","null","","","","","<p><img src= images/blank.png width =""200"" height = ""200"" style = ""float:right""></p><p><img src=images/blank.png width =""800"" height = ""200""></p>","","","","","","","","","","","",""
"","454.7099999981583","sequential-stimulus-presentation","197","374275","0.0-38.0-1.4","SS1613138178446","trial","","40","800","1254.7099999981583","images/stimuli/spore_stims/complex_18_B_d.gif","images/stimuli/spore_stims/complex_18_A_d.gif","","","","","10","complex_similar","images/stimuli/spore_stims/complex_18_A_d.gif","middle","","","","",""
"","null","html-keyboard-response","198","375315","0.0-38.0-0.5","SS1613138178446","","","null","","","","","<p><img src= images/blank.png width =""200"" height = ""200"" style = ""float:right""></p><p><img src=images/blank.png width =""800"" height = ""200""></p>","","","","","","","","","","","",""
"","377.7750000008382","sequential-stimulus-presentation","199","376499","0.0-38.0-1.5","SS1613138178446","trial","","40","800","1177.7750000008382","images/stimuli/spore_stims/complex_18_B_d.gif","images/stimuli/spore_stims/complex_18_A_d.gif","","","","","10","complex_similar","images/stimuli/spore_stims/complex_18_A_d.gif","middle","","","","",""
"","null","html-keyboard-response","200","377615","0.0-38.0-0.6","SS1613138178446","","","null","","","","","<p><img src= images/blank.png width =""200"" height = ""200"" style = ""float:right""></p><p><img src=images/blank.png width =""800"" height = ""200""></p>","","","","","","","","","","","",""
"","447.8500000005006","sequential-stimulus-presentation","201","378867","0.0-38.0-1.6","SS1613138178446","trial","","40","800","1247.8500000005006","images/stimuli/spore_stims/complex_18_B_d.gif","images/stimuli/spore_stims/complex_18_A_d.gif","","","","","10","complex_similar","images/stimuli/spore_stims/complex_18_A_d.gif","middle","","","","",""
"","null","html-keyboard-response","202","379964","0.0-38.0-0.7","SS1613138178446","","","null","","","","","<p><img src= images/blank.png width =""200"" height = ""200"" style = ""float:right""></p><p><img src=images/blank.png width =""800"" height = ""200""></p>","","","","","","","","","","","",""
"","3536.544999998994","sequential-stimulus-presentation","203","384307","0.0-38.0-1.7","SS1613138178446","trial","","40","800","4336.544999998994","images/stimuli/spore_stims/complex_18_B_d.gif","images/stimuli/spore_stims/complex_18_A_d.gif","","","","","10","complex_similar","images/stimuli/spore_stims/complex_18_B_d.gif","right","","","","",""
"","796.6999999989057","html-keyboard-response","204","385107","0.0-39.0","SS1613138178446","pref_question","","49","","","","","<video width ='960' height = '540' style='padding-top:8%' autoplay muted><source src='images/stimuli/wall_pref.mp4' type='video/mp4'></video>","1","left","25%","10","","","","","","","",""
"","1894.3949999993783","sequential-stimulus-presentation","205","387812","0.0-40.0","SS1613138178446","pref_reveal","","40","800","2694.3949999993783","null","null","","","","","10","","","","novel","","","",""
"","null","html-keyboard-response","206","388981","0.0-41.0-0.0","SS1613138178446","","","null","","","","","<p><img src= images/blank.png width =""200"" height = ""200"" style = ""float:right""></p><p><img src=images/blank.png width =""800"" height = ""200""></p>","","","","","","","","","","","",""
"","3345.600000000559","sequential-stimulus-presentation","207","393131","0.0-41.0-1.0","SS1613138178446","trial","","40","800","4145.600000000559","images/stimuli/spore_stims/complex_02_B_b.gif","images/stimuli/spore_stims/complex_04_B_c.gif","","","","","11","complex_dissimilar","images/stimuli/spore_stims/complex_04_B_c.gif","left","","","","",""
"","null","html-keyboard-response","208","394219","0.0-41.0-0.1","SS1613138178446","","","null","","","","","<p><img src= images/blank.png width =""200"" height = ""200"" style = ""float:right""></p><p><img src=images/blank.png width =""800"" height = ""200""></p>","","","","","","","","","","","",""
"","196.3099999993574","sequential-stimulus-presentation","209","395221","0.0-41.0-1.1","SS1613138178446","trial","","40","800","996.3099999993574","images/stimuli/spore_stims/complex_02_B_b.gif","images/stimuli/spore_stims/complex_04_B_c.gif","","","","","11","complex_dissimilar","images/stimuli/spore_stims/complex_04_B_c.gif","left","","","","",""
"","null","html-keyboard-response","210","396242","0.0-41.0-0.2","SS1613138178446","","","null","","","","","<p><img src= images/blank.png width =""200"" height = ""200"" style = ""float:right""></p><p><img src=images/blank.png width =""800"" height = ""200""></p>","","","","","","","","","","","",""
"","180.91500000085216","sequential-stimulus-presentation","211","397228","0.0-41.0-1.2","SS1613138178446","trial","","40","800","980.9150000008522","images/stimuli/spore_stims/complex_02_B_b.gif","images/stimuli/spore_stims/complex_04_B_c.gif","","","","","11","complex_dissimilar","images/stimuli/spore_stims/complex_04_B_c.gif","left","","","","",""
"","null","html-keyboard-response","212","398384","0.0-41.0-0.3","SS1613138178446","","","null","","","","","<p><img src= images/blank.png width =""200"" height = ""200"" style = ""float:right""></p><p><img src=images/blank.png width =""800"" height = ""200""></p>","","","","","","","","","","","",""
"","415.2649999996065","sequential-stimulus-presentation","213","399603","0.0-41.0-1.3","SS1613138178446","trial","","40","800","1215.2649999996065","images/stimuli/spore_stims/complex_02_B_b.gif","images/stimuli/spore_stims/complex_04_B_c.gif","","","","","11","complex_dissimilar","images/stimuli/spore_stims/complex_04_B_c.gif","left","","","","",""
"","null","html-keyboard-response","214","400505","0.0-41.0-0.4","SS1613138178446","","","null","","","","","<p><img src= images/blank.png width =""200"" height = ""200"" style = ""float:right""></p><p><img src=images/blank.png width =""800"" height = ""200""></p>","","","","","","","","","","","",""
"","383.5300000028219","sequential-stimulus-presentation","215","401692","0.0-41.0-1.4","SS1613138178446","trial","","40","800","1183.530000002822","images/stimuli/spore_stims/complex_02_B_b.gif","images/stimuli/spore_stims/complex_04_B_c.gif","","","","","11","complex_dissimilar","images/stimuli/spore_stims/complex_04_B_c.gif","left","","","","",""
"","null","html-keyboard-response","216","402542","0.0-41.0-0.5","SS1613138178446","","","null","","","","","<p><img src= images/blank.png width =""200"" height = ""200"" style = ""float:right""></p><p><img src=images/blank.png width =""800"" height = ""200""></p>","","","","","","","","","","","",""
"","439.6599999999744","sequential-stimulus-presentation","217","403787","0.0-41.0-1.5","SS1613138178446","trial","","40","800","1239.6599999999744","images/stimuli/spore_stims/complex_02_B_b.gif","images/stimuli/spore_stims/complex_04_B_c.gif","","","","","11","complex_dissimilar","images/stimuli/spore_stims/complex_04_B_c.gif","left","","","","",""
"","null","html-keyboard-response","218","404773","0.0-41.0-0.6","SS1613138178446","","","null","","","","","<p><img src= images/blank.png width =""200"" height = ""200"" style = ""float:right""></p><p><img src=images/blank.png width =""800"" height = ""200""></p>","","","","","","","","","","","",""
"","4520.530000001541","sequential-stimulus-presentation","219","410099","0.0-41.0-1.6","SS1613138178446","trial","","40","800","5320.530000001541","images/stimuli/spore_stims/complex_02_B_b.gif","images/stimuli/spore_stims/complex_04_B_c.gif","","","","","11","complex_dissimilar","images/stimuli/spore_stims/complex_02_B_b.gif","middle","","","","",""
"","null","html-keyboard-response","220","411080","0.0-41.0-0.7","SS1613138178446","","","null","","","","","<p><img src= images/blank.png width =""200"" height = ""200"" style = ""float:right""></p><p><img src=images/blank.png width =""800"" height = ""200""></p>","","","","","","","","","","","",""
"","533.980000000156","sequential-stimulus-presentation","221","412419","0.0-41.0-1.7","SS1613138178446","trial","","40","800","1333.980000000156","images/stimuli/spore_stims/complex_02_B_b.gif","images/stimuli/spore_stims/complex_04_B_c.gif","","","","","11","complex_dissimilar","images/stimuli/spore_stims/complex_04_B_c.gif","left","","","","",""
"","719.8949999983888","html-keyboard-response","222","413148","0.0-42.0","SS1613138178446","pref_question","","51","","","","","<video width ='960' height = '540' style='padding-top:8%' autoplay muted><source src='images/stimuli/wall_pref.mp4' type='video/mp4'></video>","3","right","66%","11","","","","","","","",""
"","3161.915000000561","sequential-stimulus-presentation","223","417116","0.0-43.0","SS1613138178446","pref_reveal","","40","800","3961.915000000561","null","null","","","","","11","","","","novel","","","",""
"","null","html-keyboard-response","224","418414","0.0-44.0-0.0","SS1613138178446","","","null","","","","","<p><img src= images/blank.png width =""200"" height = ""200"" style = ""float:right""></p><p><img src=images/blank.png width =""800"" height = ""200""></p>","","","","","","","","","","","",""
"","3624.3500000018976","sequential-stimulus-presentation","225","422844","0.0-44.0-1.0","SS1613138178446","trial","","40","800","4424.350000001898","images/stimuli/spore_stims/complex_03_A_c.gif","images/stimuli/spore_stims/complex_12_B_c.gif","","","","","12","complex_dissimilar","images/stimuli/spore_stims/complex_12_B_c.gif","right","","","","",""
"","null","html-keyboard-response","226","423801","0.0-44.0-0.1","SS1613138178446","","","null","","","","","<p><img src= images/blank.png width =""200"" height = ""200"" style = ""float:right""></p><p><img src=images/blank.png width =""800"" height = ""200""></p>","","","","","","","","","","","",""
"","1557.170000000042","sequential-stimulus-presentation","227","426164","0.0-44.0-1.1","SS1613138178446","trial","","40","800","2357.170000000042","images/stimuli/spore_stims/complex_03_A_c.gif","images/stimuli/spore_stims/complex_12_B_c.gif","","","","","12","complex_dissimilar","images/stimuli/spore_stims/complex_12_B_c.gif","right","","","","",""
"","null","html-keyboard-response","228","427068","0.0-44.0-0.2","SS1613138178446","","","null","","","","","<p><img src= images/blank.png width =""200"" height = ""200"" style = ""float:right""></p><p><img src=images/blank.png width =""800"" height = ""200""></p>","","","","","","","","","","","",""
"","785.4800000022515","sequential-stimulus-presentation","229","428660","0.0-44.0-1.2","SS1613138178446","trial","","40","800","1585.4800000022515","images/stimuli/spore_stims/complex_03_A_c.gif","images/stimuli/spore_stims/complex_12_B_c.gif","","","","","12","complex_dissimilar","images/stimuli/spore_stims/complex_12_B_c.gif","right","","","","",""
"","null","html-keyboard-response","230","429599","0.0-44.0-0.3","SS1613138178446","","","null","","","","","<p><img src= images/blank.png width =""200"" height = ""200"" style = ""float:right""></p><p><img src=images/blank.png width =""800"" height = ""200""></p>","","","","","","","","","","","",""
"","1910.2549999988987","sequential-stimulus-presentation","231","432315","0.0-44.0-1.3","SS1613138178446","trial","","40","800","2710.2549999988987","images/stimuli/spore_stims/complex_03_A_c.gif","images/stimuli/spore_stims/complex_12_B_c.gif","","","","","12","complex_dissimilar","images/stimuli/spore_stims/complex_03_A_c.gif","middle","","","","",""
"","null","html-keyboard-response","232","433340","0.0-44.0-0.4","SS1613138178446","","","null","","","","","<p><img src= images/blank.png width =""200"" height = ""200"" style = ""float:right""></p><p><img src=images/blank.png width =""800"" height = ""200""></p>","","","","","","","","","","","",""
"","1026.1500000014785","sequential-stimulus-presentation","233","435172","0.0-44.0-1.4","SS1613138178446","trial","","40","800","1826.1500000014785","images/stimuli/spore_stims/complex_03_A_c.gif","images/stimuli/spore_stims/complex_12_B_c.gif","","","","","12","complex_dissimilar","images/stimuli/spore_stims/complex_12_B_c.gif","right","","","","",""
"","null","html-keyboard-response","234","436369","0.0-44.0-0.5","SS1613138178446","","","null","","","","","<p><img src= images/blank.png width =""200"" height = ""200"" style = ""float:right""></p><p><img src=images/blank.png width =""800"" height = ""200""></p>","","","","","","","","","","","",""
"","460.9149999996298","sequential-stimulus-presentation","235","437636","0.0-44.0-1.5","SS1613138178446","trial","","40","800","1260.9149999996298","images/stimuli/spore_stims/complex_03_A_c.gif","images/stimuli/spore_stims/complex_12_B_c.gif","","","","","12","complex_dissimilar","images/stimuli/spore_stims/complex_12_B_c.gif","right","","","","",""
"","null","html-keyboard-response","236","438459","0.0-44.0-0.6","SS1613138178446","","","null","","","","","<p><img src= images/blank.png width =""200"" height = ""200"" style = ""float:right""></p><p><img src=images/blank.png width =""800"" height = ""200""></p>","","","","","","","","","","","",""
"","514.3850000022212","sequential-stimulus-presentation","237","439780","0.0-44.0-1.6","SS1613138178446","trial","","40","800","1314.3850000022212","images/stimuli/spore_stims/complex_03_A_c.gif","images/stimuli/spore_stims/complex_12_B_c.gif","","","","","12","complex_dissimilar","images/stimuli/spore_stims/complex_12_B_c.gif","right","","","","",""
"","null","html-keyboard-response","238","440971","0.0-44.0-0.7","SS1613138178446","","","null","","","","","<p><img src= images/blank.png width =""200"" height = ""200"" style = ""float:right""></p><p><img src=images/blank.png width =""800"" height = ""200""></p>","","","","","","","","","","","",""
"","299.81000000046333","sequential-stimulus-presentation","239","442076","0.0-44.0-1.7","SS1613138178446","trial","","40","800","1099.8100000004633","images/stimuli/spore_stims/complex_03_A_c.gif","images/stimuli/spore_stims/complex_12_B_c.gif","","","","","12","complex_dissimilar","images/stimuli/spore_stims/complex_12_B_c.gif","right","","","","",""
"","692.2249999988708","html-keyboard-response","240","442772","0.0-45.0","SS1613138178446","pref_question","","51","","","","","<video width ='960' height = '540' style='padding-top:8%' autoplay muted><source src='images/stimuli/wall_pref.mp4' type='video/mp4'></video>","3","right","66%","12","","","","","","","",""
"","2082.620000001043","sequential-stimulus-presentation","241","445660","0.0-46.0","SS1613138178446","pref_reveal","","40","800","2882.620000001043","null","null","","","","","12","","","","background","","","",""
"","null","html-keyboard-response","242","446695","0.0-47.0-0.0","SS1613138178446","","","null","","","","","<p><img src= images/blank.png width =""200"" height = ""200"" style = ""float:right""></p><p><img src=images/blank.png width =""800"" height = ""200""></p>","","","","","","","","","","","",""
"","1375.0450000006822","sequential-stimulus-presentation","243","448876","0.0-47.0-1.0","SS1613138178446","trial","","40","800","2175.045000000682","images/stimuli/spore_stims/simple_05_A_b.gif","images/stimuli/spore_stims/simple_02_A_d.gif","","","","","13","simple_dissimilar","images/stimuli/spore_stims/simple_02_A_d.gif","middle","","","","",""
"","null","html-keyboard-response","244","449711","0.0-47.0-0.1","SS1613138178446","","","null","","","","","<p><img src= images/blank.png width =""200"" height = ""200"" style = ""float:right""></p><p><img src=images/blank.png width =""800"" height = ""200""></p>","","","","","","","","","","","",""
"","398.31000000052154","sequential-stimulus-presentation","245","450916","0.0-47.0-1.1","SS1613138178446","trial","","40","800","1198.3100000005215","images/stimuli/spore_stims/simple_05_A_b.gif","images/stimuli/spore_stims/simple_02_A_d.gif","","","","","13","simple_dissimilar","images/stimuli/spore_stims/simple_02_A_d.gif","middle","","","","",""
"","null","html-keyboard-response","246","452198","0.0-47.0-0.2","SS1613138178446","","","null","","","","","<p><img src= images/blank.png width =""200"" height = ""200"" style = ""float:right""></p><p><img src=images/blank.png width =""800"" height = ""200""></p>","","","","","","","","","","","",""
"","48.29500000050757","sequential-stimulus-presentation","247","453052","0.0-47.0-1.2","SS1613138178446","trial","","40","800","848.2950000005076","images/stimuli/spore_stims/simple_05_A_b.gif","images/stimuli/spore_stims/simple_02_A_d.gif","","","","","13","simple_dissimilar","images/stimuli/spore_stims/simple_02_A_d.gif","middle","","","","",""
"","null","html-keyboard-response","248","453878","0.0-47.0-0.3","SS1613138178446","","","null","","","","","<p><img src= images/blank.png width =""200"" height = ""200"" style = ""float:right""></p><p><img src=images/blank.png width =""800"" height = ""200""></p>","","","","","","","","","","","",""
"","238.61000000033528","sequential-stimulus-presentation","249","454924","0.0-47.0-1.3","SS1613138178446","trial","","40","800","1038.6100000003353","images/stimuli/spore_stims/simple_05_A_b.gif","images/stimuli/spore_stims/simple_02_A_d.gif","","","","","13","simple_dissimilar","images/stimuli/spore_stims/simple_02_A_d.gif","middle","","","","",""
"","null","html-keyboard-response","250","456016","0.0-47.0-0.4","SS1613138178446","","","null","","","","","<p><img src= images/blank.png width =""200"" height = ""200"" style = ""float:right""></p><p><img src=images/blank.png width =""800"" height = ""200""></p>","","","","","","","","","","","",""
"","245.0250000001397","sequential-stimulus-presentation","251","457067","0.0-47.0-1.4","SS1613138178446","trial","","40","800","1045.0250000001397","images/stimuli/spore_stims/simple_05_A_b.gif","images/stimuli/spore_stims/simple_02_A_d.gif","","","","","13","simple_dissimilar","images/stimuli/spore_stims/simple_02_A_d.gif","middle","","","","",""
"","null","html-keyboard-response","252","458065","0.0-47.0-0.5","SS1613138178446","","","null","","","","","<p><img src= images/blank.png width =""200"" height = ""200"" style = ""float:right""></p><p><img src=images/blank.png width =""800"" height = ""200""></p>","","","","","","","","","","","",""
"","61.50500000145985","sequential-stimulus-presentation","253","458932","0.0-47.0-1.5","SS1613138178446","trial","","40","800","861.5050000014598","images/stimuli/spore_stims/simple_05_A_b.gif","images/stimuli/spore_stims/simple_02_A_d.gif","","","","","13","simple_dissimilar","images/stimuli/spore_stims/simple_02_A_d.gif","middle","","","","",""
"","null","html-keyboard-response","254","460021","0.0-47.0-0.6","SS1613138178446","","","null","","","","","<p><img src= images/blank.png width =""200"" height = ""200"" style = ""float:right""></p><p><img src=images/blank.png width =""800"" height = ""200""></p>","","","","","","","","","","","",""
"","6353.624999999767","sequential-stimulus-presentation","255","467179","0.0-47.0-1.6","SS1613138178446","trial","","40","800","7153.624999999767","images/stimuli/spore_stims/simple_05_A_b.gif","images/stimuli/spore_stims/simple_02_A_d.gif","","","","","13","simple_dissimilar","images/stimuli/spore_stims/simple_05_A_b.gif","right","","","","",""
"","null","html-keyboard-response","256","468350","0.0-47.0-0.7","SS1613138178446","","","null","","","","","<p><img src= images/blank.png width =""200"" height = ""200"" style = ""float:right""></p><p><img src=images/blank.png width =""800"" height = ""200""></p>","","","","","","","","","","","",""
"","279.0949999980512","sequential-stimulus-presentation","257","469435","0.0-47.0-1.7","SS1613138178446","trial","","40","800","1079.0949999980512","images/stimuli/spore_stims/simple_05_A_b.gif","images/stimuli/spore_stims/simple_02_A_d.gif","","","","","13","simple_dissimilar","images/stimuli/spore_stims/simple_02_A_d.gif","middle","","","","",""
"","1080.3599999998696","html-keyboard-response","258","470524","0.0-48.0","SS1613138178446","pref_question","","49","","","","","<video width ='960' height = '540' style='padding-top:8%' autoplay muted><source src='images/stimuli/wall_pref.mp4' type='video/mp4'></video>","1","left","25%","13","","","","","","","",""
"","986.0800000024028","sequential-stimulus-presentation","259","472316","0.0-49.0","SS1613138178446","pref_reveal","","40","800","1786.0800000024028","null","null","","","","","13","","","","novel","","","",""
"","null","html-keyboard-response","260","473574","0.0-50.0-0.0","SS1613138178446","","","null","","","","","<p><img src= images/blank.png width =""200"" height = ""200"" style = ""float:right""></p><p><img src=images/blank.png width =""800"" height = ""200""></p>","","","","","","","","","","","",""
"","1782.3349999998463","sequential-stimulus-presentation","261","476163","0.0-50.0-1.0","SS1613138178446","trial","","40","800","2582.3349999998463","images/stimuli/spore_stims/simple_19_B_d.gif","images/stimuli/spore_stims/simple_19_A_d.gif","","","","","14","simple_similar","images/stimuli/spore_stims/simple_19_A_d.gif","right","","","","",""
"","null","html-keyboard-response","262","477461","0.0-50.0-0.1","SS1613138178446","","","null","","","","","<p><img src= images/blank.png width =""200"" height = ""200"" style = ""float:right""></p><p><img src=images/blank.png width =""800"" height = ""200""></p>","","","","","","","","","","","",""
"","202.64999999920838","sequential-stimulus-presentation","263","478469","0.0-50.0-1.1","SS1613138178446","trial","","40","800","1002.6499999992084","images/stimuli/spore_stims/simple_19_B_d.gif","images/stimuli/spore_stims/simple_19_A_d.gif","","","","","14","simple_similar","images/stimuli/spore_stims/simple_19_A_d.gif","right","","","","",""
"","null","html-keyboard-response","264","479594","0.0-50.0-0.2","SS1613138178446","","","null","","","","","<p><img src= images/blank.png width =""200"" height = ""200"" style = ""float:right""></p><p><img src=images/blank.png width =""800"" height = ""200""></p>","","","","","","","","","","","",""
"","211.47000000195112","sequential-stimulus-presentation","265","480611","0.0-50.0-1.2","SS1613138178446","trial","","40","800","1011.4700000019511","images/stimuli/spore_stims/simple_19_B_d.gif","images/stimuli/spore_stims/simple_19_A_d.gif","","","","","14","simple_similar","images/stimuli/spore_stims/simple_19_A_d.gif","right","","","","",""
"","null","html-keyboard-response","266","481418","0.0-50.0-0.3","SS1613138178446","","","null","","","","","<p><img src= images/blank.png width =""200"" height = ""200"" style = ""float:right""></p><p><img src=images/blank.png width =""800"" height = ""200""></p>","","","","","","","","","","","",""
"","194.07499999937136","sequential-stimulus-presentation","267","482419","0.0-50.0-1.3","SS1613138178446","trial","","40","800","994.0749999993714","images/stimuli/spore_stims/simple_19_B_d.gif","images/stimuli/spore_stims/simple_19_A_d.gif","","","","","14","simple_similar","images/stimuli/spore_stims/simple_19_A_d.gif","right","","","","",""
"","null","html-keyboard-response","268","483273","0.0-50.0-0.4","SS1613138178446","","","null","","","","","<p><img src= images/blank.png width =""200"" height = ""200"" style = ""float:right""></p><p><img src=images/blank.png width =""800"" height = ""200""></p>","","","","","","","","","","","",""
"","21.17500000167638","sequential-stimulus-presentation","269","484099","0.0-50.0-1.4","SS1613138178446","trial","","40","800","821.1750000016764","images/stimuli/spore_stims/simple_19_B_d.gif","images/stimuli/spore_stims/simple_19_A_d.gif","","","","","14","simple_similar","images/stimuli/spore_stims/simple_19_A_d.gif","right","","","","",""
"","null","html-keyboard-response","270","485013","0.0-50.0-0.5","SS1613138178446","","","null","","","","","<p><img src= images/blank.png width =""200"" height = ""200"" style = ""float:right""></p><p><img src=images/blank.png width =""800"" height = ""200""></p>","","","","","","","","","","","",""
"","480.2799999997369","sequential-stimulus-presentation","271","486299","0.0-50.0-1.5","SS1613138178446","trial","","40","800","1280.279999999737","images/stimuli/spore_stims/simple_19_B_d.gif","images/stimuli/spore_stims/simple_19_A_d.gif","","","","","14","simple_similar","images/stimuli/spore_stims/simple_19_A_d.gif","right","","","","",""
"","null","html-keyboard-response","272","487310","0.0-50.0-0.6","SS1613138178446","","","null","","","","","<p><img src= images/blank.png width =""200"" height = ""200"" style = ""float:right""></p><p><img src=images/blank.png width =""800"" height = ""200""></p>","","","","","","","","","","","",""
"","3831.9350000019767","sequential-stimulus-presentation","273","491947","0.0-50.0-1.6","SS1613138178446","trial","","40","800","4631.935000001977","images/stimuli/spore_stims/simple_19_B_d.gif","images/stimuli/spore_stims/simple_19_A_d.gif","","","","","14","simple_similar","images/stimuli/spore_stims/simple_19_B_d.gif","middle","","","","",""
"","null","html-keyboard-response","274","493145","0.0-50.0-0.7","SS1613138178446","","","null","","","","","<p><img src= images/blank.png width =""200"" height = ""200"" style = ""float:right""></p><p><img src=images/blank.png width =""800"" height = ""200""></p>","","","","","","","","","","","",""
"","322.94499999989057","sequential-stimulus-presentation","275","494275","0.0-50.0-1.7","SS1613138178446","trial","","40","800","1122.9449999998906","images/stimuli/spore_stims/simple_19_B_d.gif","images/stimuli/spore_stims/simple_19_A_d.gif","","","","","14","simple_similar","images/stimuli/spore_stims/simple_19_A_d.gif","right","","","","",""
"","747.4499999989639","html-keyboard-response","276","495027","0.0-51.0","SS1613138178446","pref_question","","49","","","","","<video width ='960' height = '540' style='padding-top:8%' autoplay muted><source src='images/stimuli/wall_pref.mp4' type='video/mp4'></video>","1","left","25%","14","","","","","","","",""
"","1759.6599999996834","sequential-stimulus-presentation","277","497595","0.0-52.0","SS1613138178446","pref_reveal","","40","800","2559.6599999996834","null","null","","","","","14","","","","novel","","","",""
"","null","html-keyboard-response","278","498776","0.0-53.0-0.0","SS1613138178446","","","null","","","","","<p><img src= images/blank.png width =""200"" height = ""200"" style = ""float:right""></p><p><img src=images/blank.png width =""800"" height = ""200""></p>","","","","","","","","","","","",""
"","4333.705000000889","sequential-stimulus-presentation","279","503917","0.0-53.0-1.0","SS1613138178446","trial","","40","800","5133.705000000889","images/stimuli/spore_stims/simple_17_B_d.gif","images/stimuli/spore_stims/simple_18_B_b.gif","","","","","15","simple_dissimilar","images/stimuli/spore_stims/simple_18_B_b.gif","middle","","","","",""
"","null","html-keyboard-response","280","505134","0.0-53.0-0.1","SS1613138178446","","","null","","","","","<p><img src= images/blank.png width =""200"" height = ""200"" style = ""float:right""></p><p><img src=images/blank.png width =""800"" height = ""200""></p>","","","","","","","","","","","",""
"","927.5000000015716","sequential-stimulus-presentation","281","506868","0.0-53.0-1.1","SS1613138178446","trial","","40","800","1727.5000000015716","images/stimuli/spore_stims/simple_17_B_d.gif","images/stimuli/spore_stims/simple_18_B_b.gif","","","","","15","simple_dissimilar","images/stimuli/spore_stims/simple_18_B_b.gif","middle","","","","",""
"","null","html-keyboard-response","282","507991","0.0-53.0-0.2","SS1613138178446","","","null","","","","","<p><img src= images/blank.png width =""200"" height = ""200"" style = ""float:right""></p><p><img src=images/blank.png width =""800"" height = ""200""></p>","","","","","","","","","","","",""
"","446.3150000011083","sequential-stimulus-presentation","283","509243","0.0-53.0-1.2","SS1613138178446","trial","","40","800","1246.3150000011083","images/stimuli/spore_stims/simple_17_B_d.gif","images/stimuli/spore_stims/simple_18_B_b.gif","","","","","15","simple_dissimilar","images/stimuli/spore_stims/simple_18_B_b.gif","middle","","","","",""
"","null","html-keyboard-response","284","510142","0.0-53.0-0.3","SS1613138178446","","","null","","","","","<p><img src= images/blank.png width =""200"" height = ""200"" style = ""float:right""></p><p><img src=images/blank.png width =""800"" height = ""200""></p>","","","","","","","","","","","",""
"","2391.220000001369","sequential-stimulus-presentation","285","513339","0.0-53.0-1.3","SS1613138178446","trial","","40","800","3191.220000001369","images/stimuli/spore_stims/simple_17_B_d.gif","images/stimuli/spore_stims/simple_18_B_b.gif","","","","","15","simple_dissimilar","images/stimuli/spore_stims/simple_17_B_d.gif","right","","","","",""
"","null","html-keyboard-response","286","514438","0.0-53.0-0.4","SS1613138178446","","","null","","","","","<p><img src= images/blank.png width =""200"" height = ""200"" style = ""float:right""></p><p><img src=images/blank.png width =""800"" height = ""200""></p>","","","","","","","","","","","",""
"","950.6799999980722","sequential-stimulus-presentation","287","516196","0.0-53.0-1.4","SS1613138178446","trial","","40","800","1750.6799999980722","images/stimuli/spore_stims/simple_17_B_d.gif","images/stimuli/spore_stims/simple_18_B_b.gif","","","","","15","simple_dissimilar","images/stimuli/spore_stims/simple_18_B_b.gif","middle","","","","",""
"","null","html-keyboard-response","288","517334","0.0-53.0-0.5","SS1613138178446","","","null","","","","","<p><img src= images/blank.png width =""200"" height = ""200"" style = ""float:right""></p><p><img src=images/blank.png width =""800"" height = ""200""></p>","","","","","","","","","","","",""
"","230.31500000075903","sequential-stimulus-presentation","289","518371","0.0-53.0-1.5","SS1613138178446","trial","","40","800","1030.315000000759","images/stimuli/spore_stims/simple_17_B_d.gif","images/stimuli/spore_stims/simple_18_B_b.gif","","","","","15","simple_dissimilar","images/stimuli/spore_stims/simple_18_B_b.gif","middle","","","","",""
"","null","html-keyboard-response","290","519668","0.0-53.0-0.6","SS1613138178446","","","null","","","","","<p><img src= images/blank.png width =""200"" height = ""200"" style = ""float:right""></p><p><img src=images/blank.png width =""800"" height = ""200""></p>","","","","","","","","","","","",""
"","137.11999999941327","sequential-stimulus-presentation","291","520611","0.0-53.0-1.6","SS1613138178446","trial","","40","800","937.1199999994133","images/stimuli/spore_stims/simple_17_B_d.gif","images/stimuli/spore_stims/simple_18_B_b.gif","","","","","15","simple_dissimilar","images/stimuli/spore_stims/simple_18_B_b.gif","middle","","","","",""
"","null","html-keyboard-response","292","521880","0.0-53.0-0.7","SS1613138178446","","","null","","","","","<p><img src= images/blank.png width =""200"" height = ""200"" style = ""float:right""></p><p><img src=images/blank.png width =""800"" height = ""200""></p>","","","","","","","","","","","",""
"","500.68000000098255","sequential-stimulus-presentation","293","523188","0.0-53.0-1.7","SS1613138178446","trial","","40","800","1300.6800000009825","images/stimuli/spore_stims/simple_17_B_d.gif","images/stimuli/spore_stims/simple_18_B_b.gif","","","","","15","simple_dissimilar","images/stimuli/spore_stims/simple_18_B_b.gif","middle","","","","",""
"","653.870000001858","html-keyboard-response","294","523851","0.0-54.0","SS1613138178446","pref_question","","50","","","","","<video width ='960' height = '540' style='padding-top:8%' autoplay muted><source src='images/stimuli/wall_pref.mp4' type='video/mp4'></video>","2","middle","45%","15","","","","","","","",""
"","3483.5300000013085","sequential-stimulus-presentation","295","528140","0.0-55.0","SS1613138178446","pref_reveal","","40","800","4283.5300000013085","null","null","","","","","15","","","","background","","","",""
"","null","html-keyboard-response","296","529055","0.0-56.0-0.0","SS1613138178446","","","null","","","","","<p><img src= images/blank.png width =""200"" height = ""200"" style = ""float:right""></p><p><img src=images/blank.png width =""800"" height = ""200""></p>","","","","","","","","","","","",""
"","3213.3350000004284","sequential-stimulus-presentation","297","533075","0.0-56.0-1.0","SS1613138178446","trial","","40","800","4013.3350000004284","images/stimuli/spore_stims/complex_19_B_c.gif","images/stimuli/spore_stims/complex_19_A_c.gif","","","","","16","complex_similar","images/stimuli/spore_stims/complex_19_A_c.gif","left","","","","",""
"","null","html-keyboard-response","298","533978","0.0-56.0-0.1","SS1613138178446","","","null","","","","","<p><img src= images/blank.png width =""200"" height = ""200"" style = ""float:right""></p><p><img src=images/blank.png width =""800"" height = ""200""></p>","","","","","","","","","","","",""
"","2514.9450000026263","sequential-stimulus-presentation","299","537300","0.0-56.0-1.1","SS1613138178446","trial","","40","800","3314.9450000026263","images/stimuli/spore_stims/complex_19_B_c.gif","images/stimuli/spore_stims/complex_19_A_c.gif","","","","","16","complex_similar","images/stimuli/spore_stims/complex_19_A_c.gif","left","","","","",""
"","null","html-keyboard-response","300","538238","0.0-56.0-0.2","SS1613138178446","","","null","","","","","<p><img src= images/blank.png width =""200"" height = ""200"" style = ""float:right""></p><p><img src=images/blank.png width =""800"" height = ""200""></p>","","","","","","","","","","","",""
"","3023.7000000015832","sequential-stimulus-presentation","301","542069","0.0-56.0-1.2","SS1613138178446","trial","","40","800","3823.7000000015832","images/stimuli/spore_stims/complex_19_B_c.gif","images/stimuli/spore_stims/complex_19_A_c.gif","","","","","16","complex_similar","images/stimuli/spore_stims/complex_19_B_c.gif","right","","","","",""
"","null","html-keyboard-response","302","543089","0.0-56.0-0.3","SS1613138178446","","","null","","","","","<p><img src= images/blank.png width =""200"" height = ""200"" style = ""float:right""></p><p><img src=images/blank.png width =""800"" height = ""200""></p>","","","","","","","","","","","",""
"","578.770000000135","sequential-stimulus-presentation","303","544475","0.0-56.0-1.3","SS1613138178446","trial","","40","800","1378.770000000135","images/stimuli/spore_stims/complex_19_B_c.gif","images/stimuli/spore_stims/complex_19_A_c.gif","","","","","16","complex_similar","images/stimuli/spore_stims/complex_19_A_c.gif","left","","","","",""
"","null","html-keyboard-response","304","545453","0.0-56.0-0.4","SS1613138178446","","","null","","","","","<p><img src= images/blank.png width =""200"" height = ""200"" style = ""float:right""></p><p><img src=images/blank.png width =""800"" height = ""200""></p>","","","","","","","","","","","",""
"","226.11500000127126","sequential-stimulus-presentation","305","546485","0.0-56.0-1.4","SS1613138178446","trial","","40","800","1026.1150000012713","images/stimuli/spore_stims/complex_19_B_c.gif","images/stimuli/spore_stims/complex_19_A_c.gif","","","","","16","complex_similar","images/stimuli/spore_stims/complex_19_A_c.gif","left","","","","",""
"","null","html-keyboard-response","306","547537","0.0-56.0-0.5","SS1613138178446","","","null","","","","","<p><img src= images/blank.png width =""200"" height = ""200"" style = ""float:right""></p><p><img src=images/blank.png width =""800"" height = ""200""></p>","","","","","","","","","","","",""
"","149.76499999826774","sequential-stimulus-presentation","307","548491","0.0-56.0-1.5","SS1613138178446","trial","","40","800","949.7649999982677","images/stimuli/spore_stims/complex_19_B_c.gif","images/stimuli/spore_stims/complex_19_A_c.gif","","","","","16","complex_similar","images/stimuli/spore_stims/complex_19_A_c.gif","left","","","","",""
"","null","html-keyboard-response","308","549508","0.0-56.0-0.6","SS1613138178446","","","null","","","","","<p><img src= images/blank.png width =""200"" height = ""200"" style = ""float:right""></p><p><img src=images/blank.png width =""800"" height = ""200""></p>","","","","","","","","","","","",""
"","241.9499999996042","sequential-stimulus-presentation","309","550556","0.0-56.0-1.6","SS1613138178446","trial","","40","800","1041.9499999996042","images/stimuli/spore_stims/complex_19_B_c.gif","images/stimuli/spore_stims/complex_19_A_c.gif","","","","","16","complex_similar","images/stimuli/spore_stims/complex_19_A_c.gif","left","","","","",""
"","null","html-keyboard-response","310","551388","0.0-56.0-0.7","SS1613138178446","","","null","","","","","<p><img src= images/blank.png width =""200"" height = ""200"" style = ""float:right""></p><p><img src=images/blank.png width =""800"" height = ""200""></p>","","","","","","","","","","","",""
"","234.1149999992922","sequential-stimulus-presentation","311","552428","0.0-56.0-1.7","SS1613138178446","trial","","40","800","1034.1149999992922","images/stimuli/spore_stims/complex_19_B_c.gif","images/stimuli/spore_stims/complex_19_A_c.gif","","","","","16","complex_similar","images/stimuli/spore_stims/complex_19_A_c.gif","left","","","","",""
